"rt","response_timestamp","stimulus","response","trial_type","trial_index","time_elapsed","internal_node_id","run_id","condition","recorded_at","source_code_version","ip","user_agent","device","browser","browser_version","platform","platform_version","referer","accept_language","PROLIFIC_PID","STUDY_ID","SESSION_ID","BATCH","prolific_id","batch","realtime","success","question_order","question_id","eventType","responses","item_order","radio_event_ids","radio_event_times","key_event_times","mouse_event_times","straightlining","zigzagging","honeypot","view_history","slider_start","which_type","canvas_config","goals_layout","control_level","trial_number","tutorial_trial_number","trial_start_time","phase1_start_time","phase2_start_time","phase3_start_time","goal_1_value","goal_1_distance","goal_2_value","goal_2_distance","goal_selected","outcome","outcome_total","participant_final_score","participant_initial_score","participant_final_score_prop","goal_choice_rt","allocated_time","allocated_time_remaining","goal_direction","counts","mouse_movements","key_presses"
"1430","1754471069822","<p style='font-size:40px;line-height:1.25'><strong>Welcome to the experiment!</strong></p><p style='font-size:1.1em;line-height:1.25'>Thank you for participanting in our experiment again! You will be asked to play the Dysfunctional Ball Game again. We will briefly recap the rules before we start.</p><p style='font-size:1.1em;line-height:1.25'>Press <strong>Next</strong> to continue.</p>","0","custom-html-button-response","0","1433","0.0-0.0","157","1","2025-08-06 09:04:27","36c45c0696341be0efffe67d72a12abb","150.143.112.140","Mozilla/5.0 (Windows NT 10.0; Win64; x64) AppleWebKit/537.36 (KHTML, like Gecko) Chrome/138.0.0.0 Safari/537.36","WebKit","Chrome","138.0.0.0","Windows","10.0","https://app.prolific.com/","en-GB,en-US;q=0.9,en;q=0.8","5537b204fdf99b51eefed679","687a1a965b9f5b85a264363e","68931a86d655adfc14099049","1","5537b204fdf99b51eefed679","1","2025-08-06T09:04:29.823Z","","","","","","","","","","","","","","","","","","","","","","","","","","","","","","","","","","","","","","","","","",""
"22666","","","","fullscreen","1","25105","0.0-1.0","157","1","2025-08-06 09:04:27","36c45c0696341be0efffe67d72a12abb","150.143.112.140","Mozilla/5.0 (Windows NT 10.0; Win64; x64) AppleWebKit/537.36 (KHTML, like Gecko) Chrome/138.0.0.0 Safari/537.36","WebKit","Chrome","138.0.0.0","Windows","10.0","https://app.prolific.com/","en-GB,en-US;q=0.9,en;q=0.8","5537b204fdf99b51eefed679","687a1a965b9f5b85a264363e","68931a86d655adfc14099049","1","5537b204fdf99b51eefed679","1","","true","","","","","","","","","","","","","","","","","","","","","","","","","","","","","","","","","","","","","","","","",""
"1128","1754471094624"," <p style='font-size:1.1em;line-height:1.25'>Thank you for closing all other tabs.</p><p style='font-size:1.1em;line-height:1.25'>We will now invite you to fill in some questionnaires, before starting the game.<br>This will take about 5 minutes.<br></p><p style='font-size:1.1em;line-height:1.25'>Press the <strong>Next</strong> button to continue.</p>","0","custom-html-button-response","2","26235","0.0-2.0","157","1","2025-08-06 09:04:27","36c45c0696341be0efffe67d72a12abb","150.143.112.140","Mozilla/5.0 (Windows NT 10.0; Win64; x64) AppleWebKit/537.36 (KHTML, like Gecko) Chrome/138.0.0.0 Safari/537.36","WebKit","Chrome","138.0.0.0","Windows","10.0","https://app.prolific.com/","en-GB,en-US;q=0.9,en;q=0.8","5537b204fdf99b51eefed679","687a1a965b9f5b85a264363e","68931a86d655adfc14099049","1","5537b204fdf99b51eefed679","1","2025-08-06T09:04:54.625Z","","","","","","","","","","","","","","","","","","","","","","","","","","","","","","","","","","","","","","","","","",""
"1830","","","{""assigned_sex"":""female""}","survey-multi-choice","3","28066","0.0-3.0-0.0","157","1","2025-08-06 09:04:27","36c45c0696341be0efffe67d72a12abb","150.143.112.140","Mozilla/5.0 (Windows NT 10.0; Win64; x64) AppleWebKit/537.36 (KHTML, like Gecko) Chrome/138.0.0.0 Safari/537.36","WebKit","Chrome","138.0.0.0","Windows","10.0","https://app.prolific.com/","en-GB,en-US;q=0.9,en;q=0.8","5537b204fdf99b51eefed679","687a1a965b9f5b85a264363e","68931a86d655adfc14099049","1","5537b204fdf99b51eefed679","1","","","[0]","0","demographics","","","","","","","","","","","","","","","","","","","","","","","","","","","","","","","","","","","","","",""
"2412","1754471098869","<p style='font-size:1.1em;line-height:1.25'>In the following, we will perform a baseline assessment. This means that we will ask you a few questions relating to your experiences over the past month.<br></p><p style='font-size:1.1em;line-height:1.25'>Press the <strong>Next</strong> button to continue.</p>","0","custom-html-button-response","4","30480","0.0-4.0-0.0","157","1","2025-08-06 09:04:27","36c45c0696341be0efffe67d72a12abb","150.143.112.140","Mozilla/5.0 (Windows NT 10.0; Win64; x64) AppleWebKit/537.36 (KHTML, like Gecko) Chrome/138.0.0.0 Safari/537.36","WebKit","Chrome","138.0.0.0","Windows","10.0","https://app.prolific.com/","en-GB,en-US;q=0.9,en;q=0.8","5537b204fdf99b51eefed679","687a1a965b9f5b85a264363e","68931a86d655adfc14099049","1","5537b204fdf99b51eefed679","1","2025-08-06T09:04:58.870Z","","","","","","","","","","","","","","","","","","","","","","","","","","","","","","","","","","","","","","","","","",""
"18389.100000000093","","","","survey-template","5","48872","0.0-4.0-1.0","157","1","2025-08-06 09:04:27","36c45c0696341be0efffe67d72a12abb","150.143.112.140","Mozilla/5.0 (Windows NT 10.0; Win64; x64) AppleWebKit/537.36 (KHTML, like Gecko) Chrome/138.0.0.0 Safari/537.36","WebKit","Chrome","138.0.0.0","Windows","10.0","https://app.prolific.com/","en-GB,en-US;q=0.9,en;q=0.8","5537b204fdf99b51eefed679","687a1a965b9f5b85a264363e","68931a86d655adfc14099049","1","5537b204fdf99b51eefed679","1","2025-08-06T09:05:17.262Z","","","","pss","{""Q01"":""1"",""Q02"":""2"",""Q03"":""3"",""Q04"":""2"",""Q05"":""2"",""Q06"":""2"",""Q07"":""2"",""Q08"":""2"",""Q09"":""2"",""Q10"":""2""}","[0,1,2,3,4,5,6,7,8,9]","[""Q01"",""Q02"",""Q03"",""Q04"",""Q05"",""Q06"",""Q07"",""Q08"",""Q09"",""Q10""]","[3664.8000000002794,5302.600000000093,6175.300000000279,7800.200000000186,10044.30000000028,11126.200000000186,12650.400000000373,13615,16156.30000000028,17754.30000000028]","[]","[1.400000000372529,3664.8000000002794,5302.600000000093,6175.300000000279,7800.200000000186,10044.30000000028,11126.200000000186,12650.400000000373,13615,16156.30000000028,17754.30000000028,18387]","0.8","0.3333333333333333","0","","","","","","","","","","","","","","","","","","","","","","","","","","","","",""
"1489","1754471118752","<p style='font-size:1.1em;line-height:1.25'>Thank you for your answers! Now we will ask you a few more questions relating to your feelings in the last 24 hours.<br></p><p style='font-size:1.1em;line-height:1.25'>Press the <strong>Next</strong> button to continue.</p>","0","custom-html-button-response","6","50362","0.0-4.0-2.0","157","1","2025-08-06 09:04:27","36c45c0696341be0efffe67d72a12abb","150.143.112.140","Mozilla/5.0 (Windows NT 10.0; Win64; x64) AppleWebKit/537.36 (KHTML, like Gecko) Chrome/138.0.0.0 Safari/537.36","WebKit","Chrome","138.0.0.0","Windows","10.0","https://app.prolific.com/","en-GB,en-US;q=0.9,en;q=0.8","5537b204fdf99b51eefed679","687a1a965b9f5b85a264363e","68931a86d655adfc14099049","1","5537b204fdf99b51eefed679","1","2025-08-06T09:05:18.752Z","","","","","","","","","","","","","","","","","","","","","","","","","","","","","","","","","","","","","","","","","",""
"34705.299999999814","","","","survey-template","7","85071","0.0-4.0-3.0","157","1","2025-08-06 09:04:27","36c45c0696341be0efffe67d72a12abb","150.143.112.140","Mozilla/5.0 (Windows NT 10.0; Win64; x64) AppleWebKit/537.36 (KHTML, like Gecko) Chrome/138.0.0.0 Safari/537.36","WebKit","Chrome","138.0.0.0","Windows","10.0","https://app.prolific.com/","en-GB,en-US;q=0.9,en;q=0.8","5537b204fdf99b51eefed679","687a1a965b9f5b85a264363e","68931a86d655adfc14099049","1","5537b204fdf99b51eefed679","1","2025-08-06T09:05:53.461Z","","","","drsp","{""Q01"":""0"",""Q02"":""0"",""Q03"":""0"",""Q04"":""2"",""Q05"":""0"",""Q06"":""0"",""Q07"":""0"",""Q08"":""0"",""Q09"":""0"",""Q10"":""0"",""Q11"":""2"",""Q12"":""0"",""Q13"":""5"",""Q14"":""1"",""Q15"":""2"",""Q16"":""2"",""Q17"":""1"",""Q18"":""0"",""Q19"":""0"",""Q20"":""0"",""Q21"":""0"",""Q22"":""0""}","[0,1,2,3,4,5,6,7,8,9,10,11,12,13,14,15,16,17,18,19,20,21]","[""Q01"",""Q03"",""Q02"",""Q04"",""Q05"",""Q06"",""Q07"",""Q08"",""Q09"",""Q10"",""Q11"",""Q12"",""Q13"",""Q14"",""Q15"",""Q16"",""Q16"",""Q17"",""Q18"",""Q19"",""Q20"",""Q22"",""Q21""]","[3863.5,6323.5,6802.0999999996275,8598.399999999907,9609.69999999972,10498.599999999627,11095.69999999972,11720.099999999627,12425.399999999907,13150.19999999972,15619.399999999907,17087.69999999972,18076.099999999627,19377.399999999907,22624.099999999627,23807.299999999814,24945.399999999907,26985.599999999627,28207.299999999814,28964.19999999972,29715,33094,33875.39999999991]","[]","[2.1999999997206032,3863.5,4403.899999999907,5047.299999999814,5826,6323.5,6802.0999999996275,8598.399999999907,9609.69999999972,10498.599999999627,11095.69999999972,11720.099999999627,12425.399999999907,13150.19999999972,15619.399999999907,17087.69999999972,18076.099999999627,19377.399999999907,21681.899999999907,22298.399999999907,22624.099999999627,23807.299999999814,24618.599999999627,24945.399999999907,26985.599999999627,28207.299999999814,28964.19999999972,29715,32500.099999999627,33094,33875.39999999991,34702.09999999963]","0.6818181818181818","0.19047619047619047","0","","","","","","","","","","","","","","","","","","","","","","","","","","","","",""
"9034.399999999907","","","","survey-template","8","94108","0.0-4.0-4.0","157","1","2025-08-06 09:04:27","36c45c0696341be0efffe67d72a12abb","150.143.112.140","Mozilla/5.0 (Windows NT 10.0; Win64; x64) AppleWebKit/537.36 (KHTML, like Gecko) Chrome/138.0.0.0 Safari/537.36","WebKit","Chrome","138.0.0.0","Windows","10.0","https://app.prolific.com/","en-GB,en-US;q=0.9,en;q=0.8","5537b204fdf99b51eefed679","687a1a965b9f5b85a264363e","68931a86d655adfc14099049","1","5537b204fdf99b51eefed679","1","2025-08-06T09:06:02.498Z","","","","stress","{""Q01"":""2"",""Q02"":""3"",""Q03"":""1""}","[0,1,2]","[""Q01"",""Q03"",""Q02""]","[3412.7000000001863,7735.5,8292.799999999814]","[]","[3412.7000000001863,7132.600000000093,7735.5,8292.799999999814,9033.700000000186]","0.6666666666666666","0.5","0","","","","","","","","","","","","","","","","","","","","","","","","","","","","",""
"37805","","","","instructions","9","131914","0.0-5.0-0.0","157","1","2025-08-06 09:04:27","36c45c0696341be0efffe67d72a12abb","150.143.112.140","Mozilla/5.0 (Windows NT 10.0; Win64; x64) AppleWebKit/537.36 (KHTML, like Gecko) Chrome/138.0.0.0 Safari/537.36","WebKit","Chrome","138.0.0.0","Windows","10.0","https://app.prolific.com/","en-GB,en-US;q=0.9,en;q=0.8","5537b204fdf99b51eefed679","687a1a965b9f5b85a264363e","68931a86d655adfc14099049","1","5537b204fdf99b51eefed679","1","","","","","","","","","","","","","","","[{""page_index"":0,""viewing_time"":37805}]","","","","","","","","","","","","","","","","","","","","","","","","","","","",""
"4043","","<p>Before you start with this game please answer the following three questions yourself. </p>
  <p>Through this game, we measure several aspects of your cognitive performance, such as reaction times, multi-tasking capabilities </p>
  <p>and the ability to assess the situation you are in.</p>
  <p></p>
  <p><b>How good do you usually are in such tasks?</b></p>","60","html-slider-response","10","135958","0.0-6.0-0.0","157","1","2025-08-06 09:04:27","36c45c0696341be0efffe67d72a12abb","150.143.112.140","Mozilla/5.0 (Windows NT 10.0; Win64; x64) AppleWebKit/537.36 (KHTML, like Gecko) Chrome/138.0.0.0 Safari/537.36","WebKit","Chrome","138.0.0.0","Windows","10.0","https://app.prolific.com/","en-GB,en-US;q=0.9,en;q=0.8","5537b204fdf99b51eefed679","687a1a965b9f5b85a264363e","68931a86d655adfc14099049","1","5537b204fdf99b51eefed679","1","2025-08-06T09:06:44.348Z","","","","PreSkillQ","","","","","","","","","","","50","","","","","","","","","","","","","","","","","","","","","","","","","","",""
"3287","","<div style=""width:500px;"">
  <p>How well do you think you will perform in this task compared to other participants?</p>
  </div>","50","html-slider-response","11","139246","0.0-6.0-1.0","157","1","2025-08-06 09:04:27","36c45c0696341be0efffe67d72a12abb","150.143.112.140","Mozilla/5.0 (Windows NT 10.0; Win64; x64) AppleWebKit/537.36 (KHTML, like Gecko) Chrome/138.0.0.0 Safari/537.36","WebKit","Chrome","138.0.0.0","Windows","10.0","https://app.prolific.com/","en-GB,en-US;q=0.9,en;q=0.8","5537b204fdf99b51eefed679","687a1a965b9f5b85a264363e","68931a86d655adfc14099049","1","5537b204fdf99b51eefed679","1","2025-08-06T09:06:47.636Z","","","","PrePerfQ","","","","","","","","","","","50","","","","","","","","","","","","","","","","","","","","","","","","","","",""
"2000","","<div style=""width:500px;"">
  <p>What best describes how you currently feel?</p>
  </div>","62","html-slider-response","12","141247","0.0-6.0-2.0","157","1","2025-08-06 09:04:27","36c45c0696341be0efffe67d72a12abb","150.143.112.140","Mozilla/5.0 (Windows NT 10.0; Win64; x64) AppleWebKit/537.36 (KHTML, like Gecko) Chrome/138.0.0.0 Safari/537.36","WebKit","Chrome","138.0.0.0","Windows","10.0","https://app.prolific.com/","en-GB,en-US;q=0.9,en;q=0.8","5537b204fdf99b51eefed679","687a1a965b9f5b85a264363e","68931a86d655adfc14099049","1","5537b204fdf99b51eefed679","1","2025-08-06T09:06:49.637Z","","","","PreMotivationQ","","","","","","","","","","","50","","","","","","","","","","","","","","","","","","","","","","","","","","",""
"","","","","ctl-task-cpt","13","164204","0.0-7.0-0.0","157","1","2025-08-06 09:04:27","36c45c0696341be0efffe67d72a12abb","150.143.112.140","Mozilla/5.0 (Windows NT 10.0; Win64; x64) AppleWebKit/537.36 (KHTML, like Gecko) Chrome/138.0.0.0 Safari/537.36","WebKit","Chrome","138.0.0.0","Windows","10.0","https://app.prolific.com/","en-GB,en-US;q=0.9,en;q=0.8","5537b204fdf99b51eefed679","687a1a965b9f5b85a264363e","68931a86d655adfc14099049","1","5537b204fdf99b51eefed679","1","2025-08-06T09:07:12.594Z","","","","","","","","","","","","","","","","win-only","3","g1:SW,g2:NE","1","1","0","142849.8","1423.1","6427","19942.3","1","4","8","6","1","1","1","1","0","0.007575757575757576","2295.8","3000","1490","[""down"",""left""]","{""num_key_presses"":4,""num_perfect"":4,""num_errors"":0,""num_randdir"":0,""num_randdir_good_moves"":0,""num_whilered"":0,""num_whileblue"":0,""num_blue"":1,""num_good_moves"":4}","[419.0714133126395,410.32142761775424,0.1,419.0714133126395,410.32142761775424,103.1,419.0714133126395,410.32142761775424,203.8,419.0714133126395,410.32142761775424,309,419.0714133126395,410.32142761775424,412.5,419.0714133126395,410.32142761775424,517.4,419.0714133126395,410.32142761775424,617.4,419.0714133126395,410.32142761775424,717.6,436.5714133126395,377.82142761775424,817.8,441.5714133126395,371.57142761775424,923.1,381.5714133126395,407.82142761775424,1023.1,247.8214133126395,512.8214276177542,1123.2,195.3214133126395,592.8214276177542,1228,182.8214133126395,617.8214276177542,1333.1,194.0714133126395,614.0714276177542,1437.5,190.3214133126395,616.5714276177542,1537.7,147.8214133126395,666.5714276177542,1638.9,111.5714133126395,720.3214276177542,1743.6,101.5714133126395,732.8214276177542,1847.3,117.8214133126395,711.5714276177542,1949.1,130.3214133126395,695.3214276177542,2052.3,106.5714133126395,716.5714276177542,2152.4,89.0714133126395,737.8214276177542,2252.7,85.3214133126395,745.3214276177542,2357.5,85.3214133126395,745.3214276177542,2457.5,85.3214133126395,745.3214276177542,2557.8,171.5714133126395,746.5714276177542,2662.5,277.8214133126395,742.8214276177542,2762.6,277.8214133126395,742.8214276177542,2862.6,277.8214133126395,741.5714276177542,2962.7,277.8214133126395,741.5714276177542,3064.7,277.8214133126395,741.5714276177542,3167.4,277.8214133126395,741.5714276177542,3268.2,277.8214133126395,741.5714276177542,3373.3,277.8214133126395,741.5714276177542,3473.8,277.8214133126395,741.5714276177542,3578.8,277.8214133126395,741.5714276177542,3682.2,277.8214133126395,741.5714276177542,3783.7,277.8214133126395,741.5714276177542,3888,277.8214133126395,741.5714276177542,3988.2,277.8214133126395,741.5714276177542,4093.9,277.8214133126395,741.5714276177542,4197.2,277.8214133126395,741.5714276177542,4298.1,277.8214133126395,741.5714276177542,4402.9,277.8214133126395,741.5714276177542,4507.5,277.8214133126395,741.5714276177542,4607.6,277.8214133126395,741.5714276177542,4707.6,277.8214133126395,741.5714276177542,4813.8,277.8214133126395,741.5714276177542,4918.3]","[1402.2,1402.2,1000,0,402.2,""smooth"",""down"",""down"",""good_move"",4161.6,2759.1,2345.1,1402.6,413.9,""smooth"",""down"",""down"",""good_move"",10876.9,6715.2,2429.8,8048.4,398.7,""smooth"",""left"",""left"",""good_move"",13423.2,2546.1,2206.6,10877.1,339.5,""smooth"",""left"",""left"",""good_move""]"
"4075","","<div style=""width:500px;"">
  <p>What determined the result of this run?</p>
  </div>","39","html-slider-response","14","168280","0.0-7.0-1.0","157","1","2025-08-06 09:04:27","36c45c0696341be0efffe67d72a12abb","150.143.112.140","Mozilla/5.0 (Windows NT 10.0; Win64; x64) AppleWebKit/537.36 (KHTML, like Gecko) Chrome/138.0.0.0 Safari/537.36","WebKit","Chrome","138.0.0.0","Windows","10.0","https://app.prolific.com/","en-GB,en-US;q=0.9,en;q=0.8","5537b204fdf99b51eefed679","687a1a965b9f5b85a264363e","68931a86d655adfc14099049","1","5537b204fdf99b51eefed679","1","2025-08-06T09:07:16.670Z","","","","AttribQ","","","","","","","","","","","50","","","","","","","","","","","","","","","","","","","","","","","","","","",""
"2078","","<div style=""width:500px;"">
  <p>How much control did you have over the ball?</p>
  </div>","57","html-slider-response","15","170359","0.0-7.0-2.0","157","1","2025-08-06 09:04:27","36c45c0696341be0efffe67d72a12abb","150.143.112.140","Mozilla/5.0 (Windows NT 10.0; Win64; x64) AppleWebKit/537.36 (KHTML, like Gecko) Chrome/138.0.0.0 Safari/537.36","WebKit","Chrome","138.0.0.0","Windows","10.0","https://app.prolific.com/","en-GB,en-US;q=0.9,en;q=0.8","5537b204fdf99b51eefed679","687a1a965b9f5b85a264363e","68931a86d655adfc14099049","1","5537b204fdf99b51eefed679","1","2025-08-06T09:07:18.749Z","","","","ControlQ","","","","","","","","","","","50","","","","","","","","","","","","","","","","","","","","","","","","","","",""
"2495","","<div style=""width:500px;"">
  <p>How would you describe your current emotional state?</p>
  </div>","32","html-slider-response","16","172855","0.0-7.0-3.0","157","1","2025-08-06 09:04:27","36c45c0696341be0efffe67d72a12abb","150.143.112.140","Mozilla/5.0 (Windows NT 10.0; Win64; x64) AppleWebKit/537.36 (KHTML, like Gecko) Chrome/138.0.0.0 Safari/537.36","WebKit","Chrome","138.0.0.0","Windows","10.0","https://app.prolific.com/","en-GB,en-US;q=0.9,en;q=0.8","5537b204fdf99b51eefed679","687a1a965b9f5b85a264363e","68931a86d655adfc14099049","1","5537b204fdf99b51eefed679","1","2025-08-06T09:07:21.245Z","","","","StressQ","","","","","","","","","","","50","","","","","","","","","","","","","","","","","","","","","","","","","","",""
"1793","","<div style=""width:500px;"">
  <p>What best describes how you currently feel?</p>
  </div>","58","html-slider-response","17","174648","0.0-7.0-4.0","157","1","2025-08-06 09:04:27","36c45c0696341be0efffe67d72a12abb","150.143.112.140","Mozilla/5.0 (Windows NT 10.0; Win64; x64) AppleWebKit/537.36 (KHTML, like Gecko) Chrome/138.0.0.0 Safari/537.36","WebKit","Chrome","138.0.0.0","Windows","10.0","https://app.prolific.com/","en-GB,en-US;q=0.9,en;q=0.8","5537b204fdf99b51eefed679","687a1a965b9f5b85a264363e","68931a86d655adfc14099049","1","5537b204fdf99b51eefed679","1","2025-08-06T09:07:23.038Z","","","","MotivationQ","","","","","","","","","","","50","","","","","","","","","","","","","","","","","","","","","","","","","","",""
"","","","","ctl-task-cpt","18","204406","0.0-7.0-0.1","157","1","2025-08-06 09:04:27","36c45c0696341be0efffe67d72a12abb","150.143.112.140","Mozilla/5.0 (Windows NT 10.0; Win64; x64) AppleWebKit/537.36 (KHTML, like Gecko) Chrome/138.0.0.0 Safari/537.36","WebKit","Chrome","138.0.0.0","Windows","10.0","https://app.prolific.com/","en-GB,en-US;q=0.9,en;q=0.8","5537b204fdf99b51eefed679","687a1a965b9f5b85a264363e","68931a86d655adfc14099049","1","5537b204fdf99b51eefed679","1","2025-08-06T09:07:52.796Z","","","","","","","","","","","","","","","","win-only","2","g1:SE,g2:NW","0.9","2","0","176250.5","998.7","6000.7","26750.6","1","4","4","6","2","4","4","5","1","0.03787878787878788","1901.9","3000","775","[""left"",""up""]","{""num_key_presses"":6,""num_perfect"":6,""num_errors"":0,""num_randdir"":0,""num_randdir_good_moves"":0,""num_whilered"":0,""num_whileblue"":0,""num_blue"":1,""num_good_moves"":6}","[420.3214133126395,412.82142761775424,0.1,420.3214133126395,412.82142761775424,101.9,420.3214133126395,412.82142761775424,207,420.3214133126395,412.82142761775424,307.6,420.3214133126395,412.82142761775424,411.9,420.3214133126395,412.82142761775424,516.6,420.3214133126395,415.32142761775424,617.2,420.3214133126395,415.32142761775424,722.2,420.3214133126395,415.32142761775424,826.6,420.3214133126395,415.32142761775424,927.4,420.3214133126395,415.32142761775424,1027.5,420.3214133126395,415.32142761775424,1132.4,420.3214133126395,415.32142761775424,1237,420.3214133126395,415.32142761775424,1341.9,420.3214133126395,415.32142761775424,1446.7,362.8214133126395,389.07142761775424,1547,196.5714133126395,261.57142761775424,1652,44.07141331263951,32.82142761775425,1752.5,44.07141331263951,32.82142761775425,1857.3,44.07141331263951,30.321427617754253,1961.9,44.07141331263951,31.571427617754253,2061.9,44.07141331263951,31.571427617754253,2167.2,69.0714133126395,82.82142761775425,2268.1,136.5714133126395,174.07142761775424,2372.6,151.5714133126395,190.32142761775424,2477.1,162.8214133126395,211.57142761775424,2577.1,166.5714133126395,217.82142761775424,2677.1,195.3214133126395,266.57142761775424,2782.5,237.8214133126395,325.32142761775424,2887.2,326.5714133126395,396.57142761775424,2993.3,380.3214133126395,424.07142761775424,3096.7,380.3214133126395,424.07142761775424,3196.9,401.5714133126395,397.82142761775424,3296.9,391.5714133126395,395.32142761775424,3401.6,391.5714133126395,395.32142761775424,3502.1,486.5714133126395,395.32142761775424,3606.7,547.8214133126395,395.32142761775424,3707.1,547.8214133126395,395.32142761775424,3807.1,547.8214133126395,394.07142761775424,3907.2,547.8214133126395,394.07142761775424,4007.2,547.8214133126395,394.07142761775424,4108,547.8214133126395,394.07142761775424,4211.9,547.8214133126395,394.07142761775424,4312.3,547.8214133126395,394.07142761775424,4416.8,547.8214133126395,394.07142761775424,4517.2,547.8214133126395,394.07142761775424,4617.4,547.8214133126395,394.07142761775424,4722.5,547.8214133126395,394.07142761775424,4827,547.8214133126395,394.07142761775424,4927.3]","[1343.8,1343.8,1000,0,343.8,""smooth"",""left"",""left"",""good_move"",7903,6559,2465.3,5084.5,353.2,""smooth"",""left"",""left"",""good_move"",10551.9,2648.8,2263.2,7903.1,385.6,""smooth"",""left"",""left"",""good_move"",14182,3629.8,3218.1,10552.2,411.7,""smooth"",""up"",""up"",""good_move"",17308.4,3126.1,2784.6,14182.3,341.5,""smooth"",""up"",""up"",""good_move"",20663.5,3354.9,2921.9,17308.6,433,""smooth"",""up"",""up"",""good_move""]"
"3076","","<div style=""width:500px;"">
  <p>What determined the result of this run?</p>
  </div>","36","html-slider-response","19","207483","0.0-7.0-1.1","157","1","2025-08-06 09:04:27","36c45c0696341be0efffe67d72a12abb","150.143.112.140","Mozilla/5.0 (Windows NT 10.0; Win64; x64) AppleWebKit/537.36 (KHTML, like Gecko) Chrome/138.0.0.0 Safari/537.36","WebKit","Chrome","138.0.0.0","Windows","10.0","https://app.prolific.com/","en-GB,en-US;q=0.9,en;q=0.8","5537b204fdf99b51eefed679","687a1a965b9f5b85a264363e","68931a86d655adfc14099049","1","5537b204fdf99b51eefed679","1","2025-08-06T09:07:55.873Z","","","","AttribQ","","","","","","","","","","","50","","","","","","","","","","","","","","","","","","","","","","","","","","",""
"2568","","<div style=""width:500px;"">
  <p>How much control did you have over the ball?</p>
  </div>","61","html-slider-response","20","210052","0.0-7.0-2.1","157","1","2025-08-06 09:04:27","36c45c0696341be0efffe67d72a12abb","150.143.112.140","Mozilla/5.0 (Windows NT 10.0; Win64; x64) AppleWebKit/537.36 (KHTML, like Gecko) Chrome/138.0.0.0 Safari/537.36","WebKit","Chrome","138.0.0.0","Windows","10.0","https://app.prolific.com/","en-GB,en-US;q=0.9,en;q=0.8","5537b204fdf99b51eefed679","687a1a965b9f5b85a264363e","68931a86d655adfc14099049","1","5537b204fdf99b51eefed679","1","2025-08-06T09:07:58.443Z","","","","ControlQ","","","","","","","","","","","50","","","","","","","","","","","","","","","","","","","","","","","","","","",""
"1968","","<div style=""width:500px;"">
  <p>How would you describe your current emotional state?</p>
  </div>","32","html-slider-response","21","212023","0.0-7.0-3.1","157","1","2025-08-06 09:04:27","36c45c0696341be0efffe67d72a12abb","150.143.112.140","Mozilla/5.0 (Windows NT 10.0; Win64; x64) AppleWebKit/537.36 (KHTML, like Gecko) Chrome/138.0.0.0 Safari/537.36","WebKit","Chrome","138.0.0.0","Windows","10.0","https://app.prolific.com/","en-GB,en-US;q=0.9,en;q=0.8","5537b204fdf99b51eefed679","687a1a965b9f5b85a264363e","68931a86d655adfc14099049","1","5537b204fdf99b51eefed679","1","2025-08-06T09:08:00.413Z","","","","StressQ","","","","","","","","","","","50","","","","","","","","","","","","","","","","","","","","","","","","","","",""
"1769","","<div style=""width:500px;"">
  <p>What best describes how you currently feel?</p>
  </div>","68","html-slider-response","22","213793","0.0-7.0-4.1","157","1","2025-08-06 09:04:27","36c45c0696341be0efffe67d72a12abb","150.143.112.140","Mozilla/5.0 (Windows NT 10.0; Win64; x64) AppleWebKit/537.36 (KHTML, like Gecko) Chrome/138.0.0.0 Safari/537.36","WebKit","Chrome","138.0.0.0","Windows","10.0","https://app.prolific.com/","en-GB,en-US;q=0.9,en;q=0.8","5537b204fdf99b51eefed679","687a1a965b9f5b85a264363e","68931a86d655adfc14099049","1","5537b204fdf99b51eefed679","1","2025-08-06T09:08:02.183Z","","","","MotivationQ","","","","","","","","","","","50","","","","","","","","","","","","","","","","","","","","","","","","","","",""
"","","","","ctl-task-cpt","23","247521","0.0-7.0-0.2","157","1","2025-08-06 09:04:27","36c45c0696341be0efffe67d72a12abb","150.143.112.140","Mozilla/5.0 (Windows NT 10.0; Win64; x64) AppleWebKit/537.36 (KHTML, like Gecko) Chrome/138.0.0.0 Safari/537.36","WebKit","Chrome","138.0.0.0","Windows","10.0","https://app.prolific.com/","en-GB,en-US;q=0.9,en;q=0.8","5537b204fdf99b51eefed679","687a1a965b9f5b85a264363e","68931a86d655adfc14099049","1","5537b204fdf99b51eefed679","1","2025-08-06T09:08:35.911Z","","","","","","","","","","","","","","","","win-only","0","g1:NW,g2:SE","0.8","3","0","215395.6","989.6","5990.9","30715.4","1","4","4","6","2","4","4","9","5","0.06818181818181818","943.9","3000","435","[""down"",""right""]","{""num_key_presses"":8,""num_perfect"":7,""num_errors"":0,""num_randdir"":1,""num_randdir_good_moves"":0,""num_whilered"":0,""num_whileblue"":0,""num_blue"":1,""num_good_moves"":7}","[416.5714133126395,419.07142761775424,0.1,416.5714133126395,419.07142761775424,100.8,416.5714133126395,419.07142761775424,201.2,416.5714133126395,419.07142761775424,301.3,416.5714133126395,419.07142761775424,401.4,416.5714133126395,419.07142761775424,506.2,531.5714133126395,567.8214276177542,610.7,631.5714133126395,665.3214276177542,711.6,699.0714133126395,716.5714276177542,816.3,765.3214133126395,776.5714276177542,917.5,772.8214133126395,781.5714276177542,1020.9,772.8214133126395,781.5714276177542,1121.3,772.8214133126395,781.5714276177542,1221.5,772.8214133126395,781.5714276177542,1326,772.8214133126395,781.5714276177542,1426.1,772.8214133126395,781.5714276177542,1527.6,772.8214133126395,781.5714276177542,1630.9,770.3214133126395,776.5714276177542,1730.9,756.5714133126395,741.5714276177542,1831,752.8214133126395,716.5714276177542,1935.7,769.0714133126395,660.3214276177542,2035.8,841.5714133126395,600.3214276177542,2136.1,871.5714133126395,584.0714276177542,2236.1,871.5714133126395,582.8214276177542,2336.2,871.5714133126395,582.8214276177542,2436.2,871.5714133126395,582.8214276177542,2541,871.5714133126395,582.8214276177542,2645.9,871.5714133126395,582.8214276177542,2746.1,871.5714133126395,582.8214276177542,2847.4,871.5714133126395,582.8214276177542,2951.4,871.5714133126395,582.8214276177542,3056,866.5714133126395,591.5714276177542,3156.7,864.0714133126395,609.0714276177542,3261.3,860.3214133126395,631.5714276177542,3366.1,856.5714133126395,631.5714276177542,3471,881.5714133126395,612.8214276177542,3571.2,881.5714133126395,606.5714276177542,3671.6,881.5714133126395,606.5714276177542,3776.6,881.5714133126395,606.5714276177542,3881.6,881.5714133126395,606.5714276177542,3981.8,881.5714133126395,606.5714276177542,4085.7,881.5714133126395,606.5714276177542,4187.3,881.5714133126395,606.5714276177542,4291.1,881.5714133126395,606.5714276177542,4396.5,881.5714133126395,606.5714276177542,4502.1,881.5714133126395,606.5714276177542,4606.6,881.5714133126395,606.5714276177542,4706.6,881.5714133126395,606.5714276177542,4812.1,881.5714133126395,606.5714276177542,4912.4]","[1375.4,1375.5,1000,0,375.5,""smooth"",""down"",""down"",""good_move"",4333.7,2958.1,2630,1375.7,328.1,""smooth"",""down"",""down"",""good_move"",7361.4,3027.4,2677.9,4334,349.5,""oops"",""down"",""up"",""bad_move"",9690.6,2328.7,1947.2,7361.9,381.5,""smooth"",""down"",""down"",""good_move"",13163.8,3472.9,3182,9690.9,290.9,""smooth"",""down"",""down"",""good_move"",15921.5,2757.5,2423.3,13164,334.2,""smooth"",""right"",""right"",""good_move"",18639,2717.2,2378,15921.9,339.1,""smooth"",""right"",""right"",""good_move"",24624.7,5985.5,2264.6,22000.1,360,""smooth"",""right"",""right"",""good_move""]"
"2981","","<div style=""width:500px;"">
  <p>What determined the result of this run?</p>
  </div>","39","html-slider-response","24","250502","0.0-7.0-1.2","157","1","2025-08-06 09:04:27","36c45c0696341be0efffe67d72a12abb","150.143.112.140","Mozilla/5.0 (Windows NT 10.0; Win64; x64) AppleWebKit/537.36 (KHTML, like Gecko) Chrome/138.0.0.0 Safari/537.36","WebKit","Chrome","138.0.0.0","Windows","10.0","https://app.prolific.com/","en-GB,en-US;q=0.9,en;q=0.8","5537b204fdf99b51eefed679","687a1a965b9f5b85a264363e","68931a86d655adfc14099049","1","5537b204fdf99b51eefed679","1","2025-08-06T09:08:38.893Z","","","","AttribQ","","","","","","","","","","","50","","","","","","","","","","","","","","","","","","","","","","","","","","",""
"2514","","<div style=""width:500px;"">
  <p>How much control did you have over the ball?</p>
  </div>","41","html-slider-response","25","253018","0.0-7.0-2.2","157","1","2025-08-06 09:04:27","36c45c0696341be0efffe67d72a12abb","150.143.112.140","Mozilla/5.0 (Windows NT 10.0; Win64; x64) AppleWebKit/537.36 (KHTML, like Gecko) Chrome/138.0.0.0 Safari/537.36","WebKit","Chrome","138.0.0.0","Windows","10.0","https://app.prolific.com/","en-GB,en-US;q=0.9,en;q=0.8","5537b204fdf99b51eefed679","687a1a965b9f5b85a264363e","68931a86d655adfc14099049","1","5537b204fdf99b51eefed679","1","2025-08-06T09:08:41.408Z","","","","ControlQ","","","","","","","","","","","50","","","","","","","","","","","","","","","","","","","","","","","","","","",""
"1566","","<div style=""width:500px;"">
  <p>How would you describe your current emotional state?</p>
  </div>","29","html-slider-response","26","254585","0.0-7.0-3.2","157","1","2025-08-06 09:04:27","36c45c0696341be0efffe67d72a12abb","150.143.112.140","Mozilla/5.0 (Windows NT 10.0; Win64; x64) AppleWebKit/537.36 (KHTML, like Gecko) Chrome/138.0.0.0 Safari/537.36","WebKit","Chrome","138.0.0.0","Windows","10.0","https://app.prolific.com/","en-GB,en-US;q=0.9,en;q=0.8","5537b204fdf99b51eefed679","687a1a965b9f5b85a264363e","68931a86d655adfc14099049","1","5537b204fdf99b51eefed679","1","2025-08-06T09:08:42.975Z","","","","StressQ","","","","","","","","","","","50","","","","","","","","","","","","","","","","","","","","","","","","","","",""
"1036","","<div style=""width:500px;"">
  <p>What best describes how you currently feel?</p>
  </div>","71","html-slider-response","27","255622","0.0-7.0-4.2","157","1","2025-08-06 09:04:27","36c45c0696341be0efffe67d72a12abb","150.143.112.140","Mozilla/5.0 (Windows NT 10.0; Win64; x64) AppleWebKit/537.36 (KHTML, like Gecko) Chrome/138.0.0.0 Safari/537.36","WebKit","Chrome","138.0.0.0","Windows","10.0","https://app.prolific.com/","en-GB,en-US;q=0.9,en;q=0.8","5537b204fdf99b51eefed679","687a1a965b9f5b85a264363e","68931a86d655adfc14099049","1","5537b204fdf99b51eefed679","1","2025-08-06T09:08:44.012Z","","","","MotivationQ","","","","","","","","","","","50","","","","","","","","","","","","","","","","","","","","","","","","","","",""
"","","","","ctl-task-cpt","28","283950","0.0-7.0-0.3","157","1","2025-08-06 09:04:27","36c45c0696341be0efffe67d72a12abb","150.143.112.140","Mozilla/5.0 (Windows NT 10.0; Win64; x64) AppleWebKit/537.36 (KHTML, like Gecko) Chrome/138.0.0.0 Safari/537.36","WebKit","Chrome","138.0.0.0","Windows","10.0","https://app.prolific.com/","en-GB,en-US;q=0.9,en;q=0.8","5537b204fdf99b51eefed679","687a1a965b9f5b85a264363e","68931a86d655adfc14099049","1","5537b204fdf99b51eefed679","1","2025-08-06T09:09:12.341Z","","","","","","","","","","","","","","","","win-only","0","g1:NW,g2:SE","0.7","4","0","257225.8","725","5726.3","25315.5","1","4","8","6","2","8","8","17","9","0.12878787878787878","790.4","3000","915","[""down"",""right""]","{""num_key_presses"":6,""num_perfect"":3,""num_errors"":0,""num_randdir"":3,""num_randdir_good_moves"":3,""num_whilered"":0,""num_whileblue"":0,""num_blue"":1,""num_good_moves"":6}","[421.5714133126395,407.82142761775424,0.2,421.5714133126395,407.82142761775424,101.7,421.5714133126395,407.82142761775424,208.1,421.5714133126395,407.82142761775424,310.3,421.5714133126395,407.82142761775424,410.8,519.0714133126395,557.8214276177542,511.8,616.5714133126395,661.5714276177542,616.4,686.5714133126395,730.3214276177542,720.9,730.3214133126395,770.3214276177542,825.1,731.5714133126395,770.3214276177542,927.6,755.3214133126395,759.0714276177542,1030.8,826.5714133126395,655.3214276177542,1131.3,831.5714133126395,630.3214276177542,1232,831.5714133126395,627.8214276177542,1332.1,907.8214133126395,610.3214276177542,1437,912.8214133126395,607.8214276177542,1541.7,912.8214133126395,607.8214276177542,1642.4,912.8214133126395,607.8214276177542,1745.7,912.8214133126395,607.8214276177542,1850.6,912.8214133126395,607.8214276177542,1950.7,912.8214133126395,607.8214276177542,2051,912.8214133126395,607.8214276177542,2156.4,912.8214133126395,607.8214276177542,2261.2,912.8214133126395,607.8214276177542,2366.6,912.8214133126395,607.8214276177542,2470.2,912.8214133126395,607.8214276177542,2570.6,912.8214133126395,607.8214276177542,2670.6,912.8214133126395,607.8214276177542,2770.6,912.8214133126395,607.8214276177542,2870.7,912.8214133126395,607.8214276177542,2971,912.8214133126395,607.8214276177542,3076.2,912.8214133126395,607.8214276177542,3176.7,912.8214133126395,607.8214276177542,3280.7,912.8214133126395,607.8214276177542,3386.2,912.8214133126395,607.8214276177542,3487,912.8214133126395,607.8214276177542,3591.5,912.8214133126395,607.8214276177542,3695.9,912.8214133126395,607.8214276177542,3796.1,912.8214133126395,607.8214276177542,3900.8,912.8214133126395,607.8214276177542,4001.2,912.8214133126395,607.8214276177542,4106.8,912.8214133126395,607.8214276177542,4210.4,912.8214133126395,607.8214276177542,4311.1,912.8214133126395,607.8214276177542,4416.3,912.8214133126395,607.8214276177542,4516.4,912.8214133126395,607.8214276177542,4620.9,912.8214133126395,607.8214276177542,4722.2,912.8214133126395,607.8214276177542,4827.7,912.8214133126395,607.8214276177542,4931.1]","[1332.9,1332.9,1000,0,332.9,""smooth"",""down"",""down"",""good_move"",7654.6,6321.4,2199.6,5039.4,415.6,""smooth"",""down"",""down"",""good_move"",10837.5,3182.7,2836.2,7654.8,346.5,""oops"",""down"",""right"",""good_move"",13603.2,2765.3,2449,10837.9,316.3,""oops"",""down"",""right"",""good_move"",16676.5,3073.1,2704.4,13603.4,368.7,""oops"",""down"",""right"",""good_move"",19491.4,2814.7,2476.1,16676.7,338.6,""smooth"",""down"",""down"",""good_move""]"
"2485","","<div style=""width:500px;"">
  <p>What determined the result of this run?</p>
  </div>","9","html-slider-response","29","286437","0.0-7.0-1.3","157","1","2025-08-06 09:04:27","36c45c0696341be0efffe67d72a12abb","150.143.112.140","Mozilla/5.0 (Windows NT 10.0; Win64; x64) AppleWebKit/537.36 (KHTML, like Gecko) Chrome/138.0.0.0 Safari/537.36","WebKit","Chrome","138.0.0.0","Windows","10.0","https://app.prolific.com/","en-GB,en-US;q=0.9,en;q=0.8","5537b204fdf99b51eefed679","687a1a965b9f5b85a264363e","68931a86d655adfc14099049","1","5537b204fdf99b51eefed679","1","2025-08-06T09:09:14.827Z","","","","AttribQ","","","","","","","","","","","50","","","","","","","","","","","","","","","","","","","","","","","","","","",""
"2062","","<div style=""width:500px;"">
  <p>How much control did you have over the ball?</p>
  </div>","9","html-slider-response","30","288500","0.0-7.0-2.3","157","1","2025-08-06 09:04:27","36c45c0696341be0efffe67d72a12abb","150.143.112.140","Mozilla/5.0 (Windows NT 10.0; Win64; x64) AppleWebKit/537.36 (KHTML, like Gecko) Chrome/138.0.0.0 Safari/537.36","WebKit","Chrome","138.0.0.0","Windows","10.0","https://app.prolific.com/","en-GB,en-US;q=0.9,en;q=0.8","5537b204fdf99b51eefed679","687a1a965b9f5b85a264363e","68931a86d655adfc14099049","1","5537b204fdf99b51eefed679","1","2025-08-06T09:09:16.890Z","","","","ControlQ","","","","","","","","","","","50","","","","","","","","","","","","","","","","","","","","","","","","","","",""
"1699","","<div style=""width:500px;"">
  <p>How would you describe your current emotional state?</p>
  </div>","38","html-slider-response","31","290201","0.0-7.0-3.3","157","1","2025-08-06 09:04:27","36c45c0696341be0efffe67d72a12abb","150.143.112.140","Mozilla/5.0 (Windows NT 10.0; Win64; x64) AppleWebKit/537.36 (KHTML, like Gecko) Chrome/138.0.0.0 Safari/537.36","WebKit","Chrome","138.0.0.0","Windows","10.0","https://app.prolific.com/","en-GB,en-US;q=0.9,en;q=0.8","5537b204fdf99b51eefed679","687a1a965b9f5b85a264363e","68931a86d655adfc14099049","1","5537b204fdf99b51eefed679","1","2025-08-06T09:09:18.591Z","","","","StressQ","","","","","","","","","","","50","","","","","","","","","","","","","","","","","","","","","","","","","","",""
"1129","","<div style=""width:500px;"">
  <p>What best describes how you currently feel?</p>
  </div>","67","html-slider-response","32","291331","0.0-7.0-4.3","157","1","2025-08-06 09:04:27","36c45c0696341be0efffe67d72a12abb","150.143.112.140","Mozilla/5.0 (Windows NT 10.0; Win64; x64) AppleWebKit/537.36 (KHTML, like Gecko) Chrome/138.0.0.0 Safari/537.36","WebKit","Chrome","138.0.0.0","Windows","10.0","https://app.prolific.com/","en-GB,en-US;q=0.9,en;q=0.8","5537b204fdf99b51eefed679","687a1a965b9f5b85a264363e","68931a86d655adfc14099049","1","5537b204fdf99b51eefed679","1","2025-08-06T09:09:19.721Z","","","","MotivationQ","","","","","","","","","","","50","","","","","","","","","","","","","","","","","","","","","","","","","","",""
"","","","","ctl-task-cpt","33","311278","0.0-7.0-0.4","157","1","2025-08-06 09:04:27","36c45c0696341be0efffe67d72a12abb","150.143.112.140","Mozilla/5.0 (Windows NT 10.0; Win64; x64) AppleWebKit/537.36 (KHTML, like Gecko) Chrome/138.0.0.0 Safari/537.36","WebKit","Chrome","138.0.0.0","Windows","10.0","https://app.prolific.com/","en-GB,en-US;q=0.9,en;q=0.8","5537b204fdf99b51eefed679","687a1a965b9f5b85a264363e","68931a86d655adfc14099049","1","5537b204fdf99b51eefed679","1","2025-08-06T09:09:39.668Z","","","","","","","","","","","","","","","","win-only","3","g1:SW,g2:NE","0.6","5","0","292933.5","895.5","5895.8","16925.3","1","4","4","6","1","1","1","18","17","0.13636363636363635","1782.3","3000","1485","[""down"",""left""]","{""num_key_presses"":4,""num_perfect"":4,""num_errors"":0,""num_randdir"":0,""num_randdir_good_moves"":0,""num_whilered"":0,""num_whileblue"":0,""num_blue"":0,""num_good_moves"":4}","[415.3214133126395,420.32142761775424,0.1,415.3214133126395,420.32142761775424,100.7,415.3214133126395,420.32142761775424,206.2,415.3214133126395,420.32142761775424,314.4,415.3214133126395,420.32142761775424,415,415.3214133126395,420.32142761775424,516.7,415.3214133126395,420.32142761775424,619.8,415.3214133126395,420.32142761775424,721.2,415.3214133126395,420.32142761775424,821.2,367.8214133126395,436.57142761775424,925.8,270.3214133126395,491.57142761775424,1030.2,230.3214133126395,532.8214276177542,1131.6,199.0714133126395,579.0714276177542,1234.8,172.8214133126395,611.5714276177542,1334.8,159.0714133126395,636.5714276177542,1436.1,136.5714133126395,680.3214276177542,1540.2,110.3214133126395,731.5714276177542,1648.2,87.8214133126395,756.5714276177542,1751.1,86.5714133126395,759.0714276177542,1859,86.5714133126395,759.0714276177542,1962.6,86.5714133126395,759.0714276177542,2065.1,246.5714133126395,759.0714276177542,2166.3,326.5714133126395,754.0714276177542,2270.1,326.5714133126395,754.0714276177542,2370.3,326.5714133126395,751.5714276177542,2475,351.5714133126395,734.0714276177542,2575,405.3214133126395,697.8214276177542,2675,451.5714133126395,656.5714276177542,2780.9,461.5714133126395,649.0714276177542,2885.2,461.5714133126395,649.0714276177542,2986.3,461.5714133126395,649.0714276177542,3090.5,461.5714133126395,649.0714276177542,3195.7,461.5714133126395,649.0714276177542,3297,461.5714133126395,649.0714276177542,3397.6,461.5714133126395,649.0714276177542,3498,461.5714133126395,649.0714276177542,3600.1,461.5714133126395,649.0714276177542,3700.7,461.5714133126395,649.0714276177542,3805.5,461.5714133126395,649.0714276177542,3910.8,461.5714133126395,649.0714276177542,4011,461.5714133126395,649.0714276177542,4112.5,461.5714133126395,649.0714276177542,4215.2,461.5714133126395,649.0714276177542,4316.2,461.5714133126395,649.0714276177542,4420.6,461.5714133126395,649.0714276177542,4521.1,461.5714133126395,649.0714276177542,4624.9,461.5714133126395,649.0714276177542,4725.1,461.5714133126395,649.0714276177542,4825.1,461.5714133126395,649.0714276177542,4930.9]","[1327,1327,1000,0,327,""smooth"",""down"",""down"",""good_move"",4650,3321.7,2933.9,1328.3,387.8,""smooth"",""down"",""down"",""good_move"",8016.4,3366.2,3035.4,4650.2,330.8,""smooth"",""left"",""left"",""good_move"",10935.6,2918.9,2425.7,8016.7,493.2,""smooth"",""left"",""left"",""good_move""]"
"2237","","<div style=""width:500px;"">
  <p>What determined the result of this run?</p>
  </div>","35","html-slider-response","34","313516","0.0-7.0-1.4","157","1","2025-08-06 09:04:27","36c45c0696341be0efffe67d72a12abb","150.143.112.140","Mozilla/5.0 (Windows NT 10.0; Win64; x64) AppleWebKit/537.36 (KHTML, like Gecko) Chrome/138.0.0.0 Safari/537.36","WebKit","Chrome","138.0.0.0","Windows","10.0","https://app.prolific.com/","en-GB,en-US;q=0.9,en;q=0.8","5537b204fdf99b51eefed679","687a1a965b9f5b85a264363e","68931a86d655adfc14099049","1","5537b204fdf99b51eefed679","1","2025-08-06T09:09:41.907Z","","","","AttribQ","","","","","","","","","","","50","","","","","","","","","","","","","","","","","","","","","","","","","","",""
"1638","","<div style=""width:500px;"">
  <p>How much control did you have over the ball?</p>
  </div>","39","html-slider-response","35","315156","0.0-7.0-2.4","157","1","2025-08-06 09:04:27","36c45c0696341be0efffe67d72a12abb","150.143.112.140","Mozilla/5.0 (Windows NT 10.0; Win64; x64) AppleWebKit/537.36 (KHTML, like Gecko) Chrome/138.0.0.0 Safari/537.36","WebKit","Chrome","138.0.0.0","Windows","10.0","https://app.prolific.com/","en-GB,en-US;q=0.9,en;q=0.8","5537b204fdf99b51eefed679","687a1a965b9f5b85a264363e","68931a86d655adfc14099049","1","5537b204fdf99b51eefed679","1","2025-08-06T09:09:43.546Z","","","","ControlQ","","","","","","","","","","","50","","","","","","","","","","","","","","","","","","","","","","","","","","",""
"1526","","<div style=""width:500px;"">
  <p>How would you describe your current emotional state?</p>
  </div>","30","html-slider-response","36","316685","0.0-7.0-3.4","157","1","2025-08-06 09:04:27","36c45c0696341be0efffe67d72a12abb","150.143.112.140","Mozilla/5.0 (Windows NT 10.0; Win64; x64) AppleWebKit/537.36 (KHTML, like Gecko) Chrome/138.0.0.0 Safari/537.36","WebKit","Chrome","138.0.0.0","Windows","10.0","https://app.prolific.com/","en-GB,en-US;q=0.9,en;q=0.8","5537b204fdf99b51eefed679","687a1a965b9f5b85a264363e","68931a86d655adfc14099049","1","5537b204fdf99b51eefed679","1","2025-08-06T09:09:45.075Z","","","","StressQ","","","","","","","","","","","50","","","","","","","","","","","","","","","","","","","","","","","","","","",""
"1058","","<div style=""width:500px;"">
  <p>What best describes how you currently feel?</p>
  </div>","66","html-slider-response","37","317744","0.0-7.0-4.4","157","1","2025-08-06 09:04:27","36c45c0696341be0efffe67d72a12abb","150.143.112.140","Mozilla/5.0 (Windows NT 10.0; Win64; x64) AppleWebKit/537.36 (KHTML, like Gecko) Chrome/138.0.0.0 Safari/537.36","WebKit","Chrome","138.0.0.0","Windows","10.0","https://app.prolific.com/","en-GB,en-US;q=0.9,en;q=0.8","5537b204fdf99b51eefed679","687a1a965b9f5b85a264363e","68931a86d655adfc14099049","1","5537b204fdf99b51eefed679","1","2025-08-06T09:09:46.134Z","","","","MotivationQ","","","","","","","","","","","50","","","","","","","","","","","","","","","","","","","","","","","","","","",""
"","","","","ctl-task-cpt","38","353863","0.0-7.0-0.5","157","1","2025-08-06 09:04:27","36c45c0696341be0efffe67d72a12abb","150.143.112.140","Mozilla/5.0 (Windows NT 10.0; Win64; x64) AppleWebKit/537.36 (KHTML, like Gecko) Chrome/138.0.0.0 Safari/537.36","WebKit","Chrome","138.0.0.0","Windows","10.0","https://app.prolific.com/","en-GB,en-US;q=0.9,en;q=0.8","5537b204fdf99b51eefed679","687a1a965b9f5b85a264363e","68931a86d655adfc14099049","1","5537b204fdf99b51eefed679","1","2025-08-06T09:10:22.253Z","","","","","","","","","","","","","","","","win-only","3","g1:SW,g2:NE","0.5","6","0","319347.6","895","5896.5","33101","1","4","8","6","2","-8","-9","9","18","0.06818181818181818","998.1","3000","-3000","[""up"",""right""]","{""num_key_presses"":10,""num_perfect"":4,""num_errors"":1,""num_randdir"":5,""num_randdir_good_moves"":1,""num_whilered"":0,""num_whileblue"":1,""num_blue"":1,""num_good_moves"":6}","[416.5714133126395,415.32142761775424,0.2,416.5714133126395,415.32142761775424,101.1,416.5714133126395,415.32142761775424,202.2,416.5714133126395,415.32142761775424,309.8,416.5714133126395,415.32142761775424,410.5,510.3214133126395,316.57142761775424,511.9,620.3214133126395,176.57142761775424,616.2,667.8214133126395,122.82142761775425,723.2,694.0714133126395,96.57142761775425,823.6,729.0714133126395,74.07142761775425,925.8,750.3214133126395,66.57142761775425,1025.9,750.3214133126395,66.57142761775425,1126.3,751.5714133126395,71.57142761775425,1231.2,771.5714133126395,170.32142761775424,1331.5,785.3214133126395,274.07142761775424,1436.1,781.5714133126395,361.57142761775424,1545.3,781.5714133126395,361.57142761775424,1645.6,781.5714133126395,361.57142761775424,1746.7,781.5714133126395,361.57142761775424,1850.4,781.5714133126395,361.57142761775424,1951.3,779.0714133126395,364.07142761775424,2056.4,767.8214133126395,389.07142761775424,2157.4,767.8214133126395,389.07142761775424,2258.4,770.3214133126395,377.82142761775424,2360.8,771.5714133126395,372.82142761775424,2461.4,772.8214133126395,371.57142761775424,2565.5,772.8214133126395,371.57142761775424,2673.6,772.8214133126395,371.57142761775424,2775.3,772.8214133126395,371.57142761775424,2876.4,772.8214133126395,371.57142761775424,2980.4,772.8214133126395,371.57142761775424,3080.9,772.8214133126395,371.57142761775424,3186.9,772.8214133126395,371.57142761775424,3294.3,772.8214133126395,371.57142761775424,3395.3,772.8214133126395,371.57142761775424,3496.2,772.8214133126395,371.57142761775424,3600.7,772.8214133126395,371.57142761775424,3700.8,772.8214133126395,371.57142761775424,3806.2,772.8214133126395,371.57142761775424,3910,772.8214133126395,371.57142761775424,4010.5,772.8214133126395,371.57142761775424,4110.8,772.8214133126395,371.57142761775424,4211.2,771.5714133126395,371.57142761775424,4315.7,771.5714133126395,371.57142761775424,4416,771.5714133126395,371.57142761775424,4516,771.5714133126395,371.57142761775424,4616.1,771.5714133126395,371.57142761775424,4721.1,771.5714133126395,371.57142761775424,4821.7,771.5714133126395,371.57142761775424,4923.6]","[1310.3,1310.3,1000,0,310.3,""oops"",""up"",""left"",""bad_move"",3777,2466.4,2091.6,1310.6,374.8,""smooth"",""up"",""up"",""good_move"",7300.9,3523.7,3282,3777.2,241.7,""while_blue"",""up"",""up"",""good_move"",9928.5,2627.4,2246.4,7301.1,381,""smooth"",""up"",""up"",""good_move"",12459.7,2531.2,2237.6,9928.6,293.6,""oops"",""right"",""down"",""bad_move"",14725.7,2265.1,1949,12460.6,316.1,""smooth"",""right"",""right"",""good_move"",17345.8,2619.8,2326.5,14726,293.3,""smooth"",""right"",""right"",""good_move"",19360.2,2014.1,1714.3,17346.1,299.8,""oops"",""right"",""left"",""bad_move"",21860.5,2499.9,2183,19360.6,316.9,""oops"",""right"",""up"",""good_move"",24717.6,2856.8,2640.9,21860.8,215.9,""oops"",""right"",""left"",""bad_move""]"
"1749","","<div style=""width:500px;"">
  <p>What determined the result of this run?</p>
  </div>","14","html-slider-response","39","355612","0.0-7.0-1.5","157","1","2025-08-06 09:04:27","36c45c0696341be0efffe67d72a12abb","150.143.112.140","Mozilla/5.0 (Windows NT 10.0; Win64; x64) AppleWebKit/537.36 (KHTML, like Gecko) Chrome/138.0.0.0 Safari/537.36","WebKit","Chrome","138.0.0.0","Windows","10.0","https://app.prolific.com/","en-GB,en-US;q=0.9,en;q=0.8","5537b204fdf99b51eefed679","687a1a965b9f5b85a264363e","68931a86d655adfc14099049","1","5537b204fdf99b51eefed679","1","2025-08-06T09:10:24.002Z","","","","AttribQ","","","","","","","","","","","50","","","","","","","","","","","","","","","","","","","","","","","","","","",""
"1183","","<div style=""width:500px;"">
  <p>How much control did you have over the ball?</p>
  </div>","6","html-slider-response","40","356796","0.0-7.0-2.5","157","1","2025-08-06 09:04:27","36c45c0696341be0efffe67d72a12abb","150.143.112.140","Mozilla/5.0 (Windows NT 10.0; Win64; x64) AppleWebKit/537.36 (KHTML, like Gecko) Chrome/138.0.0.0 Safari/537.36","WebKit","Chrome","138.0.0.0","Windows","10.0","https://app.prolific.com/","en-GB,en-US;q=0.9,en;q=0.8","5537b204fdf99b51eefed679","687a1a965b9f5b85a264363e","68931a86d655adfc14099049","1","5537b204fdf99b51eefed679","1","2025-08-06T09:10:25.187Z","","","","ControlQ","","","","","","","","","","","50","","","","","","","","","","","","","","","","","","","","","","","","","","",""
"1297","","<div style=""width:500px;"">
  <p>How would you describe your current emotional state?</p>
  </div>","80","html-slider-response","41","358094","0.0-7.0-3.5","157","1","2025-08-06 09:04:27","36c45c0696341be0efffe67d72a12abb","150.143.112.140","Mozilla/5.0 (Windows NT 10.0; Win64; x64) AppleWebKit/537.36 (KHTML, like Gecko) Chrome/138.0.0.0 Safari/537.36","WebKit","Chrome","138.0.0.0","Windows","10.0","https://app.prolific.com/","en-GB,en-US;q=0.9,en;q=0.8","5537b204fdf99b51eefed679","687a1a965b9f5b85a264363e","68931a86d655adfc14099049","1","5537b204fdf99b51eefed679","1","2025-08-06T09:10:26.485Z","","","","StressQ","","","","","","","","","","","50","","","","","","","","","","","","","","","","","","","","","","","","","","",""
"2653","","<div style=""width:500px;"">
  <p>What best describes how you currently feel?</p>
  </div>","69","html-slider-response","42","360748","0.0-7.0-4.5","157","1","2025-08-06 09:04:27","36c45c0696341be0efffe67d72a12abb","150.143.112.140","Mozilla/5.0 (Windows NT 10.0; Win64; x64) AppleWebKit/537.36 (KHTML, like Gecko) Chrome/138.0.0.0 Safari/537.36","WebKit","Chrome","138.0.0.0","Windows","10.0","https://app.prolific.com/","en-GB,en-US;q=0.9,en;q=0.8","5537b204fdf99b51eefed679","687a1a965b9f5b85a264363e","68931a86d655adfc14099049","1","5537b204fdf99b51eefed679","1","2025-08-06T09:10:29.138Z","","","","MotivationQ","","","","","","","","","","","50","","","","","","","","","","","","","","","","","","","","","","","","","","",""
"","","","","ctl-task-cpt","43","410736","0.0-7.0-0.6","157","1","2025-08-06 09:04:27","36c45c0696341be0efffe67d72a12abb","150.143.112.140","Mozilla/5.0 (Windows NT 10.0; Win64; x64) AppleWebKit/537.36 (KHTML, like Gecko) Chrome/138.0.0.0 Safari/537.36","WebKit","Chrome","138.0.0.0","Windows","10.0","https://app.prolific.com/","en-GB,en-US;q=0.9,en;q=0.8","5537b204fdf99b51eefed679","687a1a965b9f5b85a264363e","68931a86d655adfc14099049","1","5537b204fdf99b51eefed679","1","2025-08-06T09:11:19.126Z","","","","","","","","","","","","","","","","win-only","3","g1:SW,g2:NE","0.4","7","0","362351.2","1167.6","6168.1","46970.3","1","4","8","6","2","-8","-9","0","9","0","817","3000","-2560","[""up"",""right""]","{""num_key_presses"":11,""num_perfect"":4,""num_errors"":1,""num_randdir"":6,""num_randdir_good_moves"":2,""num_whilered"":0,""num_whileblue"":1,""num_blue"":3,""num_good_moves"":6}","[417.8214133126395,416.57142761775424,0.4,417.8214133126395,416.57142761775424,102,417.8214133126395,416.57142761775424,206.4,417.8214133126395,416.57142761775424,308.4,417.8214133126395,416.57142761775424,416.9,474.0714133126395,332.82142761775424,517.3,660.3214133126395,121.57142761775425,618.1,699.0714133126395,91.57142761775425,718.2,757.8214133126395,51.57142761775425,830.9,757.8214133126395,52.82142761775425,933.9,757.8214133126395,129.07142761775424,1034.9,776.5714133126395,247.82142761775424,1137.6,791.5714133126395,316.57142761775424,1238.3,791.5714133126395,316.57142761775424,1339.3,791.5714133126395,316.57142761775424,1445.7,791.5714133126395,316.57142761775424,1552.7,791.5714133126395,316.57142761775424,1653.4,791.5714133126395,316.57142761775424,1757.6,791.5714133126395,316.57142761775424,1858.1,791.5714133126395,316.57142761775424,1958.8,791.5714133126395,316.57142761775424,2067.7,791.5714133126395,316.57142761775424,2168.5,751.5714133126395,329.07142761775424,2273.5,732.8214133126395,334.07142761775424,2380.3,726.5714133126395,335.32142761775424,2484.4,705.3214133126395,341.57142761775424,2588.7,692.8214133126395,346.57142761775424,2688.9,691.5714133126395,346.57142761775424,2792.8,691.5714133126395,346.57142761775424,2900.8,691.5714133126395,346.57142761775424,3000.8,691.5714133126395,346.57142761775424,3102,691.5714133126395,346.57142761775424,3204,691.5714133126395,346.57142761775424,3308.5,691.5714133126395,346.57142761775424,3417.5,691.5714133126395,346.57142761775424,3518.2,691.5714133126395,346.57142761775424,3618.3,691.5714133126395,346.57142761775424,3722.8,691.5714133126395,346.57142761775424,3823.7,691.5714133126395,346.57142761775424,3924.6,691.5714133126395,346.57142761775424,4029.2,691.5714133126395,346.57142761775424,4136.9,691.5714133126395,346.57142761775424,4238.2,691.5714133126395,346.57142761775424,4338.9,691.5714133126395,346.57142761775424,4443.2,691.5714133126395,346.57142761775424,4543.3,691.5714133126395,346.57142761775424,4651.6,691.5714133126395,346.57142761775424,4751.6,691.5714133126395,346.57142761775424,4853.2,691.5714133126395,346.57142761775424,4953.4]","[1403.3,1403.4,1000,0,403.4,""smooth"",""right"",""right"",""good_move"",3560.1,2156.3,1831.7,1403.8,324.6,""oops"",""right"",""right"",""good_move"",6179.6,2619.2,2269.5,3560.4,349.7,""smooth"",""right"",""right"",""good_move"",9729.1,3549.3,3191,6179.9,358.2,""oops"",""up"",""down"",""bad_move"",12756.3,3026.7,2687.2,9729.6,339.5,""oops"",""up"",""down"",""bad_move"",15139.1,2382.4,2009,12756.7,373.4,""smooth"",""up"",""up"",""good_move"",18197.3,3057.8,2750.4,15139.5,307.4,""oops"",""up"",""left"",""bad_move"",20885.2,2687.5,2425.6,18197.7,261.9,""oops"",""up"",""down"",""bad_move"",24162.6,3277.1,3007.6,20885.5,269.5,""while_blue"",""up"",""left"",""bad_move"",35746.9,11584.1,3144.5,32244.8,357.6,""smooth"",""up"",""up"",""good_move"",38446.8,2699.6,2329.7,35747.2,369.9,""oops"",""up"",""right"",""good_move""]"
"1945","","<div style=""width:500px;"">
  <p>What determined the result of this run?</p>
  </div>","4","html-slider-response","44","412681","0.0-7.0-1.6","157","1","2025-08-06 09:04:27","36c45c0696341be0efffe67d72a12abb","150.143.112.140","Mozilla/5.0 (Windows NT 10.0; Win64; x64) AppleWebKit/537.36 (KHTML, like Gecko) Chrome/138.0.0.0 Safari/537.36","WebKit","Chrome","138.0.0.0","Windows","10.0","https://app.prolific.com/","en-GB,en-US;q=0.9,en;q=0.8","5537b204fdf99b51eefed679","687a1a965b9f5b85a264363e","68931a86d655adfc14099049","1","5537b204fdf99b51eefed679","1","2025-08-06T09:11:21.071Z","","","","AttribQ","","","","","","","","","","","50","","","","","","","","","","","","","","","","","","","","","","","","","","",""
"1218","","<div style=""width:500px;"">
  <p>How much control did you have over the ball?</p>
  </div>","3","html-slider-response","45","413900","0.0-7.0-2.6","157","1","2025-08-06 09:04:27","36c45c0696341be0efffe67d72a12abb","150.143.112.140","Mozilla/5.0 (Windows NT 10.0; Win64; x64) AppleWebKit/537.36 (KHTML, like Gecko) Chrome/138.0.0.0 Safari/537.36","WebKit","Chrome","138.0.0.0","Windows","10.0","https://app.prolific.com/","en-GB,en-US;q=0.9,en;q=0.8","5537b204fdf99b51eefed679","687a1a965b9f5b85a264363e","68931a86d655adfc14099049","1","5537b204fdf99b51eefed679","1","2025-08-06T09:11:22.290Z","","","","ControlQ","","","","","","","","","","","50","","","","","","","","","","","","","","","","","","","","","","","","","","",""
"1493","","<div style=""width:500px;"">
  <p>How would you describe your current emotional state?</p>
  </div>","79","html-slider-response","46","415394","0.0-7.0-3.6","157","1","2025-08-06 09:04:27","36c45c0696341be0efffe67d72a12abb","150.143.112.140","Mozilla/5.0 (Windows NT 10.0; Win64; x64) AppleWebKit/537.36 (KHTML, like Gecko) Chrome/138.0.0.0 Safari/537.36","WebKit","Chrome","138.0.0.0","Windows","10.0","https://app.prolific.com/","en-GB,en-US;q=0.9,en;q=0.8","5537b204fdf99b51eefed679","687a1a965b9f5b85a264363e","68931a86d655adfc14099049","1","5537b204fdf99b51eefed679","1","2025-08-06T09:11:23.784Z","","","","StressQ","","","","","","","","","","","50","","","","","","","","","","","","","","","","","","","","","","","","","","",""
"1413","","<div style=""width:500px;"">
  <p>What best describes how you currently feel?</p>
  </div>","67","html-slider-response","47","416808","0.0-7.0-4.6","157","1","2025-08-06 09:04:27","36c45c0696341be0efffe67d72a12abb","150.143.112.140","Mozilla/5.0 (Windows NT 10.0; Win64; x64) AppleWebKit/537.36 (KHTML, like Gecko) Chrome/138.0.0.0 Safari/537.36","WebKit","Chrome","138.0.0.0","Windows","10.0","https://app.prolific.com/","en-GB,en-US;q=0.9,en;q=0.8","5537b204fdf99b51eefed679","687a1a965b9f5b85a264363e","68931a86d655adfc14099049","1","5537b204fdf99b51eefed679","1","2025-08-06T09:11:25.198Z","","","","MotivationQ","","","","","","","","","","","50","","","","","","","","","","","","","","","","","","","","","","","","","","",""
"","","","","ctl-task-cpt","48","470042","0.0-7.0-0.7","157","1","2025-08-06 09:04:27","36c45c0696341be0efffe67d72a12abb","150.143.112.140","Mozilla/5.0 (Windows NT 10.0; Win64; x64) AppleWebKit/537.36 (KHTML, like Gecko) Chrome/138.0.0.0 Safari/537.36","WebKit","Chrome","138.0.0.0","Windows","10.0","https://app.prolific.com/","en-GB,en-US;q=0.9,en;q=0.8","5537b204fdf99b51eefed679","687a1a965b9f5b85a264363e","68931a86d655adfc14099049","1","5537b204fdf99b51eefed679","1","2025-08-06T09:12:18.433Z","","","","","","","","","","","","","","","","win-only","1","g1:NE,g2:SW","0.3","8","0","418411","749.5","5751.6","50216.1","1","4","4","6","2","-4","-4","0","0","0","844.5","3000","-2805","[""down"",""left""]","{""num_key_presses"":10,""num_perfect"":3,""num_errors"":0,""num_randdir"":7,""num_randdir_good_moves"":3,""num_whilered"":0,""num_whileblue"":0,""num_blue"":5,""num_good_moves"":6}","[416.5714133126395,416.57142761775424,0.2,416.5714133126395,416.57142761775424,101.1,416.5714133126395,416.57142761775424,201.6,416.5714133126395,416.57142761775424,301.8,416.5714133126395,416.57142761775424,409.6,370.3214133126395,452.82142761775424,511.2,220.3214133126395,571.5714276177542,612.6,156.5714133126395,641.5714276177542,717.4,91.5714133126395,727.8214276177542,821.9,91.5714133126395,731.5714276177542,925.6,91.5714133126395,731.5714276177542,1026.1,167.8214133126395,731.5714276177542,1128.5,234.0714133126395,729.0714276177542,1232.3,241.5714133126395,724.0714276177542,1337,264.0714133126395,726.5714276177542,1438,264.0714133126395,726.5714276177542,1538.5,269.0714133126395,716.5714276177542,1642.7,281.5714133126395,695.3214276177542,1743,284.0714133126395,692.8214276177542,1846.3,284.0714133126395,692.8214276177542,1947.8,284.0714133126395,692.8214276177542,2051.4,284.0714133126395,692.8214276177542,2158.2,284.0714133126395,692.8214276177542,2265.6,292.8214133126395,666.5714276177542,2367.1,300.3214133126395,611.5714276177542,2472.8,300.3214133126395,602.8214276177542,2579.3,300.3214133126395,602.8214276177542,2680.7,300.3214133126395,602.8214276177542,2781.2,300.3214133126395,602.8214276177542,2881.4,300.3214133126395,602.8214276177542,2986.3,300.3214133126395,602.8214276177542,3093.9,300.3214133126395,602.8214276177542,3197.7,300.3214133126395,602.8214276177542,3298.1,300.3214133126395,602.8214276177542,3401.4,300.3214133126395,602.8214276177542,3507.2,300.3214133126395,602.8214276177542,3616,300.3214133126395,602.8214276177542,3716,300.3214133126395,602.8214276177542,3821.5,300.3214133126395,602.8214276177542,3929.7,300.3214133126395,602.8214276177542,4032.6,300.3214133126395,602.8214276177542,4136.3,300.3214133126395,602.8214276177542,4237.3,300.3214133126395,602.8214276177542,4337.6,300.3214133126395,602.8214276177542,4442.5,300.3214133126395,602.8214276177542,4545.2,300.3214133126395,602.8214276177542,4649.5,300.3214133126395,602.8214276177542,4752.1,300.3214133126395,602.8214276177542,4856.5,300.3214133126395,602.8214276177542,4961.5]","[1397.2,1397.2,1000,0,397.2,""smooth"",""down"",""down"",""good_move"",4081.5,2683.9,2385.3,1397.6,298.6,""oops"",""down"",""right"",""bad_move"",7356.1,3274.2,2930.7,4081.9,343.5,""oops"",""down"",""up"",""bad_move"",10272.2,2915.8,2593.2,7356.4,322.6,""oops"",""down"",""down"",""good_move"",16124.9,5852.3,2016,13809.8,299.1,""smooth"",""down"",""down"",""good_move"",18232,2107.1,1827.3,16125,279.8,""oops"",""down"",""right"",""bad_move"",20857.4,2624,2311.3,18233.4,312.7,""oops"",""down"",""down"",""good_move"",27564.8,6707.1,2803.5,24456.1,305.2,""smooth"",""left"",""left"",""good_move"",29721.9,2156.8,1825.4,27565.1,331.4,""oops"",""left"",""right"",""bad_move"",31700.7,1978.5,1655.2,29722.2,323.3,""oops"",""left"",""left"",""good_move""]"
"1731","","<div style=""width:500px;"">
  <p>What determined the result of this run?</p>
  </div>","9","html-slider-response","49","471775","0.0-7.0-1.7","157","1","2025-08-06 09:04:27","36c45c0696341be0efffe67d72a12abb","150.143.112.140","Mozilla/5.0 (Windows NT 10.0; Win64; x64) AppleWebKit/537.36 (KHTML, like Gecko) Chrome/138.0.0.0 Safari/537.36","WebKit","Chrome","138.0.0.0","Windows","10.0","https://app.prolific.com/","en-GB,en-US;q=0.9,en;q=0.8","5537b204fdf99b51eefed679","687a1a965b9f5b85a264363e","68931a86d655adfc14099049","1","5537b204fdf99b51eefed679","1","2025-08-06T09:12:20.165Z","","","","AttribQ","","","","","","","","","","","50","","","","","","","","","","","","","","","","","","","","","","","","","","",""
"968","","<div style=""width:500px;"">
  <p>How much control did you have over the ball?</p>
  </div>","8","html-slider-response","50","472744","0.0-7.0-2.7","157","1","2025-08-06 09:04:27","36c45c0696341be0efffe67d72a12abb","150.143.112.140","Mozilla/5.0 (Windows NT 10.0; Win64; x64) AppleWebKit/537.36 (KHTML, like Gecko) Chrome/138.0.0.0 Safari/537.36","WebKit","Chrome","138.0.0.0","Windows","10.0","https://app.prolific.com/","en-GB,en-US;q=0.9,en;q=0.8","5537b204fdf99b51eefed679","687a1a965b9f5b85a264363e","68931a86d655adfc14099049","1","5537b204fdf99b51eefed679","1","2025-08-06T09:12:21.134Z","","","","ControlQ","","","","","","","","","","","50","","","","","","","","","","","","","","","","","","","","","","","","","","",""
"980","","<div style=""width:500px;"">
  <p>How would you describe your current emotional state?</p>
  </div>","91","html-slider-response","51","473725","0.0-7.0-3.7","157","1","2025-08-06 09:04:27","36c45c0696341be0efffe67d72a12abb","150.143.112.140","Mozilla/5.0 (Windows NT 10.0; Win64; x64) AppleWebKit/537.36 (KHTML, like Gecko) Chrome/138.0.0.0 Safari/537.36","WebKit","Chrome","138.0.0.0","Windows","10.0","https://app.prolific.com/","en-GB,en-US;q=0.9,en;q=0.8","5537b204fdf99b51eefed679","687a1a965b9f5b85a264363e","68931a86d655adfc14099049","1","5537b204fdf99b51eefed679","1","2025-08-06T09:12:22.116Z","","","","StressQ","","","","","","","","","","","50","","","","","","","","","","","","","","","","","","","","","","","","","","",""
"1029","","<div style=""width:500px;"">
  <p>What best describes how you currently feel?</p>
  </div>","66","html-slider-response","52","474755","0.0-7.0-4.7","157","1","2025-08-06 09:04:27","36c45c0696341be0efffe67d72a12abb","150.143.112.140","Mozilla/5.0 (Windows NT 10.0; Win64; x64) AppleWebKit/537.36 (KHTML, like Gecko) Chrome/138.0.0.0 Safari/537.36","WebKit","Chrome","138.0.0.0","Windows","10.0","https://app.prolific.com/","en-GB,en-US;q=0.9,en;q=0.8","5537b204fdf99b51eefed679","687a1a965b9f5b85a264363e","68931a86d655adfc14099049","1","5537b204fdf99b51eefed679","1","2025-08-06T09:12:23.146Z","","","","MotivationQ","","","","","","","","","","","50","","","","","","","","","","","","","","","","","","","","","","","","","","",""
"","","","","ctl-task-cpt","53","531751","0.0-7.0-0.8","157","1","2025-08-06 09:04:27","36c45c0696341be0efffe67d72a12abb","150.143.112.140","Mozilla/5.0 (Windows NT 10.0; Win64; x64) AppleWebKit/537.36 (KHTML, like Gecko) Chrome/138.0.0.0 Safari/537.36","WebKit","Chrome","138.0.0.0","Windows","10.0","https://app.prolific.com/","en-GB,en-US;q=0.9,en;q=0.8","5537b204fdf99b51eefed679","687a1a965b9f5b85a264363e","68931a86d655adfc14099049","1","5537b204fdf99b51eefed679","1","2025-08-06T09:13:20.141Z","","","","","","","","","","","","","","","","win-only","0","g1:NW,g2:SE","0.4","9","0","476359.6","690.9","5692.2","53976.8","1","4","4","6","2","-4","-4","0","0","0","866.6","3000","-2445","[""down"",""right""]","{""num_key_presses"":9,""num_perfect"":3,""num_errors"":0,""num_randdir"":6,""num_randdir_good_moves"":3,""num_whilered"":0,""num_whileblue"":0,""num_blue"":6,""num_good_moves"":6}","[414.0714133126395,417.82142761775424,0.1,414.0714133126395,417.82142761775424,100.3,414.0714133126395,417.82142761775424,209.6,414.0714133126395,417.82142761775424,309.6,414.0714133126395,417.82142761775424,410.3,414.0714133126395,417.82142761775424,510.6,551.5714133126395,557.8214276177542,614.4,639.0714133126395,631.5714276177542,714.6,741.5714133126395,721.5714276177542,815.1,760.3214133126395,741.5714276177542,915.1,766.5714133126395,741.5714276177542,1025.2,836.5714133126395,695.3214276177542,1125.8,867.8214133126395,652.8214276177542,1226.7,869.0714133126395,651.5714276177542,1329.4,869.0714133126395,651.5714276177542,1430.3,869.0714133126395,651.5714276177542,1535.1,869.0714133126395,651.5714276177542,1640.6,869.0714133126395,651.5714276177542,1745.2,869.0714133126395,651.5714276177542,1845.3,869.0714133126395,651.5714276177542,1946.2,869.0714133126395,651.5714276177542,2050.5,869.0714133126395,651.5714276177542,2151.2,869.0714133126395,651.5714276177542,2255.7,869.0714133126395,651.5714276177542,2357.4,869.0714133126395,651.5714276177542,2461.5,869.0714133126395,651.5714276177542,2561.6,869.0714133126395,651.5714276177542,2664.4,869.0714133126395,651.5714276177542,2766.2,869.0714133126395,651.5714276177542,2870.1,869.0714133126395,651.5714276177542,2976.5,869.0714133126395,651.5714276177542,3079.6,869.0714133126395,651.5714276177542,3185.9,869.0714133126395,651.5714276177542,3290.5,869.0714133126395,651.5714276177542,3395.8,869.0714133126395,651.5714276177542,3499,869.0714133126395,651.5714276177542,3600.7,869.0714133126395,651.5714276177542,3700.7,869.0714133126395,651.5714276177542,3805,869.0714133126395,651.5714276177542,3908.8,869.0714133126395,651.5714276177542,4010.3,869.0714133126395,651.5714276177542,4115.4,869.0714133126395,651.5714276177542,4221.3,869.0714133126395,651.5714276177542,4326.7,869.0714133126395,651.5714276177542,4430.7,869.0714133126395,651.5714276177542,4535.6,869.0714133126395,651.5714276177542,4635.6,869.0714133126395,651.5714276177542,4740,869.0714133126395,651.5714276177542,4846.2,869.0714133126395,651.5714276177542,4950.9]","[1414,1414,1000,0,414,""oops"",""down"",""right"",""good_move"",3366.3,1952.1,1553.8,1414.3,398.3,""oops"",""down"",""left"",""bad_move"",13569.4,10201.9,2578.2,10629.1,362.1,""oops"",""down"",""left"",""bad_move"",16969.4,3399.8,3066.1,13569.7,333.7,""smooth"",""down"",""down"",""good_move"",23405.4,6435.4,2329.9,20688.8,386.7,""oops"",""down"",""right"",""good_move"",26104.4,2698.7,2347.7,23405.7,351,""smooth"",""down"",""down"",""good_move"",35377.7,9272.7,2604.8,32398.6,374.3,""smooth"",""down"",""down"",""good_move"",38011.4,2633.5,2267.1,35377.9,366.4,""oops"",""right"",""right"",""good_move"",45112.4,7100.6,2592.6,42161.8,358,""oops"",""right"",""left"",""bad_move""]"
"1516","","<div style=""width:500px;"">
  <p>What determined the result of this run?</p>
  </div>","4","html-slider-response","54","533268","0.0-7.0-1.8","157","1","2025-08-06 09:04:27","36c45c0696341be0efffe67d72a12abb","150.143.112.140","Mozilla/5.0 (Windows NT 10.0; Win64; x64) AppleWebKit/537.36 (KHTML, like Gecko) Chrome/138.0.0.0 Safari/537.36","WebKit","Chrome","138.0.0.0","Windows","10.0","https://app.prolific.com/","en-GB,en-US;q=0.9,en;q=0.8","5537b204fdf99b51eefed679","687a1a965b9f5b85a264363e","68931a86d655adfc14099049","1","5537b204fdf99b51eefed679","1","2025-08-06T09:13:21.658Z","","","","AttribQ","","","","","","","","","","","50","","","","","","","","","","","","","","","","","","","","","","","","","","",""
"966","","<div style=""width:500px;"">
  <p>How much control did you have over the ball?</p>
  </div>","3","html-slider-response","55","534236","0.0-7.0-2.8","157","1","2025-08-06 09:04:27","36c45c0696341be0efffe67d72a12abb","150.143.112.140","Mozilla/5.0 (Windows NT 10.0; Win64; x64) AppleWebKit/537.36 (KHTML, like Gecko) Chrome/138.0.0.0 Safari/537.36","WebKit","Chrome","138.0.0.0","Windows","10.0","https://app.prolific.com/","en-GB,en-US;q=0.9,en;q=0.8","5537b204fdf99b51eefed679","687a1a965b9f5b85a264363e","68931a86d655adfc14099049","1","5537b204fdf99b51eefed679","1","2025-08-06T09:13:22.627Z","","","","ControlQ","","","","","","","","","","","50","","","","","","","","","","","","","","","","","","","","","","","","","","",""
"1139","","<div style=""width:500px;"">
  <p>How would you describe your current emotional state?</p>
  </div>","89","html-slider-response","56","535377","0.0-7.0-3.8","157","1","2025-08-06 09:04:27","36c45c0696341be0efffe67d72a12abb","150.143.112.140","Mozilla/5.0 (Windows NT 10.0; Win64; x64) AppleWebKit/537.36 (KHTML, like Gecko) Chrome/138.0.0.0 Safari/537.36","WebKit","Chrome","138.0.0.0","Windows","10.0","https://app.prolific.com/","en-GB,en-US;q=0.9,en;q=0.8","5537b204fdf99b51eefed679","687a1a965b9f5b85a264363e","68931a86d655adfc14099049","1","5537b204fdf99b51eefed679","1","2025-08-06T09:13:23.767Z","","","","StressQ","","","","","","","","","","","50","","","","","","","","","","","","","","","","","","","","","","","","","","",""
"1798","","<div style=""width:500px;"">
  <p>What best describes how you currently feel?</p>
  </div>","10","html-slider-response","57","537176","0.0-7.0-4.8","157","1","2025-08-06 09:04:27","36c45c0696341be0efffe67d72a12abb","150.143.112.140","Mozilla/5.0 (Windows NT 10.0; Win64; x64) AppleWebKit/537.36 (KHTML, like Gecko) Chrome/138.0.0.0 Safari/537.36","WebKit","Chrome","138.0.0.0","Windows","10.0","https://app.prolific.com/","en-GB,en-US;q=0.9,en;q=0.8","5537b204fdf99b51eefed679","687a1a965b9f5b85a264363e","68931a86d655adfc14099049","1","5537b204fdf99b51eefed679","1","2025-08-06T09:13:25.566Z","","","","MotivationQ","","","","","","","","","","","50","","","","","","","","","","","","","","","","","","","","","","","","","","",""
"","","","","ctl-task-cpt","58","561928","0.0-7.0-0.9","157","1","2025-08-06 09:04:27","36c45c0696341be0efffe67d72a12abb","150.143.112.140","Mozilla/5.0 (Windows NT 10.0; Win64; x64) AppleWebKit/537.36 (KHTML, like Gecko) Chrome/138.0.0.0 Safari/537.36","WebKit","Chrome","138.0.0.0","Windows","10.0","https://app.prolific.com/","en-GB,en-US;q=0.9,en;q=0.8","5537b204fdf99b51eefed679","687a1a965b9f5b85a264363e","68931a86d655adfc14099049","1","5537b204fdf99b51eefed679","1","2025-08-06T09:13:50.319Z","","","","","","","","","","","","","","","","win-only","2","g1:SE,g2:NW","0.5","10","0","538779.1","792.3","5797.4","21733.7","1","4","8","6","2","8","8","8","0","0.06060606060606061","1010.2","3000","1300","[""left"",""up""]","{""num_key_presses"":6,""num_perfect"":4,""num_errors"":0,""num_randdir"":2,""num_randdir_good_moves"":2,""num_whilered"":0,""num_whileblue"":0,""num_blue"":0,""num_good_moves"":6}","[419.0714133126395,416.57142761775424,0.2,419.0714133126395,416.57142761775424,104.1,419.0714133126395,416.57142761775424,204.1,419.0714133126395,416.57142761775424,304.8,419.0714133126395,416.57142761775424,408.3,419.0714133126395,416.57142761775424,509.4,419.0714133126395,416.57142761775424,613.1,285.3214133126395,281.57142761775424,715,152.8214133126395,166.57142761775424,818.3,111.5714133126395,116.57142761775425,928.8,97.8214133126395,96.57142761775425,1033.1,97.8214133126395,96.57142761775425,1137.1,97.8214133126395,96.57142761775425,1238.8,112.8214133126395,126.57142761775425,1345.1,242.8214133126395,297.82142761775424,1449.9,267.8214133126395,342.82142761775424,1555,267.8214133126395,342.82142761775424,1663,267.8214133126395,342.82142761775424,1764.7,267.8214133126395,342.82142761775424,1868.2,267.8214133126395,342.82142761775424,1969,267.8214133126395,342.82142761775424,2069.2,267.8214133126395,342.82142761775424,2175,267.8214133126395,342.82142761775424,2281.4,267.8214133126395,342.82142761775424,2383.1,267.8214133126395,342.82142761775424,2483.9,267.8214133126395,342.82142761775424,2588.4,267.8214133126395,342.82142761775424,2688.8,267.8214133126395,342.82142761775424,2791,267.8214133126395,342.82142761775424,2894.4,267.8214133126395,342.82142761775424,2998.2,267.8214133126395,342.82142761775424,3098.7,267.8214133126395,342.82142761775424,3204,267.8214133126395,342.82142761775424,3304.4,267.8214133126395,342.82142761775424,3411.5,267.8214133126395,342.82142761775424,3514.8,267.8214133126395,342.82142761775424,3619.2,267.8214133126395,342.82142761775424,3719.5,267.8214133126395,342.82142761775424,3823.3,267.8214133126395,342.82142761775424,3929,267.8214133126395,342.82142761775424,4029.7,267.8214133126395,342.82142761775424,4132.9,267.8214133126395,342.82142761775424,4235,267.8214133126395,342.82142761775424,4336.6,267.8214133126395,342.82142761775424,4438.1,267.8214133126395,342.82142761775424,4539.4,267.8214133126395,342.82142761775424,4640.3,267.8214133126395,342.82142761775424,4747,267.8214133126395,342.82142761775424,4850.5,267.8214133126395,342.82142761775424,4953]","[1326.5,1326.5,1000,0,326.5,""smooth"",""left"",""left"",""good_move"",4429.6,3102.7,2776.1,1326.9,326.6,""oops"",""left"",""left"",""good_move"",7227.5,2797.5,2517.4,4430,280.1,""smooth"",""left"",""left"",""good_move"",9810.9,2583.1,2298.6,7227.8,284.5,""smooth"",""up"",""up"",""good_move"",12337.2,2526.1,2236.6,9811.1,289.5,""oops"",""up"",""up"",""good_move"",15832,3494.5,3133.6,12337.5,360.9,""smooth"",""up"",""up"",""good_move""]"
"1543","","<div style=""width:500px;"">
  <p>What determined the result of this run?</p>
  </div>","16","html-slider-response","59","563473","0.0-7.0-1.9","157","1","2025-08-06 09:04:27","36c45c0696341be0efffe67d72a12abb","150.143.112.140","Mozilla/5.0 (Windows NT 10.0; Win64; x64) AppleWebKit/537.36 (KHTML, like Gecko) Chrome/138.0.0.0 Safari/537.36","WebKit","Chrome","138.0.0.0","Windows","10.0","https://app.prolific.com/","en-GB,en-US;q=0.9,en;q=0.8","5537b204fdf99b51eefed679","687a1a965b9f5b85a264363e","68931a86d655adfc14099049","1","5537b204fdf99b51eefed679","1","2025-08-06T09:13:51.864Z","","","","AttribQ","","","","","","","","","","","50","","","","","","","","","","","","","","","","","","","","","","","","","","",""
"1080","","<div style=""width:500px;"">
  <p>How much control did you have over the ball?</p>
  </div>","12","html-slider-response","60","564555","0.0-7.0-2.9","157","1","2025-08-06 09:04:27","36c45c0696341be0efffe67d72a12abb","150.143.112.140","Mozilla/5.0 (Windows NT 10.0; Win64; x64) AppleWebKit/537.36 (KHTML, like Gecko) Chrome/138.0.0.0 Safari/537.36","WebKit","Chrome","138.0.0.0","Windows","10.0","https://app.prolific.com/","en-GB,en-US;q=0.9,en;q=0.8","5537b204fdf99b51eefed679","687a1a965b9f5b85a264363e","68931a86d655adfc14099049","1","5537b204fdf99b51eefed679","1","2025-08-06T09:13:52.945Z","","","","ControlQ","","","","","","","","","","","50","","","","","","","","","","","","","","","","","","","","","","","","","","",""
"1072","","<div style=""width:500px;"">
  <p>How would you describe your current emotional state?</p>
  </div>","61","html-slider-response","61","565628","0.0-7.0-3.9","157","1","2025-08-06 09:04:27","36c45c0696341be0efffe67d72a12abb","150.143.112.140","Mozilla/5.0 (Windows NT 10.0; Win64; x64) AppleWebKit/537.36 (KHTML, like Gecko) Chrome/138.0.0.0 Safari/537.36","WebKit","Chrome","138.0.0.0","Windows","10.0","https://app.prolific.com/","en-GB,en-US;q=0.9,en;q=0.8","5537b204fdf99b51eefed679","687a1a965b9f5b85a264363e","68931a86d655adfc14099049","1","5537b204fdf99b51eefed679","1","2025-08-06T09:13:54.018Z","","","","StressQ","","","","","","","","","","","50","","","","","","","","","","","","","","","","","","","","","","","","","","",""
"2589","","<div style=""width:500px;"">
  <p>What best describes how you currently feel?</p>
  </div>","55","html-slider-response","62","568220","0.0-7.0-4.9","157","1","2025-08-06 09:04:27","36c45c0696341be0efffe67d72a12abb","150.143.112.140","Mozilla/5.0 (Windows NT 10.0; Win64; x64) AppleWebKit/537.36 (KHTML, like Gecko) Chrome/138.0.0.0 Safari/537.36","WebKit","Chrome","138.0.0.0","Windows","10.0","https://app.prolific.com/","en-GB,en-US;q=0.9,en;q=0.8","5537b204fdf99b51eefed679","687a1a965b9f5b85a264363e","68931a86d655adfc14099049","1","5537b204fdf99b51eefed679","1","2025-08-06T09:13:56.610Z","","","","MotivationQ","","","","","","","","","","","50","","","","","","","","","","","","","","","","","","","","","","","","","","",""
"","","","","ctl-task-cpt","63","627837","0.0-7.0-0.10","157","1","2025-08-06 09:04:27","36c45c0696341be0efffe67d72a12abb","150.143.112.140","Mozilla/5.0 (Windows NT 10.0; Win64; x64) AppleWebKit/537.36 (KHTML, like Gecko) Chrome/138.0.0.0 Safari/537.36","WebKit","Chrome","138.0.0.0","Windows","10.0","https://app.prolific.com/","en-GB,en-US;q=0.9,en;q=0.8","5537b204fdf99b51eefed679","687a1a965b9f5b85a264363e","68931a86d655adfc14099049","1","5537b204fdf99b51eefed679","1","2025-08-06T09:14:56.227Z","","","","","","","","","","","","","","","","win-only","2","g1:SE,g2:NW","0.6","11","0","569822.9","787.4","5788.1","56599","1","4","8","6","2","-8","-9","0","8","0","813.1","3000","-2370","[""left"",""up""]","{""num_key_presses"":12,""num_perfect"":7,""num_errors"":1,""num_randdir"":4,""num_randdir_good_moves"":0,""num_whilered"":0,""num_whileblue"":1,""num_blue"":5,""num_good_moves"":7}","[417.8214133126395,425.32142761775424,0.2,417.8214133126395,425.32142761775424,104.6,417.8214133126395,425.32142761775424,206.2,417.8214133126395,425.32142761775424,309.3,417.8214133126395,425.32142761775424,417.9,224.0714133126395,236.57142761775424,519.6,130.3214133126395,151.57142761775424,625.8,99.0714133126395,115.32142761775425,728.6,81.5714133126395,96.57142761775425,832.5,81.5714133126395,96.57142761775425,932.9,81.5714133126395,100.32142761775425,1036.2,160.3214133126395,154.07142761775424,1139.8,310.3214133126395,231.57142761775424,1240.4,389.0714133126395,275.32142761775424,1343.5,459.0714133126395,304.07142761775424,1451.1,500.3214133126395,314.07142761775424,1556,501.5714133126395,314.07142761775424,1658,501.5714133126395,314.07142761775424,1759.9,501.5714133126395,314.07142761775424,1862.2,501.5714133126395,314.07142761775424,1972.6,501.5714133126395,314.07142761775424,2072.8,501.5714133126395,314.07142761775424,2177.4,501.5714133126395,314.07142761775424,2277.7,501.5714133126395,314.07142761775424,2378.8,501.5714133126395,314.07142761775424,2480.5,501.5714133126395,314.07142761775424,2587.5,501.5714133126395,314.07142761775424,2690.1,501.5714133126395,314.07142761775424,2796.1,501.5714133126395,314.07142761775424,2898.3,501.5714133126395,314.07142761775424,3002.3,501.5714133126395,314.07142761775424,3110.1,501.5714133126395,314.07142761775424,3212.6,501.5714133126395,314.07142761775424,3320.6,501.5714133126395,314.07142761775424,3423,501.5714133126395,314.07142761775424,3525.3,501.5714133126395,314.07142761775424,3626.5,501.5714133126395,314.07142761775424,3732.2,501.5714133126395,314.07142761775424,3838,501.5714133126395,314.07142761775424,3942.7,501.5714133126395,314.07142761775424,4045.4,501.5714133126395,314.07142761775424,4145.6,501.5714133126395,314.07142761775424,4259.9,501.5714133126395,314.07142761775424,4362.9,501.5714133126395,314.07142761775424,4466.2,501.5714133126395,314.07142761775424,4576.8,501.5714133126395,314.07142761775424,4679.2,501.5714133126395,314.07142761775424,4786.9,501.5714133126395,314.07142761775424,4887.4,501.5714133126395,314.07142761775424,4991.6]","[1315.3,1315.3,1000,0,315.3,""smooth"",""left"",""left"",""good_move"",11377.6,10061.8,2025.4,9042.7,309.6,""smooth"",""left"",""left"",""good_move"",13946.5,2568.6,2230.6,11377.9,338,""oops"",""left"",""down"",""bad_move"",17013.2,3066.2,2709.4,13947,356.8,""smooth"",""left"",""left"",""good_move"",20868,3854.4,3493.6,17013.6,360.8,""oops"",""up"",""down"",""bad_move"",26370.3,5502,1918.7,24138,313.6,""oops"",""up"",""right"",""bad_move"",29136.7,2766.2,2389.6,26370.5,376.6,""smooth"",""up"",""up"",""good_move"",31321.9,2184.9,1915.1,29137,269.8,""while_blue"",""up"",""down"",""bad_move"",38805.8,7483.4,3351.4,35072.7,381.7,""smooth"",""up"",""up"",""good_move"",41991.1,3185.1,2865.5,38806,319.6,""smooth"",""up"",""up"",""good_move"",44608.9,2617.6,2242.5,41991.3,375.1,""oops"",""up"",""right"",""bad_move"",47211.9,2602.8,2268.4,44609.1,334.4,""smooth"",""up"",""up"",""good_move""]"
"2573","","<div style=""width:500px;"">
  <p>What determined the result of this run?</p>
  </div>","5","html-slider-response","64","630411","0.0-7.0-1.10","157","1","2025-08-06 09:04:27","36c45c0696341be0efffe67d72a12abb","150.143.112.140","Mozilla/5.0 (Windows NT 10.0; Win64; x64) AppleWebKit/537.36 (KHTML, like Gecko) Chrome/138.0.0.0 Safari/537.36","WebKit","Chrome","138.0.0.0","Windows","10.0","https://app.prolific.com/","en-GB,en-US;q=0.9,en;q=0.8","5537b204fdf99b51eefed679","687a1a965b9f5b85a264363e","68931a86d655adfc14099049","1","5537b204fdf99b51eefed679","1","2025-08-06T09:14:58.801Z","","","","AttribQ","","","","","","","","","","","50","","","","","","","","","","","","","","","","","","","","","","","","","","",""
"1530","","<div style=""width:500px;"">
  <p>How much control did you have over the ball?</p>
  </div>","1","html-slider-response","65","631942","0.0-7.0-2.10","157","1","2025-08-06 09:04:27","36c45c0696341be0efffe67d72a12abb","150.143.112.140","Mozilla/5.0 (Windows NT 10.0; Win64; x64) AppleWebKit/537.36 (KHTML, like Gecko) Chrome/138.0.0.0 Safari/537.36","WebKit","Chrome","138.0.0.0","Windows","10.0","https://app.prolific.com/","en-GB,en-US;q=0.9,en;q=0.8","5537b204fdf99b51eefed679","687a1a965b9f5b85a264363e","68931a86d655adfc14099049","1","5537b204fdf99b51eefed679","1","2025-08-06T09:15:00.332Z","","","","ControlQ","","","","","","","","","","","50","","","","","","","","","","","","","","","","","","","","","","","","","","",""
"1099","","<div style=""width:500px;"">
  <p>How would you describe your current emotional state?</p>
  </div>","72","html-slider-response","66","633042","0.0-7.0-3.10","157","1","2025-08-06 09:04:27","36c45c0696341be0efffe67d72a12abb","150.143.112.140","Mozilla/5.0 (Windows NT 10.0; Win64; x64) AppleWebKit/537.36 (KHTML, like Gecko) Chrome/138.0.0.0 Safari/537.36","WebKit","Chrome","138.0.0.0","Windows","10.0","https://app.prolific.com/","en-GB,en-US;q=0.9,en;q=0.8","5537b204fdf99b51eefed679","687a1a965b9f5b85a264363e","68931a86d655adfc14099049","1","5537b204fdf99b51eefed679","1","2025-08-06T09:15:01.432Z","","","","StressQ","","","","","","","","","","","50","","","","","","","","","","","","","","","","","","","","","","","","","","",""
"1025","","<div style=""width:500px;"">
  <p>What best describes how you currently feel?</p>
  </div>","6","html-slider-response","67","634068","0.0-7.0-4.10","157","1","2025-08-06 09:04:27","36c45c0696341be0efffe67d72a12abb","150.143.112.140","Mozilla/5.0 (Windows NT 10.0; Win64; x64) AppleWebKit/537.36 (KHTML, like Gecko) Chrome/138.0.0.0 Safari/537.36","WebKit","Chrome","138.0.0.0","Windows","10.0","https://app.prolific.com/","en-GB,en-US;q=0.9,en;q=0.8","5537b204fdf99b51eefed679","687a1a965b9f5b85a264363e","68931a86d655adfc14099049","1","5537b204fdf99b51eefed679","1","2025-08-06T09:15:02.458Z","","","","MotivationQ","","","","","","","","","","","50","","","","","","","","","","","","","","","","","","","","","","","","","","",""
"","","","","ctl-task-cpt","68","666451","0.0-7.0-0.11","157","1","2025-08-06 09:04:27","36c45c0696341be0efffe67d72a12abb","150.143.112.140","Mozilla/5.0 (Windows NT 10.0; Win64; x64) AppleWebKit/537.36 (KHTML, like Gecko) Chrome/138.0.0.0 Safari/537.36","WebKit","Chrome","138.0.0.0","Windows","10.0","https://app.prolific.com/","en-GB,en-US;q=0.9,en;q=0.8","5537b204fdf99b51eefed679","687a1a965b9f5b85a264363e","68931a86d655adfc14099049","1","5537b204fdf99b51eefed679","1","2025-08-06T09:15:34.841Z","","","","","","","","","","","","","","","","win-only","2","g1:SE,g2:NW","0.7","12","0","635672.2","714.4","5720.2","29350.8","1","4","4","6","2","4","4","4","0","0.030303030303030304","1345.5","3000","1050","[""left"",""up""]","{""num_key_presses"":8,""num_perfect"":5,""num_errors"":0,""num_randdir"":3,""num_randdir_good_moves"":2,""num_whilered"":0,""num_whileblue"":0,""num_blue"":1,""num_good_moves"":7}","[407.8214133126395,412.82142761775424,0.2,407.8214133126395,412.82142761775424,106.7,407.8214133126395,412.82142761775424,211.9,407.8214133126395,412.82142761775424,319.6,407.8214133126395,412.82142761775424,420.5,441.5714133126395,467.82142761775424,522,445.3214133126395,471.57142761775424,623.2,444.0714133126395,470.32142761775424,727.7,445.3214133126395,471.57142761775424,833.9,439.0714133126395,464.07142761775424,939.3,96.5714133126395,246.57142761775424,1041.9,71.5714133126395,206.57142761775424,1142.5,56.57141331263951,132.82142761775424,1242.7,59.07141331263951,91.57142761775425,1342.9,59.07141331263951,91.57142761775425,1457.9,175.3214133126395,170.32142761775424,1562,336.5714133126395,282.82142761775424,1662.4,417.8214133126395,384.07142761775424,1775.2,417.8214133126395,384.07142761775424,1876,417.8214133126395,384.07142761775424,1976.8,417.8214133126395,384.07142761775424,2084.1,417.8214133126395,384.07142761775424,2188.9,417.8214133126395,384.07142761775424,2291.1,417.8214133126395,384.07142761775424,2392.3,417.8214133126395,384.07142761775424,2492.3,417.8214133126395,384.07142761775424,2596,417.8214133126395,384.07142761775424,2716.2,417.8214133126395,384.07142761775424,2826.5,417.8214133126395,384.07142761775424,2927.1,417.8214133126395,384.07142761775424,3027.2,417.8214133126395,384.07142761775424,3135.9,417.8214133126395,384.07142761775424,3236.8,417.8214133126395,384.07142761775424,3342.1,417.8214133126395,384.07142761775424,3442.7,417.8214133126395,384.07142761775424,3556.4,417.8214133126395,384.07142761775424,3657.3,417.8214133126395,384.07142761775424,3760.8,417.8214133126395,384.07142761775424,3861.7,417.8214133126395,384.07142761775424,3968.4,417.8214133126395,384.07142761775424,4070,417.8214133126395,384.07142761775424,4170.9,417.8214133126395,384.07142761775424,4276,417.8214133126395,384.07142761775424,4376.6,417.8214133126395,384.07142761775424,4481.6,417.8214133126395,384.07142761775424,4591,417.8214133126395,384.07142761775424,4691.9,417.8214133126395,384.07142761775424,4797.1,417.8214133126395,384.07142761775424,4903.5]","[1322.6,1322.6,1000,0,322.6,""smooth"",""left"",""left"",""good_move"",3858.6,2535.5,2193.6,1323.1,341.9,""smooth"",""left"",""left"",""good_move"",6926.5,3067.9,2747.4,3858.7,320.5,""oops"",""left"",""down"",""bad_move"",9479.9,2552.9,2212.3,6927,340.6,""oops"",""left"",""up"",""good_move"",12506.5,3025.6,2645.8,9480.9,379.8,""oops"",""left"",""left"",""good_move"",14589.3,2082.5,1696.7,12506.8,385.8,""smooth"",""up"",""up"",""good_move"",17856.8,3267.3,2824.3,14589.5,443,""smooth"",""up"",""up"",""good_move"",23509.1,5651.5,2158.9,20976.3,373.9,""smooth"",""up"",""up"",""good_move""]"
"1835","","<div style=""width:500px;"">
  <p>What determined the result of this run?</p>
  </div>","14","html-slider-response","69","668287","0.0-7.0-1.11","157","1","2025-08-06 09:04:27","36c45c0696341be0efffe67d72a12abb","150.143.112.140","Mozilla/5.0 (Windows NT 10.0; Win64; x64) AppleWebKit/537.36 (KHTML, like Gecko) Chrome/138.0.0.0 Safari/537.36","WebKit","Chrome","138.0.0.0","Windows","10.0","https://app.prolific.com/","en-GB,en-US;q=0.9,en;q=0.8","5537b204fdf99b51eefed679","687a1a965b9f5b85a264363e","68931a86d655adfc14099049","1","5537b204fdf99b51eefed679","1","2025-08-06T09:15:36.677Z","","","","AttribQ","","","","","","","","","","","50","","","","","","","","","","","","","","","","","","","","","","","","","","",""
"1938","","<div style=""width:500px;"">
  <p>How much control did you have over the ball?</p>
  </div>","5","html-slider-response","70","670226","0.0-7.0-2.11","157","1","2025-08-06 09:04:27","36c45c0696341be0efffe67d72a12abb","150.143.112.140","Mozilla/5.0 (Windows NT 10.0; Win64; x64) AppleWebKit/537.36 (KHTML, like Gecko) Chrome/138.0.0.0 Safari/537.36","WebKit","Chrome","138.0.0.0","Windows","10.0","https://app.prolific.com/","en-GB,en-US;q=0.9,en;q=0.8","5537b204fdf99b51eefed679","687a1a965b9f5b85a264363e","68931a86d655adfc14099049","1","5537b204fdf99b51eefed679","1","2025-08-06T09:15:38.616Z","","","","ControlQ","","","","","","","","","","","50","","","","","","","","","","","","","","","","","","","","","","","","","","",""
"1955","","<div style=""width:500px;"">
  <p>How would you describe your current emotional state?</p>
  </div>","55","html-slider-response","71","672183","0.0-7.0-3.11","157","1","2025-08-06 09:04:27","36c45c0696341be0efffe67d72a12abb","150.143.112.140","Mozilla/5.0 (Windows NT 10.0; Win64; x64) AppleWebKit/537.36 (KHTML, like Gecko) Chrome/138.0.0.0 Safari/537.36","WebKit","Chrome","138.0.0.0","Windows","10.0","https://app.prolific.com/","en-GB,en-US;q=0.9,en;q=0.8","5537b204fdf99b51eefed679","687a1a965b9f5b85a264363e","68931a86d655adfc14099049","1","5537b204fdf99b51eefed679","1","2025-08-06T09:15:40.573Z","","","","StressQ","","","","","","","","","","","50","","","","","","","","","","","","","","","","","","","","","","","","","","",""
"1805","","<div style=""width:500px;"">
  <p>What best describes how you currently feel?</p>
  </div>","32","html-slider-response","72","673988","0.0-7.0-4.11","157","1","2025-08-06 09:04:27","36c45c0696341be0efffe67d72a12abb","150.143.112.140","Mozilla/5.0 (Windows NT 10.0; Win64; x64) AppleWebKit/537.36 (KHTML, like Gecko) Chrome/138.0.0.0 Safari/537.36","WebKit","Chrome","138.0.0.0","Windows","10.0","https://app.prolific.com/","en-GB,en-US;q=0.9,en;q=0.8","5537b204fdf99b51eefed679","687a1a965b9f5b85a264363e","68931a86d655adfc14099049","1","5537b204fdf99b51eefed679","1","2025-08-06T09:15:42.379Z","","","","MotivationQ","","","","","","","","","","","50","","","","","","","","","","","","","","","","","","","","","","","","","","",""
"","","","","ctl-task-cpt","73","710823","0.0-7.0-0.12","157","1","2025-08-06 09:04:27","36c45c0696341be0efffe67d72a12abb","150.143.112.140","Mozilla/5.0 (Windows NT 10.0; Win64; x64) AppleWebKit/537.36 (KHTML, like Gecko) Chrome/138.0.0.0 Safari/537.36","WebKit","Chrome","138.0.0.0","Windows","10.0","https://app.prolific.com/","en-GB,en-US;q=0.9,en;q=0.8","5537b204fdf99b51eefed679","687a1a965b9f5b85a264363e","68931a86d655adfc14099049","1","5537b204fdf99b51eefed679","1","2025-08-06T09:16:19.213Z","","","","","","","","","","","","","","","","win-only","3","g1:SW,g2:NE","0.8","13","0","675591.7","584.2","5585.6","33824.4","1","4","8","6","2","8","8","12","4","0.09090909090909091","796.3","3000","1045","[""up"",""right""]","{""num_key_presses"":8,""num_perfect"":7,""num_errors"":0,""num_randdir"":1,""num_randdir_good_moves"":0,""num_whilered"":0,""num_whileblue"":0,""num_blue"":2,""num_good_moves"":7}","[406.5714133126395,421.57142761775424,0.2,406.5714133126395,421.57142761775424,102.2,406.5714133126395,421.57142761775424,209.3,406.5714133126395,421.57142761775424,309.8,406.5714133126395,421.57142761775424,410,500.3214133126395,326.57142761775424,517.2,637.8214133126395,180.32142761775424,617.9,699.0714133126395,122.82142761775425,718.2,716.5714133126395,102.82142761775425,832.7,716.5714133126395,104.07142761775425,935.8,716.5714133126395,104.07142761775425,1036.5,695.3214133126395,157.82142761775424,1151,637.8214133126395,287.82142761775424,1251.8,619.0714133126395,334.07142761775424,1351.9,619.0714133126395,334.07142761775424,1452.2,619.0714133126395,334.07142761775424,1556.9,619.0714133126395,335.32142761775424,1661.3,589.0714133126395,370.32142761775424,1762,572.8214133126395,386.57142761775424,1864.2,567.8214133126395,376.57142761775424,1968.3,604.0714133126395,360.32142761775424,2083.3,620.3214133126395,361.57142761775424,2183.3,620.3214133126395,361.57142761775424,2283.6,620.3214133126395,361.57142761775424,2386.3,620.3214133126395,361.57142761775424,2486.4,620.3214133126395,361.57142761775424,2586.9,620.3214133126395,361.57142761775424,2695.8,620.3214133126395,361.57142761775424,2799.7,620.3214133126395,361.57142761775424,2901.4,620.3214133126395,361.57142761775424,3006.7,620.3214133126395,361.57142761775424,3106.8,620.3214133126395,361.57142761775424,3207.1,620.3214133126395,361.57142761775424,3308.2,620.3214133126395,361.57142761775424,3410.2,620.3214133126395,361.57142761775424,3518.9,620.3214133126395,361.57142761775424,3622.5,620.3214133126395,361.57142761775424,3731,620.3214133126395,361.57142761775424,3836.7,620.3214133126395,361.57142761775424,3951.8,620.3214133126395,361.57142761775424,4068.3,620.3214133126395,361.57142761775424,4170,620.3214133126395,361.57142761775424,4271.3,620.3214133126395,361.57142761775424,4380.1,620.3214133126395,361.57142761775424,4481.1,620.3214133126395,361.57142761775424,4585.3,620.3214133126395,361.57142761775424,4685.8,620.3214133126395,361.57142761775424,4786.4,620.3214133126395,361.57142761775424,4886.8,620.3214133126395,361.57142761775424,4993.4]","[4982.6,4982.6,2581.8,2004.6,396.2,""smooth"",""right"",""right"",""good_move"",7770.4,2787.2,2264.5,4983.2,522.7,""smooth"",""right"",""right"",""good_move"",13908,6137.3,2500.1,11072,335.9,""oops"",""right"",""down"",""bad_move"",16812.5,2904.1,2536.9,13908.4,367.2,""smooth"",""right"",""right"",""good_move"",19489.8,2676.8,2335,16813,341.8,""smooth"",""up"",""up"",""good_move"",22090.4,2600.3,2268.2,19490.1,332.1,""smooth"",""up"",""up"",""good_move"",25110,3019.4,2673.9,22090.6,345.5,""smooth"",""up"",""up"",""good_move"",28068.3,2958,2604.3,25110.3,353.7,""smooth"",""up"",""up"",""good_move""]"
"1695","","<div style=""width:500px;"">
  <p>What determined the result of this run?</p>
  </div>","7","html-slider-response","74","712520","0.0-7.0-1.12","157","1","2025-08-06 09:04:27","36c45c0696341be0efffe67d72a12abb","150.143.112.140","Mozilla/5.0 (Windows NT 10.0; Win64; x64) AppleWebKit/537.36 (KHTML, like Gecko) Chrome/138.0.0.0 Safari/537.36","WebKit","Chrome","138.0.0.0","Windows","10.0","https://app.prolific.com/","en-GB,en-US;q=0.9,en;q=0.8","5537b204fdf99b51eefed679","687a1a965b9f5b85a264363e","68931a86d655adfc14099049","1","5537b204fdf99b51eefed679","1","2025-08-06T09:16:20.910Z","","","","AttribQ","","","","","","","","","","","50","","","","","","","","","","","","","","","","","","","","","","","","","","",""
"2411","","<div style=""width:500px;"">
  <p>How much control did you have over the ball?</p>
  </div>","4","html-slider-response","75","714932","0.0-7.0-2.12","157","1","2025-08-06 09:04:27","36c45c0696341be0efffe67d72a12abb","150.143.112.140","Mozilla/5.0 (Windows NT 10.0; Win64; x64) AppleWebKit/537.36 (KHTML, like Gecko) Chrome/138.0.0.0 Safari/537.36","WebKit","Chrome","138.0.0.0","Windows","10.0","https://app.prolific.com/","en-GB,en-US;q=0.9,en;q=0.8","5537b204fdf99b51eefed679","687a1a965b9f5b85a264363e","68931a86d655adfc14099049","1","5537b204fdf99b51eefed679","1","2025-08-06T09:16:23.322Z","","","","ControlQ","","","","","","","","","","","50","","","","","","","","","","","","","","","","","","","","","","","","","","",""
"1018","","<div style=""width:500px;"">
  <p>How would you describe your current emotional state?</p>
  </div>","59","html-slider-response","76","715951","0.0-7.0-3.12","157","1","2025-08-06 09:04:27","36c45c0696341be0efffe67d72a12abb","150.143.112.140","Mozilla/5.0 (Windows NT 10.0; Win64; x64) AppleWebKit/537.36 (KHTML, like Gecko) Chrome/138.0.0.0 Safari/537.36","WebKit","Chrome","138.0.0.0","Windows","10.0","https://app.prolific.com/","en-GB,en-US;q=0.9,en;q=0.8","5537b204fdf99b51eefed679","687a1a965b9f5b85a264363e","68931a86d655adfc14099049","1","5537b204fdf99b51eefed679","1","2025-08-06T09:16:24.341Z","","","","StressQ","","","","","","","","","","","50","","","","","","","","","","","","","","","","","","","","","","","","","","",""
"1073","","<div style=""width:500px;"">
  <p>What best describes how you currently feel?</p>
  </div>","34","html-slider-response","77","717025","0.0-7.0-4.12","157","1","2025-08-06 09:04:27","36c45c0696341be0efffe67d72a12abb","150.143.112.140","Mozilla/5.0 (Windows NT 10.0; Win64; x64) AppleWebKit/537.36 (KHTML, like Gecko) Chrome/138.0.0.0 Safari/537.36","WebKit","Chrome","138.0.0.0","Windows","10.0","https://app.prolific.com/","en-GB,en-US;q=0.9,en;q=0.8","5537b204fdf99b51eefed679","687a1a965b9f5b85a264363e","68931a86d655adfc14099049","1","5537b204fdf99b51eefed679","1","2025-08-06T09:16:25.415Z","","","","MotivationQ","","","","","","","","","","","50","","","","","","","","","","","","","","","","","","","","","","","","","","",""
