"rt","response_timestamp","stimulus","response","trial_type","trial_index","time_elapsed","internal_node_id","run_id","condition","recorded_at","source_code_version","ip","user_agent","device","browser","browser_version","platform","platform_version","referer","accept_language","PROLIFIC_PID","STUDY_ID","SESSION_ID","BATCH","prolific_id","batch","realtime","success","question_order","question_id","eventType","responses","item_order","radio_event_ids","radio_event_times","key_event_times","mouse_event_times","straightlining","zigzagging","honeypot","view_history","slider_start","which_type","canvas_config","goals_layout","control_level","trial_number","tutorial_trial_number","trial_start_time","phase1_start_time","phase2_start_time","phase3_start_time","goal_1_value","goal_1_distance","goal_2_value","goal_2_distance","goal_selected","outcome","outcome_total","participant_final_score","participant_initial_score","participant_final_score_prop","goal_choice_rt","allocated_time","allocated_time_remaining","goal_direction","counts","mouse_movements","key_presses"
"3992","1754507829252","<p style='font-size:40px;line-height:1.25'><strong>Welcome to the experiment!</strong></p><p style='font-size:1.1em;line-height:1.25'>Thank you for participanting in our experiment again! You will be asked to play the Dysfunctional Ball Game again. We will briefly recap the rules before we start.</p><p style='font-size:1.1em;line-height:1.25'>Press <strong>Next</strong> to continue.</p>","0","custom-html-button-response","0","3999","0.0-0.0","215","1","2025-08-06 19:17:01","36c45c0696341be0efffe67d72a12abb","91.140.28.33","Mozilla/5.0 (Windows NT 10.0; Win64; x64; rv:141.0) Gecko/20100101 Firefox/141.0","","Firefox","141.0","Windows","10.0","https://app.prolific.com/","en-US,en;q=0.5","56e4b2e044b184000b894159","6877649eabb845cf142cd221","6893aa070807096960a86727","1","56e4b2e044b184000b894159","1","2025-08-06T19:17:09.252Z","","","","","","","","","","","","","","","","","","","","","","","","","","","","","","","","","","","","","","","","","",""
"4989","","","","fullscreen","1","10071","0.0-1.0","215","1","2025-08-06 19:17:01","36c45c0696341be0efffe67d72a12abb","91.140.28.33","Mozilla/5.0 (Windows NT 10.0; Win64; x64; rv:141.0) Gecko/20100101 Firefox/141.0","","Firefox","141.0","Windows","10.0","https://app.prolific.com/","en-US,en;q=0.5","56e4b2e044b184000b894159","6877649eabb845cf142cd221","6893aa070807096960a86727","1","56e4b2e044b184000b894159","1","","true","","","","","","","","","","","","","","","","","","","","","","","","","","","","","","","","","","","","","","","","",""
"5932","1754507841257"," <p style='font-size:1.1em;line-height:1.25'>Thank you for closing all other tabs.</p><p style='font-size:1.1em;line-height:1.25'>We will now invite you to fill in some questionnaires, before starting the game.<br>This will take about 5 minutes.<br></p><p style='font-size:1.1em;line-height:1.25'>Press the <strong>Next</strong> button to continue.</p>","0","custom-html-button-response","2","16004","0.0-2.0","215","1","2025-08-06 19:17:01","36c45c0696341be0efffe67d72a12abb","91.140.28.33","Mozilla/5.0 (Windows NT 10.0; Win64; x64; rv:141.0) Gecko/20100101 Firefox/141.0","","Firefox","141.0","Windows","10.0","https://app.prolific.com/","en-US,en;q=0.5","56e4b2e044b184000b894159","6877649eabb845cf142cd221","6893aa070807096960a86727","1","56e4b2e044b184000b894159","1","2025-08-06T19:17:21.257Z","","","","","","","","","","","","","","","","","","","","","","","","","","","","","","","","","","","","","","","","","",""
"8653","","","{""assigned_sex"":""female""}","survey-multi-choice","3","24658","0.0-3.0-0.0","215","1","2025-08-06 19:17:01","36c45c0696341be0efffe67d72a12abb","91.140.28.33","Mozilla/5.0 (Windows NT 10.0; Win64; x64; rv:141.0) Gecko/20100101 Firefox/141.0","","Firefox","141.0","Windows","10.0","https://app.prolific.com/","en-US,en;q=0.5","56e4b2e044b184000b894159","6877649eabb845cf142cd221","6893aa070807096960a86727","1","56e4b2e044b184000b894159","1","","","[0]","0","demographics","","","","","","","","","","","","","","","","","","","","","","","","","","","","","","","","","","","","","",""
"5636","1754507855548","<p style='font-size:1.1em;line-height:1.25'>In the following, we will perform a baseline assessment. This means that we will ask you a few questions relating to your experiences over the past month.<br></p><p style='font-size:1.1em;line-height:1.25'>Press the <strong>Next</strong> button to continue.</p>","0","custom-html-button-response","4","30296","0.0-4.0-0.0","215","1","2025-08-06 19:17:01","36c45c0696341be0efffe67d72a12abb","91.140.28.33","Mozilla/5.0 (Windows NT 10.0; Win64; x64; rv:141.0) Gecko/20100101 Firefox/141.0","","Firefox","141.0","Windows","10.0","https://app.prolific.com/","en-US,en;q=0.5","56e4b2e044b184000b894159","6877649eabb845cf142cd221","6893aa070807096960a86727","1","56e4b2e044b184000b894159","1","2025-08-06T19:17:35.549Z","","","","","","","","","","","","","","","","","","","","","","","","","","","","","","","","","","","","","","","","","",""
"88944","","","","survey-template","5","119242","0.0-4.0-1.0","215","1","2025-08-06 19:17:01","36c45c0696341be0efffe67d72a12abb","91.140.28.33","Mozilla/5.0 (Windows NT 10.0; Win64; x64; rv:141.0) Gecko/20100101 Firefox/141.0","","Firefox","141.0","Windows","10.0","https://app.prolific.com/","en-US,en;q=0.5","56e4b2e044b184000b894159","6877649eabb845cf142cd221","6893aa070807096960a86727","1","56e4b2e044b184000b894159","1","2025-08-06T19:19:04.495Z","","","","pss","{""Q01"":""1"",""Q02"":""1"",""Q03"":""2"",""Q04"":""1"",""Q05"":""1"",""Q06"":""0"",""Q07"":""0"",""Q08"":""1"",""Q09"":""1"",""Q10"":""0""}","[0,1,2,3,4,5,6,7,8,9]","[""Q01"",""Q02"",""Q03"",""Q04"",""Q05"",""Q06"",""Q07"",""Q08"",""Q09"",""Q10""]","[16181,29937,33112,39549,45934,53236,65443,70984,82429,87264]","[]","[0,15578,16181,29200,29937,33112,39549,45934,53236,65443,70984,82429,87264,88943]","0.3","0.5555555555555556","0","","","","","","","","","","","","","","","","","","","","","","","","","","","","",""
"3602","1754507948100","<p style='font-size:1.1em;line-height:1.25'>Thank you for your answers! Now we will ask you a few more questions relating to your feelings in the last 24 hours.<br></p><p style='font-size:1.1em;line-height:1.25'>Press the <strong>Next</strong> button to continue.</p>","0","custom-html-button-response","6","122847","0.0-4.0-2.0","215","1","2025-08-06 19:17:01","36c45c0696341be0efffe67d72a12abb","91.140.28.33","Mozilla/5.0 (Windows NT 10.0; Win64; x64; rv:141.0) Gecko/20100101 Firefox/141.0","","Firefox","141.0","Windows","10.0","https://app.prolific.com/","en-US,en;q=0.5","56e4b2e044b184000b894159","6877649eabb845cf142cd221","6893aa070807096960a86727","1","56e4b2e044b184000b894159","1","2025-08-06T19:19:08.100Z","","","","","","","","","","","","","","","","","","","","","","","","","","","","","","","","","","","","","","","","","",""
"115708","","","","survey-template","7","238559","0.0-4.0-3.0","215","1","2025-08-06 19:17:01","36c45c0696341be0efffe67d72a12abb","91.140.28.33","Mozilla/5.0 (Windows NT 10.0; Win64; x64; rv:141.0) Gecko/20100101 Firefox/141.0","","Firefox","141.0","Windows","10.0","https://app.prolific.com/","en-US,en;q=0.5","56e4b2e044b184000b894159","6877649eabb845cf142cd221","6893aa070807096960a86727","1","56e4b2e044b184000b894159","1","2025-08-06T19:21:03.812Z","","","","drsp","{""Q01"":""1"",""Q02"":""0"",""Q03"":""0"",""Q04"":""1"",""Q05"":""1"",""Q06"":""0"",""Q07"":""1"",""Q08"":""0"",""Q09"":""2"",""Q10"":""0"",""Q11"":""3"",""Q12"":""1"",""Q13"":""5"",""Q14"":""3"",""Q15"":""0"",""Q16"":""2"",""Q17"":""0"",""Q18"":""0"",""Q19"":""3"",""Q20"":""1"",""Q21"":""1"",""Q22"":""1""}","[0,1,2,3,4,5,6,7,8,9,10,11,12,13,14,15,16,17,18,19,20,21]","[""Q01"",""Q02"",""Q03"",""Q04"",""Q05"",""Q06"",""Q07"",""Q05"",""Q08"",""Q09"",""Q10"",""Q11"",""Q12"",""Q13"",""Q14"",""Q15"",""Q16"",""Q17"",""Q18"",""Q19"",""Q20"",""Q21"",""Q22""]","[4631,6585,8660,11924,16109,18816,34022,39054,42082,47951,50961,53808,59716,62483,68128,71800,78753,81561,83493,88895,101445,104998,112409]","[]","[0,4631,6585,8660,11924,16109,18816,34022,38398,39054,42082,47951,50961,53808,59716,62483,68128,71800,78753,81561,83493,88895,101445,104998,112409,115707]","0.36363636363636365","0.23809523809523808","0","","","","","","","","","","","","","","","","","","","","","","","","","","","","",""
"28886","","","","survey-template","8","267448","0.0-4.0-4.0","215","1","2025-08-06 19:17:01","36c45c0696341be0efffe67d72a12abb","91.140.28.33","Mozilla/5.0 (Windows NT 10.0; Win64; x64; rv:141.0) Gecko/20100101 Firefox/141.0","","Firefox","141.0","Windows","10.0","https://app.prolific.com/","en-US,en;q=0.5","56e4b2e044b184000b894159","6877649eabb845cf142cd221","6893aa070807096960a86727","1","56e4b2e044b184000b894159","1","2025-08-06T19:21:32.701Z","","","","stress","{""Q01"":""1"",""Q02"":""2"",""Q03"":""0""}","[0,1,2]","[""Q01"",""Q02"",""Q02"",""Q03""]","[5668,16427,22233,27243]","[]","[5668,16427,22233,27243,28886]","0.3333333333333333","0","0","","","","","","","","","","","","","","","","","","","","","","","","","","","","",""
"28724","","","","instructions","9","296173","0.0-5.0-0.0","215","1","2025-08-06 19:17:01","36c45c0696341be0efffe67d72a12abb","91.140.28.33","Mozilla/5.0 (Windows NT 10.0; Win64; x64; rv:141.0) Gecko/20100101 Firefox/141.0","","Firefox","141.0","Windows","10.0","https://app.prolific.com/","en-US,en;q=0.5","56e4b2e044b184000b894159","6877649eabb845cf142cd221","6893aa070807096960a86727","1","56e4b2e044b184000b894159","1","","","","","","","","","","","","","","","[{""page_index"":0,""viewing_time"":28724}]","","","","","","","","","","","","","","","","","","","","","","","","","","","",""
"11595","","<p>Before you start with this game please answer the following three questions yourself. </p>
  <p>Through this game, we measure several aspects of your cognitive performance, such as reaction times, multi-tasking capabilities </p>
  <p>and the ability to assess the situation you are in.</p>
  <p></p>
  <p><b>How good do you usually are in such tasks?</b></p>","90","html-slider-response","10","307770","0.0-6.0-0.0","215","1","2025-08-06 19:17:01","36c45c0696341be0efffe67d72a12abb","91.140.28.33","Mozilla/5.0 (Windows NT 10.0; Win64; x64; rv:141.0) Gecko/20100101 Firefox/141.0","","Firefox","141.0","Windows","10.0","https://app.prolific.com/","en-US,en;q=0.5","56e4b2e044b184000b894159","6877649eabb845cf142cd221","6893aa070807096960a86727","1","56e4b2e044b184000b894159","1","2025-08-06T19:22:13.023Z","","","","PreSkillQ","","","","","","","","","","","50","","","","","","","","","","","","","","","","","","","","","","","","","","",""
"9299","","<div style=""width:500px;"">
  <p>How well do you think you will perform in this task compared to other participants?</p>
  </div>","58","html-slider-response","11","317071","0.0-6.0-1.0","215","1","2025-08-06 19:17:01","36c45c0696341be0efffe67d72a12abb","91.140.28.33","Mozilla/5.0 (Windows NT 10.0; Win64; x64; rv:141.0) Gecko/20100101 Firefox/141.0","","Firefox","141.0","Windows","10.0","https://app.prolific.com/","en-US,en;q=0.5","56e4b2e044b184000b894159","6877649eabb845cf142cd221","6893aa070807096960a86727","1","56e4b2e044b184000b894159","1","2025-08-06T19:22:22.324Z","","","","PrePerfQ","","","","","","","","","","","50","","","","","","","","","","","","","","","","","","","","","","","","","","",""
"11289","","<div style=""width:500px;"">
  <p>What best describes how you currently feel?</p>
  </div>","87","html-slider-response","12","328361","0.0-6.0-2.0","215","1","2025-08-06 19:17:01","36c45c0696341be0efffe67d72a12abb","91.140.28.33","Mozilla/5.0 (Windows NT 10.0; Win64; x64; rv:141.0) Gecko/20100101 Firefox/141.0","","Firefox","141.0","Windows","10.0","https://app.prolific.com/","en-US,en;q=0.5","56e4b2e044b184000b894159","6877649eabb845cf142cd221","6893aa070807096960a86727","1","56e4b2e044b184000b894159","1","2025-08-06T19:22:33.614Z","","","","PreMotivationQ","","","","","","","","","","","50","","","","","","","","","","","","","","","","","","","","","","","","","","",""
"","","","","ctl-task-cpt","13","362296","0.0-7.0-0.0","215","1","2025-08-06 19:17:01","36c45c0696341be0efffe67d72a12abb","91.140.28.33","Mozilla/5.0 (Windows NT 10.0; Win64; x64; rv:141.0) Gecko/20100101 Firefox/141.0","","Firefox","141.0","Windows","10.0","https://app.prolific.com/","en-US,en;q=0.5","56e4b2e044b184000b894159","6877649eabb845cf142cd221","6893aa070807096960a86727","1","56e4b2e044b184000b894159","1","2025-08-06T19:23:07.549Z","","","","","","","","","","","","","","","","win-only","3","g1:SW,g2:NE","1","1","0","339829","2007","7009","30931","1","4","4","6","2","4","4","4","0","0.030303030303030304","981","3000","2205","[""up"",""right""]","{""num_key_presses"":6,""num_perfect"":6,""num_errors"":0,""num_randdir"":0,""num_randdir_good_moves"":0,""num_whilered"":0,""num_whileblue"":0,""num_blue"":2,""num_good_moves"":6}","[415.3214133126395,422.5714362008231,1,415.3214133126395,422.5714362008231,100,415.3214133126395,422.5714362008231,208,415.3214133126395,422.5714362008231,316,332.8214133126395,502.5714362008231,423,326.5714133126395,491.3214362008231,531,730.3214133126395,88.8214362008231,640,790.3214133126395,15.0714362008231,748,791.5714133126395,33.8214362008231,857,785.3214133126395,56.3214362008231,966,785.3214133126395,58.8214362008231,1075,785.3214133126395,60.0714362008231,1182,785.3214133126395,60.0714362008231,1292,785.3214133126395,60.0714362008231,1402,912.8214133126395,533.8214362008231,1511,1375.3214133126396,960.0714362008231,1621,1375.3214133126396,451.3214362008231,1731,1375.3214133126396,451.3214362008231,1838,1375.3214133126396,451.3214362008231,1947,1375.3214133126396,451.3214362008231,2054,1375.3214133126396,451.3214362008231,2164,1375.3214133126396,451.3214362008231,2274,1375.3214133126396,451.3214362008231,2382,1375.3214133126396,451.3214362008231,2491,1375.3214133126396,451.3214362008231,2600,1375.3214133126396,451.3214362008231,2708,1375.3214133126396,451.3214362008231,2817,1375.3214133126396,451.3214362008231,2924,1375.3214133126396,451.3214362008231,3032,1375.3214133126396,451.3214362008231,3142,1375.3214133126396,451.3214362008231,3252,1375.3214133126396,451.3214362008231,3360,1375.3214133126396,451.3214362008231,3467,1375.3214133126396,451.3214362008231,3575,1375.3214133126396,451.3214362008231,3683,1375.3214133126396,451.3214362008231,3793,1375.3214133126396,451.3214362008231,3902,1375.3214133126396,451.3214362008231,4010,1375.3214133126396,451.3214362008231,4121,1375.3214133126396,451.3214362008231,4228,1375.3214133126396,451.3214362008231,4337,1375.3214133126396,451.3214362008231,4447,1375.3214133126396,451.3214362008231,4555,1375.3214133126396,451.3214362008231,4663,1375.3214133126396,451.3214362008231,4772,1375.3214133126396,451.3214362008231,4878,1375.3214133126396,451.3214362008231,4986]","[1415,1415,1000,0,415,""smooth"",""right"",""right"",""good_move"",11552,10137,2586.5,8518,447.5,""smooth"",""right"",""right"",""good_move"",14398,2846,2398.1,11552,447.9,""smooth"",""right"",""right"",""good_move"",17427,3029,2664.6,14398,364.4,""smooth"",""up"",""up"",""good_move"",20591,3164,2695.2,17427,468.8,""smooth"",""up"",""up"",""good_move"",23635,3044,2257.5,20591,786.5,""smooth"",""up"",""up"",""good_move""]"
"4838","","<div style=""width:500px;"">
  <p>What determined the result of this run?</p>
  </div>","57","html-slider-response","14","367135","0.0-7.0-1.0","215","1","2025-08-06 19:17:01","36c45c0696341be0efffe67d72a12abb","91.140.28.33","Mozilla/5.0 (Windows NT 10.0; Win64; x64; rv:141.0) Gecko/20100101 Firefox/141.0","","Firefox","141.0","Windows","10.0","https://app.prolific.com/","en-US,en;q=0.5","56e4b2e044b184000b894159","6877649eabb845cf142cd221","6893aa070807096960a86727","1","56e4b2e044b184000b894159","1","2025-08-06T19:23:12.388Z","","","","AttribQ","","","","","","","","","","","50","","","","","","","","","","","","","","","","","","","","","","","","","","",""
"3892","","<div style=""width:500px;"">
  <p>How much control did you have over the ball?</p>
  </div>","100","html-slider-response","15","371028","0.0-7.0-2.0","215","1","2025-08-06 19:17:01","36c45c0696341be0efffe67d72a12abb","91.140.28.33","Mozilla/5.0 (Windows NT 10.0; Win64; x64; rv:141.0) Gecko/20100101 Firefox/141.0","","Firefox","141.0","Windows","10.0","https://app.prolific.com/","en-US,en;q=0.5","56e4b2e044b184000b894159","6877649eabb845cf142cd221","6893aa070807096960a86727","1","56e4b2e044b184000b894159","1","2025-08-06T19:23:16.281Z","","","","ControlQ","","","","","","","","","","","50","","","","","","","","","","","","","","","","","","","","","","","","","","",""
"3186","","<div style=""width:500px;"">
  <p>How would you describe your current emotional state?</p>
  </div>","0","html-slider-response","16","374213","0.0-7.0-3.0","215","1","2025-08-06 19:17:01","36c45c0696341be0efffe67d72a12abb","91.140.28.33","Mozilla/5.0 (Windows NT 10.0; Win64; x64; rv:141.0) Gecko/20100101 Firefox/141.0","","Firefox","141.0","Windows","10.0","https://app.prolific.com/","en-US,en;q=0.5","56e4b2e044b184000b894159","6877649eabb845cf142cd221","6893aa070807096960a86727","1","56e4b2e044b184000b894159","1","2025-08-06T19:23:19.466Z","","","","StressQ","","","","","","","","","","","50","","","","","","","","","","","","","","","","","","","","","","","","","","",""
"17781","","<div style=""width:500px;"">
  <p>What best describes how you currently feel?</p>
  </div>","94","html-slider-response","17","391996","0.0-7.0-4.0","215","1","2025-08-06 19:17:01","36c45c0696341be0efffe67d72a12abb","91.140.28.33","Mozilla/5.0 (Windows NT 10.0; Win64; x64; rv:141.0) Gecko/20100101 Firefox/141.0","","Firefox","141.0","Windows","10.0","https://app.prolific.com/","en-US,en;q=0.5","56e4b2e044b184000b894159","6877649eabb845cf142cd221","6893aa070807096960a86727","1","56e4b2e044b184000b894159","1","2025-08-06T19:23:37.249Z","","","","MotivationQ","","","","","","","","","","","50","","","","","","","","","","","","","","","","","","","","","","","","","","",""
"","","","","ctl-task-cpt","18","423265","0.0-7.0-0.1","215","1","2025-08-06 19:17:01","36c45c0696341be0efffe67d72a12abb","91.140.28.33","Mozilla/5.0 (Windows NT 10.0; Win64; x64; rv:141.0) Gecko/20100101 Firefox/141.0","","Firefox","141.0","Windows","10.0","https://app.prolific.com/","en-US,en;q=0.5","56e4b2e044b184000b894159","6877649eabb845cf142cd221","6893aa070807096960a86727","1","56e4b2e044b184000b894159","1","2025-08-06T19:24:08.518Z","","","","","","","","","","","","","","","","win-only","1","g1:NE,g2:SW","0.9","2","0","403463","948","5961","28265","1","4","8","6","2","8","8","12","4","0.09090909090909091","954","3000","2260","[""down"",""left""]","{""num_key_presses"":6,""num_perfect"":5,""num_errors"":0,""num_randdir"":1,""num_randdir_good_moves"":1,""num_whilered"":0,""num_whileblue"":0,""num_blue"":2,""num_good_moves"":6}","[417.8214133126395,415.0714362008231,0,417.8214133126395,415.0714362008231,113,471.5714133126395,388.8214362008231,221,746.5714133126395,218.8214362008231,329,436.5714133126395,380.0714362008231,435,149.0714133126395,557.5714362008231,544,114.0714133126395,622.5714362008231,653,105.3214133126395,678.8214362008231,764,76.5714133126395,733.8214362008231,871,74.0714133126395,737.5714362008231,980,69.0714133126395,731.3214362008231,1087,-202.1785866873605,645.0714362008231,1197,-380.9285866873605,645.0714362008231,1305,-400.9285866873605,637.5714362008231,1414,-397.1785866873605,637.5714362008231,1523,-397.1785866873605,637.5714362008231,1631,-397.1785866873605,637.5714362008231,1739,-397.1785866873605,637.5714362008231,1848,-397.1785866873605,637.5714362008231,1955,-397.1785866873605,637.5714362008231,2065,-397.1785866873605,637.5714362008231,2176,-397.1785866873605,637.5714362008231,2288,-397.1785866873605,637.5714362008231,2400,-397.1785866873605,637.5714362008231,2512,-397.1785866873605,637.5714362008231,2623,-397.1785866873605,637.5714362008231,2734,-397.1785866873605,637.5714362008231,2847,-397.1785866873605,637.5714362008231,2957,-397.1785866873605,637.5714362008231,3069,-397.1785866873605,637.5714362008231,3178,-397.1785866873605,637.5714362008231,3290,-397.1785866873605,637.5714362008231,3401,-397.1785866873605,637.5714362008231,3514,-397.1785866873605,637.5714362008231,3625,-397.1785866873605,637.5714362008231,3736,-397.1785866873605,637.5714362008231,3849,-397.1785866873605,637.5714362008231,3960,-397.1785866873605,637.5714362008231,4071,-397.1785866873605,637.5714362008231,4179,-397.1785866873605,637.5714362008231,4285,-397.1785866873605,637.5714362008231,4393,-397.1785866873605,637.5714362008231,4502,-397.1785866873605,637.5714362008231,4611,-397.1785866873605,637.5714362008231,4719,-397.1785866873605,637.5714362008231,4827,-397.1785866873605,637.5714362008231,4935]","[1448,1448,1000,0,448,""oops"",""left"",""down"",""good_move"",6863,5415,2585.7,3899,378.3,""smooth"",""left"",""left"",""good_move"",9913,3050,2004.9,6863,1045.1,""smooth"",""left"",""left"",""good_move"",13090,3177,1849,9913,1328,""smooth"",""left"",""left"",""good_move"",16527,3437,3085,13090,352,""smooth"",""down"",""down"",""good_move"",22028,5501,1780.2,19884,363.8,""smooth"",""down"",""down"",""good_move""]"
"4003","","<div style=""width:500px;"">
  <p>What determined the result of this run?</p>
  </div>","58","html-slider-response","19","427269","0.0-7.0-1.1","215","1","2025-08-06 19:17:01","36c45c0696341be0efffe67d72a12abb","91.140.28.33","Mozilla/5.0 (Windows NT 10.0; Win64; x64; rv:141.0) Gecko/20100101 Firefox/141.0","","Firefox","141.0","Windows","10.0","https://app.prolific.com/","en-US,en;q=0.5","56e4b2e044b184000b894159","6877649eabb845cf142cd221","6893aa070807096960a86727","1","56e4b2e044b184000b894159","1","2025-08-06T19:24:12.522Z","","","","AttribQ","","","","","","","","","","","50","","","","","","","","","","","","","","","","","","","","","","","","","","",""
"4634","","<div style=""width:500px;"">
  <p>How much control did you have over the ball?</p>
  </div>","96","html-slider-response","20","431903","0.0-7.0-2.1","215","1","2025-08-06 19:17:01","36c45c0696341be0efffe67d72a12abb","91.140.28.33","Mozilla/5.0 (Windows NT 10.0; Win64; x64; rv:141.0) Gecko/20100101 Firefox/141.0","","Firefox","141.0","Windows","10.0","https://app.prolific.com/","en-US,en;q=0.5","56e4b2e044b184000b894159","6877649eabb845cf142cd221","6893aa070807096960a86727","1","56e4b2e044b184000b894159","1","2025-08-06T19:24:17.156Z","","","","ControlQ","","","","","","","","","","","50","","","","","","","","","","","","","","","","","","","","","","","","","","",""
"3193","","<div style=""width:500px;"">
  <p>How would you describe your current emotional state?</p>
  </div>","0","html-slider-response","21","435097","0.0-7.0-3.1","215","1","2025-08-06 19:17:01","36c45c0696341be0efffe67d72a12abb","91.140.28.33","Mozilla/5.0 (Windows NT 10.0; Win64; x64; rv:141.0) Gecko/20100101 Firefox/141.0","","Firefox","141.0","Windows","10.0","https://app.prolific.com/","en-US,en;q=0.5","56e4b2e044b184000b894159","6877649eabb845cf142cd221","6893aa070807096960a86727","1","56e4b2e044b184000b894159","1","2025-08-06T19:24:20.350Z","","","","StressQ","","","","","","","","","","","50","","","","","","","","","","","","","","","","","","","","","","","","","","",""
"5493","","<div style=""width:500px;"">
  <p>What best describes how you currently feel?</p>
  </div>","91","html-slider-response","22","440590","0.0-7.0-4.1","215","1","2025-08-06 19:17:01","36c45c0696341be0efffe67d72a12abb","91.140.28.33","Mozilla/5.0 (Windows NT 10.0; Win64; x64; rv:141.0) Gecko/20100101 Firefox/141.0","","Firefox","141.0","Windows","10.0","https://app.prolific.com/","en-US,en;q=0.5","56e4b2e044b184000b894159","6877649eabb845cf142cd221","6893aa070807096960a86727","1","56e4b2e044b184000b894159","1","2025-08-06T19:24:25.843Z","","","","MotivationQ","","","","","","","","","","","50","","","","","","","","","","","","","","","","","","","","","","","","","","",""
"","","","","ctl-task-cpt","23","473327","0.0-7.0-0.2","215","1","2025-08-06 19:17:01","36c45c0696341be0efffe67d72a12abb","91.140.28.33","Mozilla/5.0 (Windows NT 10.0; Win64; x64; rv:141.0) Gecko/20100101 Firefox/141.0","","Firefox","141.0","Windows","10.0","https://app.prolific.com/","en-US,en;q=0.5","56e4b2e044b184000b894159","6877649eabb845cf142cd221","6893aa070807096960a86727","1","56e4b2e044b184000b894159","1","2025-08-06T19:24:58.580Z","","","","","","","","","","","","","","","","win-only","1","g1:NE,g2:SW","0.8","3","0","452058","850","5859","29734","1","4","4","6","2","4","4","16","12","0.12121212121212122","937","3000","2110","[""down"",""left""]","{""num_key_presses"":6,""num_perfect"":4,""num_errors"":0,""num_randdir"":2,""num_randdir_good_moves"":2,""num_whilered"":0,""num_whileblue"":0,""num_blue"":2,""num_good_moves"":6}","[417.8214133126395,412.5714362008231,0,417.8214133126395,412.5714362008231,110,417.8214133126395,412.5714362008231,219,419.0714133126395,411.3214362008231,326,339.0714133126395,525.0714362008231,437,116.5714133126395,721.3214362008231,543,71.5714133126395,753.8214362008231,652,65.3214133126395,758.8214362008231,758,64.0714133126395,756.3214362008231,867,60.32141331263951,752.5714362008231,974,60.32141331263951,752.5714362008231,1081,34.07141331263951,732.5714362008231,1188,-290.9285866873605,603.8214362008231,1296,-317.1785866873605,583.8214362008231,1405,-295.9285866873605,498.8214362008231,1513,-245.9285866873605,555.0714362008231,1621,-232.1785866873605,568.8214362008231,1729,-222.1785866873605,577.5714362008231,1838,-215.9285866873605,583.8214362008231,1947,-210.9285866873605,588.8214362008231,2054,-207.1785866873605,591.3214362008231,2162,-200.9285866873605,593.8214362008231,2270,-198.4285866873605,597.5714362008231,2380,-194.6785866873605,598.8214362008231,2489,-194.6785866873605,601.3214362008231,2599,-192.1785866873605,603.8214362008231,2707,-192.1785866873605,605.0714362008231,2816,-189.6785866873605,607.5714362008231,2925,-189.6785866873605,607.5714362008231,3034,-185.9285866873605,608.8214362008231,3141,-185.9285866873605,608.8214362008231,3250,-184.6785866873605,610.0714362008231,3357,-184.6785866873605,610.0714362008231,3466,-184.6785866873605,610.0714362008231,3576,-183.4285866873605,611.3214362008231,3685,-183.4285866873605,611.3214362008231,3793,-180.9285866873605,615.0714362008231,3900,-180.9285866873605,615.0714362008231,4009,-180.9285866873605,615.0714362008231,4116,-180.9285866873605,615.0714362008231,4225,-180.9285866873605,615.0714362008231,4333,-179.6785866873605,617.5714362008231,4440,-179.6785866873605,617.5714362008231,4548,-177.1785866873605,617.5714362008231,4655,-177.1785866873605,617.5714362008231,4761,-175.9285866873605,618.8214362008231,4870,-175.9285866873605,618.8214362008231,4979]","[1417,1417,1000,0,417,""oops"",""left"",""down"",""good_move"",4065,2648,2214.3,1417,433.7,""smooth"",""left"",""left"",""good_move"",14481,10415,2649,11352,480,""oops"",""left"",""down"",""good_move"",17204,2723,2172.1,14481,550.9,""smooth"",""left"",""left"",""good_move"",20488,3284,2806.7,17204,477.3,""smooth"",""left"",""left"",""good_move"",23585,3097,2514.5,20488,582.5,""smooth"",""down"",""down"",""good_move""]"
"3552","","<div style=""width:500px;"">
  <p>What determined the result of this run?</p>
  </div>","60","html-slider-response","24","476879","0.0-7.0-1.2","215","1","2025-08-06 19:17:01","36c45c0696341be0efffe67d72a12abb","91.140.28.33","Mozilla/5.0 (Windows NT 10.0; Win64; x64; rv:141.0) Gecko/20100101 Firefox/141.0","","Firefox","141.0","Windows","10.0","https://app.prolific.com/","en-US,en;q=0.5","56e4b2e044b184000b894159","6877649eabb845cf142cd221","6893aa070807096960a86727","1","56e4b2e044b184000b894159","1","2025-08-06T19:25:02.132Z","","","","AttribQ","","","","","","","","","","","50","","","","","","","","","","","","","","","","","","","","","","","","","","",""
"4006","","<div style=""width:500px;"">
  <p>How much control did you have over the ball?</p>
  </div>","93","html-slider-response","25","480886","0.0-7.0-2.2","215","1","2025-08-06 19:17:01","36c45c0696341be0efffe67d72a12abb","91.140.28.33","Mozilla/5.0 (Windows NT 10.0; Win64; x64; rv:141.0) Gecko/20100101 Firefox/141.0","","Firefox","141.0","Windows","10.0","https://app.prolific.com/","en-US,en;q=0.5","56e4b2e044b184000b894159","6877649eabb845cf142cd221","6893aa070807096960a86727","1","56e4b2e044b184000b894159","1","2025-08-06T19:25:06.140Z","","","","ControlQ","","","","","","","","","","","50","","","","","","","","","","","","","","","","","","","","","","","","","","",""
"2437","","<div style=""width:500px;"">
  <p>How would you describe your current emotional state?</p>
  </div>","0","html-slider-response","26","483325","0.0-7.0-3.2","215","1","2025-08-06 19:17:01","36c45c0696341be0efffe67d72a12abb","91.140.28.33","Mozilla/5.0 (Windows NT 10.0; Win64; x64; rv:141.0) Gecko/20100101 Firefox/141.0","","Firefox","141.0","Windows","10.0","https://app.prolific.com/","en-US,en;q=0.5","56e4b2e044b184000b894159","6877649eabb845cf142cd221","6893aa070807096960a86727","1","56e4b2e044b184000b894159","1","2025-08-06T19:25:08.578Z","","","","StressQ","","","","","","","","","","","50","","","","","","","","","","","","","","","","","","","","","","","","","","",""
"4112","","<div style=""width:500px;"">
  <p>What best describes how you currently feel?</p>
  </div>","92","html-slider-response","27","487438","0.0-7.0-4.2","215","1","2025-08-06 19:17:01","36c45c0696341be0efffe67d72a12abb","91.140.28.33","Mozilla/5.0 (Windows NT 10.0; Win64; x64; rv:141.0) Gecko/20100101 Firefox/141.0","","Firefox","141.0","Windows","10.0","https://app.prolific.com/","en-US,en;q=0.5","56e4b2e044b184000b894159","6877649eabb845cf142cd221","6893aa070807096960a86727","1","56e4b2e044b184000b894159","1","2025-08-06T19:25:12.691Z","","","","MotivationQ","","","","","","","","","","","50","","","","","","","","","","","","","","","","","","","","","","","","","","",""
"","","","","ctl-task-cpt","28","519016","0.0-7.0-0.3","215","1","2025-08-06 19:17:01","36c45c0696341be0efffe67d72a12abb","91.140.28.33","Mozilla/5.0 (Windows NT 10.0; Win64; x64; rv:141.0) Gecko/20100101 Firefox/141.0","","Firefox","141.0","Windows","10.0","https://app.prolific.com/","en-US,en;q=0.5","56e4b2e044b184000b894159","6877649eabb845cf142cd221","6893aa070807096960a86727","1","56e4b2e044b184000b894159","1","2025-08-06T19:25:44.269Z","","","","","","","","","","","","","","","","win-only","0","g1:NW,g2:SE","0.7","4","0","498905","1111","6121","28569","1","4","8","6","2","8","8","24","16","0.18181818181818182","827","3000","1880","[""down"",""right""]","{""num_key_presses"":8,""num_perfect"":7,""num_errors"":0,""num_randdir"":1,""num_randdir_good_moves"":0,""num_whilered"":0,""num_whileblue"":0,""num_blue"":0,""num_good_moves"":7}","[416.5714133126395,410.0714362008231,0,416.5714133126395,410.0714362008231,106,416.5714133126395,410.0714362008231,212,416.5714133126395,410.0714362008231,321,515.3214133126395,575.0714362008231,432,664.0714133126395,722.5714362008231,536,677.8214133126395,730.0714362008231,645,720.3214133126395,738.8214362008231,753,735.3214133126395,745.0714362008231,862,735.3214133126395,743.8214362008231,971,749.0714133126395,732.5714362008231,1079,1222.8214133126396,541.3214362008231,1187,1375.3214133126396,407.5714362008231,1298,1375.3214133126396,385.0714362008231,1406,1375.3214133126396,385.0714362008231,1513,1375.3214133126396,385.0714362008231,1622,1375.3214133126396,385.0714362008231,1730,1375.3214133126396,385.0714362008231,1840,1375.3214133126396,385.0714362008231,1948,1375.3214133126396,385.0714362008231,2057,1375.3214133126396,385.0714362008231,2164,1375.3214133126396,385.0714362008231,2270,1375.3214133126396,385.0714362008231,2379,1375.3214133126396,385.0714362008231,2494,1375.3214133126396,385.0714362008231,2607,1375.3214133126396,385.0714362008231,2717,1375.3214133126396,385.0714362008231,2828,1375.3214133126396,385.0714362008231,2942,1375.3214133126396,385.0714362008231,3053,1375.3214133126396,385.0714362008231,3164,1375.3214133126396,385.0714362008231,3275,1375.3214133126396,385.0714362008231,3387,1375.3214133126396,385.0714362008231,3498,1375.3214133126396,385.0714362008231,3610,1375.3214133126396,385.0714362008231,3722,1375.3214133126396,385.0714362008231,3833,1375.3214133126396,385.0714362008231,3944,1375.3214133126396,385.0714362008231,4057,1375.3214133126396,385.0714362008231,4166,1375.3214133126396,385.0714362008231,4278,1375.3214133126396,385.0714362008231,4390,1375.3214133126396,385.0714362008231,4498,1375.3214133126396,385.0714362008231,4608,1375.3214133126396,385.0714362008231,4716,1375.3214133126396,385.0714362008231,4825,1375.3214133126396,385.0714362008231,4933]","[1572,1572,1000,0,572,""smooth"",""right"",""right"",""good_move"",4734,3162,2764.5,1572,397.5,""smooth"",""right"",""right"",""good_move"",7865,3131,2649.6,4734,481.4,""smooth"",""right"",""right"",""good_move"",11396,3531,3137.7,7865,393.3,""oops"",""down"",""up"",""bad_move"",14985,3589,3157,11396,432,""smooth"",""down"",""down"",""good_move"",17306,2321,1914.1,14985,406.9,""smooth"",""down"",""down"",""good_move"",19353,2047,1554.3,17306,492.7,""smooth"",""down"",""down"",""good_move"",22153,2800,2338.5,19353,461.5,""smooth"",""down"",""down"",""good_move""]"
"3484","","<div style=""width:500px;"">
  <p>What determined the result of this run?</p>
  </div>","60","html-slider-response","29","522501","0.0-7.0-1.3","215","1","2025-08-06 19:17:01","36c45c0696341be0efffe67d72a12abb","91.140.28.33","Mozilla/5.0 (Windows NT 10.0; Win64; x64; rv:141.0) Gecko/20100101 Firefox/141.0","","Firefox","141.0","Windows","10.0","https://app.prolific.com/","en-US,en;q=0.5","56e4b2e044b184000b894159","6877649eabb845cf142cd221","6893aa070807096960a86727","1","56e4b2e044b184000b894159","1","2025-08-06T19:25:47.754Z","","","","AttribQ","","","","","","","","","","","50","","","","","","","","","","","","","","","","","","","","","","","","","","",""
"3761","","<div style=""width:500px;"">
  <p>How much control did you have over the ball?</p>
  </div>","87","html-slider-response","30","526262","0.0-7.0-2.3","215","1","2025-08-06 19:17:01","36c45c0696341be0efffe67d72a12abb","91.140.28.33","Mozilla/5.0 (Windows NT 10.0; Win64; x64; rv:141.0) Gecko/20100101 Firefox/141.0","","Firefox","141.0","Windows","10.0","https://app.prolific.com/","en-US,en;q=0.5","56e4b2e044b184000b894159","6877649eabb845cf142cd221","6893aa070807096960a86727","1","56e4b2e044b184000b894159","1","2025-08-06T19:25:51.515Z","","","","ControlQ","","","","","","","","","","","50","","","","","","","","","","","","","","","","","","","","","","","","","","",""
"2832","","<div style=""width:500px;"">
  <p>How would you describe your current emotional state?</p>
  </div>","0","html-slider-response","31","529096","0.0-7.0-3.3","215","1","2025-08-06 19:17:01","36c45c0696341be0efffe67d72a12abb","91.140.28.33","Mozilla/5.0 (Windows NT 10.0; Win64; x64; rv:141.0) Gecko/20100101 Firefox/141.0","","Firefox","141.0","Windows","10.0","https://app.prolific.com/","en-US,en;q=0.5","56e4b2e044b184000b894159","6877649eabb845cf142cd221","6893aa070807096960a86727","1","56e4b2e044b184000b894159","1","2025-08-06T19:25:54.349Z","","","","StressQ","","","","","","","","","","","50","","","","","","","","","","","","","","","","","","","","","","","","","","",""
"3273","","<div style=""width:500px;"">
  <p>What best describes how you currently feel?</p>
  </div>","91","html-slider-response","32","532369","0.0-7.0-4.3","215","1","2025-08-06 19:17:01","36c45c0696341be0efffe67d72a12abb","91.140.28.33","Mozilla/5.0 (Windows NT 10.0; Win64; x64; rv:141.0) Gecko/20100101 Firefox/141.0","","Firefox","141.0","Windows","10.0","https://app.prolific.com/","en-US,en;q=0.5","56e4b2e044b184000b894159","6877649eabb845cf142cd221","6893aa070807096960a86727","1","56e4b2e044b184000b894159","1","2025-08-06T19:25:57.623Z","","","","MotivationQ","","","","","","","","","","","50","","","","","","","","","","","","","","","","","","","","","","","","","","",""
"","","","","ctl-task-cpt","33","565038","0.0-7.0-0.4","215","1","2025-08-06 19:17:01","36c45c0696341be0efffe67d72a12abb","91.140.28.33","Mozilla/5.0 (Windows NT 10.0; Win64; x64; rv:141.0) Gecko/20100101 Firefox/141.0","","Firefox","141.0","Windows","10.0","https://app.prolific.com/","en-US,en;q=0.5","56e4b2e044b184000b894159","6877649eabb845cf142cd221","6893aa070807096960a86727","1","56e4b2e044b184000b894159","1","2025-08-06T19:26:30.291Z","","","","","","","","","","","","","","","","win-only","0","g1:NW,g2:SE","0.6","5","0","543837","1191","6201","29659","1","4","8","6","2","8","7","31","24","0.23484848484848486","843","3000","2015","[""down"",""right""]","{""num_key_presses"":8,""num_perfect"":5,""num_errors"":1,""num_randdir"":2,""num_randdir_good_moves"":1,""num_whilered"":0,""num_whileblue"":1,""num_blue"":1,""num_good_moves"":7}","[410.3214133126395,421.3214362008231,0,410.3214133126395,421.3214362008231,104,407.8214133126395,421.3214362008231,211,407.8214133126395,462.5714362008231,320,552.8214133126395,681.3214362008231,432,664.0714133126395,791.3214362008231,541,719.0714133126395,833.8214362008231,650,741.5714133126395,818.8214362008231,760,754.0714133126395,797.5714362008231,867,754.0714133126395,797.5714362008231,976,869.0714133126395,702.5714362008231,1085,1075.3214133126396,628.8214362008231,1196,1104.0714133126396,603.8214362008231,1306,1104.0714133126396,603.8214362008231,1414,1104.0714133126396,603.8214362008231,1523,1104.0714133126396,603.8214362008231,1632,1104.0714133126396,603.8214362008231,1738,1104.0714133126396,603.8214362008231,1847,1104.0714133126396,603.8214362008231,1956,1104.0714133126396,603.8214362008231,2063,1104.0714133126396,603.8214362008231,2170,1104.0714133126396,603.8214362008231,2280,1104.0714133126396,603.8214362008231,2388,1104.0714133126396,603.8214362008231,2498,1104.0714133126396,603.8214362008231,2604,1104.0714133126396,603.8214362008231,2713,1104.0714133126396,603.8214362008231,2822,1104.0714133126396,603.8214362008231,2931,1104.0714133126396,603.8214362008231,3039,1104.0714133126396,603.8214362008231,3150,1104.0714133126396,603.8214362008231,3257,1104.0714133126396,603.8214362008231,3366,1104.0714133126396,603.8214362008231,3474,1104.0714133126396,603.8214362008231,3581,1104.0714133126396,603.8214362008231,3690,1104.0714133126396,603.8214362008231,3801,1104.0714133126396,603.8214362008231,3909,1104.0714133126396,603.8214362008231,4018,1104.0714133126396,603.8214362008231,4127,1104.0714133126396,603.8214362008231,4235,1104.0714133126396,603.8214362008231,4343,1104.0714133126396,603.8214362008231,4452,1104.0714133126396,603.8214362008231,4563,1104.0714133126396,603.8214362008231,4672,1104.0714133126396,603.8214362008231,4781,1104.0714133126396,603.8214362008231,4888,1104.0714133126396,603.8214362008231,4995]","[1459,1459,1000,0,459,""oops"",""right"",""right"",""good_move"",4537,3078,2748,1459,330,""while_blue"",""right"",""right"",""good_move"",7873,3336,2898.5,4537,437.5,""oops"",""right"",""up"",""bad_move"",11013,3140,2723.9,7873,416.1,""smooth"",""down"",""down"",""good_move"",13556,2542,2118.3,11014,423.7,""smooth"",""down"",""down"",""good_move"",16148,2592,2227.4,13556,364.6,""smooth"",""down"",""down"",""good_move"",19992,3844,3263.3,16148,580.7,""smooth"",""down"",""down"",""good_move"",23164,3172,2722,19992,450,""smooth"",""right"",""right"",""good_move""]"
"5228","","<div style=""width:500px;"">
  <p>What determined the result of this run?</p>
  </div>","75","html-slider-response","34","570267","0.0-7.0-1.4","215","1","2025-08-06 19:17:01","36c45c0696341be0efffe67d72a12abb","91.140.28.33","Mozilla/5.0 (Windows NT 10.0; Win64; x64; rv:141.0) Gecko/20100101 Firefox/141.0","","Firefox","141.0","Windows","10.0","https://app.prolific.com/","en-US,en;q=0.5","56e4b2e044b184000b894159","6877649eabb845cf142cd221","6893aa070807096960a86727","1","56e4b2e044b184000b894159","1","2025-08-06T19:26:35.520Z","","","","AttribQ","","","","","","","","","","","50","","","","","","","","","","","","","","","","","","","","","","","","","","",""
"4181","","<div style=""width:500px;"">
  <p>How much control did you have over the ball?</p>
  </div>","85","html-slider-response","35","574449","0.0-7.0-2.4","215","1","2025-08-06 19:17:01","36c45c0696341be0efffe67d72a12abb","91.140.28.33","Mozilla/5.0 (Windows NT 10.0; Win64; x64; rv:141.0) Gecko/20100101 Firefox/141.0","","Firefox","141.0","Windows","10.0","https://app.prolific.com/","en-US,en;q=0.5","56e4b2e044b184000b894159","6877649eabb845cf142cd221","6893aa070807096960a86727","1","56e4b2e044b184000b894159","1","2025-08-06T19:26:39.702Z","","","","ControlQ","","","","","","","","","","","50","","","","","","","","","","","","","","","","","","","","","","","","","","",""
"3049","","<div style=""width:500px;"">
  <p>How would you describe your current emotional state?</p>
  </div>","0","html-slider-response","36","577498","0.0-7.0-3.4","215","1","2025-08-06 19:17:01","36c45c0696341be0efffe67d72a12abb","91.140.28.33","Mozilla/5.0 (Windows NT 10.0; Win64; x64; rv:141.0) Gecko/20100101 Firefox/141.0","","Firefox","141.0","Windows","10.0","https://app.prolific.com/","en-US,en;q=0.5","56e4b2e044b184000b894159","6877649eabb845cf142cd221","6893aa070807096960a86727","1","56e4b2e044b184000b894159","1","2025-08-06T19:26:42.751Z","","","","StressQ","","","","","","","","","","","50","","","","","","","","","","","","","","","","","","","","","","","","","","",""
"4624","","<div style=""width:500px;"">
  <p>What best describes how you currently feel?</p>
  </div>","91","html-slider-response","37","582124","0.0-7.0-4.4","215","1","2025-08-06 19:17:01","36c45c0696341be0efffe67d72a12abb","91.140.28.33","Mozilla/5.0 (Windows NT 10.0; Win64; x64; rv:141.0) Gecko/20100101 Firefox/141.0","","Firefox","141.0","Windows","10.0","https://app.prolific.com/","en-US,en;q=0.5","56e4b2e044b184000b894159","6877649eabb845cf142cd221","6893aa070807096960a86727","1","56e4b2e044b184000b894159","1","2025-08-06T19:26:47.377Z","","","","MotivationQ","","","","","","","","","","","50","","","","","","","","","","","","","","","","","","","","","","","","","","",""
"","","","","ctl-task-cpt","38","628456","0.0-7.0-0.5","215","1","2025-08-06 19:17:01","36c45c0696341be0efffe67d72a12abb","91.140.28.33","Mozilla/5.0 (Windows NT 10.0; Win64; x64; rv:141.0) Gecko/20100101 Firefox/141.0","","Firefox","141.0","Windows","10.0","https://app.prolific.com/","en-US,en;q=0.5","56e4b2e044b184000b894159","6877649eabb845cf142cd221","6893aa070807096960a86727","1","56e4b2e044b184000b894159","1","2025-08-06T19:27:33.709Z","","","","","","","","","","","","","","","","win-only","0","g1:NW,g2:SE","0.5","6","0","593591","775","5778","43317","1","4","4","6","2","4","4","35","31","0.26515151515151514","802","3000","1550","[""down"",""right""]","{""num_key_presses"":10,""num_perfect"":5,""num_errors"":0,""num_randdir"":5,""num_randdir_good_moves"":3,""num_whilered"":0,""num_whileblue"":0,""num_blue"":3,""num_good_moves"":8}","[420.3214133126395,418.8214362008231,0,420.3214133126395,418.8214362008231,107,419.0714133126395,418.8214362008231,215,419.0714133126395,418.8214362008231,326,434.0714133126395,445.0714362008231,435,680.3214133126395,698.8214362008231,545,771.5714133126395,765.0714362008231,653,791.5714133126395,776.3214362008231,760,791.5714133126395,776.3214362008231,869,791.5714133126395,776.3214362008231,976,871.5714133126395,710.0714362008231,1085,920.3214133126395,680.0714362008231,1192,1046.5714133126396,651.3214362008231,1300,1229.0714133126396,663.8214362008231,1411,1231.5714133126396,653.8214362008231,1518,1231.5714133126396,653.8214362008231,1629,1231.5714133126396,653.8214362008231,1737,1231.5714133126396,653.8214362008231,1847,1231.5714133126396,653.8214362008231,1954,1231.5714133126396,653.8214362008231,2065,1231.5714133126396,653.8214362008231,2172,1231.5714133126396,653.8214362008231,2280,1231.5714133126396,653.8214362008231,2388,1231.5714133126396,653.8214362008231,2496,1231.5714133126396,653.8214362008231,2606,1231.5714133126396,653.8214362008231,2715,1231.5714133126396,653.8214362008231,2824,1231.5714133126396,653.8214362008231,2930,1231.5714133126396,653.8214362008231,3039,1231.5714133126396,653.8214362008231,3146,1231.5714133126396,653.8214362008231,3254,1231.5714133126396,653.8214362008231,3363,1231.5714133126396,653.8214362008231,3473,1231.5714133126396,653.8214362008231,3581,1231.5714133126396,653.8214362008231,3689,1231.5714133126396,653.8214362008231,3797,1231.5714133126396,653.8214362008231,3907,1231.5714133126396,653.8214362008231,4013,1231.5714133126396,653.8214362008231,4120,1231.5714133126396,653.8214362008231,4228,1231.5714133126396,653.8214362008231,4336,1231.5714133126396,653.8214362008231,4445,1231.5714133126396,653.8214362008231,4553,1231.5714133126396,653.8214362008231,4663,1231.5714133126396,653.8214362008231,4771,1231.5714133126396,653.8214362008231,4880,1231.5714133126396,653.8214362008231,4988]","[9010,9010,2375,6158,477,""oops"",""right"",""right"",""good_move"",14215,5205,1851.1,11927,436.9,""smooth"",""right"",""right"",""good_move"",16939,2724,2149.8,14215,574.2,""oops"",""right"",""left"",""bad_move"",20255,3316,2863.9,16939,452.1,""oops"",""right"",""up"",""bad_move"",23283,3028,2135.6,20255,892.4,""smooth"",""right"",""right"",""good_move"",25621,2338,1760.9,23283,577.1,""smooth"",""right"",""right"",""good_move"",28781,3160,2745.4,25621,414.6,""smooth"",""down"",""down"",""good_move"",31692,2911,2524.2,28781,386.8,""oops"",""down"",""down"",""good_move"",34488,2796,2278.5,31692,517.5,""smooth"",""down"",""down"",""good_move"",37242,2754,2374.4,34488,379.6,""oops"",""down"",""down"",""good_move""]"
"4513","","<div style=""width:500px;"">
  <p>What determined the result of this run?</p>
  </div>","59","html-slider-response","39","632970","0.0-7.0-1.5","215","1","2025-08-06 19:17:01","36c45c0696341be0efffe67d72a12abb","91.140.28.33","Mozilla/5.0 (Windows NT 10.0; Win64; x64; rv:141.0) Gecko/20100101 Firefox/141.0","","Firefox","141.0","Windows","10.0","https://app.prolific.com/","en-US,en;q=0.5","56e4b2e044b184000b894159","6877649eabb845cf142cd221","6893aa070807096960a86727","1","56e4b2e044b184000b894159","1","2025-08-06T19:27:38.223Z","","","","AttribQ","","","","","","","","","","","50","","","","","","","","","","","","","","","","","","","","","","","","","","",""
"3499","","<div style=""width:500px;"">
  <p>How much control did you have over the ball?</p>
  </div>","74","html-slider-response","40","636470","0.0-7.0-2.5","215","1","2025-08-06 19:17:01","36c45c0696341be0efffe67d72a12abb","91.140.28.33","Mozilla/5.0 (Windows NT 10.0; Win64; x64; rv:141.0) Gecko/20100101 Firefox/141.0","","Firefox","141.0","Windows","10.0","https://app.prolific.com/","en-US,en;q=0.5","56e4b2e044b184000b894159","6877649eabb845cf142cd221","6893aa070807096960a86727","1","56e4b2e044b184000b894159","1","2025-08-06T19:27:41.723Z","","","","ControlQ","","","","","","","","","","","50","","","","","","","","","","","","","","","","","","","","","","","","","","",""
"2912","","<div style=""width:500px;"">
  <p>How would you describe your current emotional state?</p>
  </div>","0","html-slider-response","41","639384","0.0-7.0-3.5","215","1","2025-08-06 19:17:01","36c45c0696341be0efffe67d72a12abb","91.140.28.33","Mozilla/5.0 (Windows NT 10.0; Win64; x64; rv:141.0) Gecko/20100101 Firefox/141.0","","Firefox","141.0","Windows","10.0","https://app.prolific.com/","en-US,en;q=0.5","56e4b2e044b184000b894159","6877649eabb845cf142cd221","6893aa070807096960a86727","1","56e4b2e044b184000b894159","1","2025-08-06T19:27:44.637Z","","","","StressQ","","","","","","","","","","","50","","","","","","","","","","","","","","","","","","","","","","","","","","",""
"2693","","<div style=""width:500px;"">
  <p>What best describes how you currently feel?</p>
  </div>","91","html-slider-response","42","642078","0.0-7.0-4.5","215","1","2025-08-06 19:17:01","36c45c0696341be0efffe67d72a12abb","91.140.28.33","Mozilla/5.0 (Windows NT 10.0; Win64; x64; rv:141.0) Gecko/20100101 Firefox/141.0","","Firefox","141.0","Windows","10.0","https://app.prolific.com/","en-US,en;q=0.5","56e4b2e044b184000b894159","6877649eabb845cf142cd221","6893aa070807096960a86727","1","56e4b2e044b184000b894159","1","2025-08-06T19:27:47.331Z","","","","MotivationQ","","","","","","","","","","","50","","","","","","","","","","","","","","","","","","","","","","","","","","",""
"","","","","ctl-task-cpt","43","713646","0.0-7.0-0.6","215","1","2025-08-06 19:17:01","36c45c0696341be0efffe67d72a12abb","91.140.28.33","Mozilla/5.0 (Windows NT 10.0; Win64; x64; rv:141.0) Gecko/20100101 Firefox/141.0","","Firefox","141.0","Windows","10.0","https://app.prolific.com/","en-US,en;q=0.5","56e4b2e044b184000b894159","6877649eabb845cf142cd221","6893aa070807096960a86727","1","56e4b2e044b184000b894159","1","2025-08-06T19:28:58.899Z","","","","","","","","","","","","","","","","win-only","1","g1:NE,g2:SW","0.4","7","0","653546","2172","7181","68562","1","4","4","6","2","4","3","38","35","0.2878787878787879","961","3000","535","[""down"",""left""]","{""num_key_presses"":17,""num_perfect"":7,""num_errors"":1,""num_randdir"":9,""num_randdir_good_moves"":4,""num_whilered"":0,""num_whileblue"":0,""num_blue"":3,""num_good_moves"":11}","[421.5714133126395,412.5714362008231,1,421.5714133126395,412.5714362008231,109,421.5714133126395,412.5714362008231,218,421.5714133126395,412.5714362008231,326,397.8214133126395,433.8214362008231,436,249.0714133126395,633.8214362008231,544,204.0714133126395,677.5714362008231,653,154.0714133126395,713.8214362008231,762,67.8214133126395,778.8214362008231,877,64.0714133126395,782.5714362008231,990,61.57141331263951,783.8214362008231,1093,61.57141331263951,783.8214362008231,1207,51.57141331263951,778.8214362008231,1311,-543.4285866873605,645.0714362008231,1412,-543.4285866873605,551.3214362008231,1520,-535.9285866873605,447.5714362008231,1627,-529.6785866873605,460.0714362008231,1733,-529.6785866873605,462.5714362008231,1847,-528.4285866873605,463.8214362008231,1961,-525.9285866873605,465.0714362008231,2073,-524.6785866873605,465.0714362008231,2175,-524.6785866873605,465.0714362008231,2278,-524.6785866873605,465.0714362008231,2380,-524.6785866873605,465.0714362008231,2494,-524.6785866873605,465.0714362008231,2602,-523.4285866873605,466.3214362008231,2710,-523.4285866873605,468.8214362008231,2820,-523.4285866873605,468.8214362008231,2927,-523.4285866873605,468.8214362008231,3036,-523.4285866873605,468.8214362008231,3145,-523.4285866873605,468.8214362008231,3253,-523.4285866873605,468.8214362008231,3361,-523.4285866873605,468.8214362008231,3469,-523.4285866873605,468.8214362008231,3578,-523.4285866873605,468.8214362008231,3687,-523.4285866873605,468.8214362008231,3793,-523.4285866873605,468.8214362008231,3903,-523.4285866873605,468.8214362008231,4011,-523.4285866873605,468.8214362008231,4118,-523.4285866873605,468.8214362008231,4227,-520.9285866873605,468.8214362008231,4336,-520.9285866873605,468.8214362008231,4445,-520.9285866873605,468.8214362008231,4553,-520.9285866873605,468.8214362008231,4662,-520.9285866873605,468.8214362008231,4764,-520.9285866873605,468.8214362008231,4869,-520.9285866873605,468.8214362008231,4976]","[1417,1417,1000,0,417,""oops"",""left"",""left"",""good_move"",4464,3047,2407.7,1417,639.3,""oops"",""left"",""right"",""bad_move"",7095,2631,2115.3,4464,515.7,""smooth"",""left"",""left"",""good_move"",9363,2268,3351.7,7095,-1083.7,""error"",""-"",""-"",""no_move"",13288,3925,2470,10366,452,""smooth"",""down"",""down"",""good_move"",16422,3134,2748.2,13288,385.8,""smooth"",""down"",""down"",""good_move"",19174,2752,2158.7,16422,593.3,""smooth"",""down"",""down"",""good_move"",22289,3115,2612.4,19174,502.6,""oops"",""left"",""up"",""bad_move"",25301,3012,2270.2,22289,741.8,""oops"",""left"",""down"",""good_move"",28764,3463,3015.6,25301,447.4,""oops"",""left"",""right"",""bad_move"",38076,9312,1850.1,35762,463.9,""oops"",""left"",""up"",""bad_move"",41142,3066,2216.8,38076,849.2,""oops"",""left"",""left"",""good_move"",44169,3027,2337.7,41142,689.3,""smooth"",""left"",""left"",""good_move"",50639,6470,2164.1,47816,658.9,""oops"",""left"",""up"",""bad_move"",55098,4459,3903.2,50639,555.8,""oops"",""left"",""left"",""good_move"",58401,3303,2543.3,55098,759.7,""smooth"",""down"",""down"",""good_move"",61085,2684,2162.4,58401,521.6,""smooth"",""down"",""down"",""good_move""]"
"6383","","<div style=""width:500px;"">
  <p>What determined the result of this run?</p>
  </div>","66","html-slider-response","44","720028","0.0-7.0-1.6","215","1","2025-08-06 19:17:01","36c45c0696341be0efffe67d72a12abb","91.140.28.33","Mozilla/5.0 (Windows NT 10.0; Win64; x64; rv:141.0) Gecko/20100101 Firefox/141.0","","Firefox","141.0","Windows","10.0","https://app.prolific.com/","en-US,en;q=0.5","56e4b2e044b184000b894159","6877649eabb845cf142cd221","6893aa070807096960a86727","1","56e4b2e044b184000b894159","1","2025-08-06T19:29:05.281Z","","","","AttribQ","","","","","","","","","","","50","","","","","","","","","","","","","","","","","","","","","","","","","","",""
"4363","","<div style=""width:500px;"">
  <p>How much control did you have over the ball?</p>
  </div>","39","html-slider-response","45","724392","0.0-7.0-2.6","215","1","2025-08-06 19:17:01","36c45c0696341be0efffe67d72a12abb","91.140.28.33","Mozilla/5.0 (Windows NT 10.0; Win64; x64; rv:141.0) Gecko/20100101 Firefox/141.0","","Firefox","141.0","Windows","10.0","https://app.prolific.com/","en-US,en;q=0.5","56e4b2e044b184000b894159","6877649eabb845cf142cd221","6893aa070807096960a86727","1","56e4b2e044b184000b894159","1","2025-08-06T19:29:09.645Z","","","","ControlQ","","","","","","","","","","","50","","","","","","","","","","","","","","","","","","","","","","","","","","",""
"2854","","<div style=""width:500px;"">
  <p>How would you describe your current emotional state?</p>
  </div>","0","html-slider-response","46","727246","0.0-7.0-3.6","215","1","2025-08-06 19:17:01","36c45c0696341be0efffe67d72a12abb","91.140.28.33","Mozilla/5.0 (Windows NT 10.0; Win64; x64; rv:141.0) Gecko/20100101 Firefox/141.0","","Firefox","141.0","Windows","10.0","https://app.prolific.com/","en-US,en;q=0.5","56e4b2e044b184000b894159","6877649eabb845cf142cd221","6893aa070807096960a86727","1","56e4b2e044b184000b894159","1","2025-08-06T19:29:12.499Z","","","","StressQ","","","","","","","","","","","50","","","","","","","","","","","","","","","","","","","","","","","","","","",""
"4993","","<div style=""width:500px;"">
  <p>What best describes how you currently feel?</p>
  </div>","91","html-slider-response","47","732241","0.0-7.0-4.6","215","1","2025-08-06 19:17:01","36c45c0696341be0efffe67d72a12abb","91.140.28.33","Mozilla/5.0 (Windows NT 10.0; Win64; x64; rv:141.0) Gecko/20100101 Firefox/141.0","","Firefox","141.0","Windows","10.0","https://app.prolific.com/","en-US,en;q=0.5","56e4b2e044b184000b894159","6877649eabb845cf142cd221","6893aa070807096960a86727","1","56e4b2e044b184000b894159","1","2025-08-06T19:29:17.494Z","","","","MotivationQ","","","","","","","","","","","50","","","","","","","","","","","","","","","","","","","","","","","","","","",""
"","","","","ctl-task-cpt","48","807853","0.0-7.0-0.7","215","1","2025-08-06 19:17:01","36c45c0696341be0efffe67d72a12abb","91.140.28.33","Mozilla/5.0 (Windows NT 10.0; Win64; x64; rv:141.0) Gecko/20100101 Firefox/141.0","","Firefox","141.0","Windows","10.0","https://app.prolific.com/","en-US,en;q=0.5","56e4b2e044b184000b894159","6877649eabb845cf142cd221","6893aa070807096960a86727","1","56e4b2e044b184000b894159","1","2025-08-06T19:30:33.106Z","","","","","","","","","","","","","","","","win-only","0","g1:NW,g2:SE","0.3","8","0","743708","898","5903","72603","1","4","8","6","2","8","8","46","38","0.3484848484848485","824","3000","305","[""down"",""right""]","{""num_key_presses"":18,""num_perfect"":6,""num_errors"":0,""num_randdir"":12,""num_randdir_good_moves"":6,""num_whilered"":0,""num_whileblue"":0,""num_blue"":3,""num_good_moves"":12}","[410.3214133126395,415.0714362008231,0,410.3214133126395,415.0714362008231,110,410.3214133126395,415.0714362008231,219,410.3214133126395,415.0714362008231,324,529.0714133126395,573.8214362008231,435,699.0714133126395,693.8214362008231,542,730.3214133126395,708.8214362008231,650,795.3214133126395,758.8214362008231,758,797.8214133126395,762.5714362008231,866,797.8214133126395,762.5714362008231,975,824.0714133126395,736.3214362008231,1086,1375.3214133126396,425.0714362008231,1193,1361.5714133126396,377.5714362008231,1302,1361.5714133126396,377.5714362008231,1410,1360.3214133126396,377.5714362008231,1518,1360.3214133126396,377.5714362008231,1625,1364.0714133126396,380.0714362008231,1733,1369.0714133126396,380.0714362008231,1840,1369.0714133126396,383.8214362008231,1951,1371.5714133126396,383.8214362008231,2063,1372.8214133126396,386.3214362008231,2174,1374.0714133126396,388.8214362008231,2286,1375.3214133126396,388.8214362008231,2397,1375.3214133126396,388.8214362008231,2507,1375.3214133126396,390.0714362008231,2618,1375.3214133126396,391.3214362008231,2730,1375.3214133126396,391.3214362008231,2840,1375.3214133126396,393.8214362008231,2952,1375.3214133126396,393.8214362008231,3064,1375.3214133126396,396.3214362008231,3175,1375.3214133126396,396.3214362008231,3289,1375.3214133126396,396.3214362008231,3402,1375.3214133126396,396.3214362008231,3512,1375.3214133126396,398.8214362008231,3624,1375.3214133126396,398.8214362008231,3736,1375.3214133126396,398.8214362008231,3847,1375.3214133126396,398.8214362008231,3956,1375.3214133126396,402.5714362008231,4063,1375.3214133126396,402.5714362008231,4172,1375.3214133126396,403.8214362008231,4278,1375.3214133126396,403.8214362008231,4387,1375.3214133126396,403.8214362008231,4494,1375.3214133126396,403.8214362008231,4602,1375.3214133126396,403.8214362008231,4711,1375.3214133126396,403.8214362008231,4819,1375.3214133126396,403.8214362008231,4929]","[1420,1420,1000,0,420,""smooth"",""right"",""right"",""good_move"",4949,3529,3003,1420,526,""smooth"",""right"",""right"",""good_move"",8248,3299,2925.5,4949,373.5,""smooth"",""right"",""right"",""good_move"",18214,9966,2753.3,14993,467.7,""oops"",""down"",""up"",""bad_move"",21425,3211,2704.2,18214,506.8,""oops"",""down"",""down"",""good_move"",24882,3456,2905.8,21426,550.2,""oops"",""down"",""up"",""bad_move"",29269,4387,3239.1,24882,1147.9,""oops"",""down"",""down"",""good_move"",32199,2930,2476.8,29269,453.2,""oops"",""down"",""left"",""bad_move"",39858,7659,3532.2,35948,377.8,""oops"",""down"",""down"",""good_move"",42720,2862,2446.9,39858,415.1,""oops"",""down"",""up"",""bad_move"",46067,3347,2840.3,42720,506.7,""smooth"",""down"",""down"",""good_move"",48628,2561,2066.5,46067,494.5,""smooth"",""down"",""down"",""good_move"",51413,2785,2362.6,48628,422.4,""oops"",""down"",""left"",""bad_move"",54498,3085,2458.2,51413,626.8,""smooth"",""down"",""down"",""good_move"",57431,2933,2474.8,54498,458.2,""oops"",""right"",""right"",""good_move"",60747,3316,2950.1,57431,365.9,""oops"",""right"",""up"",""bad_move"",63845,3098,2545,60747,553,""oops"",""right"",""down"",""good_move"",66420,2575,2163,63845,412,""oops"",""right"",""right"",""good_move""]"
"4752","","<div style=""width:500px;"">
  <p>What determined the result of this run?</p>
  </div>","44","html-slider-response","49","812606","0.0-7.0-1.7","215","1","2025-08-06 19:17:01","36c45c0696341be0efffe67d72a12abb","91.140.28.33","Mozilla/5.0 (Windows NT 10.0; Win64; x64; rv:141.0) Gecko/20100101 Firefox/141.0","","Firefox","141.0","Windows","10.0","https://app.prolific.com/","en-US,en;q=0.5","56e4b2e044b184000b894159","6877649eabb845cf142cd221","6893aa070807096960a86727","1","56e4b2e044b184000b894159","1","2025-08-06T19:30:37.859Z","","","","AttribQ","","","","","","","","","","","50","","","","","","","","","","","","","","","","","","","","","","","","","","",""
"4357","","<div style=""width:500px;"">
  <p>How much control did you have over the ball?</p>
  </div>","18","html-slider-response","50","816964","0.0-7.0-2.7","215","1","2025-08-06 19:17:01","36c45c0696341be0efffe67d72a12abb","91.140.28.33","Mozilla/5.0 (Windows NT 10.0; Win64; x64; rv:141.0) Gecko/20100101 Firefox/141.0","","Firefox","141.0","Windows","10.0","https://app.prolific.com/","en-US,en;q=0.5","56e4b2e044b184000b894159","6877649eabb845cf142cd221","6893aa070807096960a86727","1","56e4b2e044b184000b894159","1","2025-08-06T19:30:42.217Z","","","","ControlQ","","","","","","","","","","","50","","","","","","","","","","","","","","","","","","","","","","","","","","",""
"2174","","<div style=""width:500px;"">
  <p>How would you describe your current emotional state?</p>
  </div>","0","html-slider-response","51","819139","0.0-7.0-3.7","215","1","2025-08-06 19:17:01","36c45c0696341be0efffe67d72a12abb","91.140.28.33","Mozilla/5.0 (Windows NT 10.0; Win64; x64; rv:141.0) Gecko/20100101 Firefox/141.0","","Firefox","141.0","Windows","10.0","https://app.prolific.com/","en-US,en;q=0.5","56e4b2e044b184000b894159","6877649eabb845cf142cd221","6893aa070807096960a86727","1","56e4b2e044b184000b894159","1","2025-08-06T19:30:44.393Z","","","","StressQ","","","","","","","","","","","50","","","","","","","","","","","","","","","","","","","","","","","","","","",""
"3548","","<div style=""width:500px;"">
  <p>What best describes how you currently feel?</p>
  </div>","93","html-slider-response","52","822687","0.0-7.0-4.7","215","1","2025-08-06 19:17:01","36c45c0696341be0efffe67d72a12abb","91.140.28.33","Mozilla/5.0 (Windows NT 10.0; Win64; x64; rv:141.0) Gecko/20100101 Firefox/141.0","","Firefox","141.0","Windows","10.0","https://app.prolific.com/","en-US,en;q=0.5","56e4b2e044b184000b894159","6877649eabb845cf142cd221","6893aa070807096960a86727","1","56e4b2e044b184000b894159","1","2025-08-06T19:30:47.940Z","","","","MotivationQ","","","","","","","","","","","50","","","","","","","","","","","","","","","","","","","","","","","","","","",""
"","","","","ctl-task-cpt","53","875966","0.0-7.0-0.8","215","1","2025-08-06 19:17:01","36c45c0696341be0efffe67d72a12abb","91.140.28.33","Mozilla/5.0 (Windows NT 10.0; Win64; x64; rv:141.0) Gecko/20100101 Firefox/141.0","","Firefox","141.0","Windows","10.0","https://app.prolific.com/","en-US,en;q=0.5","56e4b2e044b184000b894159","6877649eabb845cf142cd221","6893aa070807096960a86727","1","56e4b2e044b184000b894159","1","2025-08-06T19:31:41.219Z","","","","","","","","","","","","","","","","win-only","0","g1:NW,g2:SE","0.4","9","0","834155","1227","6237","50264","1","4","4","6","2","4","4","50","46","0.3787878787878788","751","3000","1330","[""down"",""right""]","{""num_key_presses"":12,""num_perfect"":6,""num_errors"":0,""num_randdir"":6,""num_randdir_good_moves"":3,""num_whilered"":0,""num_whileblue"":0,""num_blue"":2,""num_good_moves"":9}","[416.5714133126395,418.8214362008231,0,416.5714133126395,418.8214362008231,111,416.5714133126395,418.8214362008231,219,416.5714133126395,418.8214362008231,327,562.8214133126395,583.8214362008231,437,709.0714133126395,707.5714362008231,546,769.0714133126395,762.5714362008231,654,769.0714133126395,762.5714362008231,763,759.0714133126395,761.3214362008231,872,829.0714133126395,678.8214362008231,981,897.8214133126395,628.8214362008231,1095,1101.5714133126396,601.3214362008231,1208,1199.0714133126396,607.5714362008231,1318,1199.0714133126396,607.5714362008231,1430,1199.0714133126396,607.5714362008231,1542,1199.0714133126396,607.5714362008231,1654,1199.0714133126396,607.5714362008231,1765,1199.0714133126396,607.5714362008231,1876,1199.0714133126396,607.5714362008231,1987,1199.0714133126396,607.5714362008231,2097,1199.0714133126396,607.5714362008231,2207,1199.0714133126396,607.5714362008231,2319,1199.0714133126396,607.5714362008231,2430,1199.0714133126396,607.5714362008231,2541,1199.0714133126396,607.5714362008231,2654,1199.0714133126396,607.5714362008231,2765,1199.0714133126396,607.5714362008231,2878,1199.0714133126396,607.5714362008231,2988,1199.0714133126396,607.5714362008231,3097,1199.0714133126396,607.5714362008231,3205,1199.0714133126396,607.5714362008231,3313,1199.0714133126396,607.5714362008231,3422,1199.0714133126396,607.5714362008231,3530,1199.0714133126396,607.5714362008231,3639,1199.0714133126396,607.5714362008231,3748,1199.0714133126396,607.5714362008231,3859,1199.0714133126396,607.5714362008231,3965,1199.0714133126396,607.5714362008231,4076,1199.0714133126396,607.5714362008231,4185,1199.0714133126396,607.5714362008231,4294,1199.0714133126396,607.5714362008231,4403,1199.0714133126396,607.5714362008231,4512,1199.0714133126396,607.5714362008231,4621,1199.0714133126396,607.5714362008231,4730,1199.0714133126396,607.5714362008231,4838,1199.0714133126396,607.5714362008231,4947]","[8154,8154,2095.9,5653,405.1,""smooth"",""right"",""right"",""good_move"",11082,2928,2366.8,8154,561.2,""oops"",""right"",""up"",""bad_move"",14478,3396,2999.2,11082,396.8,""oops"",""right"",""down"",""good_move"",17931,3453,2929.3,14478,523.7,""smooth"",""right"",""right"",""good_move"",21408,3477,2841.4,17931,635.6,""oops"",""right"",""left"",""bad_move"",24513,3104,2462.6,21409,641.4,""oops"",""right"",""right"",""good_move"",28160,3646,3200.9,24514,445.1,""oops"",""right"",""down"",""good_move"",31244,3083,2663.6,28161,419.4,""oops"",""right"",""up"",""bad_move"",34248,3004,2087.3,31244,916.7,""smooth"",""down"",""down"",""good_move"",37453,3205,2864.4,34248,340.6,""smooth"",""down"",""down"",""good_move"",40584,3131,2716.1,37453,414.9,""smooth"",""down"",""down"",""good_move"",43752,3168,2748.4,40584,419.6,""smooth"",""right"",""right"",""good_move""]"
"3408","","<div style=""width:500px;"">
  <p>What determined the result of this run?</p>
  </div>","58","html-slider-response","54","879375","0.0-7.0-1.8","215","1","2025-08-06 19:17:01","36c45c0696341be0efffe67d72a12abb","91.140.28.33","Mozilla/5.0 (Windows NT 10.0; Win64; x64; rv:141.0) Gecko/20100101 Firefox/141.0","","Firefox","141.0","Windows","10.0","https://app.prolific.com/","en-US,en;q=0.5","56e4b2e044b184000b894159","6877649eabb845cf142cd221","6893aa070807096960a86727","1","56e4b2e044b184000b894159","1","2025-08-06T19:31:44.628Z","","","","AttribQ","","","","","","","","","","","50","","","","","","","","","","","","","","","","","","","","","","","","","","",""
"5918","","<div style=""width:500px;"">
  <p>How much control did you have over the ball?</p>
  </div>","75","html-slider-response","55","885294","0.0-7.0-2.8","215","1","2025-08-06 19:17:01","36c45c0696341be0efffe67d72a12abb","91.140.28.33","Mozilla/5.0 (Windows NT 10.0; Win64; x64; rv:141.0) Gecko/20100101 Firefox/141.0","","Firefox","141.0","Windows","10.0","https://app.prolific.com/","en-US,en;q=0.5","56e4b2e044b184000b894159","6877649eabb845cf142cd221","6893aa070807096960a86727","1","56e4b2e044b184000b894159","1","2025-08-06T19:31:50.547Z","","","","ControlQ","","","","","","","","","","","50","","","","","","","","","","","","","","","","","","","","","","","","","","",""
"2129","","<div style=""width:500px;"">
  <p>How would you describe your current emotional state?</p>
  </div>","0","html-slider-response","56","887424","0.0-7.0-3.8","215","1","2025-08-06 19:17:01","36c45c0696341be0efffe67d72a12abb","91.140.28.33","Mozilla/5.0 (Windows NT 10.0; Win64; x64; rv:141.0) Gecko/20100101 Firefox/141.0","","Firefox","141.0","Windows","10.0","https://app.prolific.com/","en-US,en;q=0.5","56e4b2e044b184000b894159","6877649eabb845cf142cd221","6893aa070807096960a86727","1","56e4b2e044b184000b894159","1","2025-08-06T19:31:52.677Z","","","","StressQ","","","","","","","","","","","50","","","","","","","","","","","","","","","","","","","","","","","","","","",""
"4107","","<div style=""width:500px;"">
  <p>What best describes how you currently feel?</p>
  </div>","92","html-slider-response","57","891531","0.0-7.0-4.8","215","1","2025-08-06 19:17:01","36c45c0696341be0efffe67d72a12abb","91.140.28.33","Mozilla/5.0 (Windows NT 10.0; Win64; x64; rv:141.0) Gecko/20100101 Firefox/141.0","","Firefox","141.0","Windows","10.0","https://app.prolific.com/","en-US,en;q=0.5","56e4b2e044b184000b894159","6877649eabb845cf142cd221","6893aa070807096960a86727","1","56e4b2e044b184000b894159","1","2025-08-06T19:31:56.784Z","","","","MotivationQ","","","","","","","","","","","50","","","","","","","","","","","","","","","","","","","","","","","","","","",""
"","","","","ctl-task-cpt","58","977076","0.0-7.0-0.9","215","1","2025-08-06 19:17:01","36c45c0696341be0efffe67d72a12abb","91.140.28.33","Mozilla/5.0 (Windows NT 10.0; Win64; x64; rv:141.0) Gecko/20100101 Firefox/141.0","","Firefox","141.0","Windows","10.0","https://app.prolific.com/","en-US,en;q=0.5","56e4b2e044b184000b894159","6877649eabb845cf142cd221","6893aa070807096960a86727","1","56e4b2e044b184000b894159","1","2025-08-06T19:33:22.329Z","","","","","","","","","","","","","","","","win-only","1","g1:NE,g2:SW","0.5","10","0","902998","882","5896","82530","1","4","8","6","2","8","8","58","50","0.4393939393939394","843","3000","420","[""down"",""left""]","{""num_key_presses"":18,""num_perfect"":10,""num_errors"":0,""num_randdir"":8,""num_randdir_good_moves"":2,""num_whilered"":0,""num_whileblue"":0,""num_blue"":6,""num_good_moves"":12}","[414.0714133126395,423.8214362008231,0,417.8214133126395,423.8214362008231,106,417.8214133126395,423.8214362008231,215,417.8214133126395,423.8214362008231,322,380.3214133126395,447.5714362008231,429,24.071413312639507,697.5714362008231,538,9.071413312639507,718.8214362008231,648,36.57141331263951,756.3214362008231,756,66.5714133126395,798.8214362008231,865,66.5714133126395,798.8214362008231,972,66.5714133126395,798.8214362008231,1081,-60.92858668736049,903.8214362008231,1187,-543.4285866873605,793.8214362008231,1295,-543.4285866873605,597.5714362008231,1406,-542.1785866873605,603.8214362008231,1513,-538.4285866873605,611.3214362008231,1622,-535.9285866873605,613.8214362008231,1731,-535.9285866873605,613.8214362008231,1840,-533.4285866873605,615.0714362008231,1948,-532.1785866873605,617.5714362008231,2056,-532.1785866873605,618.8214362008231,2167,-532.1785866873605,621.3214362008231,2274,-532.1785866873605,621.3214362008231,2383,-530.9285866873605,622.5714362008231,2491,-530.9285866873605,623.8214362008231,2600,-530.9285866873605,623.8214362008231,2707,-530.9285866873605,623.8214362008231,2813,-530.9285866873605,623.8214362008231,2917,-530.9285866873605,623.8214362008231,3024,-529.6785866873605,623.8214362008231,3132,-529.6785866873605,623.8214362008231,3248,-529.6785866873605,623.8214362008231,3365,-529.6785866873605,623.8214362008231,3475,-529.6785866873605,623.8214362008231,3583,-529.6785866873605,623.8214362008231,3694,-529.6785866873605,623.8214362008231,3796,-529.6785866873605,623.8214362008231,3900,-529.6785866873605,623.8214362008231,4008,-529.6785866873605,623.8214362008231,4116,-528.4285866873605,625.0714362008231,4221,-528.4285866873605,625.0714362008231,4332,-528.4285866873605,625.0714362008231,4436,-528.4285866873605,625.0714362008231,4550,-528.4285866873605,625.0714362008231,4661,-528.4285866873605,625.0714362008231,4769,-528.4285866873605,625.0714362008231,4876,-528.4285866873605,625.0714362008231,4983]","[1550,1550,1000,0,550,""smooth"",""left"",""left"",""good_move"",4433,2883,2413.9,1550,469.1,""smooth"",""left"",""left"",""good_move"",18791,14358,2655.4,15671,464.6,""smooth"",""left"",""left"",""good_move"",26637,7846,2900.6,23276,460.4,""oops"",""down"",""right"",""bad_move"",29835,3198,2696,26637,502,""smooth"",""down"",""down"",""good_move"",31972,2137,1667.3,29835,469.7,""smooth"",""down"",""down"",""good_move"",34951,2979,2278.2,31972,700.8,""oops"",""down"",""left"",""good_move"",38701,3750,3305.7,34951,444.3,""oops"",""down"",""up"",""bad_move"",41804,3103,2502,38701,601,""oops"",""down"",""right"",""bad_move"",48312,6508,2397.7,45401,513.3,""oops"",""down"",""right"",""bad_move"",50956,2644,2162.7,48312,481.3,""oops"",""down"",""up"",""bad_move"",54106,3150,2720.2,50956,429.8,""smooth"",""down"",""down"",""good_move"",57001,2895,2409.4,54106,485.6,""smooth"",""down"",""down"",""good_move"",59931,2930,2443.3,57001,486.7,""oops"",""down"",""right"",""bad_move"",63073,3142,2777.7,59931,364.3,""smooth"",""left"",""left"",""good_move"",66231,3158,2797.1,63073,360.9,""smooth"",""left"",""left"",""good_move"",72863,6632,2268.5,70159,435.5,""smooth"",""left"",""left"",""good_move"",76347,3483,3102,72864,381,""oops"",""down"",""down"",""good_move""]"
"3560","","<div style=""width:500px;"">
  <p>What determined the result of this run?</p>
  </div>","56","html-slider-response","59","980638","0.0-7.0-1.9","215","1","2025-08-06 19:17:01","36c45c0696341be0efffe67d72a12abb","91.140.28.33","Mozilla/5.0 (Windows NT 10.0; Win64; x64; rv:141.0) Gecko/20100101 Firefox/141.0","","Firefox","141.0","Windows","10.0","https://app.prolific.com/","en-US,en;q=0.5","56e4b2e044b184000b894159","6877649eabb845cf142cd221","6893aa070807096960a86727","1","56e4b2e044b184000b894159","1","2025-08-06T19:33:25.891Z","","","","AttribQ","","","","","","","","","","","50","","","","","","","","","","","","","","","","","","","","","","","","","","",""
"6873","","<div style=""width:500px;"">
  <p>How much control did you have over the ball?</p>
  </div>","32","html-slider-response","60","987511","0.0-7.0-2.9","215","1","2025-08-06 19:17:01","36c45c0696341be0efffe67d72a12abb","91.140.28.33","Mozilla/5.0 (Windows NT 10.0; Win64; x64; rv:141.0) Gecko/20100101 Firefox/141.0","","Firefox","141.0","Windows","10.0","https://app.prolific.com/","en-US,en;q=0.5","56e4b2e044b184000b894159","6877649eabb845cf142cd221","6893aa070807096960a86727","1","56e4b2e044b184000b894159","1","2025-08-06T19:33:32.764Z","","","","ControlQ","","","","","","","","","","","50","","","","","","","","","","","","","","","","","","","","","","","","","","",""
"2780","","<div style=""width:500px;"">
  <p>How would you describe your current emotional state?</p>
  </div>","0","html-slider-response","61","990292","0.0-7.0-3.9","215","1","2025-08-06 19:17:01","36c45c0696341be0efffe67d72a12abb","91.140.28.33","Mozilla/5.0 (Windows NT 10.0; Win64; x64; rv:141.0) Gecko/20100101 Firefox/141.0","","Firefox","141.0","Windows","10.0","https://app.prolific.com/","en-US,en;q=0.5","56e4b2e044b184000b894159","6877649eabb845cf142cd221","6893aa070807096960a86727","1","56e4b2e044b184000b894159","1","2025-08-06T19:33:35.545Z","","","","StressQ","","","","","","","","","","","50","","","","","","","","","","","","","","","","","","","","","","","","","","",""
"6601","","<div style=""width:500px;"">
  <p>What best describes how you currently feel?</p>
  </div>","93","html-slider-response","62","996894","0.0-7.0-4.9","215","1","2025-08-06 19:17:01","36c45c0696341be0efffe67d72a12abb","91.140.28.33","Mozilla/5.0 (Windows NT 10.0; Win64; x64; rv:141.0) Gecko/20100101 Firefox/141.0","","Firefox","141.0","Windows","10.0","https://app.prolific.com/","en-US,en;q=0.5","56e4b2e044b184000b894159","6877649eabb845cf142cd221","6893aa070807096960a86727","1","56e4b2e044b184000b894159","1","2025-08-06T19:33:42.147Z","","","","MotivationQ","","","","","","","","","","","50","","","","","","","","","","","","","","","","","","","","","","","","","","",""
"","","","","ctl-task-cpt","63","1047719","0.0-7.0-0.10","215","1","2025-08-06 19:17:01","36c45c0696341be0efffe67d72a12abb","91.140.28.33","Mozilla/5.0 (Windows NT 10.0; Win64; x64; rv:141.0) Gecko/20100101 Firefox/141.0","","Firefox","141.0","Windows","10.0","https://app.prolific.com/","en-US,en;q=0.5","56e4b2e044b184000b894159","6877649eabb845cf142cd221","6893aa070807096960a86727","1","56e4b2e044b184000b894159","1","2025-08-06T19:34:32.972Z","","","","","","","","","","","","","","","","win-only","3","g1:SW,g2:NE","0.6","11","0","1008361","809","5814","47810","1","4","4","6","2","4","4","62","58","0.4696969696969697","1055","3000","1475","[""up"",""right""]","{""num_key_presses"":10,""num_perfect"":6,""num_errors"":0,""num_randdir"":4,""num_randdir_good_moves"":2,""num_whilered"":0,""num_whileblue"":0,""num_blue"":4,""num_good_moves"":8}","[419.0714133126395,413.8214362008231,0,419.0714133126395,413.8214362008231,109,424.0714133126395,418.8214362008231,217,439.0714133126395,448.8214362008231,324,396.5714133126395,492.5714362008231,434,655.3214133126395,275.0714362008231,541,917.8214133126395,43.8214362008231,650,917.8214133126395,43.8214362008231,759,885.3214133126395,50.0714362008231,866,814.0714133126395,83.8214362008231,974,796.5714133126395,88.8214362008231,1085,809.0714133126395,85.0714362008231,1193,1050.3214133126396,203.8214362008231,1302,1050.3214133126396,203.8214362008231,1411,1042.8214133126396,173.8214362008231,1519,1042.8214133126396,173.8214362008231,1627,1042.8214133126396,173.8214362008231,1736,1042.8214133126396,173.8214362008231,1846,1042.8214133126396,173.8214362008231,1955,1042.8214133126396,173.8214362008231,2065,1042.8214133126396,173.8214362008231,2174,1042.8214133126396,173.8214362008231,2283,1042.8214133126396,173.8214362008231,2391,1042.8214133126396,173.8214362008231,2499,1042.8214133126396,173.8214362008231,2606,1042.8214133126396,173.8214362008231,2714,1042.8214133126396,173.8214362008231,2826,1042.8214133126396,173.8214362008231,2933,1042.8214133126396,173.8214362008231,3043,1042.8214133126396,173.8214362008231,3149,1042.8214133126396,173.8214362008231,3256,1042.8214133126396,173.8214362008231,3364,1042.8214133126396,173.8214362008231,3473,1042.8214133126396,173.8214362008231,3582,1042.8214133126396,173.8214362008231,3690,1042.8214133126396,173.8214362008231,3797,1042.8214133126396,173.8214362008231,3905,1042.8214133126396,173.8214362008231,4013,1042.8214133126396,173.8214362008231,4123,1042.8214133126396,173.8214362008231,4231,1042.8214133126396,173.8214362008231,4339,1042.8214133126396,173.8214362008231,4446,1042.8214133126396,173.8214362008231,4557,1042.8214133126396,173.8214362008231,4663,1042.8214133126396,173.8214362008231,4772,1042.8214133126396,173.8214362008231,4880,1042.8214133126396,173.8214362008231,4989]","[1434,1434,1000,0,434,""smooth"",""right"",""right"",""good_move"",8001,6566,2474.2,5118,408.8,""smooth"",""right"",""right"",""good_move"",13208,5207,1578.5,11108,521.5,""oops"",""right"",""right"",""good_move"",15907,2698,2171.4,13209,526.6,""smooth"",""up"",""up"",""good_move"",23406,7499,3319.1,19536,550.9,""oops"",""up"",""up"",""good_move"",26608,3202,1717,23406,1485,""oops"",""up"",""down"",""bad_move"",29068,2460,1900.4,26608,559.6,""oops"",""up"",""down"",""bad_move"",32161,3093,2545.7,29068,547.3,""smooth"",""up"",""up"",""good_move"",35140,2979,2469.3,32161,509.7,""smooth"",""up"",""up"",""good_move"",41727,6588,2202,39054,472,""smooth"",""up"",""up"",""good_move""]"
"3203","","<div style=""width:500px;"">
  <p>What determined the result of this run?</p>
  </div>","58","html-slider-response","64","1050921","0.0-7.0-1.10","215","1","2025-08-06 19:17:01","36c45c0696341be0efffe67d72a12abb","91.140.28.33","Mozilla/5.0 (Windows NT 10.0; Win64; x64; rv:141.0) Gecko/20100101 Firefox/141.0","","Firefox","141.0","Windows","10.0","https://app.prolific.com/","en-US,en;q=0.5","56e4b2e044b184000b894159","6877649eabb845cf142cd221","6893aa070807096960a86727","1","56e4b2e044b184000b894159","1","2025-08-06T19:34:36.174Z","","","","AttribQ","","","","","","","","","","","50","","","","","","","","","","","","","","","","","","","","","","","","","","",""
"6819","","<div style=""width:500px;"">
  <p>How much control did you have over the ball?</p>
  </div>","78","html-slider-response","65","1057743","0.0-7.0-2.10","215","1","2025-08-06 19:17:01","36c45c0696341be0efffe67d72a12abb","91.140.28.33","Mozilla/5.0 (Windows NT 10.0; Win64; x64; rv:141.0) Gecko/20100101 Firefox/141.0","","Firefox","141.0","Windows","10.0","https://app.prolific.com/","en-US,en;q=0.5","56e4b2e044b184000b894159","6877649eabb845cf142cd221","6893aa070807096960a86727","1","56e4b2e044b184000b894159","1","2025-08-06T19:34:42.996Z","","","","ControlQ","","","","","","","","","","","50","","","","","","","","","","","","","","","","","","","","","","","","","","",""
"2546","","<div style=""width:500px;"">
  <p>How would you describe your current emotional state?</p>
  </div>","0","html-slider-response","66","1060290","0.0-7.0-3.10","215","1","2025-08-06 19:17:01","36c45c0696341be0efffe67d72a12abb","91.140.28.33","Mozilla/5.0 (Windows NT 10.0; Win64; x64; rv:141.0) Gecko/20100101 Firefox/141.0","","Firefox","141.0","Windows","10.0","https://app.prolific.com/","en-US,en;q=0.5","56e4b2e044b184000b894159","6877649eabb845cf142cd221","6893aa070807096960a86727","1","56e4b2e044b184000b894159","1","2025-08-06T19:34:45.543Z","","","","StressQ","","","","","","","","","","","50","","","","","","","","","","","","","","","","","","","","","","","","","","",""
"4768","","<div style=""width:500px;"">
  <p>What best describes how you currently feel?</p>
  </div>","95","html-slider-response","67","1065058","0.0-7.0-4.10","215","1","2025-08-06 19:17:01","36c45c0696341be0efffe67d72a12abb","91.140.28.33","Mozilla/5.0 (Windows NT 10.0; Win64; x64; rv:141.0) Gecko/20100101 Firefox/141.0","","Firefox","141.0","Windows","10.0","https://app.prolific.com/","en-US,en;q=0.5","56e4b2e044b184000b894159","6877649eabb845cf142cd221","6893aa070807096960a86727","1","56e4b2e044b184000b894159","1","2025-08-06T19:34:50.311Z","","","","MotivationQ","","","","","","","","","","","50","","","","","","","","","","","","","","","","","","","","","","","","","","",""
"","","","","ctl-task-cpt","68","1090841","0.0-7.0-0.11","215","1","2025-08-06 19:17:01","36c45c0696341be0efffe67d72a12abb","91.140.28.33","Mozilla/5.0 (Windows NT 10.0; Win64; x64; rv:141.0) Gecko/20100101 Firefox/141.0","","Firefox","141.0","Windows","10.0","https://app.prolific.com/","en-US,en;q=0.5","56e4b2e044b184000b894159","6877649eabb845cf142cd221","6893aa070807096960a86727","1","56e4b2e044b184000b894159","1","2025-08-06T19:35:16.094Z","","","","","","","","","","","","","","","","win-only","1","g1:NE,g2:SW","0.7","12","0","1076526","1577","6591","22780","1","4","8","6","2","8","8","70","62","0.5303030303030303","658","3000","2300","[""down"",""left""]","{""num_key_presses"":6,""num_perfect"":6,""num_errors"":0,""num_randdir"":0,""num_randdir_good_moves"":0,""num_whilered"":0,""num_whileblue"":0,""num_blue"":0,""num_good_moves"":6}","[415.3214133126395,411.3214362008231,0,415.3214133126395,411.3214362008231,114,415.3214133126395,411.3214362008231,223,336.5714133126395,565.0714362008231,332,176.5714133126395,733.8214362008231,442,104.0714133126395,770.0714362008231,543,90.3214133126395,772.5714362008231,644,90.3214133126395,772.5714362008231,747,72.8214133126395,747.5714362008231,849,-160.9285866873605,625.0714362008231,949,-245.9285866873605,587.5714362008231,1058,-254.6785866873605,587.5714362008231,1161,-247.1785866873605,602.5714362008231,1267,-232.1785866873605,620.0714362008231,1379,-224.6785866873605,628.8214362008231,1479,-220.9285866873605,632.5714362008231,1583,-213.4285866873605,638.8214362008231,1699,-213.4285866873605,638.8214362008231,1803,-212.1785866873605,642.5714362008231,1911,-212.1785866873605,642.5714362008231,2021,-212.1785866873605,642.5714362008231,2135,-208.4285866873605,643.8214362008231,2235,-207.1785866873605,646.3214362008231,2339,-207.1785866873605,646.3214362008231,2445,-207.1785866873605,646.3214362008231,2554,-207.1785866873605,646.3214362008231,2664,-207.1785866873605,646.3214362008231,2771,-207.1785866873605,646.3214362008231,2880,-207.1785866873605,648.8214362008231,2988,-207.1785866873605,648.8214362008231,3096,-207.1785866873605,648.8214362008231,3205,-207.1785866873605,648.8214362008231,3314,-207.1785866873605,648.8214362008231,3422,-207.1785866873605,648.8214362008231,3532,-207.1785866873605,648.8214362008231,3642,-207.1785866873605,648.8214362008231,3748,-207.1785866873605,648.8214362008231,3858,-207.1785866873605,648.8214362008231,3966,-207.1785866873605,648.8214362008231,4074,-207.1785866873605,648.8214362008231,4185,-207.1785866873605,648.8214362008231,4293,-207.1785866873605,648.8214362008231,4408,-207.1785866873605,648.8214362008231,4520,-207.1785866873605,648.8214362008231,4631,-207.1785866873605,648.8214362008231,4742,-207.1785866873605,648.8214362008231,4855,-207.1785866873605,648.8214362008231,4967]","[1466,1466,1000,0,466,""smooth"",""left"",""left"",""good_move"",4496,3030,2535.5,1466,494.5,""smooth"",""left"",""left"",""good_move"",7477,2981,2114.1,4496,866.9,""smooth"",""left"",""left"",""good_move"",10481,3004,2682.6,7477,321.4,""smooth"",""down"",""down"",""good_move"",13041,2559,2135.2,10482,423.8,""smooth"",""down"",""down"",""good_move"",15903,2862,2510.9,13041,351.1,""smooth"",""down"",""down"",""good_move""]"
"5921","","<div style=""width:500px;"">
  <p>What determined the result of this run?</p>
  </div>","58","html-slider-response","69","1096764","0.0-7.0-1.11","215","1","2025-08-06 19:17:01","36c45c0696341be0efffe67d72a12abb","91.140.28.33","Mozilla/5.0 (Windows NT 10.0; Win64; x64; rv:141.0) Gecko/20100101 Firefox/141.0","","Firefox","141.0","Windows","10.0","https://app.prolific.com/","en-US,en;q=0.5","56e4b2e044b184000b894159","6877649eabb845cf142cd221","6893aa070807096960a86727","1","56e4b2e044b184000b894159","1","2025-08-06T19:35:22.018Z","","","","AttribQ","","","","","","","","","","","50","","","","","","","","","","","","","","","","","","","","","","","","","","",""
"4569","","<div style=""width:500px;"">
  <p>How much control did you have over the ball?</p>
  </div>","100","html-slider-response","70","1101334","0.0-7.0-2.11","215","1","2025-08-06 19:17:01","36c45c0696341be0efffe67d72a12abb","91.140.28.33","Mozilla/5.0 (Windows NT 10.0; Win64; x64; rv:141.0) Gecko/20100101 Firefox/141.0","","Firefox","141.0","Windows","10.0","https://app.prolific.com/","en-US,en;q=0.5","56e4b2e044b184000b894159","6877649eabb845cf142cd221","6893aa070807096960a86727","1","56e4b2e044b184000b894159","1","2025-08-06T19:35:26.587Z","","","","ControlQ","","","","","","","","","","","50","","","","","","","","","","","","","","","","","","","","","","","","","","",""
"2474","","<div style=""width:500px;"">
  <p>How would you describe your current emotional state?</p>
  </div>","0","html-slider-response","71","1103809","0.0-7.0-3.11","215","1","2025-08-06 19:17:01","36c45c0696341be0efffe67d72a12abb","91.140.28.33","Mozilla/5.0 (Windows NT 10.0; Win64; x64; rv:141.0) Gecko/20100101 Firefox/141.0","","Firefox","141.0","Windows","10.0","https://app.prolific.com/","en-US,en;q=0.5","56e4b2e044b184000b894159","6877649eabb845cf142cd221","6893aa070807096960a86727","1","56e4b2e044b184000b894159","1","2025-08-06T19:35:29.062Z","","","","StressQ","","","","","","","","","","","50","","","","","","","","","","","","","","","","","","","","","","","","","","",""
"3422","","<div style=""width:500px;"">
  <p>What best describes how you currently feel?</p>
  </div>","93","html-slider-response","72","1107232","0.0-7.0-4.11","215","1","2025-08-06 19:17:01","36c45c0696341be0efffe67d72a12abb","91.140.28.33","Mozilla/5.0 (Windows NT 10.0; Win64; x64; rv:141.0) Gecko/20100101 Firefox/141.0","","Firefox","141.0","Windows","10.0","https://app.prolific.com/","en-US,en;q=0.5","56e4b2e044b184000b894159","6877649eabb845cf142cd221","6893aa070807096960a86727","1","56e4b2e044b184000b894159","1","2025-08-06T19:35:32.485Z","","","","MotivationQ","","","","","","","","","","","50","","","","","","","","","","","","","","","","","","","","","","","","","","",""
"","","","","ctl-task-cpt","73","1138395","0.0-7.0-0.12","215","1","2025-08-06 19:17:01","36c45c0696341be0efffe67d72a12abb","91.140.28.33","Mozilla/5.0 (Windows NT 10.0; Win64; x64; rv:141.0) Gecko/20100101 Firefox/141.0","","Firefox","141.0","Windows","10.0","https://app.prolific.com/","en-US,en;q=0.5","56e4b2e044b184000b894159","6877649eabb845cf142cd221","6893aa070807096960a86727","1","56e4b2e044b184000b894159","1","2025-08-06T19:36:03.649Z","","","","","","","","","","","","","","","","win-only","2","g1:SE,g2:NW","0.8","13","0","1118700","1727","6743","28155","1","4","4","6","2","4","4","74","70","0.5606060606060606","983","3000","2080","[""left"",""up""]","{""num_key_presses"":6,""num_perfect"":6,""num_errors"":0,""num_randdir"":0,""num_randdir_good_moves"":0,""num_whilered"":0,""num_whileblue"":0,""num_blue"":1,""num_good_moves"":6}","[420.3214133126395,420.0714362008231,0,419.0714133126395,418.8214362008231,110,419.0714133126395,418.8214362008231,220,449.0714133126395,475.0714362008231,328,692.8214133126395,727.5714362008231,436,486.5714133126395,513.8214362008231,546,239.0714133126395,223.8214362008231,657,214.0714133126395,190.0714362008231,763,122.8214133126395,133.8214362008231,872,86.5714133126395,83.8214362008231,978,85.3214133126395,82.5714362008231,1087,41.57141331263951,215.0714362008231,1198,-373.4285866873605,363.8214362008231,1306,-449.6785866873605,337.5714362008231,1417,-440.9285866873605,350.0714362008231,1525,-437.1785866873605,358.8214362008231,1632,-434.6785866873605,360.0714362008231,1742,-434.6785866873605,360.0714362008231,1850,-429.6785866873605,363.8214362008231,1959,-427.1785866873605,365.0714362008231,2067,-427.1785866873605,366.3214362008231,2174,-427.1785866873605,366.3214362008231,2286,-427.1785866873605,366.3214362008231,2395,-425.9285866873605,368.8214362008231,2502,-425.9285866873605,368.8214362008231,2610,-423.4285866873605,370.0714362008231,2718,-423.4285866873605,370.0714362008231,2826,-423.4285866873605,370.0714362008231,2934,-423.4285866873605,370.0714362008231,3043,-423.4285866873605,370.0714362008231,3150,-423.4285866873605,370.0714362008231,3258,-423.4285866873605,370.0714362008231,3367,-423.4285866873605,370.0714362008231,3476,-423.4285866873605,370.0714362008231,3584,-423.4285866873605,370.0714362008231,3694,-423.4285866873605,370.0714362008231,3804,-423.4285866873605,370.0714362008231,3911,-423.4285866873605,370.0714362008231,4019,-423.4285866873605,370.0714362008231,4129,-423.4285866873605,370.0714362008231,4238,-423.4285866873605,370.0714362008231,4348,-423.4285866873605,370.0714362008231,4454,-423.4285866873605,370.0714362008231,4564,-423.4285866873605,370.0714362008231,4673,-423.4285866873605,370.0714362008231,4782,-423.4285866873605,370.0714362008231,4891,-423.4285866873605,370.0714362008231,4999]","[1400,1400,1000,0,400,""smooth"",""left"",""left"",""good_move"",8158,6758,2621.8,5055,481.2,""smooth"",""left"",""left"",""good_move"",11515,3357,2596.5,8158,760.5,""smooth"",""left"",""left"",""good_move"",14625,3110,2010.9,11515,1099.1,""smooth"",""up"",""up"",""good_move"",17874,3249,2841.8,14625,407.2,""smooth"",""up"",""up"",""good_move"",21135,3261,2266.1,17874,994.9,""smooth"",""up"",""up"",""good_move""]"
"3160","","<div style=""width:500px;"">
  <p>What determined the result of this run?</p>
  </div>","56","html-slider-response","74","1141558","0.0-7.0-1.12","215","1","2025-08-06 19:17:01","36c45c0696341be0efffe67d72a12abb","91.140.28.33","Mozilla/5.0 (Windows NT 10.0; Win64; x64; rv:141.0) Gecko/20100101 Firefox/141.0","","Firefox","141.0","Windows","10.0","https://app.prolific.com/","en-US,en;q=0.5","56e4b2e044b184000b894159","6877649eabb845cf142cd221","6893aa070807096960a86727","1","56e4b2e044b184000b894159","1","2025-08-06T19:36:06.811Z","","","","AttribQ","","","","","","","","","","","50","","","","","","","","","","","","","","","","","","","","","","","","","","",""
"3399","","<div style=""width:500px;"">
  <p>How much control did you have over the ball?</p>
  </div>","100","html-slider-response","75","1144958","0.0-7.0-2.12","215","1","2025-08-06 19:17:01","36c45c0696341be0efffe67d72a12abb","91.140.28.33","Mozilla/5.0 (Windows NT 10.0; Win64; x64; rv:141.0) Gecko/20100101 Firefox/141.0","","Firefox","141.0","Windows","10.0","https://app.prolific.com/","en-US,en;q=0.5","56e4b2e044b184000b894159","6877649eabb845cf142cd221","6893aa070807096960a86727","1","56e4b2e044b184000b894159","1","2025-08-06T19:36:10.211Z","","","","ControlQ","","","","","","","","","","","50","","","","","","","","","","","","","","","","","","","","","","","","","","",""
"2163","","<div style=""width:500px;"">
  <p>How would you describe your current emotional state?</p>
  </div>","0","html-slider-response","76","1147123","0.0-7.0-3.12","215","1","2025-08-06 19:17:01","36c45c0696341be0efffe67d72a12abb","91.140.28.33","Mozilla/5.0 (Windows NT 10.0; Win64; x64; rv:141.0) Gecko/20100101 Firefox/141.0","","Firefox","141.0","Windows","10.0","https://app.prolific.com/","en-US,en;q=0.5","56e4b2e044b184000b894159","6877649eabb845cf142cd221","6893aa070807096960a86727","1","56e4b2e044b184000b894159","1","2025-08-06T19:36:12.376Z","","","","StressQ","","","","","","","","","","","50","","","","","","","","","","","","","","","","","","","","","","","","","","",""
"3017","","<div style=""width:500px;"">
  <p>What best describes how you currently feel?</p>
  </div>","95","html-slider-response","77","1150141","0.0-7.0-4.12","215","1","2025-08-06 19:17:01","36c45c0696341be0efffe67d72a12abb","91.140.28.33","Mozilla/5.0 (Windows NT 10.0; Win64; x64; rv:141.0) Gecko/20100101 Firefox/141.0","","Firefox","141.0","Windows","10.0","https://app.prolific.com/","en-US,en;q=0.5","56e4b2e044b184000b894159","6877649eabb845cf142cd221","6893aa070807096960a86727","1","56e4b2e044b184000b894159","1","2025-08-06T19:36:15.394Z","","","","MotivationQ","","","","","","","","","","","50","","","","","","","","","","","","","","","","","","","","","","","","","","",""
"","","","","ctl-task-cpt","78","1186999","0.0-7.0-0.13","215","1","2025-08-06 19:17:01","36c45c0696341be0efffe67d72a12abb","91.140.28.33","Mozilla/5.0 (Windows NT 10.0; Win64; x64; rv:141.0) Gecko/20100101 Firefox/141.0","","Firefox","141.0","Windows","10.0","https://app.prolific.com/","en-US,en;q=0.5","56e4b2e044b184000b894159","6877649eabb845cf142cd221","6893aa070807096960a86727","1","56e4b2e044b184000b894159","1","2025-08-06T19:36:52.252Z","","","","","","","","","","","","","","","","win-only","3","g1:SW,g2:NE","0.9","14","0","1161608","810","5820","33853","1","4","8","6","2","8","8","82","74","0.6212121212121212","921","3000","2170","[""up"",""right""]","{""num_key_presses"":6,""num_perfect"":6,""num_errors"":0,""num_randdir"":0,""num_randdir_good_moves"":0,""num_whilered"":0,""num_whileblue"":0,""num_blue"":3,""num_good_moves"":6}","[421.5714133126395,425.0714362008231,0,421.5714133126395,425.0714362008231,107,421.5714133126395,425.0714362008231,217,420.3214133126395,423.8214362008231,328,514.0714133126395,348.8214362008231,439,650.3214133126395,167.5714362008231,551,674.0714133126395,123.8214362008231,662,677.8214133126395,115.0714362008231,774,734.0714133126395,93.8214362008231,885,734.0714133126395,92.5714362008231,995,735.3214133126395,92.5714362008231,1105,819.0714133126395,101.3214362008231,1216,1311.5714133126396,133.8214362008231,1326,1375.3214133126396,53.8214362008231,1438,1375.3214133126396,53.8214362008231,1549,1375.3214133126396,53.8214362008231,1661,1375.3214133126396,53.8214362008231,1774,1375.3214133126396,53.8214362008231,1883,1375.3214133126396,53.8214362008231,1996,1375.3214133126396,53.8214362008231,2106,1375.3214133126396,53.8214362008231,2217,1375.3214133126396,53.8214362008231,2329,1375.3214133126396,53.8214362008231,2443,1375.3214133126396,53.8214362008231,2554,1375.3214133126396,53.8214362008231,2664,1375.3214133126396,53.8214362008231,2776,1375.3214133126396,53.8214362008231,2887,1375.3214133126396,53.8214362008231,2997,1375.3214133126396,53.8214362008231,3109,1375.3214133126396,53.8214362008231,3220,1375.3214133126396,53.8214362008231,3331,1375.3214133126396,53.8214362008231,3444,1375.3214133126396,53.8214362008231,3555,1375.3214133126396,53.8214362008231,3667,1375.3214133126396,53.8214362008231,3778,1375.3214133126396,53.8214362008231,3889,1375.3214133126396,53.8214362008231,4000,1375.3214133126396,53.8214362008231,4111,1375.3214133126396,53.8214362008231,4219,1375.3214133126396,53.8214362008231,4328,1375.3214133126396,53.8214362008231,4436,1375.3214133126396,53.8214362008231,4545,1375.3214133126396,53.8214362008231,4653,1375.3214133126396,53.8214362008231,4762,1375.3214133126396,53.8214362008231,4870,1375.3214133126396,53.8214362008231,4978]","[4713,4713,2218.2,2021,473.8,""smooth"",""right"",""right"",""good_move"",11747,7034,2850.9,8399,497.1,""smooth"",""right"",""right"",""good_move"",14932,3185,2782.4,11747,402.6,""smooth"",""right"",""right"",""good_move"",17867,2935,2523.4,14932,411.6,""smooth"",""up"",""up"",""good_move"",20880,3013,2089.1,17867,923.9,""smooth"",""up"",""up"",""good_move"",27765,6885,1904.5,25398,462.5,""smooth"",""up"",""up"",""good_move""]"
"3343","","<div style=""width:500px;"">
  <p>What determined the result of this run?</p>
  </div>","58","html-slider-response","79","1190343","0.0-7.0-1.13","215","1","2025-08-06 19:17:01","36c45c0696341be0efffe67d72a12abb","91.140.28.33","Mozilla/5.0 (Windows NT 10.0; Win64; x64; rv:141.0) Gecko/20100101 Firefox/141.0","","Firefox","141.0","Windows","10.0","https://app.prolific.com/","en-US,en;q=0.5","56e4b2e044b184000b894159","6877649eabb845cf142cd221","6893aa070807096960a86727","1","56e4b2e044b184000b894159","1","2025-08-06T19:36:55.596Z","","","","AttribQ","","","","","","","","","","","50","","","","","","","","","","","","","","","","","","","","","","","","","","",""
"2668","","<div style=""width:500px;"">
  <p>How much control did you have over the ball?</p>
  </div>","100","html-slider-response","80","1193012","0.0-7.0-2.13","215","1","2025-08-06 19:17:01","36c45c0696341be0efffe67d72a12abb","91.140.28.33","Mozilla/5.0 (Windows NT 10.0; Win64; x64; rv:141.0) Gecko/20100101 Firefox/141.0","","Firefox","141.0","Windows","10.0","https://app.prolific.com/","en-US,en;q=0.5","56e4b2e044b184000b894159","6877649eabb845cf142cd221","6893aa070807096960a86727","1","56e4b2e044b184000b894159","1","2025-08-06T19:36:58.265Z","","","","ControlQ","","","","","","","","","","","50","","","","","","","","","","","","","","","","","","","","","","","","","","",""
"3004","","<div style=""width:500px;"">
  <p>How would you describe your current emotional state?</p>
  </div>","0","html-slider-response","81","1196018","0.0-7.0-3.13","215","1","2025-08-06 19:17:01","36c45c0696341be0efffe67d72a12abb","91.140.28.33","Mozilla/5.0 (Windows NT 10.0; Win64; x64; rv:141.0) Gecko/20100101 Firefox/141.0","","Firefox","141.0","Windows","10.0","https://app.prolific.com/","en-US,en;q=0.5","56e4b2e044b184000b894159","6877649eabb845cf142cd221","6893aa070807096960a86727","1","56e4b2e044b184000b894159","1","2025-08-06T19:37:01.271Z","","","","StressQ","","","","","","","","","","","50","","","","","","","","","","","","","","","","","","","","","","","","","","",""
"4330","","<div style=""width:500px;"">
  <p>What best describes how you currently feel?</p>
  </div>","97","html-slider-response","82","1200349","0.0-7.0-4.13","215","1","2025-08-06 19:17:01","36c45c0696341be0efffe67d72a12abb","91.140.28.33","Mozilla/5.0 (Windows NT 10.0; Win64; x64; rv:141.0) Gecko/20100101 Firefox/141.0","","Firefox","141.0","Windows","10.0","https://app.prolific.com/","en-US,en;q=0.5","56e4b2e044b184000b894159","6877649eabb845cf142cd221","6893aa070807096960a86727","1","56e4b2e044b184000b894159","1","2025-08-06T19:37:05.602Z","","","","MotivationQ","","","","","","","","","","","50","","","","","","","","","","","","","","","","","","","","","","","","","","",""
