"rt","response_timestamp","stimulus","response","trial_type","trial_index","time_elapsed","internal_node_id","run_id","condition","recorded_at","source_code_version","ip","user_agent","device","browser","browser_version","platform","platform_version","referer","accept_language","PROLIFIC_PID","STUDY_ID","SESSION_ID","BATCH","prolific_id","batch","realtime","success","question_order","question_id","eventType","responses","item_order","radio_event_ids","radio_event_times","key_event_times","mouse_event_times","straightlining","zigzagging","honeypot","view_history","slider_start","which_type","canvas_config","goals_layout","control_level","trial_number","tutorial_trial_number","trial_start_time","phase1_start_time","phase2_start_time","phase3_start_time","goal_1_value","goal_1_distance","goal_2_value","goal_2_distance","goal_selected","outcome","outcome_total","participant_final_score","participant_initial_score","participant_final_score_prop","goal_choice_rt","allocated_time","allocated_time_remaining","goal_direction","counts","mouse_movements","key_presses"
"3428","1753865916644","<p style='font-size:40px;line-height:1.25'><strong>Welcome to the experiment!</strong></p><p style='font-size:1.1em;line-height:1.25'>Thank you for participanting in our experiment again! You will be asked to play the Dysfunctional Ball Game again. We will briefly recap the rules before we start.</p><p style='font-size:1.1em;line-height:1.25'>Press <strong>Next</strong> to continue.</p>","0","custom-html-button-response","0","3430","0.0-0.0","69","1","2025-07-30 08:58:32","36c45c0696341be0efffe67d72a12abb","82.18.178.101","Mozilla/5.0 (Windows NT 10.0; Win64; x64) AppleWebKit/537.36 (KHTML, like Gecko) Chrome/138.0.0.0 Safari/537.36","WebKit","Chrome","138.0.0.0","Windows","10.0","https://app.prolific.com/","en-GB,en-US;q=0.9,en;q=0.8","5731e2e45b8b06000f7e3671","687a19d2168e237449fb8af4","6889dea1aaf003746bed55e0","0","5731e2e45b8b06000f7e3671","0","2025-07-30T08:58:36.645Z","","","","","","","","","","","","","","","","","","","","","","","","","","","","","","","","","","","","","","","","","",""
"5926","","","","fullscreen","1","10362","0.0-1.0","69","1","2025-07-30 08:58:32","36c45c0696341be0efffe67d72a12abb","82.18.178.101","Mozilla/5.0 (Windows NT 10.0; Win64; x64) AppleWebKit/537.36 (KHTML, like Gecko) Chrome/138.0.0.0 Safari/537.36","WebKit","Chrome","138.0.0.0","Windows","10.0","https://app.prolific.com/","en-GB,en-US;q=0.9,en;q=0.8","5731e2e45b8b06000f7e3671","687a19d2168e237449fb8af4","6889dea1aaf003746bed55e0","0","5731e2e45b8b06000f7e3671","0","","true","","","","","","","","","","","","","","","","","","","","","","","","","","","","","","","","","","","","","","","","",""
"3905","1753865927484"," <p style='font-size:1.1em;line-height:1.25'>Thank you for closing all other tabs.</p><p style='font-size:1.1em;line-height:1.25'>We will now invite you to fill in some questionnaires, before starting the game.<br>This will take about 5 minutes.<br></p><p style='font-size:1.1em;line-height:1.25'>Press the <strong>Next</strong> button to continue.</p>","0","custom-html-button-response","2","14269","0.0-2.0","69","1","2025-07-30 08:58:32","36c45c0696341be0efffe67d72a12abb","82.18.178.101","Mozilla/5.0 (Windows NT 10.0; Win64; x64) AppleWebKit/537.36 (KHTML, like Gecko) Chrome/138.0.0.0 Safari/537.36","WebKit","Chrome","138.0.0.0","Windows","10.0","https://app.prolific.com/","en-GB,en-US;q=0.9,en;q=0.8","5731e2e45b8b06000f7e3671","687a19d2168e237449fb8af4","6889dea1aaf003746bed55e0","0","5731e2e45b8b06000f7e3671","0","2025-07-30T08:58:47.484Z","","","","","","","","","","","","","","","","","","","","","","","","","","","","","","","","","","","","","","","","","",""
"4208","","","{""assigned_sex"":""male""}","survey-multi-choice","3","18478","0.0-3.0-0.0","69","1","2025-07-30 08:58:32","36c45c0696341be0efffe67d72a12abb","82.18.178.101","Mozilla/5.0 (Windows NT 10.0; Win64; x64) AppleWebKit/537.36 (KHTML, like Gecko) Chrome/138.0.0.0 Safari/537.36","WebKit","Chrome","138.0.0.0","Windows","10.0","https://app.prolific.com/","en-GB,en-US;q=0.9,en;q=0.8","5731e2e45b8b06000f7e3671","687a19d2168e237449fb8af4","6889dea1aaf003746bed55e0","0","5731e2e45b8b06000f7e3671","0","","","[0]","0","demographics","","","","","","","","","","","","","","","","","","","","","","","","","","","","","","","","","","","","","",""
"5230","1753865936924","<p style='font-size:1.1em;line-height:1.25'>In the following, we will perform a baseline assessment. This means that we will ask you a few questions relating to your experiences over the past month.<br></p><p style='font-size:1.1em;line-height:1.25'>Press the <strong>Next</strong> button to continue.</p>","0","custom-html-button-response","4","23709","0.0-4.0-0.0","69","1","2025-07-30 08:58:32","36c45c0696341be0efffe67d72a12abb","82.18.178.101","Mozilla/5.0 (Windows NT 10.0; Win64; x64) AppleWebKit/537.36 (KHTML, like Gecko) Chrome/138.0.0.0 Safari/537.36","WebKit","Chrome","138.0.0.0","Windows","10.0","https://app.prolific.com/","en-GB,en-US;q=0.9,en;q=0.8","5731e2e45b8b06000f7e3671","687a19d2168e237449fb8af4","6889dea1aaf003746bed55e0","0","5731e2e45b8b06000f7e3671","0","2025-07-30T08:58:56.924Z","","","","","","","","","","","","","","","","","","","","","","","","","","","","","","","","","","","","","","","","","",""
"101272.80000000028","","","","survey-template","5","124983","0.0-4.0-1.0","69","1","2025-07-30 08:58:32","36c45c0696341be0efffe67d72a12abb","82.18.178.101","Mozilla/5.0 (Windows NT 10.0; Win64; x64) AppleWebKit/537.36 (KHTML, like Gecko) Chrome/138.0.0.0 Safari/537.36","WebKit","Chrome","138.0.0.0","Windows","10.0","https://app.prolific.com/","en-GB,en-US;q=0.9,en;q=0.8","5731e2e45b8b06000f7e3671","687a19d2168e237449fb8af4","6889dea1aaf003746bed55e0","0","5731e2e45b8b06000f7e3671","0","2025-07-30T09:00:38.199Z","","","","pss","{""Q01"":""1"",""Q02"":""3"",""Q03"":""3"",""Q04"":""3"",""Q05"":""3"",""Q06"":""1"",""Q07"":""2"",""Q08"":""4"",""Q09"":""1"",""Q10"":""1""}","[0,1,2,3,4,5,6,7,8,9]","[""Q02"",""Q01"",""Q03"",""Q04"",""Q05"",""Q07"",""Q06"",""Q08"",""Q09"",""Q10""]","[16342.80000000028,23550.5,28790.80000000028,36183,44086.5,54366.60000000009,60742.80000000028,64926.80000000028,73638.70000000019,82582.70000000019]","[]","[0,10582.700000000186,15254.700000000186,15758.700000000186,16342.80000000028,20078.700000000186,23550.5,28790.80000000028,36183,44086.5,54366.60000000009,60742.80000000028,64926.80000000028,73638.70000000019,82582.70000000019,101270.80000000028]","0.6","0.2222222222222222","0","","","","","","","","","","","","","","","","","","","","","","","","","","","","",""
"2773","1753866040972","<p style='font-size:1.1em;line-height:1.25'>Thank you for your answers! Now we will ask you a few more questions relating to your feelings in the last 24 hours.<br></p><p style='font-size:1.1em;line-height:1.25'>Press the <strong>Next</strong> button to continue.</p>","0","custom-html-button-response","6","127757","0.0-4.0-2.0","69","1","2025-07-30 08:58:32","36c45c0696341be0efffe67d72a12abb","82.18.178.101","Mozilla/5.0 (Windows NT 10.0; Win64; x64) AppleWebKit/537.36 (KHTML, like Gecko) Chrome/138.0.0.0 Safari/537.36","WebKit","Chrome","138.0.0.0","Windows","10.0","https://app.prolific.com/","en-GB,en-US;q=0.9,en;q=0.8","5731e2e45b8b06000f7e3671","687a19d2168e237449fb8af4","6889dea1aaf003746bed55e0","0","5731e2e45b8b06000f7e3671","0","2025-07-30T09:00:40.972Z","","","","","","","","","","","","","","","","","","","","","","","","","","","","","","","","","","","","","","","","","",""
"138601.5","","","","survey-template","7","266361","0.0-4.0-3.0","69","1","2025-07-30 08:58:32","36c45c0696341be0efffe67d72a12abb","82.18.178.101","Mozilla/5.0 (Windows NT 10.0; Win64; x64) AppleWebKit/537.36 (KHTML, like Gecko) Chrome/138.0.0.0 Safari/537.36","WebKit","Chrome","138.0.0.0","Windows","10.0","https://app.prolific.com/","en-GB,en-US;q=0.9,en;q=0.8","5731e2e45b8b06000f7e3671","687a19d2168e237449fb8af4","6889dea1aaf003746bed55e0","0","5731e2e45b8b06000f7e3671","0","2025-07-30T09:02:59.576Z","","","","drsp","{""Q01"":""3"",""Q02"":""3"",""Q03"":""3"",""Q04"":""4"",""Q05"":""1"",""Q06"":""0"",""Q07"":""1"",""Q08"":""1"",""Q09"":""4"",""Q10"":""0"",""Q11"":""5"",""Q12"":""0"",""Q13"":""5"",""Q14"":""0"",""Q15"":""2"",""Q16"":""3"",""Q17"":""2"",""Q18"":""2"",""Q19"":""5"",""Q20"":""3"",""Q21"":""1"",""Q22"":""0""}","[0,1,2,3,4,5,6,7,8,9,10,11,12,13,14,15,16,17,18,19,20,21]","[""Q01"",""Q02"",""Q03"",""Q04"",""Q05"",""Q06"",""Q07"",""Q08"",""Q09"",""Q10"",""Q11"",""Q12"",""Q13"",""Q14"",""Q15"",""Q16"",""Q17"",""Q18"",""Q19"",""Q20"",""Q21"",""Q22"",""Q22"",""Q21""]","[6766.299999999814,8086.200000000186,10574.299999999814,12702.200000000186,16614.200000000186,20598.299999999814,29198.399999999907,33214.200000000186,37150.200000000186,42374.200000000186,45638.10000000009,47646.200000000186,50638.10000000009,52422.10000000009,57390.200000000186,62166.10000000009,70814.29999999981,80054.20000000019,88966.29999999981,96278.1000000001,100518.29999999981,110494.1000000001,124374.29999999981,128982]","[]","[0,6766.299999999814,8086.200000000186,10574.299999999814,12198.100000000093,12702.200000000186,16614.200000000186,20206.399999999907,20598.299999999814,28766.200000000186,29198.399999999907,33214.200000000186,34918.39999999991,37150.200000000186,41950.299999999814,42374.200000000186,45638.10000000009,47646.200000000186,49934.299999999814,50638.10000000009,52422.10000000009,56118.200000000186,57390.200000000186,62166.10000000009,70814.29999999981,80054.20000000019,88526.3999999999,88966.29999999981,95798.5,96278.1000000001,100518.29999999981,110494.1000000001,123398.20000000019,124374.29999999981,128982,138598.2999999998]","0.22727272727272727","0.47619047619047616","0","","","","","","","","","","","","","","","","","","","","","","","","","","","","",""
"69507.8999999999","","","","survey-template","8","335870","0.0-4.0-4.0","69","1","2025-07-30 08:58:32","36c45c0696341be0efffe67d72a12abb","82.18.178.101","Mozilla/5.0 (Windows NT 10.0; Win64; x64) AppleWebKit/537.36 (KHTML, like Gecko) Chrome/138.0.0.0 Safari/537.36","WebKit","Chrome","138.0.0.0","Windows","10.0","https://app.prolific.com/","en-GB,en-US;q=0.9,en;q=0.8","5731e2e45b8b06000f7e3671","687a19d2168e237449fb8af4","6889dea1aaf003746bed55e0","0","5731e2e45b8b06000f7e3671","0","2025-07-30T09:04:09.085Z","","","","stress","{""Q01"":""4"",""Q02"":""3"",""Q03"":""2""}","[0,1,2]","[""Q01"",""Q02"",""Q03"",""Q02"",""Q03"",""Q03"",""Q02"",""Q03""]","[10507.19999999972,13931.19999999972,24419.100000000093,24867.19999999972,38875.19999999972,43923.299999999814,60907.19999999972,66819.1000000001]","[]","[7739.199999999721,8579.19999999972,9947.19999999972,10507.19999999972,11955.19999999972,12443,13459.100000000093,13931.19999999972,21875.19999999972,24419.100000000093,24867.19999999972,38875.19999999972,43923.299999999814,60907.19999999972,66819.1000000001,69507.29999999981]","0.6666666666666666","0","0","","","","","","","","","","","","","","","","","","","","","","","","","","","","",""
"26279","","","","instructions","9","362149","0.0-5.0-0.0","69","1","2025-07-30 08:58:32","36c45c0696341be0efffe67d72a12abb","82.18.178.101","Mozilla/5.0 (Windows NT 10.0; Win64; x64) AppleWebKit/537.36 (KHTML, like Gecko) Chrome/138.0.0.0 Safari/537.36","WebKit","Chrome","138.0.0.0","Windows","10.0","https://app.prolific.com/","en-GB,en-US;q=0.9,en;q=0.8","5731e2e45b8b06000f7e3671","687a19d2168e237449fb8af4","6889dea1aaf003746bed55e0","0","5731e2e45b8b06000f7e3671","0","","","","","","","","","","","","","","","[{""page_index"":0,""viewing_time"":26279}]","","","","","","","","","","","","","","","","","","","","","","","","","","","",""
"13831","","<p>Before you start with this game please answer the following three questions yourself. </p>
  <p>Through this game, we measure several aspects of your cognitive performance, such as reaction times, multi-tasking capabilities </p>
  <p>and the ability to assess the situation you are in.</p>
  <p></p>
  <p><b>How good do you usually are in such tasks?</b></p>","59","html-slider-response","10","375981","0.0-6.0-0.0","69","1","2025-07-30 08:58:32","36c45c0696341be0efffe67d72a12abb","82.18.178.101","Mozilla/5.0 (Windows NT 10.0; Win64; x64) AppleWebKit/537.36 (KHTML, like Gecko) Chrome/138.0.0.0 Safari/537.36","WebKit","Chrome","138.0.0.0","Windows","10.0","https://app.prolific.com/","en-GB,en-US;q=0.9,en;q=0.8","5731e2e45b8b06000f7e3671","687a19d2168e237449fb8af4","6889dea1aaf003746bed55e0","0","5731e2e45b8b06000f7e3671","0","2025-07-30T09:04:49.196Z","","","","PreSkillQ","","","","","","","","","","","50","","","","","","","","","","","","","","","","","","","","","","","","","","",""
"8551","","<div style=""width:500px;"">
  <p>How well do you think you will perform in this task compared to other participants?</p>
  </div>","45","html-slider-response","11","384533","0.0-6.0-1.0","69","1","2025-07-30 08:58:32","36c45c0696341be0efffe67d72a12abb","82.18.178.101","Mozilla/5.0 (Windows NT 10.0; Win64; x64) AppleWebKit/537.36 (KHTML, like Gecko) Chrome/138.0.0.0 Safari/537.36","WebKit","Chrome","138.0.0.0","Windows","10.0","https://app.prolific.com/","en-GB,en-US;q=0.9,en;q=0.8","5731e2e45b8b06000f7e3671","687a19d2168e237449fb8af4","6889dea1aaf003746bed55e0","0","5731e2e45b8b06000f7e3671","0","2025-07-30T09:04:57.748Z","","","","PrePerfQ","","","","","","","","","","","50","","","","","","","","","","","","","","","","","","","","","","","","","","",""
"9519","","<div style=""width:500px;"">
  <p>What best describes how you currently feel?</p>
  </div>","19","html-slider-response","12","394053","0.0-6.0-2.0","69","1","2025-07-30 08:58:32","36c45c0696341be0efffe67d72a12abb","82.18.178.101","Mozilla/5.0 (Windows NT 10.0; Win64; x64) AppleWebKit/537.36 (KHTML, like Gecko) Chrome/138.0.0.0 Safari/537.36","WebKit","Chrome","138.0.0.0","Windows","10.0","https://app.prolific.com/","en-GB,en-US;q=0.9,en;q=0.8","5731e2e45b8b06000f7e3671","687a19d2168e237449fb8af4","6889dea1aaf003746bed55e0","0","5731e2e45b8b06000f7e3671","0","2025-07-30T09:05:07.268Z","","","","PreMotivationQ","","","","","","","","","","","50","","","","","","","","","","","","","","","","","","","","","","","","","","",""
"","","","","ctl-task-cpt","13","425596","0.0-7.0-0.0","69","1","2025-07-30 08:58:32","36c45c0696341be0efffe67d72a12abb","82.18.178.101","Mozilla/5.0 (Windows NT 10.0; Win64; x64) AppleWebKit/537.36 (KHTML, like Gecko) Chrome/138.0.0.0 Safari/537.36","WebKit","Chrome","138.0.0.0","Windows","10.0","https://app.prolific.com/","en-GB,en-US;q=0.9,en;q=0.8","5731e2e45b8b06000f7e3671","687a19d2168e237449fb8af4","6889dea1aaf003746bed55e0","0","5731e2e45b8b06000f7e3671","0","2025-07-30T09:05:38.811Z","","","","","","","","","","","","","","","","win-only","1","g1:NE,g2:SW","1","1","0","395047.9","1271.3","6276.1","28536.9","1","4","4","6","2","4","3","3","0","0.022727272727272728","1256.2","3000","640","[""down"",""left""]","{""num_key_presses"":8,""num_perfect"":7,""num_errors"":1,""num_randdir"":0,""num_randdir_good_moves"":0,""num_whilered"":0,""num_whileblue"":1,""num_blue"":1,""num_good_moves"":7}","[419.57142857142856,408.47767857142856,0.2,419.57142857142856,408.47767857142856,103.9,419.57142857142856,408.47767857142856,204.4,419.57142857142856,408.47767857142856,305.3,419.57142857142856,408.47767857142856,409.6,419.57142857142856,408.47767857142856,509.9,483.57142857142856,364.47767857142856,614,493.57142857142856,356.47767857142856,714.1,565.5714285714286,264.47767857142856,814.8,283.57142857142856,418.47767857142856,914.9,225.57142857142856,670.4776785714286,1020.2,135.57142857142856,728.4776785714286,1120.6,83.57142857142857,748.4776785714286,1224.1,83.57142857142857,756.4776785714286,1330.5,77.57142857142857,756.4776785714286,1435.1,77.57142857142857,756.4776785714286,1539.3,77.57142857142857,754.4776785714286,1639.3,83.57142857142857,750.4776785714286,1744.4,87.57142857142857,746.4776785714286,1850,101.57142857142857,734.4776785714286,1954.2,101.57142857142857,734.4776785714286,2054.7,101.57142857142857,734.4776785714286,2160.5,101.57142857142857,734.4776785714286,2265.5,101.57142857142857,734.4776785714286,2369.3,101.57142857142857,734.4776785714286,2469.9,103.57142857142857,734.4776785714286,2574.7,103.57142857142857,734.4776785714286,2679,105.57142857142857,750.4776785714286,2779.2,91.57142857142857,782.4776785714286,2879.2,89.57142857142857,780.4776785714286,2979.6,111.57142857142857,732.4776785714286,3084.8,135.57142857142856,710.4776785714286,3190,151.57142857142856,690.4776785714286,3290,151.57142857142856,690.4776785714286,3394.3,151.57142857142856,690.4776785714286,3494.5,147.57142857142856,692.4776785714286,3594.7,147.57142857142856,694.4776785714286,3700.4,147.57142857142856,694.4776785714286,3804.4,147.57142857142856,694.4776785714286,3909.2,147.57142857142856,694.4776785714286,4009.2,147.57142857142856,694.4776785714286,4109.4,147.57142857142856,694.4776785714286,4209.9,147.57142857142856,694.4776785714286,4314.3,147.57142857142856,694.4776785714286,4419.2,147.57142857142856,694.4776785714286,4520.4,147.57142857142856,694.4776785714286,4624.4,147.57142857142856,694.4776785714286,4724.6,147.57142857142856,694.4776785714286,4824.7,147.57142857142856,694.4776785714286,4929.9]","[1348.8,1348.8,1000,0,348.8,""smooth"",""down"",""down"",""good_move"",4335.7,2986.7,2662.5,1349,324.2,""smooth"",""left"",""left"",""good_move"",6713.8,2377.8,2051,4336,326.8,""smooth"",""down"",""down"",""good_move"",9514.8,2800.9,2446,6713.9,354.9,""smooth"",""left"",""left"",""good_move"",12253.8,2738.9,2399.7,9514.9,339.2,""while_blue"",""down"",""right"",""bad_move"",15855.6,3601.6,3215.9,12254,385.7,""smooth"",""down"",""down"",""good_move"",19041.3,3185.6,2845.3,15855.7,340.3,""smooth"",""left"",""left"",""good_move"",22159.7,3118.3,2798.4,19041.5,319.8,""smooth"",""left"",""left"",""good_move""]"
"8768","","<div style=""width:500px;"">
  <p>What determined the result of this run?</p>
  </div>","100","html-slider-response","14","434365","0.0-7.0-1.0","69","1","2025-07-30 08:58:32","36c45c0696341be0efffe67d72a12abb","82.18.178.101","Mozilla/5.0 (Windows NT 10.0; Win64; x64) AppleWebKit/537.36 (KHTML, like Gecko) Chrome/138.0.0.0 Safari/537.36","WebKit","Chrome","138.0.0.0","Windows","10.0","https://app.prolific.com/","en-GB,en-US;q=0.9,en;q=0.8","5731e2e45b8b06000f7e3671","687a19d2168e237449fb8af4","6889dea1aaf003746bed55e0","0","5731e2e45b8b06000f7e3671","0","2025-07-30T09:05:47.580Z","","","","AttribQ","","","","","","","","","","","50","","","","","","","","","","","","","","","","","","","","","","","","","","",""
"9783","","<div style=""width:500px;"">
  <p>How much control did you have over the ball?</p>
  </div>","96","html-slider-response","15","444149","0.0-7.0-2.0","69","1","2025-07-30 08:58:32","36c45c0696341be0efffe67d72a12abb","82.18.178.101","Mozilla/5.0 (Windows NT 10.0; Win64; x64) AppleWebKit/537.36 (KHTML, like Gecko) Chrome/138.0.0.0 Safari/537.36","WebKit","Chrome","138.0.0.0","Windows","10.0","https://app.prolific.com/","en-GB,en-US;q=0.9,en;q=0.8","5731e2e45b8b06000f7e3671","687a19d2168e237449fb8af4","6889dea1aaf003746bed55e0","0","5731e2e45b8b06000f7e3671","0","2025-07-30T09:05:57.364Z","","","","ControlQ","","","","","","","","","","","50","","","","","","","","","","","","","","","","","","","","","","","","","","",""
"10543","","<div style=""width:500px;"">
  <p>How would you describe your current emotional state?</p>
  </div>","64","html-slider-response","16","454693","0.0-7.0-3.0","69","1","2025-07-30 08:58:32","36c45c0696341be0efffe67d72a12abb","82.18.178.101","Mozilla/5.0 (Windows NT 10.0; Win64; x64) AppleWebKit/537.36 (KHTML, like Gecko) Chrome/138.0.0.0 Safari/537.36","WebKit","Chrome","138.0.0.0","Windows","10.0","https://app.prolific.com/","en-GB,en-US;q=0.9,en;q=0.8","5731e2e45b8b06000f7e3671","687a19d2168e237449fb8af4","6889dea1aaf003746bed55e0","0","5731e2e45b8b06000f7e3671","0","2025-07-30T09:06:07.908Z","","","","StressQ","","","","","","","","","","","50","","","","","","","","","","","","","","","","","","","","","","","","","","",""
"7527","","<div style=""width:500px;"">
  <p>What best describes how you currently feel?</p>
  </div>","28","html-slider-response","17","462221","0.0-7.0-4.0","69","1","2025-07-30 08:58:32","36c45c0696341be0efffe67d72a12abb","82.18.178.101","Mozilla/5.0 (Windows NT 10.0; Win64; x64) AppleWebKit/537.36 (KHTML, like Gecko) Chrome/138.0.0.0 Safari/537.36","WebKit","Chrome","138.0.0.0","Windows","10.0","https://app.prolific.com/","en-GB,en-US;q=0.9,en;q=0.8","5731e2e45b8b06000f7e3671","687a19d2168e237449fb8af4","6889dea1aaf003746bed55e0","0","5731e2e45b8b06000f7e3671","0","2025-07-30T09:06:15.436Z","","","","MotivationQ","","","","","","","","","","","50","","","","","","","","","","","","","","","","","","","","","","","","","","",""
"","","","","ctl-task-cpt","18","496233","0.0-7.0-0.1","69","1","2025-07-30 08:58:32","36c45c0696341be0efffe67d72a12abb","82.18.178.101","Mozilla/5.0 (Windows NT 10.0; Win64; x64) AppleWebKit/537.36 (KHTML, like Gecko) Chrome/138.0.0.0 Safari/537.36","WebKit","Chrome","138.0.0.0","Windows","10.0","https://app.prolific.com/","en-GB,en-US;q=0.9,en;q=0.8","5731e2e45b8b06000f7e3671","687a19d2168e237449fb8af4","6889dea1aaf003746bed55e0","0","5731e2e45b8b06000f7e3671","0","2025-07-30T09:06:49.448Z","","","","","","","","","","","","","","","","win-only","1","g1:NE,g2:SW","0.9","2","0","463215.4","1032.1","6035.3","30995.4","1","4","8","6","2","8","7","10","3","0.07575757575757576","1000","3000","500","[""down"",""left""]","{""num_key_presses"":8,""num_perfect"":7,""num_errors"":1,""num_randdir"":0,""num_randdir_good_moves"":0,""num_whilered"":0,""num_whileblue"":1,""num_blue"":2,""num_good_moves"":7}","[407.57142857142856,406.47767857142856,0.1,407.57142857142856,406.47767857142856,103.4,413.57142857142856,410.47767857142856,203.7,413.57142857142856,410.47767857142856,308.7,413.57142857142856,410.47767857142856,409,415.57142857142856,410.47767857142856,513.9,431.57142857142856,378.47767857142856,618.5,189.57142857142856,618.4776785714286,724.2,125.57142857142857,714.4776785714286,829.4,125.57142857142857,744.4776785714286,929.5,111.57142857142857,748.4776785714286,1033.6,109.57142857142857,750.4776785714286,1138.4,111.57142857142857,748.4776785714286,1244.3,159.57142857142856,748.4776785714286,1349.7,161.57142857142856,748.4776785714286,1453.9,163.57142857142856,748.4776785714286,1558.8,163.57142857142856,748.4776785714286,1664.4,163.57142857142856,748.4776785714286,1768.1,163.57142857142856,748.4776785714286,1868.7,163.57142857142856,748.4776785714286,1968.7,163.57142857142856,748.4776785714286,2074.1,163.57142857142856,748.4776785714286,2178.6,163.57142857142856,748.4776785714286,2279.1,169.57142857142856,744.4776785714286,2383.3,171.57142857142856,744.4776785714286,2488.3,171.57142857142856,744.4776785714286,2588.3,171.57142857142856,744.4776785714286,2688.9,171.57142857142856,744.4776785714286,2794.2,171.57142857142856,744.4776785714286,2894.7,171.57142857142856,744.4776785714286,2999.3,171.57142857142856,744.4776785714286,3103.7,171.57142857142856,744.4776785714286,3208.9,181.57142857142856,742.4776785714286,3309.1,511.57142857142856,748.4776785714286,3414,719.5714285714286,750.4776785714286,3514.4,699.5714285714286,756.4776785714286,3618,689.5714285714286,756.4776785714286,3718.8,733.5714285714286,742.4776785714286,3823.4,813.5714285714286,728.4776785714286,3928.6,815.5714285714286,728.4776785714286,4028.6,815.5714285714286,728.4776785714286,4133.2,813.5714285714286,728.4776785714286,4233.6,811.5714285714286,728.4776785714286,4338.3,809.5714285714286,728.4776785714286,4444.4,809.5714285714286,728.4776785714286,4548.6,805.5714285714286,728.4776785714286,4653.8,805.5714285714286,728.4776785714286,4758.7,803.5714285714286,728.4776785714286,4864.5,801.5714285714286,728.4776785714286,4968.8]","[4764.5,4764.5,2469.9,2005.4,289.2,""while_blue"",""down"",""up"",""bad_move"",8011.4,3246.5,2880.1,4764.9,366.4,""smooth"",""left"",""left"",""good_move"",10560.1,2548.4,2199.5,8011.7,348.9,""smooth"",""down"",""down"",""good_move"",13323.4,2763.1,2412.2,10560.3,350.9,""smooth"",""down"",""down"",""good_move"",16037.2,2713.7,2340.5,13323.5,373.2,""smooth"",""down"",""down"",""good_move"",18783.9,2746.6,2346.6,16037.3,400,""smooth"",""left"",""left"",""good_move"",21696.1,2912,2572.6,18784.1,339.4,""smooth"",""down"",""down"",""good_move"",24875.1,3178.9,2819.7,21696.2,359.2,""smooth"",""left"",""left"",""good_move""]"
"4747","","<div style=""width:500px;"">
  <p>What determined the result of this run?</p>
  </div>","98","html-slider-response","19","500981","0.0-7.0-1.1","69","1","2025-07-30 08:58:32","36c45c0696341be0efffe67d72a12abb","82.18.178.101","Mozilla/5.0 (Windows NT 10.0; Win64; x64) AppleWebKit/537.36 (KHTML, like Gecko) Chrome/138.0.0.0 Safari/537.36","WebKit","Chrome","138.0.0.0","Windows","10.0","https://app.prolific.com/","en-GB,en-US;q=0.9,en;q=0.8","5731e2e45b8b06000f7e3671","687a19d2168e237449fb8af4","6889dea1aaf003746bed55e0","0","5731e2e45b8b06000f7e3671","0","2025-07-30T09:06:54.197Z","","","","AttribQ","","","","","","","","","","","50","","","","","","","","","","","","","","","","","","","","","","","","","","",""
"4007","","<div style=""width:500px;"">
  <p>How much control did you have over the ball?</p>
  </div>","97","html-slider-response","20","504989","0.0-7.0-2.1","69","1","2025-07-30 08:58:32","36c45c0696341be0efffe67d72a12abb","82.18.178.101","Mozilla/5.0 (Windows NT 10.0; Win64; x64) AppleWebKit/537.36 (KHTML, like Gecko) Chrome/138.0.0.0 Safari/537.36","WebKit","Chrome","138.0.0.0","Windows","10.0","https://app.prolific.com/","en-GB,en-US;q=0.9,en;q=0.8","5731e2e45b8b06000f7e3671","687a19d2168e237449fb8af4","6889dea1aaf003746bed55e0","0","5731e2e45b8b06000f7e3671","0","2025-07-30T09:06:58.204Z","","","","ControlQ","","","","","","","","","","","50","","","","","","","","","","","","","","","","","","","","","","","","","","",""
"6815","","<div style=""width:500px;"">
  <p>How would you describe your current emotional state?</p>
  </div>","67","html-slider-response","21","511805","0.0-7.0-3.1","69","1","2025-07-30 08:58:32","36c45c0696341be0efffe67d72a12abb","82.18.178.101","Mozilla/5.0 (Windows NT 10.0; Win64; x64) AppleWebKit/537.36 (KHTML, like Gecko) Chrome/138.0.0.0 Safari/537.36","WebKit","Chrome","138.0.0.0","Windows","10.0","https://app.prolific.com/","en-GB,en-US;q=0.9,en;q=0.8","5731e2e45b8b06000f7e3671","687a19d2168e237449fb8af4","6889dea1aaf003746bed55e0","0","5731e2e45b8b06000f7e3671","0","2025-07-30T09:07:05.020Z","","","","StressQ","","","","","","","","","","","50","","","","","","","","","","","","","","","","","","","","","","","","","","",""
"7143","","<div style=""width:500px;"">
  <p>What best describes how you currently feel?</p>
  </div>","19","html-slider-response","22","518949","0.0-7.0-4.1","69","1","2025-07-30 08:58:32","36c45c0696341be0efffe67d72a12abb","82.18.178.101","Mozilla/5.0 (Windows NT 10.0; Win64; x64) AppleWebKit/537.36 (KHTML, like Gecko) Chrome/138.0.0.0 Safari/537.36","WebKit","Chrome","138.0.0.0","Windows","10.0","https://app.prolific.com/","en-GB,en-US;q=0.9,en;q=0.8","5731e2e45b8b06000f7e3671","687a19d2168e237449fb8af4","6889dea1aaf003746bed55e0","0","5731e2e45b8b06000f7e3671","0","2025-07-30T09:07:12.164Z","","","","MotivationQ","","","","","","","","","","","50","","","","","","","","","","","","","","","","","","","","","","","","","","",""
"","","","","ctl-task-cpt","23","569024","0.0-7.0-0.2","69","1","2025-07-30 08:58:32","36c45c0696341be0efffe67d72a12abb","82.18.178.101","Mozilla/5.0 (Windows NT 10.0; Win64; x64) AppleWebKit/537.36 (KHTML, like Gecko) Chrome/138.0.0.0 Safari/537.36","WebKit","Chrome","138.0.0.0","Windows","10.0","https://app.prolific.com/","en-GB,en-US;q=0.9,en;q=0.8","5731e2e45b8b06000f7e3671","687a19d2168e237449fb8af4","6889dea1aaf003746bed55e0","0","5731e2e45b8b06000f7e3671","0","2025-07-30T09:08:02.239Z","","","","","","","","","","","","","","","","win-only","2","g1:SE,g2:NW","0.8","3","0","519943.3","1136.6","6140.8","47056.3","1","4","4","6","2","-4","-4","6","10","0.045454545454545456","1079.8","3000","-3015","[""left"",""up""]","{""num_key_presses"":9,""num_perfect"":7,""num_errors"":0,""num_randdir"":2,""num_randdir_good_moves"":0,""num_whilered"":0,""num_whileblue"":0,""num_blue"":4,""num_good_moves"":7}","[411.57142857142856,412.47767857142856,0,413.57142857142856,418.47767857142856,100.1,417.57142857142856,454.47767857142856,204.4,395.57142857142856,486.47767857142856,309.2,381.57142857142856,490.47767857142856,409.7,509.57142857142856,548.4776785714286,514.2,343.57142857142856,432.47767857142856,619.5,115.57142857142857,210.47767857142856,724,101.57142857142857,166.47767857142856,824.6,77.57142857142857,132.47767857142856,930.5,67.57142857142857,68.47767857142857,1034.2,67.57142857142857,64.47767857142857,1139.7,71.57142857142857,76.47767857142857,1244.1,73.57142857142857,162.47767857142856,1345.8,47.57142857142857,252.47767857142856,1449.4,47.57142857142857,252.47767857142856,1549.3,47.57142857142857,252.47767857142856,1650,47.57142857142857,252.47767857142856,1750.6,47.57142857142857,252.47767857142856,1854.5,47.57142857142857,252.47767857142856,1958.9,47.57142857142857,252.47767857142856,2059.6,47.57142857142857,252.47767857142856,2164.4,47.57142857142857,252.47767857142856,2264.4,47.57142857142857,252.47767857142856,2364.6,47.57142857142857,252.47767857142856,2464.8,47.57142857142857,252.47767857142856,2570.4,47.57142857142857,252.47767857142856,2674.2,47.57142857142857,252.47767857142856,2779.2,47.57142857142857,252.47767857142856,2879.2,47.57142857142857,252.47767857142856,2980.1,47.57142857142857,252.47767857142856,3084.2,47.57142857142857,252.47767857142856,3190.3,47.57142857142857,252.47767857142856,3294.4,47.57142857142857,252.47767857142856,3394.7,47.57142857142857,252.47767857142856,3500.2,47.57142857142857,252.47767857142856,3604,47.57142857142857,252.47767857142856,3704.9,47.57142857142857,252.47767857142856,3804.9,47.57142857142857,252.47767857142856,3909.2,47.57142857142857,252.47767857142856,4009.2,47.57142857142857,252.47767857142856,4109.8,47.57142857142857,252.47767857142856,4213.7,47.57142857142857,252.47767857142856,4314.1,47.57142857142857,252.47767857142856,4414.9,47.57142857142857,252.47767857142856,4519.3,47.57142857142857,252.47767857142856,4623.8,47.57142857142857,252.47767857142856,4729,47.57142857142857,252.47767857142856,4834,47.57142857142857,252.47767857142856,4934]","[4794.8,4794.8,2431.3,2005.2,358.3,""smooth"",""up"",""up"",""good_move"",11728.5,6933.4,3046.7,8350.3,331.5,""smooth"",""up"",""up"",""good_move"",14401.7,2673,2331.2,11728.7,341.8,""smooth"",""left"",""left"",""good_move"",17786.9,3385,3077.5,14401.9,307.5,""smooth"",""left"",""left"",""good_move"",20116.8,2329.8,1983,17787,346.8,""oops"",""up"",""down"",""bad_move"",30124.8,10007.8,2251.4,27529.8,343.6,""oops"",""up"",""right"",""bad_move"",32909.6,2784.6,2489.4,30125,295.2,""smooth"",""up"",""up"",""good_move"",35931.8,3022.1,2731.5,32909.8,290.5,""smooth"",""left"",""left"",""good_move"",38637.9,2706.1,2318.8,35931.9,387.3,""smooth"",""up"",""up"",""good_move""]"
"9389","","<div style=""width:500px;"">
  <p>What determined the result of this run?</p>
  </div>","42","html-slider-response","24","578413","0.0-7.0-1.2","69","1","2025-07-30 08:58:32","36c45c0696341be0efffe67d72a12abb","82.18.178.101","Mozilla/5.0 (Windows NT 10.0; Win64; x64) AppleWebKit/537.36 (KHTML, like Gecko) Chrome/138.0.0.0 Safari/537.36","WebKit","Chrome","138.0.0.0","Windows","10.0","https://app.prolific.com/","en-GB,en-US;q=0.9,en;q=0.8","5731e2e45b8b06000f7e3671","687a19d2168e237449fb8af4","6889dea1aaf003746bed55e0","0","5731e2e45b8b06000f7e3671","0","2025-07-30T09:08:11.628Z","","","","AttribQ","","","","","","","","","","","50","","","","","","","","","","","","","","","","","","","","","","","","","","",""
"3831","","<div style=""width:500px;"">
  <p>How much control did you have over the ball?</p>
  </div>","41","html-slider-response","25","582245","0.0-7.0-2.2","69","1","2025-07-30 08:58:32","36c45c0696341be0efffe67d72a12abb","82.18.178.101","Mozilla/5.0 (Windows NT 10.0; Win64; x64) AppleWebKit/537.36 (KHTML, like Gecko) Chrome/138.0.0.0 Safari/537.36","WebKit","Chrome","138.0.0.0","Windows","10.0","https://app.prolific.com/","en-GB,en-US;q=0.9,en;q=0.8","5731e2e45b8b06000f7e3671","687a19d2168e237449fb8af4","6889dea1aaf003746bed55e0","0","5731e2e45b8b06000f7e3671","0","2025-07-30T09:08:15.460Z","","","","ControlQ","","","","","","","","","","","50","","","","","","","","","","","","","","","","","","","","","","","","","","",""
"4063","","<div style=""width:500px;"">
  <p>How would you describe your current emotional state?</p>
  </div>","73","html-slider-response","26","586309","0.0-7.0-3.2","69","1","2025-07-30 08:58:32","36c45c0696341be0efffe67d72a12abb","82.18.178.101","Mozilla/5.0 (Windows NT 10.0; Win64; x64) AppleWebKit/537.36 (KHTML, like Gecko) Chrome/138.0.0.0 Safari/537.36","WebKit","Chrome","138.0.0.0","Windows","10.0","https://app.prolific.com/","en-GB,en-US;q=0.9,en;q=0.8","5731e2e45b8b06000f7e3671","687a19d2168e237449fb8af4","6889dea1aaf003746bed55e0","0","5731e2e45b8b06000f7e3671","0","2025-07-30T09:08:19.524Z","","","","StressQ","","","","","","","","","","","50","","","","","","","","","","","","","","","","","","","","","","","","","","",""
"7544","","<div style=""width:500px;"">
  <p>What best describes how you currently feel?</p>
  </div>","30","html-slider-response","27","593853","0.0-7.0-4.2","69","1","2025-07-30 08:58:32","36c45c0696341be0efffe67d72a12abb","82.18.178.101","Mozilla/5.0 (Windows NT 10.0; Win64; x64) AppleWebKit/537.36 (KHTML, like Gecko) Chrome/138.0.0.0 Safari/537.36","WebKit","Chrome","138.0.0.0","Windows","10.0","https://app.prolific.com/","en-GB,en-US;q=0.9,en;q=0.8","5731e2e45b8b06000f7e3671","687a19d2168e237449fb8af4","6889dea1aaf003746bed55e0","0","5731e2e45b8b06000f7e3671","0","2025-07-30T09:08:27.068Z","","","","MotivationQ","","","","","","","","","","","50","","","","","","","","","","","","","","","","","","","","","","","","","","",""
"","","","","ctl-task-cpt","28","627776","0.0-7.0-0.3","69","1","2025-07-30 08:58:32","36c45c0696341be0efffe67d72a12abb","82.18.178.101","Mozilla/5.0 (Windows NT 10.0; Win64; x64) AppleWebKit/537.36 (KHTML, like Gecko) Chrome/138.0.0.0 Safari/537.36","WebKit","Chrome","138.0.0.0","Windows","10.0","https://app.prolific.com/","en-GB,en-US;q=0.9,en;q=0.8","5731e2e45b8b06000f7e3671","687a19d2168e237449fb8af4","6889dea1aaf003746bed55e0","0","5731e2e45b8b06000f7e3671","0","2025-07-30T09:09:00.991Z","","","","","","","","","","","","","","","","win-only","3","g1:SW,g2:NE","0.7","4","0","594847.7","791.5","5795.2","30905.5","1","4","8","6","2","8","7","13","6","0.09848484848484848","831.9","3000","825","[""up"",""right""]","{""num_key_presses"":8,""num_perfect"":6,""num_errors"":1,""num_randdir"":1,""num_randdir_good_moves"":0,""num_whilered"":0,""num_whileblue"":1,""num_blue"":2,""num_good_moves"":7}","[409.57142857142856,428.47767857142856,0.1,409.57142857142856,428.47767857142856,104.4,409.57142857142856,428.47767857142856,204.4,409.57142857142856,428.47767857142856,309.8,431.57142857142856,412.47767857142856,414.5,609.5714285714286,258.47767857142856,519.5,681.5714285714286,118.47767857142857,624,725.5714285714286,90.47767857142857,724.7,739.5714285714286,86.47767857142857,828.8,739.5714285714286,86.47767857142857,929.3,735.5714285714286,92.47767857142857,1029.3,749.5714285714286,202.47767857142856,1134.8,977.5714285714286,366.47767857142856,1239.2,1003.5714285714286,382.47767857142856,1344.4,1003.5714285714286,382.47767857142856,1449.4,1003.5714285714286,382.47767857142856,1555,997.5714285714286,380.47767857142856,1659.1,995.5714285714286,378.47767857142856,1759.1,991.5714285714286,376.47767857142856,1859.4,989.5714285714286,374.47767857142856,1964.1,987.5714285714286,372.47767857142856,2064.4,985.5714285714286,372.47767857142856,2164.7,983.5714285714286,370.47767857142856,2269.4,983.5714285714286,370.47767857142856,2374,981.5714285714286,370.47767857142856,2474,981.5714285714286,368.47767857142856,2574.1,981.5714285714286,368.47767857142856,2674.1,981.5714285714286,368.47767857142856,2774.6,979.5714285714286,368.47767857142856,2879,979.5714285714286,368.47767857142856,2984.9,979.5714285714286,368.47767857142856,3089.9,979.5714285714286,366.47767857142856,3194.2,979.5714285714286,366.47767857142856,3295,979.5714285714286,366.47767857142856,3400,979.5714285714286,366.47767857142856,3504.3,977.5714285714286,366.47767857142856,3609.2,977.5714285714286,366.47767857142856,3709.6,977.5714285714286,366.47767857142856,3814.3,977.5714285714286,366.47767857142856,3914.7,977.5714285714286,366.47767857142856,4019,977.5714285714286,366.47767857142856,4123.9,977.5714285714286,366.47767857142856,4224.6,977.5714285714286,366.47767857142856,4328.9,977.5714285714286,366.47767857142856,4433.8,977.5714285714286,366.47767857142856,4534.2,977.5714285714286,366.47767857142856,4634.3,977.5714285714286,366.47767857142856,4739.2,977.5714285714286,366.47767857142856,4839.7,977.5714285714286,366.47767857142856,4939.7]","[1331.6,1331.6,1000,0,331.6,""oops"",""right"",""left"",""bad_move"",4686.4,3354.7,3072.9,1331.7,281.8,""smooth"",""right"",""right"",""good_move"",10570.1,5883.5,2575.8,7695.7,298.6,""smooth"",""right"",""right"",""good_move"",13436.4,2866.2,2568.6,10570.3,297.5,""smooth"",""up"",""up"",""good_move"",16416.4,2979.7,2644.4,13436.7,335.3,""smooth"",""up"",""up"",""good_move"",19092.2,2675.6,2352.7,16416.6,322.9,""smooth"",""right"",""right"",""good_move"",21571.9,2479.6,2143.5,19092.3,336.1,""smooth"",""up"",""up"",""good_move"",25020,3448,3203,21572,245,""while_blue"",""right"",""right"",""good_move""]"
"6620","","<div style=""width:500px;"">
  <p>What determined the result of this run?</p>
  </div>","64","html-slider-response","29","634398","0.0-7.0-1.3","69","1","2025-07-30 08:58:32","36c45c0696341be0efffe67d72a12abb","82.18.178.101","Mozilla/5.0 (Windows NT 10.0; Win64; x64) AppleWebKit/537.36 (KHTML, like Gecko) Chrome/138.0.0.0 Safari/537.36","WebKit","Chrome","138.0.0.0","Windows","10.0","https://app.prolific.com/","en-GB,en-US;q=0.9,en;q=0.8","5731e2e45b8b06000f7e3671","687a19d2168e237449fb8af4","6889dea1aaf003746bed55e0","0","5731e2e45b8b06000f7e3671","0","2025-07-30T09:09:07.613Z","","","","AttribQ","","","","","","","","","","","50","","","","","","","","","","","","","","","","","","","","","","","","","","",""
"6455","","<div style=""width:500px;"">
  <p>How much control did you have over the ball?</p>
  </div>","92","html-slider-response","30","640853","0.0-7.0-2.3","69","1","2025-07-30 08:58:32","36c45c0696341be0efffe67d72a12abb","82.18.178.101","Mozilla/5.0 (Windows NT 10.0; Win64; x64) AppleWebKit/537.36 (KHTML, like Gecko) Chrome/138.0.0.0 Safari/537.36","WebKit","Chrome","138.0.0.0","Windows","10.0","https://app.prolific.com/","en-GB,en-US;q=0.9,en;q=0.8","5731e2e45b8b06000f7e3671","687a19d2168e237449fb8af4","6889dea1aaf003746bed55e0","0","5731e2e45b8b06000f7e3671","0","2025-07-30T09:09:14.068Z","","","","ControlQ","","","","","","","","","","","50","","","","","","","","","","","","","","","","","","","","","","","","","","",""
"5560","","<div style=""width:500px;"">
  <p>How would you describe your current emotional state?</p>
  </div>","62","html-slider-response","31","646413","0.0-7.0-3.3","69","1","2025-07-30 08:58:32","36c45c0696341be0efffe67d72a12abb","82.18.178.101","Mozilla/5.0 (Windows NT 10.0; Win64; x64) AppleWebKit/537.36 (KHTML, like Gecko) Chrome/138.0.0.0 Safari/537.36","WebKit","Chrome","138.0.0.0","Windows","10.0","https://app.prolific.com/","en-GB,en-US;q=0.9,en;q=0.8","5731e2e45b8b06000f7e3671","687a19d2168e237449fb8af4","6889dea1aaf003746bed55e0","0","5731e2e45b8b06000f7e3671","0","2025-07-30T09:09:19.628Z","","","","StressQ","","","","","","","","","","","50","","","","","","","","","","","","","","","","","","","","","","","","","","",""
"5655","","<div style=""width:500px;"">
  <p>What best describes how you currently feel?</p>
  </div>","34","html-slider-response","32","652069","0.0-7.0-4.3","69","1","2025-07-30 08:58:32","36c45c0696341be0efffe67d72a12abb","82.18.178.101","Mozilla/5.0 (Windows NT 10.0; Win64; x64) AppleWebKit/537.36 (KHTML, like Gecko) Chrome/138.0.0.0 Safari/537.36","WebKit","Chrome","138.0.0.0","Windows","10.0","https://app.prolific.com/","en-GB,en-US;q=0.9,en;q=0.8","5731e2e45b8b06000f7e3671","687a19d2168e237449fb8af4","6889dea1aaf003746bed55e0","0","5731e2e45b8b06000f7e3671","0","2025-07-30T09:09:25.285Z","","","","MotivationQ","","","","","","","","","","","50","","","","","","","","","","","","","","","","","","","","","","","","","","",""
"","","","","ctl-task-cpt","33","694004","0.0-7.0-0.4","69","1","2025-07-30 08:58:32","36c45c0696341be0efffe67d72a12abb","82.18.178.101","Mozilla/5.0 (Windows NT 10.0; Win64; x64) AppleWebKit/537.36 (KHTML, like Gecko) Chrome/138.0.0.0 Safari/537.36","WebKit","Chrome","138.0.0.0","Windows","10.0","https://app.prolific.com/","en-GB,en-US;q=0.9,en;q=0.8","5731e2e45b8b06000f7e3671","687a19d2168e237449fb8af4","6889dea1aaf003746bed55e0","0","5731e2e45b8b06000f7e3671","0","2025-07-30T09:10:07.219Z","","","","","","","","","","","","","","","","win-only","1","g1:NE,g2:SW","0.6","5","0","653063.9","768.3","5770.9","38916.2","1","4","8","6","2","-8","-9","4","13","0.030303030303030304","871.3","3000","-3005","[""down"",""left""]","{""num_key_presses"":10,""num_perfect"":5,""num_errors"":1,""num_randdir"":4,""num_randdir_good_moves"":1,""num_whilered"":0,""num_whileblue"":0,""num_blue"":1,""num_good_moves"":6}","[415.57142857142856,410.47767857142856,0.1,417.57142857142856,412.47767857142856,102.2,417.57142857142856,416.47767857142856,202.3,417.57142857142856,416.47767857142856,307.5,415.57142857142856,414.47767857142856,408.6,221.57142857142856,554.4776785714286,513.3,113.57142857142857,646.4776785714286,617.1,77.57142857142857,700.4776785714286,717.1,73.57142857142857,720.4776785714286,817.3,73.57142857142857,728.4776785714286,918.9,73.57142857142857,728.4776785714286,1022.6,95.57142857142857,728.4776785714286,1123.2,129.57142857142856,714.4776785714286,1224.4,197.57142857142856,734.4776785714286,1327.2,651.5714285714286,800.4776785714286,1428.1,799.5714285714286,802.4776785714286,1532.2,919.5714285714286,774.4776785714286,1632.4,937.5714285714286,756.4776785714286,1732.7,937.5714285714286,756.4776785714286,1832.7,937.5714285714286,756.4776785714286,1937.1,937.5714285714286,756.4776785714286,2037.7,937.5714285714286,756.4776785714286,2137.8,937.5714285714286,756.4776785714286,2243.8,937.5714285714286,756.4776785714286,2347.3,937.5714285714286,756.4776785714286,2448.2,937.5714285714286,756.4776785714286,2552.2,937.5714285714286,756.4776785714286,2653.1,937.5714285714286,756.4776785714286,2753.8,937.5714285714286,756.4776785714286,2857.1,937.5714285714286,756.4776785714286,2957.5,937.5714285714286,756.4776785714286,3057.7,937.5714285714286,756.4776785714286,3157.7,937.5714285714286,756.4776785714286,3263.3,937.5714285714286,756.4776785714286,3368.7,937.5714285714286,756.4776785714286,3472.4,937.5714285714286,756.4776785714286,3572.5,937.5714285714286,756.4776785714286,3677.4,937.5714285714286,756.4776785714286,3781.8,937.5714285714286,756.4776785714286,3882.8,937.5714285714286,756.4776785714286,3982.9,937.5714285714286,756.4776785714286,4087.7,937.5714285714286,756.4776785714286,4192.7,937.5714285714286,756.4776785714286,4297.8,937.5714285714286,756.4776785714286,4398.6,937.5714285714286,756.4776785714286,4502.5,937.5714285714286,756.4776785714286,4607.4,937.5714285714286,756.4776785714286,4707.5,937.5714285714286,756.4776785714286,4807.6,937.5714285714286,756.4776785714286,4912.6]","[1341.2,1341.2,1000,0,341.2,""oops"",""down"",""up"",""bad_move"",3908.3,2567,2236.7,1341.3,330.3,""oops"",""left"",""up"",""bad_move"",9856,5947.6,2194.4,7284.9,376.7,""oops"",""down"",""right"",""bad_move"",12080.4,2224.2,1884.5,9856.2,339.7,""oops"",""down"",""down"",""good_move"",15081.3,3000.7,2673,12080.6,327.7,""smooth"",""down"",""down"",""good_move"",17618.8,2537.4,2221.5,15081.4,315.9,""smooth"",""down"",""down"",""good_move"",20270.3,2651.4,2306.1,17618.9,345.3,""smooth"",""left"",""left"",""good_move"",23603.7,3333.2,3119,20270.5,214.2,""smooth"",""down"",""down"",""good_move"",27045.4,3441.5,3119.1,23603.9,322.4,""smooth"",""left"",""left"",""good_move"",29054.3,2008.8,3070.2,27045.5,-1061.4,""error"",""-"",""-"",""no_move""]"
"3953","","<div style=""width:500px;"">
  <p>What determined the result of this run?</p>
  </div>","19","html-slider-response","34","697957","0.0-7.0-1.4","69","1","2025-07-30 08:58:32","36c45c0696341be0efffe67d72a12abb","82.18.178.101","Mozilla/5.0 (Windows NT 10.0; Win64; x64) AppleWebKit/537.36 (KHTML, like Gecko) Chrome/138.0.0.0 Safari/537.36","WebKit","Chrome","138.0.0.0","Windows","10.0","https://app.prolific.com/","en-GB,en-US;q=0.9,en;q=0.8","5731e2e45b8b06000f7e3671","687a19d2168e237449fb8af4","6889dea1aaf003746bed55e0","0","5731e2e45b8b06000f7e3671","0","2025-07-30T09:10:11.172Z","","","","AttribQ","","","","","","","","","","","50","","","","","","","","","","","","","","","","","","","","","","","","","","",""
"4656","","<div style=""width:500px;"">
  <p>How much control did you have over the ball?</p>
  </div>","29","html-slider-response","35","702613","0.0-7.0-2.4","69","1","2025-07-30 08:58:32","36c45c0696341be0efffe67d72a12abb","82.18.178.101","Mozilla/5.0 (Windows NT 10.0; Win64; x64) AppleWebKit/537.36 (KHTML, like Gecko) Chrome/138.0.0.0 Safari/537.36","WebKit","Chrome","138.0.0.0","Windows","10.0","https://app.prolific.com/","en-GB,en-US;q=0.9,en;q=0.8","5731e2e45b8b06000f7e3671","687a19d2168e237449fb8af4","6889dea1aaf003746bed55e0","0","5731e2e45b8b06000f7e3671","0","2025-07-30T09:10:15.828Z","","","","ControlQ","","","","","","","","","","","50","","","","","","","","","","","","","","","","","","","","","","","","","","",""
"4087","","<div style=""width:500px;"">
  <p>How would you describe your current emotional state?</p>
  </div>","71","html-slider-response","36","706701","0.0-7.0-3.4","69","1","2025-07-30 08:58:32","36c45c0696341be0efffe67d72a12abb","82.18.178.101","Mozilla/5.0 (Windows NT 10.0; Win64; x64) AppleWebKit/537.36 (KHTML, like Gecko) Chrome/138.0.0.0 Safari/537.36","WebKit","Chrome","138.0.0.0","Windows","10.0","https://app.prolific.com/","en-GB,en-US;q=0.9,en;q=0.8","5731e2e45b8b06000f7e3671","687a19d2168e237449fb8af4","6889dea1aaf003746bed55e0","0","5731e2e45b8b06000f7e3671","0","2025-07-30T09:10:19.916Z","","","","StressQ","","","","","","","","","","","50","","","","","","","","","","","","","","","","","","","","","","","","","","",""
"3167","","<div style=""width:500px;"">
  <p>What best describes how you currently feel?</p>
  </div>","27","html-slider-response","37","709869","0.0-7.0-4.4","69","1","2025-07-30 08:58:32","36c45c0696341be0efffe67d72a12abb","82.18.178.101","Mozilla/5.0 (Windows NT 10.0; Win64; x64) AppleWebKit/537.36 (KHTML, like Gecko) Chrome/138.0.0.0 Safari/537.36","WebKit","Chrome","138.0.0.0","Windows","10.0","https://app.prolific.com/","en-GB,en-US;q=0.9,en;q=0.8","5731e2e45b8b06000f7e3671","687a19d2168e237449fb8af4","6889dea1aaf003746bed55e0","0","5731e2e45b8b06000f7e3671","0","2025-07-30T09:10:23.085Z","","","","MotivationQ","","","","","","","","","","","50","","","","","","","","","","","","","","","","","","","","","","","","","","",""
"","","","","ctl-task-cpt","38","752172","0.0-7.0-0.5","69","1","2025-07-30 08:58:32","36c45c0696341be0efffe67d72a12abb","82.18.178.101","Mozilla/5.0 (Windows NT 10.0; Win64; x64) AppleWebKit/537.36 (KHTML, like Gecko) Chrome/138.0.0.0 Safari/537.36","WebKit","Chrome","138.0.0.0","Windows","10.0","https://app.prolific.com/","en-GB,en-US;q=0.9,en;q=0.8","5731e2e45b8b06000f7e3671","687a19d2168e237449fb8af4","6889dea1aaf003746bed55e0","0","5731e2e45b8b06000f7e3671","0","2025-07-30T09:11:05.387Z","","","","","","","","","","","","","","","","win-only","0","g1:NW,g2:SE","0.5","6","0","710863.6","648.6","5651.4","39285.6","1","4","4","6","2","-4","-4","0","4","0","943.9","3000","-3005","[""down"",""right""]","{""num_key_presses"":9,""num_perfect"":5,""num_errors"":0,""num_randdir"":4,""num_randdir_good_moves"":1,""num_whilered"":0,""num_whileblue"":0,""num_blue"":2,""num_good_moves"":6}","[423.57142857142856,416.47767857142856,0.2,423.57142857142856,416.47767857142856,102.6,423.57142857142856,416.47767857142856,207.5,421.57142857142856,422.47767857142856,312.8,421.57142857142856,434.47767857142856,413.7,633.5714285714286,552.4776785714286,517.4,651.5714285714286,558.4776785714286,622.5,673.5714285714286,656.4776785714286,723.6,721.5714285714286,742.4776785714286,827.8,733.5714285714286,754.4776785714286,932.4,733.5714285714286,756.4776785714286,1032.9,735.5714285714286,756.4776785714286,1133.5,999.5714285714286,748.4776785714286,1237.3,1077.5714285714287,752.4776785714286,1337.6,1075.5714285714287,752.4776785714286,1443.6,1079.5714285714287,744.4776785714286,1544,1079.5714285714287,744.4776785714286,1646.9,1079.5714285714287,744.4776785714286,1748.5,1079.5714285714287,744.4776785714286,1852.1,1079.5714285714287,744.4776785714286,1958.2,1079.5714285714287,744.4776785714286,2061.8,1079.5714285714287,744.4776785714286,2162.2,1079.5714285714287,744.4776785714286,2266.9,1079.5714285714287,744.4776785714286,2367,1079.5714285714287,744.4776785714286,2467.4,1079.5714285714287,744.4776785714286,2567.4,1079.5714285714287,744.4776785714286,2667.6,1079.5714285714287,744.4776785714286,2772.2,1079.5714285714287,744.4776785714286,2872.7,1079.5714285714287,744.4776785714286,2977.2,1079.5714285714287,744.4776785714286,3081.7,1079.5714285714287,744.4776785714286,3183,1079.5714285714287,744.4776785714286,3287.6,1079.5714285714287,744.4776785714286,3391.9,1079.5714285714287,744.4776785714286,3493.4,1079.5714285714287,744.4776785714286,3598,1079.5714285714287,744.4776785714286,3698.1,1079.5714285714287,744.4776785714286,3802.4,1079.5714285714287,744.4776785714286,3906.9,1079.5714285714287,744.4776785714286,4008.4,1079.5714285714287,744.4776785714286,4112.9,1079.5714285714287,744.4776785714286,4217.7,1079.5714285714287,744.4776785714286,4322.4,1079.5714285714287,744.4776785714286,4422.6,1079.5714285714287,744.4776785714286,4526.8,1079.5714285714287,744.4776785714286,4626.9,1079.5714285714287,744.4776785714286,4727.7,1079.5714285714287,744.4776785714286,4828.3,1079.5714285714287,744.4776785714286,4932.4]","[5555.2,5555.2,3221,2004.7,329.5,""oops"",""down"",""left"",""bad_move"",7429.3,1874,1471.9,5555.4,402.1,""smooth"",""down"",""down"",""good_move"",10549.9,3120.3,2785,7429.7,335.3,""oops"",""right"",""down"",""good_move"",13825.1,3275,2946.8,10550.1,328.2,""oops"",""right"",""left"",""bad_move"",16331.9,2506.7,2187.1,13825.2,319.6,""smooth"",""right"",""right"",""good_move"",19387.9,3055.8,2764,16332.1,291.8,""smooth"",""right"",""right"",""good_move"",21427.8,2039.8,1681,19388,358.8,""smooth"",""right"",""right"",""good_move"",23884.1,2456.2,2159.9,21427.9,296.3,""oops"",""right"",""left"",""bad_move"",27130.2,3245.8,2929.4,23884.4,316.4,""smooth"",""right"",""right"",""good_move""]"
"2800","","<div style=""width:500px;"">
  <p>What determined the result of this run?</p>
  </div>","12","html-slider-response","39","754973","0.0-7.0-1.5","69","1","2025-07-30 08:58:32","36c45c0696341be0efffe67d72a12abb","82.18.178.101","Mozilla/5.0 (Windows NT 10.0; Win64; x64) AppleWebKit/537.36 (KHTML, like Gecko) Chrome/138.0.0.0 Safari/537.36","WebKit","Chrome","138.0.0.0","Windows","10.0","https://app.prolific.com/","en-GB,en-US;q=0.9,en;q=0.8","5731e2e45b8b06000f7e3671","687a19d2168e237449fb8af4","6889dea1aaf003746bed55e0","0","5731e2e45b8b06000f7e3671","0","2025-07-30T09:11:08.188Z","","","","AttribQ","","","","","","","","","","","50","","","","","","","","","","","","","","","","","","","","","","","","","","",""
"2912","","<div style=""width:500px;"">
  <p>How much control did you have over the ball?</p>
  </div>","14","html-slider-response","40","757886","0.0-7.0-2.5","69","1","2025-07-30 08:58:32","36c45c0696341be0efffe67d72a12abb","82.18.178.101","Mozilla/5.0 (Windows NT 10.0; Win64; x64) AppleWebKit/537.36 (KHTML, like Gecko) Chrome/138.0.0.0 Safari/537.36","WebKit","Chrome","138.0.0.0","Windows","10.0","https://app.prolific.com/","en-GB,en-US;q=0.9,en;q=0.8","5731e2e45b8b06000f7e3671","687a19d2168e237449fb8af4","6889dea1aaf003746bed55e0","0","5731e2e45b8b06000f7e3671","0","2025-07-30T09:11:11.101Z","","","","ControlQ","","","","","","","","","","","50","","","","","","","","","","","","","","","","","","","","","","","","","","",""
"3119","","<div style=""width:500px;"">
  <p>How would you describe your current emotional state?</p>
  </div>","80","html-slider-response","41","761005","0.0-7.0-3.5","69","1","2025-07-30 08:58:32","36c45c0696341be0efffe67d72a12abb","82.18.178.101","Mozilla/5.0 (Windows NT 10.0; Win64; x64) AppleWebKit/537.36 (KHTML, like Gecko) Chrome/138.0.0.0 Safari/537.36","WebKit","Chrome","138.0.0.0","Windows","10.0","https://app.prolific.com/","en-GB,en-US;q=0.9,en;q=0.8","5731e2e45b8b06000f7e3671","687a19d2168e237449fb8af4","6889dea1aaf003746bed55e0","0","5731e2e45b8b06000f7e3671","0","2025-07-30T09:11:14.221Z","","","","StressQ","","","","","","","","","","","50","","","","","","","","","","","","","","","","","","","","","","","","","","",""
"3495","","<div style=""width:500px;"">
  <p>What best describes how you currently feel?</p>
  </div>","27","html-slider-response","42","764501","0.0-7.0-4.5","69","1","2025-07-30 08:58:32","36c45c0696341be0efffe67d72a12abb","82.18.178.101","Mozilla/5.0 (Windows NT 10.0; Win64; x64) AppleWebKit/537.36 (KHTML, like Gecko) Chrome/138.0.0.0 Safari/537.36","WebKit","Chrome","138.0.0.0","Windows","10.0","https://app.prolific.com/","en-GB,en-US;q=0.9,en;q=0.8","5731e2e45b8b06000f7e3671","687a19d2168e237449fb8af4","6889dea1aaf003746bed55e0","0","5731e2e45b8b06000f7e3671","0","2025-07-30T09:11:17.716Z","","","","MotivationQ","","","","","","","","","","","50","","","","","","","","","","","","","","","","","","","","","","","","","","",""
"","","","","ctl-task-cpt","43","804259","0.0-7.0-0.6","69","1","2025-07-30 08:58:32","36c45c0696341be0efffe67d72a12abb","82.18.178.101","Mozilla/5.0 (Windows NT 10.0; Win64; x64) AppleWebKit/537.36 (KHTML, like Gecko) Chrome/138.0.0.0 Safari/537.36","WebKit","Chrome","138.0.0.0","Windows","10.0","https://app.prolific.com/","en-GB,en-US;q=0.9,en;q=0.8","5731e2e45b8b06000f7e3671","687a19d2168e237449fb8af4","6889dea1aaf003746bed55e0","0","5731e2e45b8b06000f7e3671","0","2025-07-30T09:11:57.474Z","","","","","","","","","","","","","","","","win-only","2","g1:SE,g2:NW","0.4","7","0","765495.5","607.9","5610.9","36740.9","1","4","8","6","2","-8","-8","0","0","0","840.2","3000","-3000","[""left"",""up""]","{""num_key_presses"":9,""num_perfect"":4,""num_errors"":0,""num_randdir"":5,""num_randdir_good_moves"":3,""num_whilered"":0,""num_whileblue"":0,""num_blue"":2,""num_good_moves"":7}","[425.57142857142856,416.47767857142856,0,425.57142857142856,416.47767857142856,103,425.57142857142856,416.47767857142856,203.5,423.57142857142856,420.47767857142856,310,417.57142857142856,432.47767857142856,413.2,169.57142857142856,228.47767857142856,513.4,165.57142857142856,138.47767857142856,618.2,135.57142857142856,112.47767857142857,718.7,65.57142857142857,78.47767857142857,823.4,47.57142857142857,66.47767857142857,928,69.57142857142857,80.47767857142857,1029.1,637.5714285714286,302.47767857142856,1133.6,1227.5714285714287,462.47767857142856,1238.6,1205.5714285714287,462.47767857142856,1338.9,1195.5714285714287,456.47767857142856,1442.8,1191.5714285714287,452.47767857142856,1542.9,1189.5714285714287,452.47767857142856,1647.9,1189.5714285714287,452.47767857142856,1748,1187.5714285714287,450.47767857142856,1852.8,1187.5714285714287,450.47767857142856,1953.4,1187.5714285714287,450.47767857142856,2054.1,1187.5714285714287,450.47767857142856,2157.7,1187.5714285714287,450.47767857142856,2257.7,1187.5714285714287,450.47767857142856,2357.7,1187.5714285714287,450.47767857142856,2458.2,1187.5714285714287,450.47767857142856,2558.3,1187.5714285714287,450.47767857142856,2664.1,1187.5714285714287,450.47767857142856,2768.1,1187.5714285714287,450.47767857142856,2868.5,1187.5714285714287,450.47767857142856,2972.9,1187.5714285714287,450.47767857142856,3073.2,1187.5714285714287,450.47767857142856,3173.4,1187.5714285714287,450.47767857142856,3279.3,1187.5714285714287,450.47767857142856,3384.2,1187.5714285714287,450.47767857142856,3488.6,1187.5714285714287,450.47767857142856,3593,1187.5714285714287,450.47767857142856,3698.1,1187.5714285714287,450.47767857142856,3798.3,1187.5714285714287,450.47767857142856,3898.6,1187.5714285714287,450.47767857142856,4002.9,1187.5714285714287,450.47767857142856,4103.3,1187.5714285714287,450.47767857142856,4207.7,1187.5714285714287,450.47767857142856,4308,1187.5714285714287,450.47767857142856,4408.2,1187.5714285714287,450.47767857142856,4508.2,1187.5714285714287,450.47767857142856,4613.1,1187.5714285714287,450.47767857142856,4718,1187.5714285714287,450.47767857142856,4818,1187.5714285714287,450.47767857142856,4923]","[1305.1,1305.1,1000,0,305.1,""smooth"",""up"",""up"",""good_move"",4122.8,2817.4,2489.8,1305.4,327.6,""oops"",""up"",""down"",""bad_move"",7641.8,3518.8,3206.9,4123,311.9,""smooth"",""up"",""up"",""good_move"",9722.7,2080.8,1693.3,7641.9,387.5,""oops"",""left"",""up"",""good_move"",11621.1,1898.2,1582.2,9722.9,316,""oops"",""left"",""left"",""good_move"",14276.6,2655.3,2310,11621.4,345.3,""smooth"",""left"",""left"",""good_move"",20052.8,5776,1823.2,17899.4,330.2,""smooth"",""up"",""up"",""good_move"",25830.7,5777.6,2116.9,23375.5,338.3,""oops"",""left"",""right"",""bad_move"",28816.9,2986,2647.6,25830.9,338.4,""oops"",""left"",""left"",""good_move""]"
"2898","","<div style=""width:500px;"">
  <p>What determined the result of this run?</p>
  </div>","14","html-slider-response","44","807157","0.0-7.0-1.6","69","1","2025-07-30 08:58:32","36c45c0696341be0efffe67d72a12abb","82.18.178.101","Mozilla/5.0 (Windows NT 10.0; Win64; x64) AppleWebKit/537.36 (KHTML, like Gecko) Chrome/138.0.0.0 Safari/537.36","WebKit","Chrome","138.0.0.0","Windows","10.0","https://app.prolific.com/","en-GB,en-US;q=0.9,en;q=0.8","5731e2e45b8b06000f7e3671","687a19d2168e237449fb8af4","6889dea1aaf003746bed55e0","0","5731e2e45b8b06000f7e3671","0","2025-07-30T09:12:00.372Z","","","","AttribQ","","","","","","","","","","","50","","","","","","","","","","","","","","","","","","","","","","","","","","",""
"2736","","<div style=""width:500px;"">
  <p>How much control did you have over the ball?</p>
  </div>","31","html-slider-response","45","809893","0.0-7.0-2.6","69","1","2025-07-30 08:58:32","36c45c0696341be0efffe67d72a12abb","82.18.178.101","Mozilla/5.0 (Windows NT 10.0; Win64; x64) AppleWebKit/537.36 (KHTML, like Gecko) Chrome/138.0.0.0 Safari/537.36","WebKit","Chrome","138.0.0.0","Windows","10.0","https://app.prolific.com/","en-GB,en-US;q=0.9,en;q=0.8","5731e2e45b8b06000f7e3671","687a19d2168e237449fb8af4","6889dea1aaf003746bed55e0","0","5731e2e45b8b06000f7e3671","0","2025-07-30T09:12:03.109Z","","","","ControlQ","","","","","","","","","","","50","","","","","","","","","","","","","","","","","","","","","","","","","","",""
"2671","","<div style=""width:500px;"">
  <p>How would you describe your current emotional state?</p>
  </div>","83","html-slider-response","46","812565","0.0-7.0-3.6","69","1","2025-07-30 08:58:32","36c45c0696341be0efffe67d72a12abb","82.18.178.101","Mozilla/5.0 (Windows NT 10.0; Win64; x64) AppleWebKit/537.36 (KHTML, like Gecko) Chrome/138.0.0.0 Safari/537.36","WebKit","Chrome","138.0.0.0","Windows","10.0","https://app.prolific.com/","en-GB,en-US;q=0.9,en;q=0.8","5731e2e45b8b06000f7e3671","687a19d2168e237449fb8af4","6889dea1aaf003746bed55e0","0","5731e2e45b8b06000f7e3671","0","2025-07-30T09:12:05.780Z","","","","StressQ","","","","","","","","","","","50","","","","","","","","","","","","","","","","","","","","","","","","","","",""
"4616","","<div style=""width:500px;"">
  <p>What best describes how you currently feel?</p>
  </div>","21","html-slider-response","47","817182","0.0-7.0-4.6","69","1","2025-07-30 08:58:32","36c45c0696341be0efffe67d72a12abb","82.18.178.101","Mozilla/5.0 (Windows NT 10.0; Win64; x64) AppleWebKit/537.36 (KHTML, like Gecko) Chrome/138.0.0.0 Safari/537.36","WebKit","Chrome","138.0.0.0","Windows","10.0","https://app.prolific.com/","en-GB,en-US;q=0.9,en;q=0.8","5731e2e45b8b06000f7e3671","687a19d2168e237449fb8af4","6889dea1aaf003746bed55e0","0","5731e2e45b8b06000f7e3671","0","2025-07-30T09:12:10.397Z","","","","MotivationQ","","","","","","","","","","","50","","","","","","","","","","","","","","","","","","","","","","","","","","",""
"","","","","ctl-task-cpt","48","852924","0.0-7.0-0.7","69","1","2025-07-30 08:58:32","36c45c0696341be0efffe67d72a12abb","82.18.178.101","Mozilla/5.0 (Windows NT 10.0; Win64; x64) AppleWebKit/537.36 (KHTML, like Gecko) Chrome/138.0.0.0 Safari/537.36","WebKit","Chrome","138.0.0.0","Windows","10.0","https://app.prolific.com/","en-GB,en-US;q=0.9,en;q=0.8","5731e2e45b8b06000f7e3671","687a19d2168e237449fb8af4","6889dea1aaf003746bed55e0","0","5731e2e45b8b06000f7e3671","0","2025-07-30T09:12:46.139Z","","","","","","","","","","","","","","","","win-only","3","g1:SW,g2:NE","0.3","8","0","818176.2","1351.5","6356","32725.4","1","4","4","6","2","-4","-4","0","0","0","840.2","3000","-3015","[""up"",""right""]","{""num_key_presses"":9,""num_perfect"":3,""num_errors"":0,""num_randdir"":6,""num_randdir_good_moves"":1,""num_whilered"":0,""num_whileblue"":0,""num_blue"":0,""num_good_moves"":4}","[415.57142857142856,420.47767857142856,0.2,415.57142857142856,420.47767857142856,104.3,415.57142857142856,420.47767857142856,204.7,415.57142857142856,420.47767857142856,309.2,359.57142857142856,418.47767857142856,409.3,437.57142857142856,406.47767857142856,510.1,689.5714285714286,156.47767857142856,615.3,771.5714285714286,110.47767857142857,718.8,789.5714285714286,78.47767857142857,820.4,789.5714285714286,78.47767857142857,924.4,789.5714285714286,78.47767857142857,1029.1,775.5714285714286,148.47767857142856,1135.3,935.5714285714286,360.47767857142856,1239,1027.5714285714287,422.47767857142856,1340.5,1027.5714285714287,422.47767857142856,1444.5,1023.5714285714286,418.47767857142856,1550.7,1019.5714285714286,418.47767857142856,1653.7,1019.5714285714286,416.47767857142856,1754.3,1019.5714285714286,416.47767857142856,1854.8,1017.5714285714286,416.47767857142856,1959.1,1017.5714285714286,414.47767857142856,2064.4,1017.5714285714286,414.47767857142856,2169.5,1015.5714285714286,414.47767857142856,2269.6,1015.5714285714286,414.47767857142856,2369.6,1015.5714285714286,414.47767857142856,2474.7,1015.5714285714286,414.47767857142856,2575.5,1015.5714285714286,414.47767857142856,2678.9,1015.5714285714286,414.47767857142856,2779,1015.5714285714286,414.47767857142856,2879.2,1015.5714285714286,414.47767857142856,2979.7,1015.5714285714286,414.47767857142856,3080.5,1015.5714285714286,414.47767857142856,3184.4,1015.5714285714286,412.47767857142856,3284.7,1015.5714285714286,412.47767857142856,3389.5,1015.5714285714286,412.47767857142856,3494,1015.5714285714286,412.47767857142856,3595.4,1015.5714285714286,412.47767857142856,3698.9,1015.5714285714286,412.47767857142856,3804.3,1015.5714285714286,412.47767857142856,3905,1015.5714285714286,412.47767857142856,4008.7,1015.5714285714286,412.47767857142856,4109.2,1015.5714285714286,412.47767857142856,4210.2,1015.5714285714286,412.47767857142856,4314.9,1015.5714285714286,412.47767857142856,4414.9,1015.5714285714286,412.47767857142856,4519.1,1015.5714285714286,412.47767857142856,4620.1,1013.5714285714286,412.47767857142856,4724.5,1013.5714285714286,412.47767857142856,4828.9,1013.5714285714286,412.47767857142856,4929.5]","[1340.6,1340.6,1000,0,340.6,""oops"",""up"",""left"",""bad_move"",4602.4,3261.5,2918.7,1340.9,342.8,""oops"",""right"",""down"",""bad_move"",8002.2,3399.6,3066.1,4602.6,333.5,""oops"",""up"",""left"",""bad_move"",10496.7,2494.2,2160.4,8002.5,333.8,""smooth"",""right"",""right"",""good_move"",13098,2601.2,2283.8,10496.9,317.4,""oops"",""right"",""left"",""bad_move"",16347.9,3249.7,2923.5,13098.2,326.2,""smooth"",""up"",""up"",""good_move"",18772.2,2424.1,2080.1,16348.1,344,""oops"",""right"",""down"",""bad_move"",21830.3,3057.9,2734.9,18772.4,323,""smooth"",""right"",""right"",""good_move"",24542,2711.4,2371.5,21830.6,339.9,""oops"",""right"",""right"",""good_move""]"
"5168","","<div style=""width:500px;"">
  <p>What determined the result of this run?</p>
  </div>","16","html-slider-response","49","858093","0.0-7.0-1.7","69","1","2025-07-30 08:58:32","36c45c0696341be0efffe67d72a12abb","82.18.178.101","Mozilla/5.0 (Windows NT 10.0; Win64; x64) AppleWebKit/537.36 (KHTML, like Gecko) Chrome/138.0.0.0 Safari/537.36","WebKit","Chrome","138.0.0.0","Windows","10.0","https://app.prolific.com/","en-GB,en-US;q=0.9,en;q=0.8","5731e2e45b8b06000f7e3671","687a19d2168e237449fb8af4","6889dea1aaf003746bed55e0","0","5731e2e45b8b06000f7e3671","0","2025-07-30T09:12:51.308Z","","","","AttribQ","","","","","","","","","","","50","","","","","","","","","","","","","","","","","","","","","","","","","","",""
"3487","","<div style=""width:500px;"">
  <p>How much control did you have over the ball?</p>
  </div>","4","html-slider-response","50","861581","0.0-7.0-2.7","69","1","2025-07-30 08:58:32","36c45c0696341be0efffe67d72a12abb","82.18.178.101","Mozilla/5.0 (Windows NT 10.0; Win64; x64) AppleWebKit/537.36 (KHTML, like Gecko) Chrome/138.0.0.0 Safari/537.36","WebKit","Chrome","138.0.0.0","Windows","10.0","https://app.prolific.com/","en-GB,en-US;q=0.9,en;q=0.8","5731e2e45b8b06000f7e3671","687a19d2168e237449fb8af4","6889dea1aaf003746bed55e0","0","5731e2e45b8b06000f7e3671","0","2025-07-30T09:12:54.796Z","","","","ControlQ","","","","","","","","","","","50","","","","","","","","","","","","","","","","","","","","","","","","","","",""
"2775","","<div style=""width:500px;"">
  <p>How would you describe your current emotional state?</p>
  </div>","80","html-slider-response","51","864357","0.0-7.0-3.7","69","1","2025-07-30 08:58:32","36c45c0696341be0efffe67d72a12abb","82.18.178.101","Mozilla/5.0 (Windows NT 10.0; Win64; x64) AppleWebKit/537.36 (KHTML, like Gecko) Chrome/138.0.0.0 Safari/537.36","WebKit","Chrome","138.0.0.0","Windows","10.0","https://app.prolific.com/","en-GB,en-US;q=0.9,en;q=0.8","5731e2e45b8b06000f7e3671","687a19d2168e237449fb8af4","6889dea1aaf003746bed55e0","0","5731e2e45b8b06000f7e3671","0","2025-07-30T09:12:57.572Z","","","","StressQ","","","","","","","","","","","50","","","","","","","","","","","","","","","","","","","","","","","","","","",""
"2799","","<div style=""width:500px;"">
  <p>What best describes how you currently feel?</p>
  </div>","18","html-slider-response","52","867158","0.0-7.0-4.7","69","1","2025-07-30 08:58:32","36c45c0696341be0efffe67d72a12abb","82.18.178.101","Mozilla/5.0 (Windows NT 10.0; Win64; x64) AppleWebKit/537.36 (KHTML, like Gecko) Chrome/138.0.0.0 Safari/537.36","WebKit","Chrome","138.0.0.0","Windows","10.0","https://app.prolific.com/","en-GB,en-US;q=0.9,en;q=0.8","5731e2e45b8b06000f7e3671","687a19d2168e237449fb8af4","6889dea1aaf003746bed55e0","0","5731e2e45b8b06000f7e3671","0","2025-07-30T09:13:00.373Z","","","","MotivationQ","","","","","","","","","","","50","","","","","","","","","","","","","","","","","","","","","","","","","","",""
"","","","","ctl-task-cpt","53","908634","0.0-7.0-0.8","69","1","2025-07-30 08:58:32","36c45c0696341be0efffe67d72a12abb","82.18.178.101","Mozilla/5.0 (Windows NT 10.0; Win64; x64) AppleWebKit/537.36 (KHTML, like Gecko) Chrome/138.0.0.0 Safari/537.36","WebKit","Chrome","138.0.0.0","Windows","10.0","https://app.prolific.com/","en-GB,en-US;q=0.9,en;q=0.8","5731e2e45b8b06000f7e3671","687a19d2168e237449fb8af4","6889dea1aaf003746bed55e0","0","5731e2e45b8b06000f7e3671","0","2025-07-30T09:13:41.849Z","","","","","","","","","","","","","","","","win-only","3","g1:SW,g2:NE","0.4","9","0","868151.9","784.1","5786.7","38457.3","1","4","4","6","2","4","4","4","0","0.030303030303030304","799.7","3000","1010","[""up"",""right""]","{""num_key_presses"":6,""num_perfect"":3,""num_errors"":0,""num_randdir"":3,""num_randdir_good_moves"":3,""num_whilered"":0,""num_whileblue"":0,""num_blue"":5,""num_good_moves"":6}","[407.57142857142856,418.47767857142856,0.2,407.57142857142856,418.47767857142856,101.5,409.57142857142856,418.47767857142856,206.9,497.57142857142856,340.47767857142856,307.1,639.5714285714286,208.47767857142856,407.6,651.5714285714286,198.47767857142856,511.1,735.5714285714286,96.47767857142857,611.8,761.5714285714286,72.47767857142857,716.6,763.5714285714286,72.47767857142857,817,763.5714285714286,72.47767857142857,921.3,787.5714285714286,114.47767857142857,1023,1039.5714285714287,260.47767857142856,1126.5,1081.5714285714287,274.47767857142856,1231.3,1079.5714285714287,276.47767857142856,1336.1,1079.5714285714287,276.47767857142856,1436.8,1079.5714285714287,276.47767857142856,1536.8,1077.5714285714287,276.47767857142856,1636.8,1077.5714285714287,276.47767857142856,1741,1077.5714285714287,276.47767857142856,1841.8,1077.5714285714287,276.47767857142856,1941.9,1077.5714285714287,276.47767857142856,2046.6,1077.5714285714287,276.47767857142856,2151.2,1077.5714285714287,276.47767857142856,2252.4,1077.5714285714287,276.47767857142856,2357.2,1075.5714285714287,276.47767857142856,2457.4,1075.5714285714287,276.47767857142856,2563,1075.5714285714287,276.47767857142856,2667.6,1075.5714285714287,276.47767857142856,2772,1075.5714285714287,276.47767857142856,2872,1075.5714285714287,276.47767857142856,2976.9,1075.5714285714287,276.47767857142856,3077,1073.5714285714287,276.47767857142856,3177.1,1073.5714285714287,276.47767857142856,3281,1073.5714285714287,276.47767857142856,3381.1,1073.5714285714287,276.47767857142856,3481.3,1073.5714285714287,276.47767857142856,3581.4,1073.5714285714287,276.47767857142856,3682,1071.5714285714287,276.47767857142856,3786.2,1071.5714285714287,276.47767857142856,3886.6,1071.5714285714287,276.47767857142856,3992.8,1071.5714285714287,276.47767857142856,4096,1071.5714285714287,274.47767857142856,4196.4,1071.5714285714287,274.47767857142856,4296.8,1071.5714285714287,274.47767857142856,4401.2,1069.5714285714287,274.47767857142856,4502.7,1069.5714285714287,274.47767857142856,4607.4,1069.5714285714287,274.47767857142856,4712.1,1069.5714285714287,274.47767857142856,4817.1,1069.5714285714287,274.47767857142856,4917.5]","[1322.3,1322.3,1000,0,322.3,""smooth"",""up"",""up"",""good_move"",19044.7,17722.1,2187.9,16459.2,397.6,""oops"",""right"",""up"",""good_move"",21615.5,2570.6,2261.2,19044.9,309.4,""smooth"",""right"",""right"",""good_move"",23813.4,2197.6,1892.4,21615.8,305.3,""oops"",""right"",""up"",""good_move"",26860.7,3047.2,2704,23813.5,343.2,""oops"",""right"",""right"",""good_move"",32578.6,5717.8,2223.1,30014.9,340.6,""smooth"",""right"",""right"",""good_move""]"
"5427","","<div style=""width:500px;"">
  <p>What determined the result of this run?</p>
  </div>","67","html-slider-response","54","914062","0.0-7.0-1.8","69","1","2025-07-30 08:58:32","36c45c0696341be0efffe67d72a12abb","82.18.178.101","Mozilla/5.0 (Windows NT 10.0; Win64; x64) AppleWebKit/537.36 (KHTML, like Gecko) Chrome/138.0.0.0 Safari/537.36","WebKit","Chrome","138.0.0.0","Windows","10.0","https://app.prolific.com/","en-GB,en-US;q=0.9,en;q=0.8","5731e2e45b8b06000f7e3671","687a19d2168e237449fb8af4","6889dea1aaf003746bed55e0","0","5731e2e45b8b06000f7e3671","0","2025-07-30T09:13:47.277Z","","","","AttribQ","","","","","","","","","","","50","","","","","","","","","","","","","","","","","","","","","","","","","","",""
"4215","","<div style=""width:500px;"">
  <p>How much control did you have over the ball?</p>
  </div>","64","html-slider-response","55","918278","0.0-7.0-2.8","69","1","2025-07-30 08:58:32","36c45c0696341be0efffe67d72a12abb","82.18.178.101","Mozilla/5.0 (Windows NT 10.0; Win64; x64) AppleWebKit/537.36 (KHTML, like Gecko) Chrome/138.0.0.0 Safari/537.36","WebKit","Chrome","138.0.0.0","Windows","10.0","https://app.prolific.com/","en-GB,en-US;q=0.9,en;q=0.8","5731e2e45b8b06000f7e3671","687a19d2168e237449fb8af4","6889dea1aaf003746bed55e0","0","5731e2e45b8b06000f7e3671","0","2025-07-30T09:13:51.493Z","","","","ControlQ","","","","","","","","","","","50","","","","","","","","","","","","","","","","","","","","","","","","","","",""
"3159","","<div style=""width:500px;"">
  <p>How would you describe your current emotional state?</p>
  </div>","71","html-slider-response","56","921437","0.0-7.0-3.8","69","1","2025-07-30 08:58:32","36c45c0696341be0efffe67d72a12abb","82.18.178.101","Mozilla/5.0 (Windows NT 10.0; Win64; x64) AppleWebKit/537.36 (KHTML, like Gecko) Chrome/138.0.0.0 Safari/537.36","WebKit","Chrome","138.0.0.0","Windows","10.0","https://app.prolific.com/","en-GB,en-US;q=0.9,en;q=0.8","5731e2e45b8b06000f7e3671","687a19d2168e237449fb8af4","6889dea1aaf003746bed55e0","0","5731e2e45b8b06000f7e3671","0","2025-07-30T09:13:54.653Z","","","","StressQ","","","","","","","","","","","50","","","","","","","","","","","","","","","","","","","","","","","","","","",""
"3327","","<div style=""width:500px;"">
  <p>What best describes how you currently feel?</p>
  </div>","23","html-slider-response","57","924765","0.0-7.0-4.8","69","1","2025-07-30 08:58:32","36c45c0696341be0efffe67d72a12abb","82.18.178.101","Mozilla/5.0 (Windows NT 10.0; Win64; x64) AppleWebKit/537.36 (KHTML, like Gecko) Chrome/138.0.0.0 Safari/537.36","WebKit","Chrome","138.0.0.0","Windows","10.0","https://app.prolific.com/","en-GB,en-US;q=0.9,en;q=0.8","5731e2e45b8b06000f7e3671","687a19d2168e237449fb8af4","6889dea1aaf003746bed55e0","0","5731e2e45b8b06000f7e3671","0","2025-07-30T09:13:57.981Z","","","","MotivationQ","","","","","","","","","","","50","","","","","","","","","","","","","","","","","","","","","","","","","","",""
"","","","","ctl-task-cpt","58","966265","0.0-7.0-0.9","69","1","2025-07-30 08:58:32","36c45c0696341be0efffe67d72a12abb","82.18.178.101","Mozilla/5.0 (Windows NT 10.0; Win64; x64) AppleWebKit/537.36 (KHTML, like Gecko) Chrome/138.0.0.0 Safari/537.36","WebKit","Chrome","138.0.0.0","Windows","10.0","https://app.prolific.com/","en-GB,en-US;q=0.9,en;q=0.8","5731e2e45b8b06000f7e3671","687a19d2168e237449fb8af4","6889dea1aaf003746bed55e0","0","5731e2e45b8b06000f7e3671","0","2025-07-30T09:14:39.480Z","","","","","","","","","","","","","","","","win-only","1","g1:NE,g2:SW","0.5","10","0","925759.6","640.1","5641","38480.6","1","4","8","6","2","8","8","12","4","0.09090909090909091","1063.7","3000","320","[""down"",""left""]","{""num_key_presses"":8,""num_perfect"":4,""num_errors"":0,""num_randdir"":4,""num_randdir_good_moves"":3,""num_whilered"":0,""num_whileblue"":0,""num_blue"":3,""num_good_moves"":7}","[421.57142857142856,426.47767857142856,0.2,421.57142857142856,426.47767857142856,101.1,435.57142857142856,392.47767857142856,205.1,595.5714285714286,240.47767857142856,305.7,537.5714285714286,188.47767857142856,411.8,215.57142857142856,560.4776785714286,515.5,163.57142857142856,646.4776785714286,620.4,133.57142857142856,672.4776785714286,721.4,131.57142857142856,714.4776785714286,826.2,131.57142857142856,744.4776785714286,930.5,129.57142857142856,746.4776785714286,1030.7,127.57142857142857,748.4776785714286,1143.9,127.57142857142857,748.4776785714286,1245.4,303.57142857142856,716.4776785714286,1345.6,981.5714285714286,618.4776785714286,1445.9,1069.5714285714287,612.4776785714286,1550.3,1073.5714285714287,610.4776785714286,1651.5,1073.5714285714287,610.4776785714286,1756.3,1073.5714285714287,610.4776785714286,1860.8,1073.5714285714287,610.4776785714286,1961.2,1073.5714285714287,610.4776785714286,2066,1073.5714285714287,610.4776785714286,2171.5,1073.5714285714287,610.4776785714286,2272.1,1073.5714285714287,610.4776785714286,2376.5,1073.5714285714287,610.4776785714286,2480.3,1073.5714285714287,610.4776785714286,2585.2,1073.5714285714287,610.4776785714286,2686.1,1073.5714285714287,610.4776785714286,2790.2,1073.5714285714287,610.4776785714286,2890.7,1073.5714285714287,610.4776785714286,2991,1073.5714285714287,610.4776785714286,3091.8,1073.5714285714287,610.4776785714286,3195.2,1073.5714285714287,610.4776785714286,3295.9,1073.5714285714287,610.4776785714286,3400.2,1073.5714285714287,610.4776785714286,3500.5,1073.5714285714287,610.4776785714286,3600.7,1073.5714285714287,610.4776785714286,3705.7,1073.5714285714287,610.4776785714286,3805.9,1073.5714285714287,610.4776785714286,3912,1073.5714285714287,610.4776785714286,4015,1073.5714285714287,610.4776785714286,4116.1,1073.5714285714287,610.4776785714286,4221.2,1073.5714285714287,610.4776785714286,4326.5,1073.5714285714287,610.4776785714286,4431.3,1073.5714285714287,610.4776785714286,4535.1,1073.5714285714287,610.4776785714286,4635.1,1073.5714285714287,610.4776785714286,4735.7,1073.5714285714287,610.4776785714286,4840.5,1073.5714285714287,610.4776785714286,4940.9]","[1350.5,1350.5,1000,0,350.5,""oops"",""down"",""left"",""good_move"",7599,6248.2,2379.7,4796.1,423.2,""smooth"",""down"",""down"",""good_move"",11534.8,3935.6,3579.1,7599.3,356.4,""smooth"",""down"",""down"",""good_move"",17157.6,5622.7,2076.7,14740.3,340.6,""oops"",""left"",""up"",""bad_move"",20362.7,3204.7,2890,17158,314.7,""oops"",""down"",""left"",""good_move"",26562.5,6199.5,2452.5,23779.7,330.3,""oops"",""down"",""left"",""good_move"",29379.6,2816.8,2505.2,26562.8,311.6,""smooth"",""down"",""down"",""good_move"",32746.8,3367,3066.6,29379.8,300.4,""smooth"",""down"",""down"",""good_move""]"
"3812","","<div style=""width:500px;"">
  <p>What determined the result of this run?</p>
  </div>","60","html-slider-response","59","970078","0.0-7.0-1.9","69","1","2025-07-30 08:58:32","36c45c0696341be0efffe67d72a12abb","82.18.178.101","Mozilla/5.0 (Windows NT 10.0; Win64; x64) AppleWebKit/537.36 (KHTML, like Gecko) Chrome/138.0.0.0 Safari/537.36","WebKit","Chrome","138.0.0.0","Windows","10.0","https://app.prolific.com/","en-GB,en-US;q=0.9,en;q=0.8","5731e2e45b8b06000f7e3671","687a19d2168e237449fb8af4","6889dea1aaf003746bed55e0","0","5731e2e45b8b06000f7e3671","0","2025-07-30T09:14:43.293Z","","","","AttribQ","","","","","","","","","","","50","","","","","","","","","","","","","","","","","","","","","","","","","","",""
"3871","","<div style=""width:500px;"">
  <p>How much control did you have over the ball?</p>
  </div>","62","html-slider-response","60","973950","0.0-7.0-2.9","69","1","2025-07-30 08:58:32","36c45c0696341be0efffe67d72a12abb","82.18.178.101","Mozilla/5.0 (Windows NT 10.0; Win64; x64) AppleWebKit/537.36 (KHTML, like Gecko) Chrome/138.0.0.0 Safari/537.36","WebKit","Chrome","138.0.0.0","Windows","10.0","https://app.prolific.com/","en-GB,en-US;q=0.9,en;q=0.8","5731e2e45b8b06000f7e3671","687a19d2168e237449fb8af4","6889dea1aaf003746bed55e0","0","5731e2e45b8b06000f7e3671","0","2025-07-30T09:14:47.165Z","","","","ControlQ","","","","","","","","","","","50","","","","","","","","","","","","","","","","","","","","","","","","","","",""
"4383","","<div style=""width:500px;"">
  <p>How would you describe your current emotional state?</p>
  </div>","69","html-slider-response","61","978334","0.0-7.0-3.9","69","1","2025-07-30 08:58:32","36c45c0696341be0efffe67d72a12abb","82.18.178.101","Mozilla/5.0 (Windows NT 10.0; Win64; x64) AppleWebKit/537.36 (KHTML, like Gecko) Chrome/138.0.0.0 Safari/537.36","WebKit","Chrome","138.0.0.0","Windows","10.0","https://app.prolific.com/","en-GB,en-US;q=0.9,en;q=0.8","5731e2e45b8b06000f7e3671","687a19d2168e237449fb8af4","6889dea1aaf003746bed55e0","0","5731e2e45b8b06000f7e3671","0","2025-07-30T09:14:51.549Z","","","","StressQ","","","","","","","","","","","50","","","","","","","","","","","","","","","","","","","","","","","","","","",""
"4975","","<div style=""width:500px;"">
  <p>What best describes how you currently feel?</p>
  </div>","27","html-slider-response","62","983310","0.0-7.0-4.9","69","1","2025-07-30 08:58:32","36c45c0696341be0efffe67d72a12abb","82.18.178.101","Mozilla/5.0 (Windows NT 10.0; Win64; x64) AppleWebKit/537.36 (KHTML, like Gecko) Chrome/138.0.0.0 Safari/537.36","WebKit","Chrome","138.0.0.0","Windows","10.0","https://app.prolific.com/","en-GB,en-US;q=0.9,en;q=0.8","5731e2e45b8b06000f7e3671","687a19d2168e237449fb8af4","6889dea1aaf003746bed55e0","0","5731e2e45b8b06000f7e3671","0","2025-07-30T09:14:56.525Z","","","","MotivationQ","","","","","","","","","","","50","","","","","","","","","","","","","","","","","","","","","","","","","","",""
"","","","","ctl-task-cpt","63","1011574","0.0-7.0-0.10","69","1","2025-07-30 08:58:32","36c45c0696341be0efffe67d72a12abb","82.18.178.101","Mozilla/5.0 (Windows NT 10.0; Win64; x64) AppleWebKit/537.36 (KHTML, like Gecko) Chrome/138.0.0.0 Safari/537.36","WebKit","Chrome","138.0.0.0","Windows","10.0","https://app.prolific.com/","en-GB,en-US;q=0.9,en;q=0.8","5731e2e45b8b06000f7e3671","687a19d2168e237449fb8af4","6889dea1aaf003746bed55e0","0","5731e2e45b8b06000f7e3671","0","2025-07-30T09:15:24.789Z","","","","","","","","","","","","","","","","win-only","0","g1:NW,g2:SE","0.6","11","0","984303.8","689.3","5690.8","25246","1","4","8","6","2","8","7","19","12","0.14393939393939395","838.5","3000","1285","[""down"",""right""]","{""num_key_presses"":6,""num_perfect"":3,""num_errors"":1,""num_randdir"":2,""num_randdir_good_moves"":2,""num_whilered"":0,""num_whileblue"":1,""num_blue"":2,""num_good_moves"":6}","[415.57142857142856,414.47767857142856,0,415.57142857142856,414.47767857142856,102.4,415.57142857142856,414.47767857142856,202.5,463.57142857142856,364.47767857142856,306.4,453.57142857142856,360.47767857142856,407.2,683.5714285714286,526.4776785714286,507.9,727.5714285714286,720.4776785714286,611.2,739.5714285714286,744.4776785714286,711.8,739.5714285714286,744.4776785714286,812,739.5714285714286,744.4776785714286,914.3,741.5714285714286,744.4776785714286,1016.6,869.5714285714286,736.4776785714286,1117,1109.5714285714287,722.4776785714286,1217,1113.5714285714287,718.4776785714286,1322.4,1069.5714285714287,676.4776785714286,1423,1059.5714285714287,670.4776785714286,1527.4,1059.5714285714287,670.4776785714286,1628.5,1059.5714285714287,670.4776785714286,1732.9,1059.5714285714287,670.4776785714286,1836.3,1059.5714285714287,670.4776785714286,1937.9,1059.5714285714287,670.4776785714286,2041.9,1059.5714285714287,670.4776785714286,2143,1059.5714285714287,670.4776785714286,2247,1059.5714285714287,670.4776785714286,2347,1059.5714285714287,670.4776785714286,2448.2,1059.5714285714287,670.4776785714286,2552.4,1059.5714285714287,670.4776785714286,2658,1059.5714285714287,670.4776785714286,2761.2,1059.5714285714287,670.4776785714286,2861.5,1059.5714285714287,670.4776785714286,2961.5,1059.5714285714287,670.4776785714286,3063.3,1059.5714285714287,670.4776785714286,3166.6,1059.5714285714287,670.4776785714286,3271.4,1059.5714285714287,670.4776785714286,3372,1059.5714285714287,670.4776785714286,3476.9,1059.5714285714287,670.4776785714286,3582.4,1059.5714285714287,670.4776785714286,3686,1059.5714285714287,670.4776785714286,3786.8,1059.5714285714287,670.4776785714286,3891.5,1059.5714285714287,670.4776785714286,3992.1,1059.5714285714287,670.4776785714286,4097.2,1059.5714285714287,670.4776785714286,4197.2,1059.5714285714287,670.4776785714286,4301,1059.5714285714287,670.4776785714286,4401.5,1059.5714285714287,670.4776785714286,4501.6,1059.5714285714287,670.4776785714286,4607.3,1059.5714285714287,670.4776785714286,4711.3,1059.5714285714287,670.4776785714286,4811.8,1059.5714285714287,670.4776785714286,4912.1]","[1337.5,1337.5,1000,0,337.5,""smooth"",""down"",""down"",""good_move"",8226.1,6888.4,2779.3,5145.4,301.4,""while_blue"",""down"",""down"",""good_move"",11789.8,3563.5,3243,8226.3,320.5,""smooth"",""right"",""right"",""good_move"",14173.7,2383.7,1986.6,11790,397.1,""oops"",""right"",""down"",""good_move"",16876.1,2702.2,2367.7,14173.9,334.5,""oops"",""right"",""right"",""good_move"",19451.6,2575.3,2228.8,16876.3,346.5,""smooth"",""right"",""right"",""good_move""]"
"5127","","<div style=""width:500px;"">
  <p>What determined the result of this run?</p>
  </div>","60","html-slider-response","64","1016702","0.0-7.0-1.10","69","1","2025-07-30 08:58:32","36c45c0696341be0efffe67d72a12abb","82.18.178.101","Mozilla/5.0 (Windows NT 10.0; Win64; x64) AppleWebKit/537.36 (KHTML, like Gecko) Chrome/138.0.0.0 Safari/537.36","WebKit","Chrome","138.0.0.0","Windows","10.0","https://app.prolific.com/","en-GB,en-US;q=0.9,en;q=0.8","5731e2e45b8b06000f7e3671","687a19d2168e237449fb8af4","6889dea1aaf003746bed55e0","0","5731e2e45b8b06000f7e3671","0","2025-07-30T09:15:29.917Z","","","","AttribQ","","","","","","","","","","","50","","","","","","","","","","","","","","","","","","","","","","","","","","",""
"4880","","<div style=""width:500px;"">
  <p>How much control did you have over the ball?</p>
  </div>","67","html-slider-response","65","1021582","0.0-7.0-2.10","69","1","2025-07-30 08:58:32","36c45c0696341be0efffe67d72a12abb","82.18.178.101","Mozilla/5.0 (Windows NT 10.0; Win64; x64) AppleWebKit/537.36 (KHTML, like Gecko) Chrome/138.0.0.0 Safari/537.36","WebKit","Chrome","138.0.0.0","Windows","10.0","https://app.prolific.com/","en-GB,en-US;q=0.9,en;q=0.8","5731e2e45b8b06000f7e3671","687a19d2168e237449fb8af4","6889dea1aaf003746bed55e0","0","5731e2e45b8b06000f7e3671","0","2025-07-30T09:15:34.797Z","","","","ControlQ","","","","","","","","","","","50","","","","","","","","","","","","","","","","","","","","","","","","","","",""
"4503","","<div style=""width:500px;"">
  <p>How would you describe your current emotional state?</p>
  </div>","69","html-slider-response","66","1026086","0.0-7.0-3.10","69","1","2025-07-30 08:58:32","36c45c0696341be0efffe67d72a12abb","82.18.178.101","Mozilla/5.0 (Windows NT 10.0; Win64; x64) AppleWebKit/537.36 (KHTML, like Gecko) Chrome/138.0.0.0 Safari/537.36","WebKit","Chrome","138.0.0.0","Windows","10.0","https://app.prolific.com/","en-GB,en-US;q=0.9,en;q=0.8","5731e2e45b8b06000f7e3671","687a19d2168e237449fb8af4","6889dea1aaf003746bed55e0","0","5731e2e45b8b06000f7e3671","0","2025-07-30T09:15:39.301Z","","","","StressQ","","","","","","","","","","","50","","","","","","","","","","","","","","","","","","","","","","","","","","",""
"3624","","<div style=""width:500px;"">
  <p>What best describes how you currently feel?</p>
  </div>","33","html-slider-response","67","1029710","0.0-7.0-4.10","69","1","2025-07-30 08:58:32","36c45c0696341be0efffe67d72a12abb","82.18.178.101","Mozilla/5.0 (Windows NT 10.0; Win64; x64) AppleWebKit/537.36 (KHTML, like Gecko) Chrome/138.0.0.0 Safari/537.36","WebKit","Chrome","138.0.0.0","Windows","10.0","https://app.prolific.com/","en-GB,en-US;q=0.9,en;q=0.8","5731e2e45b8b06000f7e3671","687a19d2168e237449fb8af4","6889dea1aaf003746bed55e0","0","5731e2e45b8b06000f7e3671","0","2025-07-30T09:15:42.925Z","","","","MotivationQ","","","","","","","","","","","50","","","","","","","","","","","","","","","","","","","","","","","","","","",""
"","","","","ctl-task-cpt","68","1074627","0.0-7.0-0.11","69","1","2025-07-30 08:58:32","36c45c0696341be0efffe67d72a12abb","82.18.178.101","Mozilla/5.0 (Windows NT 10.0; Win64; x64) AppleWebKit/537.36 (KHTML, like Gecko) Chrome/138.0.0.0 Safari/537.36","WebKit","Chrome","138.0.0.0","Windows","10.0","https://app.prolific.com/","en-GB,en-US;q=0.9,en;q=0.8","5731e2e45b8b06000f7e3671","687a19d2168e237449fb8af4","6889dea1aaf003746bed55e0","0","5731e2e45b8b06000f7e3671","0","2025-07-30T09:16:27.842Z","","","","","","","","","","","","","","","","win-only","2","g1:SE,g2:NW","0.7","12","0","1030703.9","1104.1","6107.9","41898.6","1","4","4","6","2","-4","-5","14","19","0.10606060606060606","824.2","3000","-2625","[""left"",""up""]","{""num_key_presses"":10,""num_perfect"":6,""num_errors"":1,""num_randdir"":3,""num_randdir_good_moves"":1,""num_whilered"":0,""num_whileblue"":0,""num_blue"":1,""num_good_moves"":7}","[427.57142857142856,416.47767857142856,0.1,427.57142857142856,416.47767857142856,103,427.57142857142856,416.47767857142856,207,479.57142857142856,442.47767857142856,307.4,711.5714285714286,628.4776785714286,407.9,399.57142857142856,376.47767857142856,512.2,119.57142857142857,134.47767857142856,613.5,57.57142857142857,72.47767857142857,714.8,35.57142857142857,46.47767857142857,817.4,35.57142857142857,46.47767857142857,918.5,35.57142857142857,46.47767857142857,1018.5,255.57142857142856,150.47767857142856,1118.9,925.5714285714286,336.47767857142856,1223,987.5714285714286,352.47767857142856,1323.4,989.5714285714286,352.47767857142856,1427.9,985.5714285714286,350.47767857142856,1533.5,981.5714285714286,346.47767857142856,1635,979.5714285714286,346.47767857142856,1735,977.5714285714286,344.47767857142856,1837.9,977.5714285714286,342.47767857142856,1938.5,975.5714285714286,342.47767857142856,2042.8,975.5714285714286,342.47767857142856,2147,973.5714285714286,340.47767857142856,2249.2,973.5714285714286,340.47767857142856,2353.6,973.5714285714286,340.47767857142856,2457.2,973.5714285714286,340.47767857142856,2558.3,973.5714285714286,340.47767857142856,2662.7,971.5714285714286,340.47767857142856,2767.3,971.5714285714286,338.47767857142856,2868,971.5714285714286,338.47767857142856,2972.3,971.5714285714286,338.47767857142856,3072.3,971.5714285714286,338.47767857142856,3173.4,971.5714285714286,338.47767857142856,3277,969.5714285714286,338.47767857142856,3378.1,969.5714285714286,338.47767857142856,3482.6,969.5714285714286,338.47767857142856,3584.5,969.5714285714286,338.47767857142856,3688.7,969.5714285714286,338.47767857142856,3793,969.5714285714286,338.47767857142856,3893.4,969.5714285714286,338.47767857142856,3997.8,969.5714285714286,338.47767857142856,4102.3,969.5714285714286,338.47767857142856,4203.9,969.5714285714286,338.47767857142856,4307.2,969.5714285714286,338.47767857142856,4407.8,969.5714285714286,338.47767857142856,4512.7,969.5714285714286,338.47767857142856,4612.7,969.5714285714286,338.47767857142856,4718.2,969.5714285714286,338.47767857142856,4822.4,969.5714285714286,338.47767857142856,4923.1]","[4613.1,4613.1,2208,2004.2,400.9,""smooth"",""up"",""up"",""good_move"",7928.4,3315,2976,4613.4,339,""smooth"",""left"",""left"",""good_move"",10588.4,2659.6,2353.4,7928.8,306.2,""oops"",""up"",""left"",""good_move"",13191.8,2603.3,2284.6,10588.5,318.7,""smooth"",""up"",""up"",""good_move"",16140.8,2948.7,2513.1,13192.1,435.6,""smooth"",""up"",""up"",""good_move"",19951.6,3810.6,3506.7,16141,303.9,""oops"",""left"",""right"",""bad_move"",22945.7,2993.8,2673.1,19951.9,320.7,""smooth"",""left"",""left"",""good_move"",25661.5,2715.5,2420.4,22946,295.1,""oops"",""left"",""right"",""bad_move"",29188.6,3526.9,3300.7,25661.7,226.2,""smooth"",""left"",""left"",""good_move"",32047,2858.2,2897.6,29188.8,-39.4,""error"",""-"",""-"",""no_move""]"
"5898","","<div style=""width:500px;"">
  <p>What determined the result of this run?</p>
  </div>","45","html-slider-response","69","1080526","0.0-7.0-1.11","69","1","2025-07-30 08:58:32","36c45c0696341be0efffe67d72a12abb","82.18.178.101","Mozilla/5.0 (Windows NT 10.0; Win64; x64) AppleWebKit/537.36 (KHTML, like Gecko) Chrome/138.0.0.0 Safari/537.36","WebKit","Chrome","138.0.0.0","Windows","10.0","https://app.prolific.com/","en-GB,en-US;q=0.9,en;q=0.8","5731e2e45b8b06000f7e3671","687a19d2168e237449fb8af4","6889dea1aaf003746bed55e0","0","5731e2e45b8b06000f7e3671","0","2025-07-30T09:16:33.741Z","","","","AttribQ","","","","","","","","","","","50","","","","","","","","","","","","","","","","","","","","","","","","","","",""
"3072","","<div style=""width:500px;"">
  <p>How much control did you have over the ball?</p>
  </div>","38","html-slider-response","70","1083598","0.0-7.0-2.11","69","1","2025-07-30 08:58:32","36c45c0696341be0efffe67d72a12abb","82.18.178.101","Mozilla/5.0 (Windows NT 10.0; Win64; x64) AppleWebKit/537.36 (KHTML, like Gecko) Chrome/138.0.0.0 Safari/537.36","WebKit","Chrome","138.0.0.0","Windows","10.0","https://app.prolific.com/","en-GB,en-US;q=0.9,en;q=0.8","5731e2e45b8b06000f7e3671","687a19d2168e237449fb8af4","6889dea1aaf003746bed55e0","0","5731e2e45b8b06000f7e3671","0","2025-07-30T09:16:36.813Z","","","","ControlQ","","","","","","","","","","","50","","","","","","","","","","","","","","","","","","","","","","","","","","",""
"6127","","<div style=""width:500px;"">
  <p>How would you describe your current emotional state?</p>
  </div>","67","html-slider-response","71","1089726","0.0-7.0-3.11","69","1","2025-07-30 08:58:32","36c45c0696341be0efffe67d72a12abb","82.18.178.101","Mozilla/5.0 (Windows NT 10.0; Win64; x64) AppleWebKit/537.36 (KHTML, like Gecko) Chrome/138.0.0.0 Safari/537.36","WebKit","Chrome","138.0.0.0","Windows","10.0","https://app.prolific.com/","en-GB,en-US;q=0.9,en;q=0.8","5731e2e45b8b06000f7e3671","687a19d2168e237449fb8af4","6889dea1aaf003746bed55e0","0","5731e2e45b8b06000f7e3671","0","2025-07-30T09:16:42.941Z","","","","StressQ","","","","","","","","","","","50","","","","","","","","","","","","","","","","","","","","","","","","","","",""
"5255","","<div style=""width:500px;"">
  <p>What best describes how you currently feel?</p>
  </div>","34","html-slider-response","72","1094982","0.0-7.0-4.11","69","1","2025-07-30 08:58:32","36c45c0696341be0efffe67d72a12abb","82.18.178.101","Mozilla/5.0 (Windows NT 10.0; Win64; x64) AppleWebKit/537.36 (KHTML, like Gecko) Chrome/138.0.0.0 Safari/537.36","WebKit","Chrome","138.0.0.0","Windows","10.0","https://app.prolific.com/","en-GB,en-US;q=0.9,en;q=0.8","5731e2e45b8b06000f7e3671","687a19d2168e237449fb8af4","6889dea1aaf003746bed55e0","0","5731e2e45b8b06000f7e3671","0","2025-07-30T09:16:48.197Z","","","","MotivationQ","","","","","","","","","","","50","","","","","","","","","","","","","","","","","","","","","","","","","","",""
"","","","","ctl-task-cpt","73","1132401","0.0-7.0-0.12","69","1","2025-07-30 08:58:32","36c45c0696341be0efffe67d72a12abb","82.18.178.101","Mozilla/5.0 (Windows NT 10.0; Win64; x64) AppleWebKit/537.36 (KHTML, like Gecko) Chrome/138.0.0.0 Safari/537.36","WebKit","Chrome","138.0.0.0","Windows","10.0","https://app.prolific.com/","en-GB,en-US;q=0.9,en;q=0.8","5731e2e45b8b06000f7e3671","687a19d2168e237449fb8af4","6889dea1aaf003746bed55e0","0","5731e2e45b8b06000f7e3671","0","2025-07-30T09:17:25.616Z","","","","","","","","","","","","","","","","win-only","2","g1:SE,g2:NW","0.8","13","0","1095975.8","712.6","5715.1","34398.8","1","4","4","6","2","4","4","18","14","0.13636363636363635","687.6","3000","645","[""left"",""up""]","{""num_key_presses"":8,""num_perfect"":6,""num_errors"":0,""num_randdir"":2,""num_randdir_good_moves"":1,""num_whilered"":0,""num_whileblue"":0,""num_blue"":2,""num_good_moves"":7}","[421.57142857142856,422.47767857142856,0.2,421.57142857142856,426.47767857142856,102.4,421.57142857142856,426.47767857142856,205.6,429.57142857142856,450.47767857142856,309.3,187.57142857142856,274.47767857142856,409.3,97.57142857142857,128.47767857142856,509.7,99.57142857142857,88.47767857142857,609.7,99.57142857142857,86.47767857142857,713.8,99.57142857142857,86.47767857142857,816.4,119.57142857142857,100.47767857142857,920,791.5714285714286,354.47767857142856,1021.8,1123.5714285714287,426.47767857142856,1124.2,1143.5714285714287,422.47767857142856,1224.8,1143.5714285714287,422.47767857142856,1328,1143.5714285714287,422.47767857142856,1428.9,1143.5714285714287,422.47767857142856,1531.4,1143.5714285714287,422.47767857142856,1634.7,1143.5714285714287,422.47767857142856,1736.3,1143.5714285714287,422.47767857142856,1836.7,1143.5714285714287,422.47767857142856,1939.8,1143.5714285714287,422.47767857142856,2044.9,1143.5714285714287,422.47767857142856,2145.4,1143.5714285714287,422.47767857142856,2249.4,1143.5714285714287,422.47767857142856,2352.6,1143.5714285714287,422.47767857142856,2457.3,1143.5714285714287,422.47767857142856,2559.2,1143.5714285714287,422.47767857142856,2661.9,1143.5714285714287,422.47767857142856,2769.6,1143.5714285714287,422.47767857142856,2872,1143.5714285714287,422.47767857142856,2974.9,1143.5714285714287,422.47767857142856,3079,1143.5714285714287,422.47767857142856,3180.5,1143.5714285714287,422.47767857142856,3283,1143.5714285714287,422.47767857142856,3387.5,1143.5714285714287,422.47767857142856,3488.1,1143.5714285714287,422.47767857142856,3593,1143.5714285714287,422.47767857142856,3694.8,1143.5714285714287,422.47767857142856,3799.9,1143.5714285714287,422.47767857142856,3903.5,1143.5714285714287,422.47767857142856,4008,1143.5714285714287,422.47767857142856,4109.4,1143.5714285714287,422.47767857142856,4213.6,1143.5714285714287,422.47767857142856,4314.3,1143.5714285714287,422.47767857142856,4419.1,1143.5714285714287,422.47767857142856,4521,1143.5714285714287,422.47767857142856,4621.9,1143.5714285714287,422.47767857142856,4722.5,1143.5714285714287,422.47767857142856,4824.2,1143.5714285714287,422.47767857142856,4925]","[5267.8,5267.8,2954.4,2004.6,308.8,""smooth"",""up"",""up"",""good_move"",7638.7,2370.6,2037.3,5268.1,333.3,""smooth"",""left"",""left"",""good_move"",11392.4,3753.4,3443.2,7639,310.2,""smooth"",""up"",""up"",""good_move"",17556,6163.4,2291.3,14904.1,360.6,""smooth"",""left"",""left"",""good_move"",20410.7,2854.4,2524.9,17556.3,329.5,""smooth"",""up"",""up"",""good_move"",23442.7,3031.7,2702,20411,329.7,""oops"",""left"",""right"",""bad_move"",25853.5,2410.6,2056.5,23442.9,354.1,""smooth"",""left"",""left"",""good_move"",28576.5,2722.8,2404.8,25853.7,318,""oops"",""left"",""left"",""good_move""]"
"3581","","<div style=""width:500px;"">
  <p>What determined the result of this run?</p>
  </div>","62","html-slider-response","74","1135982","0.0-7.0-1.12","69","1","2025-07-30 08:58:32","36c45c0696341be0efffe67d72a12abb","82.18.178.101","Mozilla/5.0 (Windows NT 10.0; Win64; x64) AppleWebKit/537.36 (KHTML, like Gecko) Chrome/138.0.0.0 Safari/537.36","WebKit","Chrome","138.0.0.0","Windows","10.0","https://app.prolific.com/","en-GB,en-US;q=0.9,en;q=0.8","5731e2e45b8b06000f7e3671","687a19d2168e237449fb8af4","6889dea1aaf003746bed55e0","0","5731e2e45b8b06000f7e3671","0","2025-07-30T09:17:29.197Z","","","","AttribQ","","","","","","","","","","","50","","","","","","","","","","","","","","","","","","","","","","","","","","",""
"4791","","<div style=""width:500px;"">
  <p>How much control did you have over the ball?</p>
  </div>","55","html-slider-response","75","1140774","0.0-7.0-2.12","69","1","2025-07-30 08:58:32","36c45c0696341be0efffe67d72a12abb","82.18.178.101","Mozilla/5.0 (Windows NT 10.0; Win64; x64) AppleWebKit/537.36 (KHTML, like Gecko) Chrome/138.0.0.0 Safari/537.36","WebKit","Chrome","138.0.0.0","Windows","10.0","https://app.prolific.com/","en-GB,en-US;q=0.9,en;q=0.8","5731e2e45b8b06000f7e3671","687a19d2168e237449fb8af4","6889dea1aaf003746bed55e0","0","5731e2e45b8b06000f7e3671","0","2025-07-30T09:17:33.989Z","","","","ControlQ","","","","","","","","","","","50","","","","","","","","","","","","","","","","","","","","","","","","","","",""
"3296","","<div style=""width:500px;"">
  <p>How would you describe your current emotional state?</p>
  </div>","69","html-slider-response","76","1144070","0.0-7.0-3.12","69","1","2025-07-30 08:58:32","36c45c0696341be0efffe67d72a12abb","82.18.178.101","Mozilla/5.0 (Windows NT 10.0; Win64; x64) AppleWebKit/537.36 (KHTML, like Gecko) Chrome/138.0.0.0 Safari/537.36","WebKit","Chrome","138.0.0.0","Windows","10.0","https://app.prolific.com/","en-GB,en-US;q=0.9,en;q=0.8","5731e2e45b8b06000f7e3671","687a19d2168e237449fb8af4","6889dea1aaf003746bed55e0","0","5731e2e45b8b06000f7e3671","0","2025-07-30T09:17:37.285Z","","","","StressQ","","","","","","","","","","","50","","","","","","","","","","","","","","","","","","","","","","","","","","",""
"4319","","<div style=""width:500px;"">
  <p>What best describes how you currently feel?</p>
