"rt","response_timestamp","stimulus","response","trial_type","trial_index","time_elapsed","internal_node_id","run_id","condition","recorded_at","source_code_version","ip","user_agent","device","browser","browser_version","platform","platform_version","referer","accept_language","PROLIFIC_PID","STUDY_ID","SESSION_ID","BATCH","prolific_id","batch","realtime","success","question_order","question_id","eventType","responses","item_order","radio_event_ids","radio_event_times","key_event_times","mouse_event_times","straightlining","zigzagging","honeypot","view_history","slider_start","which_type","canvas_config","goals_layout","control_level","trial_number","tutorial_trial_number","trial_start_time","phase1_start_time","phase2_start_time","phase3_start_time","goal_1_value","goal_1_distance","goal_2_value","goal_2_distance","goal_selected","outcome","outcome_total","participant_final_score","participant_initial_score","participant_final_score_prop","goal_choice_rt","allocated_time","allocated_time_remaining","goal_direction","counts","mouse_movements","key_presses"
"1661","1753864724233","<p style='font-size:40px;line-height:1.25'><strong>Welcome to the experiment!</strong></p><p style='font-size:1.1em;line-height:1.25'>Thank you for participanting in our experiment again! You will be asked to play the Dysfunctional Ball Game again. We will briefly recap the rules before we start.</p><p style='font-size:1.1em;line-height:1.25'>Press <strong>Next</strong> to continue.</p>","0","custom-html-button-response","0","1662","0.0-0.0","13","1","2025-07-30 08:38:40","36c45c0696341be0efffe67d72a12abb","188.78.170.120","Mozilla/5.0 (Windows NT 10.0; Win64; x64) AppleWebKit/537.36 (KHTML, like Gecko) Chrome/138.0.0.0 Safari/537.36","WebKit","Chrome","138.0.0.0","Windows","10.0","https://app.prolific.com/","es-ES,es;q=0.9","5883a935c0c9a10001df6345","687a19d2168e237449fb8af4","6889d9daabf956105bc9b364","0","5883a935c0c9a10001df6345","0","2025-07-30T08:38:44.233Z","","","","","","","","","","","","","","","","","","","","","","","","","","","","","","","","","","","","","","","","","",""
"7683","","","","fullscreen","1","10351","0.0-1.0","13","1","2025-07-30 08:38:40","36c45c0696341be0efffe67d72a12abb","188.78.170.120","Mozilla/5.0 (Windows NT 10.0; Win64; x64) AppleWebKit/537.36 (KHTML, like Gecko) Chrome/138.0.0.0 Safari/537.36","WebKit","Chrome","138.0.0.0","Windows","10.0","https://app.prolific.com/","es-ES,es;q=0.9","5883a935c0c9a10001df6345","687a19d2168e237449fb8af4","6889d9daabf956105bc9b364","0","5883a935c0c9a10001df6345","0","","true","","","","","","","","","","","","","","","","","","","","","","","","","","","","","","","","","","","","","","","","",""
"21581","1753864754504"," <p style='font-size:1.1em;line-height:1.25'>Thank you for closing all other tabs.</p><p style='font-size:1.1em;line-height:1.25'>We will now invite you to fill in some questionnaires, before starting the game.<br>This will take about 5 minutes.<br></p><p style='font-size:1.1em;line-height:1.25'>Press the <strong>Next</strong> button to continue.</p>","0","custom-html-button-response","2","31933","0.0-2.0","13","1","2025-07-30 08:38:40","36c45c0696341be0efffe67d72a12abb","188.78.170.120","Mozilla/5.0 (Windows NT 10.0; Win64; x64) AppleWebKit/537.36 (KHTML, like Gecko) Chrome/138.0.0.0 Safari/537.36","WebKit","Chrome","138.0.0.0","Windows","10.0","https://app.prolific.com/","es-ES,es;q=0.9","5883a935c0c9a10001df6345","687a19d2168e237449fb8af4","6889d9daabf956105bc9b364","0","5883a935c0c9a10001df6345","0","2025-07-30T08:39:14.504Z","","","","","","","","","","","","","","","","","","","","","","","","","","","","","","","","","","","","","","","","","",""
"3202","","","{""assigned_sex"":""male""}","survey-multi-choice","3","35136","0.0-3.0-0.0","13","1","2025-07-30 08:38:40","36c45c0696341be0efffe67d72a12abb","188.78.170.120","Mozilla/5.0 (Windows NT 10.0; Win64; x64) AppleWebKit/537.36 (KHTML, like Gecko) Chrome/138.0.0.0 Safari/537.36","WebKit","Chrome","138.0.0.0","Windows","10.0","https://app.prolific.com/","es-ES,es;q=0.9","5883a935c0c9a10001df6345","687a19d2168e237449fb8af4","6889d9daabf956105bc9b364","0","5883a935c0c9a10001df6345","0","","","[0]","0","demographics","","","","","","","","","","","","","","","","","","","","","","","","","","","","","","","","","","","","","",""
"6310","1753864764018","<p style='font-size:1.1em;line-height:1.25'>In the following, we will perform a baseline assessment. This means that we will ask you a few questions relating to your experiences over the past month.<br></p><p style='font-size:1.1em;line-height:1.25'>Press the <strong>Next</strong> button to continue.</p>","0","custom-html-button-response","4","41447","0.0-4.0-0.0","13","1","2025-07-30 08:38:40","36c45c0696341be0efffe67d72a12abb","188.78.170.120","Mozilla/5.0 (Windows NT 10.0; Win64; x64) AppleWebKit/537.36 (KHTML, like Gecko) Chrome/138.0.0.0 Safari/537.36","WebKit","Chrome","138.0.0.0","Windows","10.0","https://app.prolific.com/","es-ES,es;q=0.9","5883a935c0c9a10001df6345","687a19d2168e237449fb8af4","6889d9daabf956105bc9b364","0","5883a935c0c9a10001df6345","0","2025-07-30T08:39:24.018Z","","","","","","","","","","","","","","","","","","","","","","","","","","","","","","","","","","","","","","","","","",""
"56854.5","","","","survey-template","5","98303","0.0-4.0-1.0","13","1","2025-07-30 08:38:40","36c45c0696341be0efffe67d72a12abb","188.78.170.120","Mozilla/5.0 (Windows NT 10.0; Win64; x64) AppleWebKit/537.36 (KHTML, like Gecko) Chrome/138.0.0.0 Safari/537.36","WebKit","Chrome","138.0.0.0","Windows","10.0","https://app.prolific.com/","es-ES,es;q=0.9","5883a935c0c9a10001df6345","687a19d2168e237449fb8af4","6889d9daabf956105bc9b364","0","5883a935c0c9a10001df6345","0","2025-07-30T08:40:20.874Z","","","","pss","{""Q01"":""1"",""Q02"":""1"",""Q03"":""2"",""Q04"":""2"",""Q05"":""2"",""Q06"":""2"",""Q07"":""2"",""Q08"":""2"",""Q09"":""1"",""Q10"":""1""}","[0,1,2,3,4,5,6,7,8,9]","[""Q01"",""Q02"",""Q03"",""Q04"",""Q05"",""Q06"",""Q06"",""Q07"",""Q08"",""Q09"",""Q10""]","[4880.79999999702,11987.699999988079,15451.39999999106,20784.39999999106,25333.19999998808,31135.19999998808,33312.09999999404,37679.89999999106,42674.79999999702,46768.69999998808,52020.69999998808]","[]","[0.8999999910593033,4880.79999999702,11987.699999988079,15451.39999999106,20784.39999999106,24491.19999998808,25012.19999998808,25333.19999998808,31135.19999998808,33312.09999999404,37679.89999999106,42674.79999999702,46768.69999998808,51442.79999999702,52020.69999998808,56853.5]","0.6","0.2222222222222222","0","","","","","","","","","","","","","","","","","","","","","","","","","","","","",""
"3776","1753864824650","<p style='font-size:1.1em;line-height:1.25'>Thank you for your answers! Now we will ask you a few more questions relating to your feelings in the last 24 hours.<br></p><p style='font-size:1.1em;line-height:1.25'>Press the <strong>Next</strong> button to continue.</p>","0","custom-html-button-response","6","102079","0.0-4.0-2.0","13","1","2025-07-30 08:38:40","36c45c0696341be0efffe67d72a12abb","188.78.170.120","Mozilla/5.0 (Windows NT 10.0; Win64; x64) AppleWebKit/537.36 (KHTML, like Gecko) Chrome/138.0.0.0 Safari/537.36","WebKit","Chrome","138.0.0.0","Windows","10.0","https://app.prolific.com/","es-ES,es;q=0.9","5883a935c0c9a10001df6345","687a19d2168e237449fb8af4","6889d9daabf956105bc9b364","0","5883a935c0c9a10001df6345","0","2025-07-30T08:40:24.650Z","","","","","","","","","","","","","","","","","","","","","","","","","","","","","","","","","","","","","","","","","",""
"80967.20000000298","","","","survey-template","7","183048","0.0-4.0-3.0","13","1","2025-07-30 08:38:40","36c45c0696341be0efffe67d72a12abb","188.78.170.120","Mozilla/5.0 (Windows NT 10.0; Win64; x64) AppleWebKit/537.36 (KHTML, like Gecko) Chrome/138.0.0.0 Safari/537.36","WebKit","Chrome","138.0.0.0","Windows","10.0","https://app.prolific.com/","es-ES,es;q=0.9","5883a935c0c9a10001df6345","687a19d2168e237449fb8af4","6889d9daabf956105bc9b364","0","5883a935c0c9a10001df6345","0","2025-07-30T08:41:45.619Z","","","","drsp","{""Q01"":""0"",""Q02"":""1"",""Q03"":""1"",""Q04"":""1"",""Q05"":""0"",""Q06"":""0"",""Q07"":""0"",""Q08"":""0"",""Q09"":""2"",""Q10"":""3"",""Q11"":""4"",""Q12"":""1"",""Q13"":""5"",""Q14"":""1"",""Q15"":""1"",""Q16"":""4"",""Q17"":""1"",""Q18"":""1"",""Q19"":""0"",""Q20"":""3"",""Q21"":""3"",""Q22"":""1""}","[0,1,2,3,4,5,6,7,8,9,10,11,12,13,14,15,16,17,18,19,20,21]","[""Q01"",""Q02"",""Q03"",""Q04"",""Q05"",""Q06"",""Q07"",""Q08"",""Q09"",""Q10"",""Q11"",""Q12"",""Q13"",""Q14"",""Q15"",""Q16"",""Q15"",""Q15"",""Q15"",""Q17"",""Q18"",""Q19"",""Q20"",""Q20"",""Q21"",""Q22""]","[3649.0999999940395,4765.0999999940395,5923.899999991059,9906.79999999702,16393.70000000298,19267.59999999404,20250.59999999404,21512.59999999404,25250.59999999404,28527.39999999106,29613.5,32070.39999999106,33054.20000000298,38497.09999999404,43434.09999999404,45432.20000000298,45979,47476.09999999404,48298.79999999702,50730.89999999106,52000,62257.59999999404,68221.39999999106,70326.5,75532.29999999702,80238]","[]","[1.3999999910593033,3649.0999999940395,4765.0999999940395,5923.899999991059,9906.79999999702,15273.70000000298,16393.70000000298,19267.59999999404,20250.59999999404,21512.59999999404,25250.59999999404,28527.39999999106,29613.5,32070.39999999106,33054.20000000298,36112.39999999106,38497.09999999404,43434.09999999404,45432.20000000298,45979,47476.09999999404,48298.79999999702,50730.89999999106,52000,60416.79999999702,62257.59999999404,68221.39999999106,70011.29999999702,70326.5,74838.20000000298,75532.29999999702,80238,80965.09999999404]","0.4090909090909091","0.23809523809523808","0","","","","","","","","","","","","","","","","","","","","","","","","","","","","",""
"13605.40000000596","","","","survey-template","8","196654","0.0-4.0-4.0","13","1","2025-07-30 08:38:40","36c45c0696341be0efffe67d72a12abb","188.78.170.120","Mozilla/5.0 (Windows NT 10.0; Win64; x64) AppleWebKit/537.36 (KHTML, like Gecko) Chrome/138.0.0.0 Safari/537.36","WebKit","Chrome","138.0.0.0","Windows","10.0","https://app.prolific.com/","es-ES,es;q=0.9","5883a935c0c9a10001df6345","687a19d2168e237449fb8af4","6889d9daabf956105bc9b364","0","5883a935c0c9a10001df6345","0","2025-07-30T08:41:59.225Z","","","","stress","{""Q01"":""1"",""Q02"":""3"",""Q03"":""2""}","[0,1,2]","[""Q01"",""Q02"",""Q02"",""Q03""]","[3311.2000000029802,6695.0999999940395,7533.20000000298,10792]","[]","[3311.2000000029802,6695.0999999940395,7195.0999999940395,7533.20000000298,10792,13605]","0.6666666666666666","0.5","0","","","","","","","","","","","","","","","","","","","","","","","","","","","","",""
"69112","","","","instructions","9","265766","0.0-5.0-0.0","13","1","2025-07-30 08:38:40","36c45c0696341be0efffe67d72a12abb","188.78.170.120","Mozilla/5.0 (Windows NT 10.0; Win64; x64) AppleWebKit/537.36 (KHTML, like Gecko) Chrome/138.0.0.0 Safari/537.36","WebKit","Chrome","138.0.0.0","Windows","10.0","https://app.prolific.com/","es-ES,es;q=0.9","5883a935c0c9a10001df6345","687a19d2168e237449fb8af4","6889d9daabf956105bc9b364","0","5883a935c0c9a10001df6345","0","","","","","","","","","","","","","","","[{""page_index"":0,""viewing_time"":69111}]","","","","","","","","","","","","","","","","","","","","","","","","","","","",""
"12617","","<p>Before you start with this game please answer the following three questions yourself. </p>
  <p>Through this game, we measure several aspects of your cognitive performance, such as reaction times, multi-tasking capabilities </p>
  <p>and the ability to assess the situation you are in.</p>
  <p></p>
  <p><b>How good do you usually are in such tasks?</b></p>","80","html-slider-response","10","278384","0.0-6.0-0.0","13","1","2025-07-30 08:38:40","36c45c0696341be0efffe67d72a12abb","188.78.170.120","Mozilla/5.0 (Windows NT 10.0; Win64; x64) AppleWebKit/537.36 (KHTML, like Gecko) Chrome/138.0.0.0 Safari/537.36","WebKit","Chrome","138.0.0.0","Windows","10.0","https://app.prolific.com/","es-ES,es;q=0.9","5883a935c0c9a10001df6345","687a19d2168e237449fb8af4","6889d9daabf956105bc9b364","0","5883a935c0c9a10001df6345","0","2025-07-30T08:43:20.955Z","","","","PreSkillQ","","","","","","","","","","","50","","","","","","","","","","","","","","","","","","","","","","","","","","",""
"6152","","<div style=""width:500px;"">
  <p>How well do you think you will perform in this task compared to other participants?</p>
  </div>","69","html-slider-response","11","284537","0.0-6.0-1.0","13","1","2025-07-30 08:38:40","36c45c0696341be0efffe67d72a12abb","188.78.170.120","Mozilla/5.0 (Windows NT 10.0; Win64; x64) AppleWebKit/537.36 (KHTML, like Gecko) Chrome/138.0.0.0 Safari/537.36","WebKit","Chrome","138.0.0.0","Windows","10.0","https://app.prolific.com/","es-ES,es;q=0.9","5883a935c0c9a10001df6345","687a19d2168e237449fb8af4","6889d9daabf956105bc9b364","0","5883a935c0c9a10001df6345","0","2025-07-30T08:43:27.108Z","","","","PrePerfQ","","","","","","","","","","","50","","","","","","","","","","","","","","","","","","","","","","","","","","",""
"4987","","<div style=""width:500px;"">
  <p>What best describes how you currently feel?</p>
  </div>","55","html-slider-response","12","289525","0.0-6.0-2.0","13","1","2025-07-30 08:38:40","36c45c0696341be0efffe67d72a12abb","188.78.170.120","Mozilla/5.0 (Windows NT 10.0; Win64; x64) AppleWebKit/537.36 (KHTML, like Gecko) Chrome/138.0.0.0 Safari/537.36","WebKit","Chrome","138.0.0.0","Windows","10.0","https://app.prolific.com/","es-ES,es;q=0.9","5883a935c0c9a10001df6345","687a19d2168e237449fb8af4","6889d9daabf956105bc9b364","0","5883a935c0c9a10001df6345","0","2025-07-30T08:43:32.096Z","","","","PreMotivationQ","","","","","","","","","","","50","","","","","","","","","","","","","","","","","","","","","","","","","","",""
"","","","","ctl-task-cpt","13","312607","0.0-7.0-0.0","13","1","2025-07-30 08:38:40","36c45c0696341be0efffe67d72a12abb","188.78.170.120","Mozilla/5.0 (Windows NT 10.0; Win64; x64) AppleWebKit/537.36 (KHTML, like Gecko) Chrome/138.0.0.0 Safari/537.36","WebKit","Chrome","138.0.0.0","Windows","10.0","https://app.prolific.com/","es-ES,es;q=0.9","5883a935c0c9a10001df6345","687a19d2168e237449fb8af4","6889d9daabf956105bc9b364","0","5883a935c0c9a10001df6345","0","2025-07-30T08:43:55.178Z","","","","","","","","","","","","","","","","win-only","2","g1:SE,g2:NW","1","1","0","290649.1","1901.4","6905.8","20076.1","1","4","8","6","1","1","0","0","0","0","3617.5","3000","1685","[""down"",""right""]","{""num_key_presses"":5,""num_perfect"":4,""num_errors"":1,""num_randdir"":0,""num_randdir_good_moves"":0,""num_whilered"":0,""num_whileblue"":0,""num_blue"":0,""num_good_moves"":4}","[554.1785637991769,555.4285685675485,0,554.1785637991769,555.4285685675485,103.9,554.1785637991769,555.4285685675485,204.4,554.1785637991769,555.4285685675485,304.9,554.1785637991769,555.4285685675485,408.8,554.1785637991769,555.4285685675485,509.8,554.1785637991769,555.4285685675485,614,554.1785637991769,555.4285685675485,715.3,554.1785637991769,555.4285685675485,815.3,554.1785637991769,555.4285685675485,919.7,554.1785637991769,555.4285685675485,1024.4,554.1785637991769,555.4285685675485,1128.9,554.1785637991769,555.4285685675485,1229.5,554.1785637991769,555.4285685675485,1329.5,554.1785637991769,555.4285685675485,1434.9,554.1785637991769,555.4285685675485,1539.1,554.1785637991769,555.4285685675485,1639.5,554.1785637991769,555.4285685675485,1743.8,554.1785637991769,555.4285685675485,1843.9,554.1785637991769,555.4285685675485,1949.4,554.1785637991769,555.4285685675485,2049.5,554.1785637991769,555.4285685675485,2154.9,554.1785637991769,555.4285685675485,2258.8,554.1785637991769,555.4285685675485,2359.3,554.1785637991769,555.4285685675485,2459.4,554.1785637991769,555.4285685675485,2564.4,554.1785637991769,555.4285685675485,2665.4,554.1785637991769,555.4285685675485,2768.9,585.4285637991769,586.6785685675485,2869.3,664.1785637991769,720.4285685675485,2974.4,1045.4285637991768,777.9285685675485,3079.3,1372.9285637991768,790.4285685675485,3179.4,1205.4285637991768,785.4285685675485,3279.7,976.6785637991769,836.6785685675485,3384.4,994.1785637991769,940.4285685675485,3484.6,996.6785637991769,990.4285685675485,3584.6,1006.6785637991769,995.4285685675485,3684.9,1040.4285637991768,985.4285685675485,3789.4,1280.4285637991768,995.4285685675485,3894.3,1352.9285637991768,1039.1785685675484,3999.2,1354.1785637991768,1045.4285685675484,4099.6,1354.1785637991768,1045.4285685675484,4205.1,1354.1785637991768,1045.4285685675484,4309.3,1354.1785637991768,1045.4285685675484,4409.3,1354.1785637991768,1045.4285685675484,4513.9,1354.1785637991768,1045.4285685675484,4614.1,1354.1785637991768,1045.4285685675484,4714.4,1354.1785637991768,1045.4285685675484,4819.2,1354.1785637991768,1045.4285685675484,4919.4]","[620.2,620.2,1000,0,-379.8,""error"",""-"",""-"",""no_move"",4997.1,4376.8,2929.8,1625.2,442.1,""smooth"",""right"",""right"",""good_move"",7645.1,2647.8,2322.6,4997.3,325.2,""smooth"",""right"",""right"",""good_move"",10010.8,2365.7,2076.3,7645.1,289.4,""smooth"",""down"",""down"",""good_move"",13080.8,3069.9,2796.4,10010.9,273.5,""smooth"",""down"",""down"",""good_move""]"
"3272","","<div style=""width:500px;"">
  <p>What determined the result of this run?</p>
  </div>","100","html-slider-response","14","315879","0.0-7.0-1.0","13","1","2025-07-30 08:38:40","36c45c0696341be0efffe67d72a12abb","188.78.170.120","Mozilla/5.0 (Windows NT 10.0; Win64; x64) AppleWebKit/537.36 (KHTML, like Gecko) Chrome/138.0.0.0 Safari/537.36","WebKit","Chrome","138.0.0.0","Windows","10.0","https://app.prolific.com/","es-ES,es;q=0.9","5883a935c0c9a10001df6345","687a19d2168e237449fb8af4","6889d9daabf956105bc9b364","0","5883a935c0c9a10001df6345","0","2025-07-30T08:43:58.450Z","","","","AttribQ","","","","","","","","","","","50","","","","","","","","","","","","","","","","","","","","","","","","","","",""
"2174","","<div style=""width:500px;"">
  <p>How much control did you have over the ball?</p>
  </div>","100","html-slider-response","15","318054","0.0-7.0-2.0","13","1","2025-07-30 08:38:40","36c45c0696341be0efffe67d72a12abb","188.78.170.120","Mozilla/5.0 (Windows NT 10.0; Win64; x64) AppleWebKit/537.36 (KHTML, like Gecko) Chrome/138.0.0.0 Safari/537.36","WebKit","Chrome","138.0.0.0","Windows","10.0","https://app.prolific.com/","es-ES,es;q=0.9","5883a935c0c9a10001df6345","687a19d2168e237449fb8af4","6889d9daabf956105bc9b364","0","5883a935c0c9a10001df6345","0","2025-07-30T08:44:00.625Z","","","","ControlQ","","","","","","","","","","","50","","","","","","","","","","","","","","","","","","","","","","","","","","",""
"3737","","<div style=""width:500px;"">
  <p>How would you describe your current emotional state?</p>
  </div>","17","html-slider-response","16","321792","0.0-7.0-3.0","13","1","2025-07-30 08:38:40","36c45c0696341be0efffe67d72a12abb","188.78.170.120","Mozilla/5.0 (Windows NT 10.0; Win64; x64) AppleWebKit/537.36 (KHTML, like Gecko) Chrome/138.0.0.0 Safari/537.36","WebKit","Chrome","138.0.0.0","Windows","10.0","https://app.prolific.com/","es-ES,es;q=0.9","5883a935c0c9a10001df6345","687a19d2168e237449fb8af4","6889d9daabf956105bc9b364","0","5883a935c0c9a10001df6345","0","2025-07-30T08:44:04.363Z","","","","StressQ","","","","","","","","","","","50","","","","","","","","","","","","","","","","","","","","","","","","","","",""
"3494","","<div style=""width:500px;"">
  <p>What best describes how you currently feel?</p>
  </div>","68","html-slider-response","17","325287","0.0-7.0-4.0","13","1","2025-07-30 08:38:40","36c45c0696341be0efffe67d72a12abb","188.78.170.120","Mozilla/5.0 (Windows NT 10.0; Win64; x64) AppleWebKit/537.36 (KHTML, like Gecko) Chrome/138.0.0.0 Safari/537.36","WebKit","Chrome","138.0.0.0","Windows","10.0","https://app.prolific.com/","es-ES,es;q=0.9","5883a935c0c9a10001df6345","687a19d2168e237449fb8af4","6889d9daabf956105bc9b364","0","5883a935c0c9a10001df6345","0","2025-07-30T08:44:07.858Z","","","","MotivationQ","","","","","","","","","","","50","","","","","","","","","","","","","","","","","","","","","","","","","","",""
"","","","","ctl-task-cpt","18","367368","0.0-7.0-0.1","13","1","2025-07-30 08:38:40","36c45c0696341be0efffe67d72a12abb","188.78.170.120","Mozilla/5.0 (Windows NT 10.0; Win64; x64) AppleWebKit/537.36 (KHTML, like Gecko) Chrome/138.0.0.0 Safari/537.36","WebKit","Chrome","138.0.0.0","Windows","10.0","https://app.prolific.com/","es-ES,es;q=0.9","5883a935c0c9a10001df6345","687a19d2168e237449fb8af4","6889d9daabf956105bc9b364","0","5883a935c0c9a10001df6345","0","2025-07-30T08:44:49.939Z","","","","","","","","","","","","","","","","win-only","2","g1:SE,g2:NW","0.9","2","0","326410.5","905.7","5906.1","39065.8","1","4","4","6","2","4","3","3","0","0.022727272727272728","1057.9","3000","190","[""left"",""up""]","{""num_key_presses"":9,""num_perfect"":7,""num_errors"":1,""num_randdir"":1,""num_randdir_good_moves"":0,""num_whilered"":0,""num_whileblue"":0,""num_blue"":3,""num_good_moves"":7}","[555.4285637991769,550.4285685675485,0.2,554.1785637991769,550.4285685675485,100.2,547.9285637991769,620.4285685675485,200.3,555.4285637991769,735.4285685675485,300.4,580.4285637991769,845.4285685675485,404.6,599.1785637991769,896.6785685675485,504.8,559.1785637991769,790.4285685675485,604.8,307.9285637991769,390.4285685675485,705.3,169.1785637991769,254.1785685675485,805.3,155.4285637991769,199.1785685675485,909.5,116.6785637991769,135.4285685675485,1010.6,111.6785637991769,130.4285685675485,1115.4,112.9285637991769,139.1785685675485,1220.4,199.1785637991769,310.4285685675485,1320.4,387.9285637991769,690.4285685675485,1424.9,480.4285637991769,940.4285685675485,1525.4,519.1785637991769,1196.6785685675484,1630.4,552.9285637991769,1279.1785685675484,1734.5,555.4285637991769,1279.1785685675484,1834.5,577.9285637991769,1279.1785685675484,1934.6,580.4285637991769,1279.1785685675484,2034.6,580.4285637991769,1279.1785685675484,2139.9,580.4285637991769,1279.1785685675484,2240,580.4285637991769,1279.1785685675484,2345.4,580.4285637991769,1279.1785685675484,2445.4,580.4285637991769,1279.1785685675484,2550.5,580.4285637991769,1279.1785685675484,2655.4,580.4285637991769,1279.1785685675484,2759.7,580.4285637991769,1279.1785685675484,2860.5,580.4285637991769,1279.1785685675484,2965,580.4285637991769,1279.1785685675484,3065.3,580.4285637991769,1279.1785685675484,3170.2,580.4285637991769,1279.1785685675484,3274.8,580.4285637991769,1279.1785685675484,3375.1,580.4285637991769,1279.1785685675484,3479.6,580.4285637991769,1279.1785685675484,3579.6,580.4285637991769,1279.1785685675484,3679.6,580.4285637991769,1279.1785685675484,3780.5,580.4285637991769,1279.1785685675484,3884.6,580.4285637991769,1279.1785685675484,3984.6,580.4285637991769,1279.1785685675484,4089.9,580.4285637991769,1279.1785685675484,4195.3,580.4285637991769,1279.1785685675484,4295.5,580.4285637991769,1279.1785685675484,4399.8,580.4285637991769,1279.1785685675484,4500.2,580.4285637991769,1279.1785685675484,4604.8,580.4285637991769,1279.1785685675484,4705.1,580.4285637991769,1279.1785685675484,4805.5,580.4285637991769,1279.1785685675484,4909.7]","[1408.6,1408.6,1000,0,408.6,""smooth"",""left"",""left"",""good_move"",10718.4,9309.7,2870.7,7469.5,378.3,""smooth"",""left"",""left"",""good_move"",13517.2,2798.7,2374.7,10718.5,424,""smooth"",""up"",""up"",""good_move"",18116.9,4599.4,2818.5,17624.3,-2325.8,""error"",""-"",""-"",""no_move"",21947.9,3830.8,2405.6,19120,422.3,""oops"",""up"",""down"",""bad_move"",24237,2288.9,1933.3,21948.1,355.6,""smooth"",""up"",""up"",""good_move"",26803.9,2566.7,2295.9,24237.2,270.8,""smooth"",""up"",""up"",""good_move"",30264.7,3460.7,3169.7,26804,291,""smooth"",""up"",""up"",""good_move"",33073.8,2809,2500.9,30264.8,308.1,""smooth"",""left"",""left"",""good_move""]"
"3465","","<div style=""width:500px;"">
  <p>What determined the result of this run?</p>
  </div>","67","html-slider-response","19","370835","0.0-7.0-1.1","13","1","2025-07-30 08:38:40","36c45c0696341be0efffe67d72a12abb","188.78.170.120","Mozilla/5.0 (Windows NT 10.0; Win64; x64) AppleWebKit/537.36 (KHTML, like Gecko) Chrome/138.0.0.0 Safari/537.36","WebKit","Chrome","138.0.0.0","Windows","10.0","https://app.prolific.com/","es-ES,es;q=0.9","5883a935c0c9a10001df6345","687a19d2168e237449fb8af4","6889d9daabf956105bc9b364","0","5883a935c0c9a10001df6345","0","2025-07-30T08:44:53.406Z","","","","AttribQ","","","","","","","","","","","50","","","","","","","","","","","","","","","","","","","","","","","","","","",""
"2895","","<div style=""width:500px;"">
  <p>How much control did you have over the ball?</p>
  </div>","62","html-slider-response","20","373730","0.0-7.0-2.1","13","1","2025-07-30 08:38:40","36c45c0696341be0efffe67d72a12abb","188.78.170.120","Mozilla/5.0 (Windows NT 10.0; Win64; x64) AppleWebKit/537.36 (KHTML, like Gecko) Chrome/138.0.0.0 Safari/537.36","WebKit","Chrome","138.0.0.0","Windows","10.0","https://app.prolific.com/","es-ES,es;q=0.9","5883a935c0c9a10001df6345","687a19d2168e237449fb8af4","6889d9daabf956105bc9b364","0","5883a935c0c9a10001df6345","0","2025-07-30T08:44:56.301Z","","","","ControlQ","","","","","","","","","","","50","","","","","","","","","","","","","","","","","","","","","","","","","","",""
"2110","","<div style=""width:500px;"">
  <p>How would you describe your current emotional state?</p>
  </div>","35","html-slider-response","21","375841","0.0-7.0-3.1","13","1","2025-07-30 08:38:40","36c45c0696341be0efffe67d72a12abb","188.78.170.120","Mozilla/5.0 (Windows NT 10.0; Win64; x64) AppleWebKit/537.36 (KHTML, like Gecko) Chrome/138.0.0.0 Safari/537.36","WebKit","Chrome","138.0.0.0","Windows","10.0","https://app.prolific.com/","es-ES,es;q=0.9","5883a935c0c9a10001df6345","687a19d2168e237449fb8af4","6889d9daabf956105bc9b364","0","5883a935c0c9a10001df6345","0","2025-07-30T08:44:58.412Z","","","","StressQ","","","","","","","","","","","50","","","","","","","","","","","","","","","","","","","","","","","","","","",""
"1787","","<div style=""width:500px;"">
  <p>What best describes how you currently feel?</p>
  </div>","61","html-slider-response","22","377628","0.0-7.0-4.1","13","1","2025-07-30 08:38:40","36c45c0696341be0efffe67d72a12abb","188.78.170.120","Mozilla/5.0 (Windows NT 10.0; Win64; x64) AppleWebKit/537.36 (KHTML, like Gecko) Chrome/138.0.0.0 Safari/537.36","WebKit","Chrome","138.0.0.0","Windows","10.0","https://app.prolific.com/","es-ES,es;q=0.9","5883a935c0c9a10001df6345","687a19d2168e237449fb8af4","6889d9daabf956105bc9b364","0","5883a935c0c9a10001df6345","0","2025-07-30T08:45:00.199Z","","","","MotivationQ","","","","","","","","","","","50","","","","","","","","","","","","","","","","","","","","","","","","","","",""
"","","","","ctl-task-cpt","23","410682","0.0-7.0-0.2","13","1","2025-07-30 08:38:40","36c45c0696341be0efffe67d72a12abb","188.78.170.120","Mozilla/5.0 (Windows NT 10.0; Win64; x64) AppleWebKit/537.36 (KHTML, like Gecko) Chrome/138.0.0.0 Safari/537.36","WebKit","Chrome","138.0.0.0","Windows","10.0","https://app.prolific.com/","es-ES,es;q=0.9","5883a935c0c9a10001df6345","687a19d2168e237449fb8af4","6889d9daabf956105bc9b364","0","5883a935c0c9a10001df6345","0","2025-07-30T08:45:33.253Z","","","","","","","","","","","","","","","","win-only","2","g1:SE,g2:NW","0.8","3","0","378752.8","899.4","5900.8","30035.8","1","4","4","6","1","1","0","3","3","0.022727272727272728","808.8","3000","605","[""down"",""right""]","{""num_key_presses"":8,""num_perfect"":6,""num_errors"":1,""num_randdir"":1,""num_randdir_good_moves"":0,""num_whilered"":0,""num_whileblue"":1,""num_blue"":2,""num_good_moves"":6}","[564.1785637991769,557.9285685675485,0,564.1785637991769,557.9285685675485,100.8,564.1785637991769,557.9285685675485,201.7,564.1785637991769,559.1785685675485,302.3,650.4285637991769,679.1785685675485,406.6,820.4285637991769,855.4285685675485,506.6,921.6785637991769,929.1785685675485,611.5,980.4285637991769,971.6785685675485,715.8,1021.6785637991769,995.4285685675485,815.9,1021.6785637991769,995.4285685675485,916,1009.1785637991769,990.4285685675485,1020.7,917.9285637991769,971.6785685675485,1121,865.4285637991769,949.1785685675485,1221.4,865.4285637991769,947.9285685675485,1321.5,806.6785637991769,971.6785685675485,1421.6,739.1785637991769,1070.4285685675484,1526.4,715.4285637991769,1149.1785685675484,1631.7,699.1785637991769,1210.4285685675484,1732.1,686.6785637991769,1237.9285685675484,1836.5,680.4285637991769,1259.1785685675484,1941.4,680.4285637991769,1275.4285685675484,2041.5,690.4285637991769,1279.1785685675484,2141.7,690.4285637991769,1279.1785685675484,2245.7,690.4285637991769,1279.1785685675484,2346.4,686.6785637991769,1279.1785685675484,2446.5,680.4285637991769,1279.1785685675484,2546.5,680.4285637991769,1279.1785685675484,2646.5,680.4285637991769,1279.1785685675484,2752.4,680.4285637991769,1279.1785685675484,2856.5,680.4285637991769,1279.1785685675484,2956.6,680.4285637991769,1279.1785685675484,3060.7,680.4285637991769,1279.1785685675484,3160.8,680.4285637991769,1279.1785685675484,3261.5,680.4285637991769,1279.1785685675484,3365.9,680.4285637991769,1279.1785685675484,3465.9,680.4285637991769,1279.1785685675484,3565.9,680.4285637991769,1279.1785685675484,3665.9,680.4285637991769,1279.1785685675484,3765.9,680.4285637991769,1279.1785685675484,3865.9,680.4285637991769,1279.1785685675484,3971.5,680.4285637991769,1279.1785685675484,4071.5,680.4285637991769,1279.1785685675484,4176.4,680.4285637991769,1279.1785685675484,4281.8,680.4285637991769,1279.1785685675484,4385.8,680.4285637991769,1279.1785685675484,4485.9,680.4285637991769,1279.1785685675484,4586,680.4285637991769,1279.1785685675484,4691.5,680.4285637991769,1279.1785685675484,4796.4,680.4285637991769,1279.1785685675484,4901.4]","[1301.3,1301.3,1000,0,301.3,""smooth"",""right"",""right"",""good_move"",4730,3428.4,3072.3,1301.6,356.1,""oops"",""down"",""left"",""bad_move"",7024,2293.8,1962.5,4730.2,331.3,""smooth"",""right"",""right"",""good_move"",9869,2844.9,2540,7024.1,304.9,""smooth"",""down"",""down"",""good_move"",13322,3452.7,3130.9,9869.3,321.8,""while_blue"",""down"",""up"",""bad_move"",15594.8,2272.5,1880.4,13322.3,392.1,""smooth"",""down"",""down"",""good_move"",21812.6,6217.7,2318,19134.7,359.9,""smooth"",""down"",""down"",""good_move"",24044.7,2232,1853.3,21812.7,378.7,""smooth"",""right"",""right"",""good_move""]"
"1301","","<div style=""width:500px;"">
  <p>What determined the result of this run?</p>
  </div>","61","html-slider-response","24","411984","0.0-7.0-1.2","13","1","2025-07-30 08:38:40","36c45c0696341be0efffe67d72a12abb","188.78.170.120","Mozilla/5.0 (Windows NT 10.0; Win64; x64) AppleWebKit/537.36 (KHTML, like Gecko) Chrome/138.0.0.0 Safari/537.36","WebKit","Chrome","138.0.0.0","Windows","10.0","https://app.prolific.com/","es-ES,es;q=0.9","5883a935c0c9a10001df6345","687a19d2168e237449fb8af4","6889d9daabf956105bc9b364","0","5883a935c0c9a10001df6345","0","2025-07-30T08:45:34.555Z","","","","AttribQ","","","","","","","","","","","50","","","","","","","","","","","","","","","","","","","","","","","","","","",""
"2026","","<div style=""width:500px;"">
  <p>How much control did you have over the ball?</p>
  </div>","56","html-slider-response","25","414011","0.0-7.0-2.2","13","1","2025-07-30 08:38:40","36c45c0696341be0efffe67d72a12abb","188.78.170.120","Mozilla/5.0 (Windows NT 10.0; Win64; x64) AppleWebKit/537.36 (KHTML, like Gecko) Chrome/138.0.0.0 Safari/537.36","WebKit","Chrome","138.0.0.0","Windows","10.0","https://app.prolific.com/","es-ES,es;q=0.9","5883a935c0c9a10001df6345","687a19d2168e237449fb8af4","6889d9daabf956105bc9b364","0","5883a935c0c9a10001df6345","0","2025-07-30T08:45:36.582Z","","","","ControlQ","","","","","","","","","","","50","","","","","","","","","","","","","","","","","","","","","","","","","","",""
"2419","","<div style=""width:500px;"">
  <p>How would you describe your current emotional state?</p>
  </div>","55","html-slider-response","26","416430","0.0-7.0-3.2","13","1","2025-07-30 08:38:40","36c45c0696341be0efffe67d72a12abb","188.78.170.120","Mozilla/5.0 (Windows NT 10.0; Win64; x64) AppleWebKit/537.36 (KHTML, like Gecko) Chrome/138.0.0.0 Safari/537.36","WebKit","Chrome","138.0.0.0","Windows","10.0","https://app.prolific.com/","es-ES,es;q=0.9","5883a935c0c9a10001df6345","687a19d2168e237449fb8af4","6889d9daabf956105bc9b364","0","5883a935c0c9a10001df6345","0","2025-07-30T08:45:39.001Z","","","","StressQ","","","","","","","","","","","50","","","","","","","","","","","","","","","","","","","","","","","","","","",""
"2083","","<div style=""width:500px;"">
  <p>What best describes how you currently feel?</p>
  </div>","55","html-slider-response","27","418513","0.0-7.0-4.2","13","1","2025-07-30 08:38:40","36c45c0696341be0efffe67d72a12abb","188.78.170.120","Mozilla/5.0 (Windows NT 10.0; Win64; x64) AppleWebKit/537.36 (KHTML, like Gecko) Chrome/138.0.0.0 Safari/537.36","WebKit","Chrome","138.0.0.0","Windows","10.0","https://app.prolific.com/","es-ES,es;q=0.9","5883a935c0c9a10001df6345","687a19d2168e237449fb8af4","6889d9daabf956105bc9b364","0","5883a935c0c9a10001df6345","0","2025-07-30T08:45:41.085Z","","","","MotivationQ","","","","","","","","","","","50","","","","","","","","","","","","","","","","","","","","","","","","","","",""
"","","","","ctl-task-cpt","28","462551","0.0-7.0-0.3","13","1","2025-07-30 08:38:40","36c45c0696341be0efffe67d72a12abb","188.78.170.120","Mozilla/5.0 (Windows NT 10.0; Win64; x64) AppleWebKit/537.36 (KHTML, like Gecko) Chrome/138.0.0.0 Safari/537.36","WebKit","Chrome","138.0.0.0","Windows","10.0","https://app.prolific.com/","es-ES,es;q=0.9","5883a935c0c9a10001df6345","687a19d2168e237449fb8af4","6889d9daabf956105bc9b364","0","5883a935c0c9a10001df6345","0","2025-07-30T08:46:25.122Z","","","","","","","","","","","","","","","","win-only","0","g1:NW,g2:SE","0.7","4","0","419637.9","1523.2","6525.5","41020.5","1","4","8","6","2","8","8","11","3","0.08333333333333333","2403","3000","410","[""down"",""right""]","{""num_key_presses"":8,""num_perfect"":6,""num_errors"":0,""num_randdir"":2,""num_randdir_good_moves"":1,""num_whilered"":0,""num_whileblue"":0,""num_blue"":4,""num_good_moves"":7}","[567.9285637991769,560.4285685675485,0,567.9285637991769,560.4285685675485,102.1,566.6785637991769,560.4285685675485,202.2,600.4285637991769,597.9285685675485,302.3,860.4285637991769,917.9285685675485,407.8,899.1785637991769,941.6785685675485,507.9,786.6785637991769,760.4285685675485,612.7,287.9285637991769,351.6785685675485,717.4,136.6785637991769,235.4285685675485,822.2,100.4285637991769,179.1785685675485,922.7,86.6785637991769,149.1785685675485,1027.6,89.1785637991769,140.4285685675485,1133.4,90.4285637991769,136.6785685675485,1237.7,90.4285637991769,136.6785685675485,1342.4,90.4285637991769,136.6785685675485,1443.3,90.4285637991769,136.6785685675485,1547.1,90.4285637991769,136.6785685675485,1652.2,90.4285637991769,136.6785685675485,1752.2,90.4285637991769,136.6785685675485,1852.3,105.4285637991769,147.9285685675485,1952.3,454.1785637991769,514.1785685675485,2057.6,847.9285637991769,881.6785685675485,2162.6,935.4285637991769,956.6785685675485,2263.4,982.9285637991769,994.1785685675485,2367.2,982.9285637991769,994.1785685675485,2467.7,990.4285637991769,992.9285685675485,2567.7,1186.6785637991768,980.4285685675485,2668,1330.4285637991768,1035.4285685675484,2772.7,1349.1785637991768,1080.4285685675484,2873.3,1352.9285637991768,1125.4285685675484,2977.4,1352.9285637991768,1125.4285685675484,3077.8,1310.4285637991768,1256.6785685675484,3182.6,1259.1785637991768,1279.1785685675484,3282.7,1259.1785637991768,1279.1785685675484,3383.1,1259.1785637991768,1279.1785685675484,3487,1259.1785637991768,1279.1785685675484,3587.6,1259.1785637991768,1279.1785685675484,3693.1,1259.1785637991768,1279.1785685675484,3797.3,1259.1785637991768,1279.1785685675484,3902.4,1259.1785637991768,1279.1785685675484,4007.9,1259.1785637991768,1279.1785685675484,4111.9,1259.1785637991768,1279.1785685675484,4212.7,1259.1785637991768,1279.1785685675484,4312.9,1259.1785637991768,1279.1785685675484,4417.8,1259.1785637991768,1279.1785685675484,4522.6,1259.1785637991768,1279.1785685675484,4623.4,1259.1785637991768,1279.1785685675484,4727.8,1259.1785637991768,1279.1785685675484,4832.4,1259.1785637991768,1279.1785685675484,4937.1]","[4452.4,4452.4,2088.6,2005.6,358.2,""smooth"",""down"",""down"",""good_move"",6947.2,2494.6,2118,4452.6,376.6,""smooth"",""down"",""down"",""good_move"",12747,5799.8,2372.9,10040.8,333.3,""oops"",""right"",""up"",""bad_move"",15802,3054.8,2750.3,12747.2,304.5,""smooth"",""down"",""down"",""good_move"",18153.9,2351.7,2059.7,15802.2,292.1,""smooth"",""right"",""right"",""good_move"",24677.8,6523.7,2361.5,21970.2,346.1,""oops"",""right"",""right"",""good_move"",27180.8,2502.9,2218.4,24677.9,284.5,""smooth"",""right"",""right"",""good_move"",34406.7,7225.8,2703.6,31375.3,327.8,""smooth"",""down"",""down"",""good_move""]"
"4209","","<div style=""width:500px;"">
  <p>What determined the result of this run?</p>
  </div>","66","html-slider-response","29","466761","0.0-7.0-1.3","13","1","2025-07-30 08:38:40","36c45c0696341be0efffe67d72a12abb","188.78.170.120","Mozilla/5.0 (Windows NT 10.0; Win64; x64) AppleWebKit/537.36 (KHTML, like Gecko) Chrome/138.0.0.0 Safari/537.36","WebKit","Chrome","138.0.0.0","Windows","10.0","https://app.prolific.com/","es-ES,es;q=0.9","5883a935c0c9a10001df6345","687a19d2168e237449fb8af4","6889d9daabf956105bc9b364","0","5883a935c0c9a10001df6345","0","2025-07-30T08:46:29.332Z","","","","AttribQ","","","","","","","","","","","50","","","","","","","","","","","","","","","","","","","","","","","","","","",""
"1692","","<div style=""width:500px;"">
  <p>How much control did you have over the ball?</p>
  </div>","63","html-slider-response","30","468454","0.0-7.0-2.3","13","1","2025-07-30 08:38:40","36c45c0696341be0efffe67d72a12abb","188.78.170.120","Mozilla/5.0 (Windows NT 10.0; Win64; x64) AppleWebKit/537.36 (KHTML, like Gecko) Chrome/138.0.0.0 Safari/537.36","WebKit","Chrome","138.0.0.0","Windows","10.0","https://app.prolific.com/","es-ES,es;q=0.9","5883a935c0c9a10001df6345","687a19d2168e237449fb8af4","6889d9daabf956105bc9b364","0","5883a935c0c9a10001df6345","0","2025-07-30T08:46:31.025Z","","","","ControlQ","","","","","","","","","","","50","","","","","","","","","","","","","","","","","","","","","","","","","","",""
"2404","","<div style=""width:500px;"">
  <p>How would you describe your current emotional state?</p>
  </div>","38","html-slider-response","31","470859","0.0-7.0-3.3","13","1","2025-07-30 08:38:40","36c45c0696341be0efffe67d72a12abb","188.78.170.120","Mozilla/5.0 (Windows NT 10.0; Win64; x64) AppleWebKit/537.36 (KHTML, like Gecko) Chrome/138.0.0.0 Safari/537.36","WebKit","Chrome","138.0.0.0","Windows","10.0","https://app.prolific.com/","es-ES,es;q=0.9","5883a935c0c9a10001df6345","687a19d2168e237449fb8af4","6889d9daabf956105bc9b364","0","5883a935c0c9a10001df6345","0","2025-07-30T08:46:33.430Z","","","","StressQ","","","","","","","","","","","50","","","","","","","","","","","","","","","","","","","","","","","","","","",""
"1420","","<div style=""width:500px;"">
  <p>What best describes how you currently feel?</p>
  </div>","68","html-slider-response","32","472280","0.0-7.0-4.3","13","1","2025-07-30 08:38:40","36c45c0696341be0efffe67d72a12abb","188.78.170.120","Mozilla/5.0 (Windows NT 10.0; Win64; x64) AppleWebKit/537.36 (KHTML, like Gecko) Chrome/138.0.0.0 Safari/537.36","WebKit","Chrome","138.0.0.0","Windows","10.0","https://app.prolific.com/","es-ES,es;q=0.9","5883a935c0c9a10001df6345","687a19d2168e237449fb8af4","6889d9daabf956105bc9b364","0","5883a935c0c9a10001df6345","0","2025-07-30T08:46:34.851Z","","","","MotivationQ","","","","","","","","","","","50","","","","","","","","","","","","","","","","","","","","","","","","","","",""
"","","","","ctl-task-cpt","33","494123","0.0-7.0-0.4","13","1","2025-07-30 08:38:40","36c45c0696341be0efffe67d72a12abb","188.78.170.120","Mozilla/5.0 (Windows NT 10.0; Win64; x64) AppleWebKit/537.36 (KHTML, like Gecko) Chrome/138.0.0.0 Safari/537.36","WebKit","Chrome","138.0.0.0","Windows","10.0","https://app.prolific.com/","es-ES,es;q=0.9","5883a935c0c9a10001df6345","687a19d2168e237449fb8af4","6889d9daabf956105bc9b364","0","5883a935c0c9a10001df6345","0","2025-07-30T08:46:56.694Z","","","","","","","","","","","","","","","","win-only","2","g1:SE,g2:NW","0.6","5","0","473404.7","708.3","5711.1","18825.7","1","4","4","6","1","1","1","12","11","0.09090909090909091","690.7","3000","1465","[""down"",""right""]","{""num_key_presses"":4,""num_perfect"":3,""num_errors"":0,""num_randdir"":1,""num_randdir_good_moves"":1,""num_whilered"":0,""num_whileblue"":0,""num_blue"":1,""num_good_moves"":4}","[555.4285637991769,571.6785685675485,0.2,555.4285637991769,571.6785685675485,102,555.4285637991769,571.6785685675485,202.1,555.4285637991769,571.6785685675485,302.2,586.6785637991769,601.6785685675485,402.3,832.9285637991769,866.6785685675485,506.8,961.6785637991769,971.6785685675485,606.8,994.1785637991769,995.4285685675485,707,995.4285637991769,995.4285685675485,812,977.9285637991769,1014.1785685675485,917,822.9285637991769,1145.4285685675484,1017,760.4285637991769,1200.4285685675484,1117.1,727.9285637991769,1251.6785685675484,1222.1,715.4285637991769,1271.6785685675484,1326.9,739.1785637991769,1249.1785685675484,1426.9,739.1785637991769,1249.1785685675484,1527.2,711.6785637991769,1271.6785685675484,1628.4,680.4285637991769,1279.1785685675484,1732.2,680.4285637991769,1279.1785685675484,1836.8,680.4285637991769,1279.1785685675484,1937.2,680.4285637991769,1279.1785685675484,2042.4,680.4285637991769,1279.1785685675484,2146.8,680.4285637991769,1279.1785685675484,2247.6,680.4285637991769,1279.1785685675484,2352.6,680.4285637991769,1279.1785685675484,2456.9,680.4285637991769,1279.1785685675484,2556.9,680.4285637991769,1279.1785685675484,2657,680.4285637991769,1279.1785685675484,2762.1,680.4285637991769,1279.1785685675484,2862.4,680.4285637991769,1279.1785685675484,2967.6,680.4285637991769,1279.1785685675484,3072.1,680.4285637991769,1279.1785685675484,3172.2,680.4285637991769,1279.1785685675484,3277,680.4285637991769,1279.1785685675484,3377.6,680.4285637991769,1279.1785685675484,3482.2,680.4285637991769,1279.1785685675484,3582.6,680.4285637991769,1279.1785685675484,3687.3,680.4285637991769,1279.1785685675484,3792.5,680.4285637991769,1279.1785685675484,3897,680.4285637991769,1279.1785685675484,4002,680.4285637991769,1279.1785685675484,4102,680.4285637991769,1279.1785685675484,4202.3,680.4285637991769,1279.1785685675484,4306.7,680.4285637991769,1279.1785685675484,4406.9,680.4285637991769,1279.1785685675484,4507,680.4285637991769,1279.1785685675484,4612.3,680.4285637991769,1279.1785685675484,4716.8,680.4285637991769,1279.1785685675484,4817,680.4285637991769,1279.1785685675484,4917.1]","[1390.7,1390.7,1000,0,390.7,""smooth"",""right"",""right"",""good_move"",4290.8,2899.9,2507.1,1390.9,392.8,""smooth"",""down"",""down"",""good_move"",10095.4,5804.4,2642.4,7069.8,383.2,""oops"",""down"",""right"",""good_move"",13025.3,2929.8,2546.3,10095.5,383.5,""smooth"",""down"",""down"",""good_move""]"
"2437","","<div style=""width:500px;"">
  <p>What determined the result of this run?</p>
  </div>","60","html-slider-response","34","496560","0.0-7.0-1.4","13","1","2025-07-30 08:38:40","36c45c0696341be0efffe67d72a12abb","188.78.170.120","Mozilla/5.0 (Windows NT 10.0; Win64; x64) AppleWebKit/537.36 (KHTML, like Gecko) Chrome/138.0.0.0 Safari/537.36","WebKit","Chrome","138.0.0.0","Windows","10.0","https://app.prolific.com/","es-ES,es;q=0.9","5883a935c0c9a10001df6345","687a19d2168e237449fb8af4","6889d9daabf956105bc9b364","0","5883a935c0c9a10001df6345","0","2025-07-30T08:46:59.131Z","","","","AttribQ","","","","","","","","","","","50","","","","","","","","","","","","","","","","","","","","","","","","","","",""
"2054","","<div style=""width:500px;"">
  <p>How much control did you have over the ball?</p>
  </div>","61","html-slider-response","35","498615","0.0-7.0-2.4","13","1","2025-07-30 08:38:40","36c45c0696341be0efffe67d72a12abb","188.78.170.120","Mozilla/5.0 (Windows NT 10.0; Win64; x64) AppleWebKit/537.36 (KHTML, like Gecko) Chrome/138.0.0.0 Safari/537.36","WebKit","Chrome","138.0.0.0","Windows","10.0","https://app.prolific.com/","es-ES,es;q=0.9","5883a935c0c9a10001df6345","687a19d2168e237449fb8af4","6889d9daabf956105bc9b364","0","5883a935c0c9a10001df6345","0","2025-07-30T08:47:01.186Z","","","","ControlQ","","","","","","","","","","","50","","","","","","","","","","","","","","","","","","","","","","","","","","",""
"1931","","<div style=""width:500px;"">
  <p>How would you describe your current emotional state?</p>
  </div>","43","html-slider-response","36","500545","0.0-7.0-3.4","13","1","2025-07-30 08:38:40","36c45c0696341be0efffe67d72a12abb","188.78.170.120","Mozilla/5.0 (Windows NT 10.0; Win64; x64) AppleWebKit/537.36 (KHTML, like Gecko) Chrome/138.0.0.0 Safari/537.36","WebKit","Chrome","138.0.0.0","Windows","10.0","https://app.prolific.com/","es-ES,es;q=0.9","5883a935c0c9a10001df6345","687a19d2168e237449fb8af4","6889d9daabf956105bc9b364","0","5883a935c0c9a10001df6345","0","2025-07-30T08:47:03.117Z","","","","StressQ","","","","","","","","","","","50","","","","","","","","","","","","","","","","","","","","","","","","","","",""
"1480","","<div style=""width:500px;"">
  <p>What best describes how you currently feel?</p>
  </div>","63","html-slider-response","37","502026","0.0-7.0-4.4","13","1","2025-07-30 08:38:40","36c45c0696341be0efffe67d72a12abb","188.78.170.120","Mozilla/5.0 (Windows NT 10.0; Win64; x64) AppleWebKit/537.36 (KHTML, like Gecko) Chrome/138.0.0.0 Safari/537.36","WebKit","Chrome","138.0.0.0","Windows","10.0","https://app.prolific.com/","es-ES,es;q=0.9","5883a935c0c9a10001df6345","687a19d2168e237449fb8af4","6889d9daabf956105bc9b364","0","5883a935c0c9a10001df6345","0","2025-07-30T08:47:04.597Z","","","","MotivationQ","","","","","","","","","","","50","","","","","","","","","","","","","","","","","","","","","","","","","","",""
"","","","","ctl-task-cpt","38","533875","0.0-7.0-0.5","13","1","2025-07-30 08:38:40","36c45c0696341be0efffe67d72a12abb","188.78.170.120","Mozilla/5.0 (Windows NT 10.0; Win64; x64) AppleWebKit/537.36 (KHTML, like Gecko) Chrome/138.0.0.0 Safari/537.36","WebKit","Chrome","138.0.0.0","Windows","10.0","https://app.prolific.com/","es-ES,es;q=0.9","5883a935c0c9a10001df6345","687a19d2168e237449fb8af4","6889d9daabf956105bc9b364","0","5883a935c0c9a10001df6345","0","2025-07-30T08:47:36.446Z","","","","","","","","","","","","","","","","win-only","2","g1:SE,g2:NW","0.5","6","0","503150.7","617.4","5620.2","28831.2","1","4","8","6","1","1","1","13","12","0.09848484848484848","585.2","3000","365","[""down"",""right""]","{""num_key_presses"":8,""num_perfect"":4,""num_errors"":0,""num_randdir"":4,""num_randdir_good_moves"":2,""num_whilered"":0,""num_whileblue"":0,""num_blue"":1,""num_good_moves"":6}","[559.1785637991769,566.6785685675485,0,559.1785637991769,566.6785685675485,102.9,580.4285637991769,607.9285685675485,207.8,680.4285637991769,700.4285685675485,307.9,805.4285637991769,826.6785685675485,407.9,935.4285637991769,959.1785685675485,513,961.6785637991769,995.4285685675485,613,960.4285637991769,995.4285685675485,713.5,870.4285637991769,995.4285685675485,818.3,780.4285637991769,1026.6785685675484,918.8,666.6785637991769,1152.9285685675484,1022.9,627.9285637991769,1246.6785685675484,1123.3,627.9285637991769,1279.1785685675484,1227.7,626.6785637991769,1279.1785685675484,1327.7,626.6785637991769,1279.1785685675484,1427.9,626.6785637991769,1279.1785685675484,1528.4,626.6785637991769,1279.1785685675484,1632.8,626.6785637991769,1279.1785685675484,1733.5,626.6785637991769,1279.1785685675484,1838.6,626.6785637991769,1279.1785685675484,1943.1,626.6785637991769,1279.1785685675484,2043.4,626.6785637991769,1279.1785685675484,2147.7,626.6785637991769,1279.1785685675484,2248.8,626.6785637991769,1279.1785685675484,2353.7,626.6785637991769,1279.1785685675484,2457.8,626.6785637991769,1279.1785685675484,2557.8,626.6785637991769,1279.1785685675484,2657.8,626.6785637991769,1279.1785685675484,2757.8,626.6785637991769,1279.1785685675484,2862.7,626.6785637991769,1279.1785685675484,2963,626.6785637991769,1279.1785685675484,3063.3,626.6785637991769,1279.1785685675484,3167.9,626.6785637991769,1279.1785685675484,3267.9,626.6785637991769,1279.1785685675484,3368.1,626.6785637991769,1279.1785685675484,3468.3,626.6785637991769,1279.1785685675484,3568.4,626.6785637991769,1279.1785685675484,3673.3,626.6785637991769,1279.1785685675484,3778.3,626.6785637991769,1279.1785685675484,3878.4,626.6785637991769,1279.1785685675484,3982.8,626.6785637991769,1279.1785685675484,4083.1,626.6785637991769,1279.1785685675484,4187.7,626.6785637991769,1279.1785685675484,4287.8,626.6785637991769,1279.1785685675484,4388.4,626.6785637991769,1279.1785685675484,4492.8,626.6785637991769,1279.1785685675484,4594,626.6785637991769,1279.1785685675484,4698.6,626.6785637991769,1279.1785685675484,4803.7,626.6785637991769,1279.1785685675484,4904.4]","[1386,1386,1000,0,386,""oops"",""down"",""left"",""bad_move"",3883.8,2497.6,2103.7,1386.2,393.9,""oops"",""down"",""down"",""good_move"",6146,2262.1,1923.2,3884,338.9,""smooth"",""right"",""right"",""good_move"",8890.6,2744.3,2398.5,6146.3,345.8,""smooth"",""right"",""right"",""good_move"",11179.5,2288.8,1976.6,8890.7,312.2,""oops"",""right"",""right"",""good_move"",18089.5,6909.9,2549.1,15235.8,304.6,""oops"",""down"",""left"",""bad_move"",21147.4,3057.8,2753.3,18089.6,304.5,""smooth"",""right"",""right"",""good_move"",23121.5,1974,1696.3,21147.5,277.7,""smooth"",""down"",""down"",""good_move""]"
"1570","","<div style=""width:500px;"">
  <p>What determined the result of this run?</p>
  </div>","38","html-slider-response","39","535446","0.0-7.0-1.5","13","1","2025-07-30 08:38:40","36c45c0696341be0efffe67d72a12abb","188.78.170.120","Mozilla/5.0 (Windows NT 10.0; Win64; x64) AppleWebKit/537.36 (KHTML, like Gecko) Chrome/138.0.0.0 Safari/537.36","WebKit","Chrome","138.0.0.0","Windows","10.0","https://app.prolific.com/","es-ES,es;q=0.9","5883a935c0c9a10001df6345","687a19d2168e237449fb8af4","6889d9daabf956105bc9b364","0","5883a935c0c9a10001df6345","0","2025-07-30T08:47:38.017Z","","","","AttribQ","","","","","","","","","","","50","","","","","","","","","","","","","","","","","","","","","","","","","","",""
"3546","","<div style=""width:500px;"">
  <p>How much control did you have over the ball?</p>
  </div>","40","html-slider-response","40","538993","0.0-7.0-2.5","13","1","2025-07-30 08:38:40","36c45c0696341be0efffe67d72a12abb","188.78.170.120","Mozilla/5.0 (Windows NT 10.0; Win64; x64) AppleWebKit/537.36 (KHTML, like Gecko) Chrome/138.0.0.0 Safari/537.36","WebKit","Chrome","138.0.0.0","Windows","10.0","https://app.prolific.com/","es-ES,es;q=0.9","5883a935c0c9a10001df6345","687a19d2168e237449fb8af4","6889d9daabf956105bc9b364","0","5883a935c0c9a10001df6345","0","2025-07-30T08:47:41.564Z","","","","ControlQ","","","","","","","","","","","50","","","","","","","","","","","","","","","","","","","","","","","","","","",""
"2064","","<div style=""width:500px;"">
  <p>How would you describe your current emotional state?</p>
  </div>","51","html-slider-response","41","541058","0.0-7.0-3.5","13","1","2025-07-30 08:38:40","36c45c0696341be0efffe67d72a12abb","188.78.170.120","Mozilla/5.0 (Windows NT 10.0; Win64; x64) AppleWebKit/537.36 (KHTML, like Gecko) Chrome/138.0.0.0 Safari/537.36","WebKit","Chrome","138.0.0.0","Windows","10.0","https://app.prolific.com/","es-ES,es;q=0.9","5883a935c0c9a10001df6345","687a19d2168e237449fb8af4","6889d9daabf956105bc9b364","0","5883a935c0c9a10001df6345","0","2025-07-30T08:47:43.629Z","","","","StressQ","","","","","","","","","","","50","","","","","","","","","","","","","","","","","","","","","","","","","","",""
"1595","","<div style=""width:500px;"">
  <p>What best describes how you currently feel?</p>
  </div>","50","html-slider-response","42","542653","0.0-7.0-4.5","13","1","2025-07-30 08:38:40","36c45c0696341be0efffe67d72a12abb","188.78.170.120","Mozilla/5.0 (Windows NT 10.0; Win64; x64) AppleWebKit/537.36 (KHTML, like Gecko) Chrome/138.0.0.0 Safari/537.36","WebKit","Chrome","138.0.0.0","Windows","10.0","https://app.prolific.com/","es-ES,es;q=0.9","5883a935c0c9a10001df6345","687a19d2168e237449fb8af4","6889d9daabf956105bc9b364","0","5883a935c0c9a10001df6345","0","2025-07-30T08:47:45.225Z","","","","MotivationQ","","","","","","","","","","","50","","","","","","","","","","","","","","","","","","","","","","","","","","",""
"","","","","ctl-task-cpt","43","588092","0.0-7.0-0.6","13","1","2025-07-30 08:38:40","36c45c0696341be0efffe67d72a12abb","188.78.170.120","Mozilla/5.0 (Windows NT 10.0; Win64; x64) AppleWebKit/537.36 (KHTML, like Gecko) Chrome/138.0.0.0 Safari/537.36","WebKit","Chrome","138.0.0.0","Windows","10.0","https://app.prolific.com/","es-ES,es;q=0.9","5883a935c0c9a10001df6345","687a19d2168e237449fb8af4","6889d9daabf956105bc9b364","0","5883a935c0c9a10001df6345","0","2025-07-30T08:48:30.663Z","","","","","","","","","","","","","","","","win-only","3","g1:SW,g2:NE","0.4","7","0","543777.9","793.1","5796.1","42421.6","1","4","8","6","1","-1","-1","12","13","0.09090909090909091","763.1","3000","-3015","[""down"",""left""]","{""num_key_presses"":9,""num_perfect"":4,""num_errors"":0,""num_randdir"":5,""num_randdir_good_moves"":2,""num_whilered"":0,""num_whileblue"":0,""num_blue"":3,""num_good_moves"":6}","[557.9285637991769,562.9285685675485,0.1,557.9285637991769,562.9285685675485,102.4,557.9285637991769,562.9285685675485,202.7,551.6785637991769,580.4285685675485,303,547.9285637991769,587.9285685675485,407.2,420.4285637991769,722.9285685675485,507.7,186.6785637991769,904.1785685675485,607.8,115.4285637991769,987.9285685675485,712.9,112.9285637991769,990.4285685675485,817.6,124.1785637991769,986.6785685675485,917.7,265.4285637991769,984.1785685675485,1022.4,494.1785637991769,1049.1785685675484,1122.4,525.4285637991769,1050.4285685675484,1222.4,525.4285637991769,1050.4285685675484,1327.2,547.9285637991769,1189.1785685675484,1428,571.6785637991769,1254.1785685675484,1528,571.6785637991769,1255.4285685675484,1628,571.6785637991769,1255.4285685675484,1728,571.6785637991769,1255.4285685675484,1828,571.6785637991769,1255.4285685675484,1932.2,571.6785637991769,1255.4285685675484,2037.8,580.4285637991769,1279.1785685675484,2137.9,582.9285637991769,1279.1785685675484,2242.6,582.9285637991769,1279.1785685675484,2342.7,582.9285637991769,1279.1785685675484,2447.5,582.9285637991769,1279.1785685675484,2552.7,582.9285637991769,1279.1785685675484,2657.6,582.9285637991769,1279.1785685675484,2762.2,582.9285637991769,1279.1785685675484,2862.3,582.9285637991769,1279.1785685675484,2963,582.9285637991769,1279.1785685675484,3067.8,582.9285637991769,1279.1785685675484,3168.6,582.9285637991769,1279.1785685675484,3272.5,582.9285637991769,1279.1785685675484,3378,582.9285637991769,1279.1785685675484,3478,582.9285637991769,1279.1785685675484,3578,582.9285637991769,1279.1785685675484,3683.2,582.9285637991769,1279.1785685675484,3787.1,582.9285637991769,1279.1785685675484,3887.9,582.9285637991769,1279.1785685675484,3993.6,582.9285637991769,1279.1785685675484,4098.1,582.9285637991769,1279.1785685675484,4198.1,582.9285637991769,1279.1785685675484,4303,582.9285637991769,1279.1785685675484,4403,582.9285637991769,1279.1785685675484,4503,582.9285637991769,1279.1785685675484,4607.6,582.9285637991769,1279.1785685675484,4713.6,582.9285637991769,1279.1785685675484,4817.4,582.9285637991769,1279.1785685675484,4918.2]","[1376.8,1376.8,1000,0,376.8,""smooth"",""down"",""down"",""good_move"",3439.6,2062.6,1713,1377,349.6,""smooth"",""left"",""left"",""good_move"",9225.8,5786,2174.4,6619.5,431.9,""oops"",""left"",""right"",""bad_move"",12438.8,3212.8,2791.5,9226,421.3,""oops"",""left"",""up"",""bad_move"",21949.3,9510.3,2343.7,19284.9,320.7,""oops"",""left"",""down"",""good_move"",24806.2,2856.8,2562.7,21949.4,294.1,""oops"",""left"",""right"",""bad_move"",27851,3044.6,2756.5,24806.5,288,""smooth"",""left"",""left"",""good_move"",30243,2391.7,2077.9,27851.3,313.8,""smooth"",""left"",""left"",""good_move"",33774.9,3531.7,3302.7,30243.2,229,""oops"",""left"",""left"",""good_move""]"
"1822","","<div style=""width:500px;"">
  <p>What determined the result of this run?</p>
  </div>","0","html-slider-response","44","589914","0.0-7.0-1.6","13","1","2025-07-30 08:38:40","36c45c0696341be0efffe67d72a12abb","188.78.170.120","Mozilla/5.0 (Windows NT 10.0; Win64; x64) AppleWebKit/537.36 (KHTML, like Gecko) Chrome/138.0.0.0 Safari/537.36","WebKit","Chrome","138.0.0.0","Windows","10.0","https://app.prolific.com/","es-ES,es;q=0.9","5883a935c0c9a10001df6345","687a19d2168e237449fb8af4","6889d9daabf956105bc9b364","0","5883a935c0c9a10001df6345","0","2025-07-30T08:48:32.485Z","","","","AttribQ","","","","","","","","","","","50","","","","","","","","","","","","","","","","","","","","","","","","","","",""
"1798","","<div style=""width:500px;"">
  <p>How much control did you have over the ball?</p>
  </div>","0","html-slider-response","45","591713","0.0-7.0-2.6","13","1","2025-07-30 08:38:40","36c45c0696341be0efffe67d72a12abb","188.78.170.120","Mozilla/5.0 (Windows NT 10.0; Win64; x64) AppleWebKit/537.36 (KHTML, like Gecko) Chrome/138.0.0.0 Safari/537.36","WebKit","Chrome","138.0.0.0","Windows","10.0","https://app.prolific.com/","es-ES,es;q=0.9","5883a935c0c9a10001df6345","687a19d2168e237449fb8af4","6889d9daabf956105bc9b364","0","5883a935c0c9a10001df6345","0","2025-07-30T08:48:34.284Z","","","","ControlQ","","","","","","","","","","","50","","","","","","","","","","","","","","","","","","","","","","","","","","",""
"1600","","<div style=""width:500px;"">
  <p>How would you describe your current emotional state?</p>
  </div>","60","html-slider-response","46","593313","0.0-7.0-3.6","13","1","2025-07-30 08:38:40","36c45c0696341be0efffe67d72a12abb","188.78.170.120","Mozilla/5.0 (Windows NT 10.0; Win64; x64) AppleWebKit/537.36 (KHTML, like Gecko) Chrome/138.0.0.0 Safari/537.36","WebKit","Chrome","138.0.0.0","Windows","10.0","https://app.prolific.com/","es-ES,es;q=0.9","5883a935c0c9a10001df6345","687a19d2168e237449fb8af4","6889d9daabf956105bc9b364","0","5883a935c0c9a10001df6345","0","2025-07-30T08:48:35.884Z","","","","StressQ","","","","","","","","","","","50","","","","","","","","","","","","","","","","","","","","","","","","","","",""
"1900","","<div style=""width:500px;"">
  <p>What best describes how you currently feel?</p>
  </div>","40","html-slider-response","47","595214","0.0-7.0-4.6","13","1","2025-07-30 08:38:40","36c45c0696341be0efffe67d72a12abb","188.78.170.120","Mozilla/5.0 (Windows NT 10.0; Win64; x64) AppleWebKit/537.36 (KHTML, like Gecko) Chrome/138.0.0.0 Safari/537.36","WebKit","Chrome","138.0.0.0","Windows","10.0","https://app.prolific.com/","es-ES,es;q=0.9","5883a935c0c9a10001df6345","687a19d2168e237449fb8af4","6889d9daabf956105bc9b364","0","5883a935c0c9a10001df6345","0","2025-07-30T08:48:37.785Z","","","","MotivationQ","","","","","","","","","","","50","","","","","","","","","","","","","","","","","","","","","","","","","","",""
"","","","","ctl-task-cpt","48","620762","0.0-7.0-0.7","13","1","2025-07-30 08:38:40","36c45c0696341be0efffe67d72a12abb","188.78.170.120","Mozilla/5.0 (Windows NT 10.0; Win64; x64) AppleWebKit/537.36 (KHTML, like Gecko) Chrome/138.0.0.0 Safari/537.36","WebKit","Chrome","138.0.0.0","Windows","10.0","https://app.prolific.com/","es-ES,es;q=0.9","5883a935c0c9a10001df6345","687a19d2168e237449fb8af4","6889d9daabf956105bc9b364","0","5883a935c0c9a10001df6345","0","2025-07-30T08:49:03.333Z","","","","","","","","","","","","","","","","win-only","2","g1:SE,g2:NW","0.3","8","0","596338.6","531","5536.4","22530.2","1","4","4","6","1","1","1","13","12","0.09848484848484848","639.9","3000","1600","[""down"",""right""]","{""num_key_presses"":4,""num_perfect"":2,""num_errors"":0,""num_randdir"":2,""num_randdir_good_moves"":2,""num_whilered"":0,""num_whileblue"":0,""num_blue"":2,""num_good_moves"":4}","[570.4285637991769,555.4285685675485,0.1,570.4285637991769,555.4285685675485,104.9,567.9285637991769,556.6785685675485,209.7,569.1785637991769,564.1785685675485,314.3,680.4285637991769,722.9285685675485,414.6,922.9285637991769,964.1785685675485,515.2,1035.4285637991768,1022.9285685675485,619.4,1036.6785637991768,1022.9285685675485,719.5,952.9285637991769,1035.4285685675484,824.6,725.4285637991769,1115.4285685675484,929.5,635.4285637991769,1161.6785685675484,1034.3,600.4285637991769,1194.1785685675484,1134.9,590.4285637991769,1227.9285685675484,1239.4,602.9285637991769,1251.6785685675484,1339.7,630.4285637991769,1241.6785685675484,1444.3,630.4285637991769,1241.6785685675484,1544.3,622.9285637991769,1259.1785685675484,1644.7,611.6785637991769,1279.1785685675484,1749.5,611.6785637991769,1279.1785685675484,1849.6,611.6785637991769,1279.1785685675484,1954.9,606.6785637991769,1279.1785685675484,2055.5,599.1785637991769,1279.1785685675484,2159.8,599.1785637991769,1279.1785685675484,2259.9,599.1785637991769,1279.1785685675484,2364.8,599.1785637991769,1279.1785685675484,2464.9,599.1785637991769,1279.1785685675484,2569.4,599.1785637991769,1279.1785685675484,2674.4,599.1785637991769,1279.1785685675484,2774.8,599.1785637991769,1279.1785685675484,2879.4,599.1785637991769,1279.1785685675484,2979.4,599.1785637991769,1279.1785685675484,3084.9,599.1785637991769,1279.1785685675484,3190,599.1785637991769,1279.1785685675484,3294.2,599.1785637991769,1279.1785685675484,3395.3,599.1785637991769,1279.1785685675484,3499.2,599.1785637991769,1279.1785685675484,3599.7,599.1785637991769,1279.1785685675484,3699.7,599.1785637991769,1279.1785685675484,3799.8,599.1785637991769,1279.1785685675484,3904.5,599.1785637991769,1279.1785685675484,4005.1,599.1785637991769,1279.1785685675484,4109.3,599.1785637991769,1279.1785685675484,4209.3,599.1785637991769,1279.1785685675484,4309.3,599.1785637991769,1279.1785685675484,4409.3,599.1785637991769,1279.1785685675484,4509.3,599.1785637991769,1279.1785685675484,4610.1,599.1785637991769,1279.1785685675484,4710.1,599.1785637991769,1279.1785685675484,4814.2,599.1785637991769,1279.1785685675484,4914.3]","[4702.6,4702.6,2356.1,2009,337.5,""oops"",""down"",""down"",""good_move"",11205.2,6502.5,2665.6,8219.1,320.5,""oops"",""right"",""right"",""good_move"",14183.1,2977.8,2523,11205.3,454.8,""smooth"",""right"",""right"",""good_move"",16905.1,2721.9,2413.2,14183.2,308.7,""smooth"",""down"",""down"",""good_move""]"
"1644","","<div style=""width:500px;"">
  <p>What determined the result of this run?</p>
  </div>","39","html-slider-response","49","622406","0.0-7.0-1.7","13","1","2025-07-30 08:38:40","36c45c0696341be0efffe67d72a12abb","188.78.170.120","Mozilla/5.0 (Windows NT 10.0; Win64; x64) AppleWebKit/537.36 (KHTML, like Gecko) Chrome/138.0.0.0 Safari/537.36","WebKit","Chrome","138.0.0.0","Windows","10.0","https://app.prolific.com/","es-ES,es;q=0.9","5883a935c0c9a10001df6345","687a19d2168e237449fb8af4","6889d9daabf956105bc9b364","0","5883a935c0c9a10001df6345","0","2025-07-30T08:49:04.978Z","","","","AttribQ","","","","","","","","","","","50","","","","","","","","","","","","","","","","","","","","","","","","","","",""
"1994","","<div style=""width:500px;"">
  <p>How much control did you have over the ball?</p>
  </div>","45","html-slider-response","50","624401","0.0-7.0-2.7","13","1","2025-07-30 08:38:40","36c45c0696341be0efffe67d72a12abb","188.78.170.120","Mozilla/5.0 (Windows NT 10.0; Win64; x64) AppleWebKit/537.36 (KHTML, like Gecko) Chrome/138.0.0.0 Safari/537.36","WebKit","Chrome","138.0.0.0","Windows","10.0","https://app.prolific.com/","es-ES,es;q=0.9","5883a935c0c9a10001df6345","687a19d2168e237449fb8af4","6889d9daabf956105bc9b364","0","5883a935c0c9a10001df6345","0","2025-07-30T08:49:06.972Z","","","","ControlQ","","","","","","","","","","","50","","","","","","","","","","","","","","","","","","","","","","","","","","",""
"1144","","<div style=""width:500px;"">
  <p>How would you describe your current emotional state?</p>
  </div>","50","html-slider-response","51","625546","0.0-7.0-3.7","13","1","2025-07-30 08:38:40","36c45c0696341be0efffe67d72a12abb","188.78.170.120","Mozilla/5.0 (Windows NT 10.0; Win64; x64) AppleWebKit/537.36 (KHTML, like Gecko) Chrome/138.0.0.0 Safari/537.36","WebKit","Chrome","138.0.0.0","Windows","10.0","https://app.prolific.com/","es-ES,es;q=0.9","5883a935c0c9a10001df6345","687a19d2168e237449fb8af4","6889d9daabf956105bc9b364","0","5883a935c0c9a10001df6345","0","2025-07-30T08:49:08.117Z","","","","StressQ","","","","","","","","","","","50","","","","","","","","","","","","","","","","","","","","","","","","","","",""
"1175","","<div style=""width:500px;"">
  <p>What best describes how you currently feel?</p>
  </div>","50","html-slider-response","52","626722","0.0-7.0-4.7","13","1","2025-07-30 08:38:40","36c45c0696341be0efffe67d72a12abb","188.78.170.120","Mozilla/5.0 (Windows NT 10.0; Win64; x64) AppleWebKit/537.36 (KHTML, like Gecko) Chrome/138.0.0.0 Safari/537.36","WebKit","Chrome","138.0.0.0","Windows","10.0","https://app.prolific.com/","es-ES,es;q=0.9","5883a935c0c9a10001df6345","687a19d2168e237449fb8af4","6889d9daabf956105bc9b364","0","5883a935c0c9a10001df6345","0","2025-07-30T08:49:09.293Z","","","","MotivationQ","","","","","","","","","","","50","","","","","","","","","","","","","","","","","","","","","","","","","","",""
"","","","","ctl-task-cpt","53","660056","0.0-7.0-0.8","13","1","2025-07-30 08:38:40","36c45c0696341be0efffe67d72a12abb","188.78.170.120","Mozilla/5.0 (Windows NT 10.0; Win64; x64) AppleWebKit/537.36 (KHTML, like Gecko) Chrome/138.0.0.0 Safari/537.36","WebKit","Chrome","138.0.0.0","Windows","10.0","https://app.prolific.com/","es-ES,es;q=0.9","5883a935c0c9a10001df6345","687a19d2168e237449fb8af4","6889d9daabf956105bc9b364","0","5883a935c0c9a10001df6345","0","2025-07-30T08:49:42.627Z","","","","","","","","","","","","","","","","win-only","2","g1:SE,g2:NW","0.4","9","0","627846.6","669.3","5670.4","30315.3","1","4","4","6","1","1","1","14","13","0.10606060606060606","577","3000","335","[""down"",""right""]","{""num_key_presses"":8,""num_perfect"":3,""num_errors"":0,""num_randdir"":5,""num_randdir_good_moves"":3,""num_whilered"":0,""num_whileblue"":0,""num_blue"":1,""num_good_moves"":6}","[550.4285637991769,554.1785685675485,0.1,550.4285637991769,554.1785685675485,100.8,550.4285637991769,559.1785685675485,200.8,577.9285637991769,594.1785685675485,300.9,790.4285637991769,844.1785685675485,401,945.4285637991769,975.4285685675485,501,1006.6785637991769,1010.4285685675485,601,1006.6785637991769,1010.4285685675485,705.9,914.1785637991769,1037.9285685675484,805.9,714.1785637991769,1129.1785685675484,906.6,656.6785637991769,1186.6785685675484,1010.9,636.6785637991769,1236.6785685675484,1112.1,647.9285637991769,1239.1785685675484,1215.9,647.9285637991769,1239.1785685675484,1320.9,647.9285637991769,1239.1785685675484,1421,636.6785637991769,1260.4285685675484,1521,616.6785637991769,1279.1785685675484,1625.9,615.4285637991769,1279.1785685675484,1726.1,615.4285637991769,1279.1785685675484,1826.6,615.4285637991769,1279.1785685675484,1926.6,615.4285637991769,1279.1785685675484,2026.6,615.4285637991769,1279.1785685675484,2130.9,615.4285637991769,1279.1785685675484,2230.9,615.4285637991769,1279.1785685675484,2330.9,615.4285637991769,1279.1785685675484,2435.8,615.4285637991769,1279.1785685675484,2535.8,615.4285637991769,1279.1785685675484,2636.4,615.4285637991769,1279.1785685675484,2741,615.4285637991769,1279.1785685675484,2841.6,615.4285637991769,1279.1785685675484,2947.1,615.4285637991769,1279.1785685675484,3050.9,615.4285637991769,1279.1785685675484,3150.9,615.4285637991769,1279.1785685675484,3250.9,615.4285637991769,1279.1785685675484,3350.9,615.4285637991769,1279.1785685675484,3450.9,615.4285637991769,1279.1785685675484,3551,615.4285637991769,1279.1785685675484,3656,615.4285637991769,1279.1785685675484,3761.1,615.4285637991769,1279.1785685675484,3861.4,615.4285637991769,1279.1785685675484,3961.6,615.4285637991769,1279.1785685675484,4066.3,615.4285637991769,1279.1785685675484,4170.8,615.4285637991769,1279.1785685675484,4270.8,615.4285637991769,1279.1785685675484,4371.6,615.4285637991769,1279.1785685675484,4476.4,615.4285637991769,1279.1785685675484,4581.2,615.4285637991769,1279.1785685675484,4681.4,615.4285637991769,1279.1785685675484,4786.3,615.4285637991769,1279.1785685675484,4886.9,615.4285637991769,1279.1785685675484,4991.4]","[1467.7,1467.7,1000,0,467.7,""smooth"",""right"",""right"",""good_move"",3962.7,2494.8,2148.5,1467.9,346.3,""oops"",""down"",""down"",""good_move"",6662.1,2699.3,2370.5,3962.8,328.8,""oops"",""right"",""left"",""bad_move"",9566.5,2904.2,2613.5,6662.3,290.7,""oops"",""right"",""down"",""good_move"",12143.4,2576.7,2267.8,9566.7,308.9,""smooth"",""right"",""right"",""good_move"",14523.5,2380,2098.1,12143.5,281.9,""oops"",""right"",""up"",""bad_move"",22212.4,7688.7,2559.5,19265.5,387.4,""smooth"",""right"",""right"",""good_move"",24556.2,2343.7,2044.1,22212.5,299.6,""oops"",""down"",""down"",""good_move""]"
"1640","","<div style=""width:500px;"">
  <p>What determined the result of this run?</p>
  </div>","40","html-slider-response","54","661696","0.0-7.0-1.8","13","1","2025-07-30 08:38:40","36c45c0696341be0efffe67d72a12abb","188.78.170.120","Mozilla/5.0 (Windows NT 10.0; Win64; x64) AppleWebKit/537.36 (KHTML, like Gecko) Chrome/138.0.0.0 Safari/537.36","WebKit","Chrome","138.0.0.0","Windows","10.0","https://app.prolific.com/","es-ES,es;q=0.9","5883a935c0c9a10001df6345","687a19d2168e237449fb8af4","6889d9daabf956105bc9b364","0","5883a935c0c9a10001df6345","0","2025-07-30T08:49:44.267Z","","","","AttribQ","","","","","","","","","","","50","","","","","","","","","","","","","","","","","","","","","","","","","","",""
"1461","","<div style=""width:500px;"">
  <p>How much control did you have over the ball?</p>
  </div>","38","html-slider-response","55","663157","0.0-7.0-2.8","13","1","2025-07-30 08:38:40","36c45c0696341be0efffe67d72a12abb","188.78.170.120","Mozilla/5.0 (Windows NT 10.0; Win64; x64) AppleWebKit/537.36 (KHTML, like Gecko) Chrome/138.0.0.0 Safari/537.36","WebKit","Chrome","138.0.0.0","Windows","10.0","https://app.prolific.com/","es-ES,es;q=0.9","5883a935c0c9a10001df6345","687a19d2168e237449fb8af4","6889d9daabf956105bc9b364","0","5883a935c0c9a10001df6345","0","2025-07-30T08:49:45.728Z","","","","ControlQ","","","","","","","","","","","50","","","","","","","","","","","","","","","","","","","","","","","","","","",""
"884","","<div style=""width:500px;"">
  <p>How would you describe your current emotional state?</p>
  </div>","50","html-slider-response","56","664041","0.0-7.0-3.8","13","1","2025-07-30 08:38:40","36c45c0696341be0efffe67d72a12abb","188.78.170.120","Mozilla/5.0 (Windows NT 10.0; Win64; x64) AppleWebKit/537.36 (KHTML, like Gecko) Chrome/138.0.0.0 Safari/537.36","WebKit","Chrome","138.0.0.0","Windows","10.0","https://app.prolific.com/","es-ES,es;q=0.9","5883a935c0c9a10001df6345","687a19d2168e237449fb8af4","6889d9daabf956105bc9b364","0","5883a935c0c9a10001df6345","0","2025-07-30T08:49:46.613Z","","","","StressQ","","","","","","","","","","","50","","","","","","","","","","","","","","","","","","","","","","","","","","",""
"778","","<div style=""width:500px;"">
  <p>What best describes how you currently feel?</p>
  </div>","51","html-slider-response","57","664820","0.0-7.0-4.8","13","1","2025-07-30 08:38:40","36c45c0696341be0efffe67d72a12abb","188.78.170.120","Mozilla/5.0 (Windows NT 10.0; Win64; x64) AppleWebKit/537.36 (KHTML, like Gecko) Chrome/138.0.0.0 Safari/537.36","WebKit","Chrome","138.0.0.0","Windows","10.0","https://app.prolific.com/","es-ES,es;q=0.9","5883a935c0c9a10001df6345","687a19d2168e237449fb8af4","6889d9daabf956105bc9b364","0","5883a935c0c9a10001df6345","0","2025-07-30T08:49:47.391Z","","","","MotivationQ","","","","","","","","","","","50","","","","","","","","","","","","","","","","","","","","","","","","","","",""
"","","","","ctl-task-cpt","58","705391","0.0-7.0-0.9","13","1","2025-07-30 08:38:40","36c45c0696341be0efffe67d72a12abb","188.78.170.120","Mozilla/5.0 (Windows NT 10.0; Win64; x64) AppleWebKit/537.36 (KHTML, like Gecko) Chrome/138.0.0.0 Safari/537.36","WebKit","Chrome","138.0.0.0","Windows","10.0","https://app.prolific.com/","es-ES,es;q=0.9","5883a935c0c9a10001df6345","687a19d2168e237449fb8af4","6889d9daabf956105bc9b364","0","5883a935c0c9a10001df6345","0","2025-07-30T08:50:27.963Z","","","","","","","","","","","","","","","","win-only","1","g1:NE,g2:SW","0.5","10","0","665944","722.9","5725.2","37555.6","1","4","8","6","2","-8","-8","6","14","0.045454545454545456","3177.1","3000","-3015","[""down"",""left""]","{""num_key_presses"":9,""num_perfect"":5,""num_errors"":0,""num_randdir"":4,""num_randdir_good_moves"":1,""num_whilered"":0,""num_whileblue"":0,""num_blue"":2,""num_good_moves"":6}","[554.1785637991769,545.4285685675485,0.1,554.1785637991769,545.4285685675485,102.5,554.1785637991769,545.4285685675485,202.6,554.1785637991769,545.4285685675485,307.3,584.1785637991769,520.4285685675485,408.3,822.9285637991769,329.1785685675485,512.5,1025.4285637991768,194.1785685675485,617.6,1050.4285637991768,147.9285685675485,722.8,1036.6785637991768,124.17856856754848,822.8,1036.6785637991768,124.17856856754848,922.8,1036.6785637991768,124.17856856754848,1027.8,1036.6785637991768,124.17856856754848,1132.2,1027.9285637991768,130.4285685675485,1232.5,760.4285637991769,442.9285685675485,1332.9,282.9285637991769,796.6785685675485,1437.9,197.9285637991769,859.1785685675485,1542.6,160.4285637991769,950.4285685675485,1642.6,149.1785637991769,976.6785685675485,1747.8,147.9285637991769,976.6785685675485,1848.1,147.9285637991769,976.6785685675485,1953,147.9285637991769,976.6785685675485,2057.2,147.9285637991769,976.6785685675485,2157.9,147.9285637991769,976.6785685675485,2262.5,147.9285637991769,976.6785685675485,2367.3,147.9285637991769,976.6785685675485,2472.6,147.9285637991769,976.6785685675485,2572.9,147.9285637991769,976.6785685675485,2673,147.9285637991769,976.6785685675485,2778,147.9285637991769,976.6785685675485,2882.5,147.9285637991769,976.6785685675485,2987.7,147.9285637991769,976.6785685675485,3092.2,147.9285637991769,976.6785685675485,3192.5,147.9285637991769,976.6785685675485,3293,295.4285637991769,995.4285685675485,3398.2,419.1785637991769,954.1785685675485,3502.8,419.1785637991769,954.1785685675485,3603,437.9285637991769,1115.4285685675484,3707.7,509.1785637991769,1275.4285685675484,3812.3,510.4285637991769,1279.1785685675484,3913.2,510.4285637991769,1279.1785685675484,4017.4,510.4285637991769,1279.1785685675484,4117.4,510.4285637991769,1279.1785685675484,4217.5,510.4285637991769,1279.1785685675484,4322.7,510.4285637991769,1279.1785685675484,4427.9,510.4285637991769,1279.1785685675484,4527.9,510.4285637991769,1279.1785685675484,4628,510.4285637991769,1279.1785685675484,4728.1,510.4285637991769,1279.1785685675484,4832.8,510.4285637991769,1279.1785685675484,4937.6]","[1312.6,1312.6,1000,0,312.6,""oops"",""left"",""right"",""bad_move"",7426.7,6114,2181.5,4936.2,309,""smooth"",""left"",""left"",""good_move"",9434.4,2007.6,1712.5,7426.8,295.1,""smooth"",""left"",""left"",""good_move"",11894.4,2460,2180.9,9434.5,279,""oops"",""left"",""left"",""good_move"",14713.4,2818.8,2531.3,11894.6,287.5,""smooth"",""down"",""down"",""good_move"",21403.2,6689.6,2278,18780.9,344.3,""smooth"",""down"",""down"",""good_move"",23888.4,2485.1,2160.2,21403.3,324.9,""smooth"",""left"",""left"",""good_move"",26333.1,2444.6,2129.3,23888.5,315.3,""oops"",""down"",""up"",""bad_move"",29444,3110.8,2816.5,26333.2,294.3,""oops"",""down"",""right"",""bad_move""]"
"5263","","<div style=""width:500px;"">
  <p>What determined the result of this run?</p>
  </div>","0","html-slider-response","59","710655","0.0-7.0-1.9","13","1","2025-07-30 08:38:40","36c45c0696341be0efffe67d72a12abb","188.78.170.120","Mozilla/5.0 (Windows NT 10.0; Win64; x64) AppleWebKit/537.36 (KHTML, like Gecko) Chrome/138.0.0.0 Safari/537.36","WebKit","Chrome","138.0.0.0","Windows","10.0","https://app.prolific.com/","es-ES,es;q=0.9","5883a935c0c9a10001df6345","687a19d2168e237449fb8af4","6889d9daabf956105bc9b364","0","5883a935c0c9a10001df6345","0","2025-07-30T08:50:33.226Z","","","","AttribQ","","","","","","","","","","","50","","","","","","","","","","","","","","","","","","","","","","","","","","",""
"3463","","<div style=""width:500px;"">
  <p>How much control did you have over the ball?</p>
  </div>","0","html-slider-response","60","714119","0.0-7.0-2.9","13","1","2025-07-30 08:38:40","36c45c0696341be0efffe67d72a12abb","188.78.170.120","Mozilla/5.0 (Windows NT 10.0; Win64; x64) AppleWebKit/537.36 (KHTML, like Gecko) Chrome/138.0.0.0 Safari/537.36","WebKit","Chrome","138.0.0.0","Windows","10.0","https://app.prolific.com/","es-ES,es;q=0.9","5883a935c0c9a10001df6345","687a19d2168e237449fb8af4","6889d9daabf956105bc9b364","0","5883a935c0c9a10001df6345","0","2025-07-30T08:50:36.690Z","","","","ControlQ","","","","","","","","","","","50","","","","","","","","","","","","","","","","","","","","","","","","","","",""
"1929","","<div style=""width:500px;"">
  <p>How would you describe your current emotional state?</p>
  </div>","100","html-slider-response","61","716049","0.0-7.0-3.9","13","1","2025-07-30 08:38:40","36c45c0696341be0efffe67d72a12abb","188.78.170.120","Mozilla/5.0 (Windows NT 10.0; Win64; x64) AppleWebKit/537.36 (KHTML, like Gecko) Chrome/138.0.0.0 Safari/537.36","WebKit","Chrome","138.0.0.0","Windows","10.0","https://app.prolific.com/","es-ES,es;q=0.9","5883a935c0c9a10001df6345","687a19d2168e237449fb8af4","6889d9daabf956105bc9b364","0","5883a935c0c9a10001df6345","0","2025-07-30T08:50:38.620Z","","","","StressQ","","","","","","","","","","","50","","","","","","","","","","","","","","","","","","","","","","","","","","",""
"1667","","<div style=""width:500px;"">
  <p>What best describes how you currently feel?</p>
  </div>","27","html-slider-response","62","717717","0.0-7.0-4.9","13","1","2025-07-30 08:38:40","36c45c0696341be0efffe67d72a12abb","188.78.170.120","Mozilla/5.0 (Windows NT 10.0; Win64; x64) AppleWebKit/537.36 (KHTML, like Gecko) Chrome/138.0.0.0 Safari/537.36","WebKit","Chrome","138.0.0.0","Windows","10.0","https://app.prolific.com/","es-ES,es;q=0.9","5883a935c0c9a10001df6345","687a19d2168e237449fb8af4","6889d9daabf956105bc9b364","0","5883a935c0c9a10001df6345","0","2025-07-30T08:50:40.288Z","","","","MotivationQ","","","","","","","","","","","50","","","","","","","","","","","","","","","","","","","","","","","","","","",""
"","","","","ctl-task-cpt","63","742805","0.0-7.0-0.10","13","1","2025-07-30 08:38:40","36c45c0696341be0efffe67d72a12abb","188.78.170.120","Mozilla/5.0 (Windows NT 10.0; Win64; x64) AppleWebKit/537.36 (KHTML, like Gecko) Chrome/138.0.0.0 Safari/537.36","WebKit","Chrome","138.0.0.0","Windows","10.0","https://app.prolific.com/","es-ES,es;q=0.9","5883a935c0c9a10001df6345","687a19d2168e237449fb8af4","6889d9daabf956105bc9b364","0","5883a935c0c9a10001df6345","0","2025-07-30T08:51:05.376Z","","","","","","","","","","","","","","","","win-only","2","g1:SE,g2:NW","0.6","11","0","718841.8","490","5490.2","22070.1","1","4","4","6","1","1","0","6","6","0.045454545454545456","1536.9","3000","1395","[""down"",""right""]","{""num_key_presses"":6,""num_perfect"":4,""num_errors"":1,""num_randdir"":1,""num_randdir_good_moves"":0,""num_whilered"":0,""num_whileblue"":1,""num_blue"":1,""num_good_moves"":5}","[561.6785637991769,557.9285685675485,0.2,560.4285637991769,559.1785685675485,100.8,560.4285637991769,559.1785685675485,205.2,577.9285637991769,609.1785685675485,305.7,640.4285637991769,629.1785685675485,411.3,632.9285637991769,615.4285685675485,511.3,350.4285637991769,469.1785685675485,615.5,237.9285637991769,426.6785685675485,715.9,400.4285637991769,485.4285685675485,820.1,499.1785637991769,522.9285685675485,925.6,630.4285637991769,596.6785685675485,1030.8,830.4285637991769,796.6785685675485,1135.2,912.9285637991769,912.9285685675485,1235.4,957.9285637991769,950.4285685675485,1335.7,992.9285637991769,976.6785685675485,1435.8,1025.4285637991768,1002.9285685675485,1540.3,1025.4285637991768,1002.9285685675485,1640.3,915.4285637991769,1042.9285685675484,1740.3,750.4285637991769,1101.6785685675484,1840.4,752.9285637991769,1089.1785685675484,1941.1,752.9285637991769,1089.1785685675484,2041.1,689.1785637991769,1154.1785685675484,2145.4,670.4285637991769,1260.4285685675484,2245.5,670.4285637991769,1261.6785685675484,2345.7,670.4285637991769,1261.6785685675484,2450.6,670.4285637991769,1261.6785685675484,2555.5,670.4285637991769,1261.6785685675484,2655.5,670.4285637991769,1261.6785685675484,2760.4,670.4285637991769,1261.6785685675484,2860.8,670.4285637991769,1261.6785685675484,2965.5,670.4285637991769,1261.6785685675484,3065.9,670.4285637991769,1261.6785685675484,3166,670.4285637991769,1261.6785685675484,3270.1,670.4285637991769,1261.6785685675484,3370.2,670.4285637991769,1261.6785685675484,3475.6,670.4285637991769,1261.6785685675484,3580,670.4285637991769,1261.6785685675484,3680.4,670.4285637991769,1261.6785685675484,3785,670.4285637991769,1261.6785685675484,3885.6,670.4285637991769,1261.6785685675484,3990.1,670.4285637991769,1261.6785685675484,4091,670.4285637991769,1261.6785685675484,4195.4,670.4285637991769,1261.6785685675484,4300.4,670.4285637991769,1261.6785685675484,4400.5,670.4285637991769,1261.6785685675484,4500.5,670.4285637991769,1261.6785685675484,4605.6,670.4285637991769,1261.6785685675484,4710.2,670.4285637991769,1261.6785685675484,4811,670.4285637991769,1261.6785685675484,4911]","[1390.6,1390.6,1000,0,390.6,""smooth"",""right"",""right"",""good_move"",4400.4,3009.7,2688.6,1390.7,321.1,""smooth"",""down"",""down"",""good_move"",6999.4,2598.9,2306.8,4400.5,292.1,""smooth"",""right"",""right"",""good_move"",10323.3,3323.8,3041.1,6999.5,282.7,""oops"",""down"",""up"",""bad_move"",13669.4,3345.9,3037.1,10323.5,308.8,""while_blue"",""down"",""down"",""good_move"",16491.1,2821.6,2487.5,13669.6,334,""smooth"",""down"",""down"",""good_move""]"
"981","","<div style=""width:500px;"">
  <p>What determined the result of this run?</p>
  </div>","50","html-slider-response","64","743787","0.0-7.0-1.10","13","1","2025-07-30 08:38:40","36c45c0696341be0efffe67d72a12abb","188.78.170.120","Mozilla/5.0 (Windows NT 10.0; Win64; x64) AppleWebKit/537.36 (KHTML, like Gecko) Chrome/138.0.0.0 Safari/537.36","WebKit","Chrome","138.0.0.0","Windows","10.0","https://app.prolific.com/","es-ES,es;q=0.9","5883a935c0c9a10001df6345","687a19d2168e237449fb8af4","6889d9daabf956105bc9b364","0","5883a935c0c9a10001df6345","0","2025-07-30T08:51:06.358Z","","","","AttribQ","","","","","","","","","","","50","","","","","","","","","","","","","","","","","","","","","","","","","","",""
"2067","","<div style=""width:500px;"">
  <p>How much control did you have over the ball?</p>
  </div>","43","html-slider-response","65","745854","0.0-7.0-2.10","13","1","2025-07-30 08:38:40","36c45c0696341be0efffe67d72a12abb","188.78.170.120","Mozilla/5.0 (Windows NT 10.0; Win64; x64) AppleWebKit/537.36 (KHTML, like Gecko) Chrome/138.0.0.0 Safari/537.36","WebKit","Chrome","138.0.0.0","Windows","10.0","https://app.prolific.com/","es-ES,es;q=0.9","5883a935c0c9a10001df6345","687a19d2168e237449fb8af4","6889d9daabf956105bc9b364","0","5883a935c0c9a10001df6345","0","2025-07-30T08:51:08.425Z","","","","ControlQ","","","","","","","","","","","50","","","","","","","","","","","","","","","","","","","","","","","","","","",""
"2308","","<div style=""width:500px;"">
  <p>How would you describe your current emotional state?</p>
  </div>","56","html-slider-response","66","748162","0.0-7.0-3.10","13","1","2025-07-30 08:38:40","36c45c0696341be0efffe67d72a12abb","188.78.170.120","Mozilla/5.0 (Windows NT 10.0; Win64; x64) AppleWebKit/537.36 (KHTML, like Gecko) Chrome/138.0.0.0 Safari/537.36","WebKit","Chrome","138.0.0.0","Windows","10.0","https://app.prolific.com/","es-ES,es;q=0.9","5883a935c0c9a10001df6345","687a19d2168e237449fb8af4","6889d9daabf956105bc9b364","0","5883a935c0c9a10001df6345","0","2025-07-30T08:51:10.734Z","","","","StressQ","","","","","","","","","","","50","","","","","","","","","","","","","","","","","","","","","","","","","","",""
"1874","","<div style=""width:500px;"">
  <p>What best describes how you currently feel?</p>
  </div>","38","html-slider-response","67","750037","0.0-7.0-4.10","13","1","2025-07-30 08:38:40","36c45c0696341be0efffe67d72a12abb","188.78.170.120","Mozilla/5.0 (Windows NT 10.0; Win64; x64) AppleWebKit/537.36 (KHTML, like Gecko) Chrome/138.0.0.0 Safari/537.36","WebKit","Chrome","138.0.0.0","Windows","10.0","https://app.prolific.com/","es-ES,es;q=0.9","5883a935c0c9a10001df6345","687a19d2168e237449fb8af4","6889d9daabf956105bc9b364","0","5883a935c0c9a10001df6345","0","2025-07-30T08:51:12.608Z","","","","MotivationQ","","","","","","","","","","","50","","","","","","","","","","","","","","","","","","","","","","","","","","",""
"","","","","ctl-task-cpt","68","780330","0.0-7.0-0.11","13","1","2025-07-30 08:38:40","36c45c0696341be0efffe67d72a12abb","188.78.170.120","Mozilla/5.0 (Windows NT 10.0; Win64; x64) AppleWebKit/537.36 (KHTML, like Gecko) Chrome/138.0.0.0 Safari/537.36","WebKit","Chrome","138.0.0.0","Windows","10.0","https://app.prolific.com/","es-ES,es;q=0.9","5883a935c0c9a10001df6345","687a19d2168e237449fb8af4","6889d9daabf956105bc9b364","0","5883a935c0c9a10001df6345","0","2025-07-30T08:51:42.901Z","","","","","","","","","","","","","","","","win-only","1","g1:NE,g2:SW","0.7","12","0","751161.9","581","5585.2","27275.5","1","4","8","6","2","8","8","14","6","0.10606060606060606","902","3000","1010","[""down"",""left""]","{""num_key_presses"":6,""num_perfect"":4,""num_errors"":0,""num_randdir"":2,""num_randdir_good_moves"":2,""num_whilered"":0,""num_whileblue"":0,""num_blue"":2,""num_good_moves"":6}","[567.9285637991769,565.4285685675485,0.1,567.9285637991769,565.4285685675485,104.1,567.9285637991769,562.9285685675485,204.8,577.9285637991769,535.4285685675485,309.7,611.6785637991769,492.9285685675485,414.5,446.6785637991769,685.4285685675485,514.5,245.4285637991769,900.4285685675485,614.6,175.4285637991769,960.4285685675485,714.6,154.1785637991769,974.1785685675485,819.4,154.1785637991769,974.1785685675485,925.1,154.1785637991769,974.1785685675485,1025.1,194.1785637991769,975.4285685675485,1129.9,194.1785637991769,975.4285685675485,1235,231.6785637991769,996.6785685675485,1339.2,471.6785637991769,1255.4285685675484,1439.2,547.9285637991769,1279.1785685675484,1539.7,551.6785637991769,1279.1785685675484,1644.2,551.6785637991769,1279.1785685675484,1744.5,551.6785637991769,1279.1785685675484,1849.4,551.6785637991769,1279.1785685675484,1949.5,551.6785637991769,1279.1785685675484,2049.5,551.6785637991769,1279.1785685675484,2150.3,551.6785637991769,1279.1785685675484,2254.3,551.6785637991769,1279.1785685675484,2359.3,551.6785637991769,1279.1785685675484,2464.5,551.6785637991769,1279.1785685675484,2569.9,551.6785637991769,1279.1785685675484,2674.9,551.6785637991769,1279.1785685675484,2779.9,551.6785637991769,1279.1785685675484,2884.7,551.6785637991769,1279.1785685675484,2984.7,551.6785637991769,1279.1785685675484,3089.6,551.6785637991769,1279.1785685675484,3194.2,551.6785637991769,1279.1785685675484,3294.2,551.6785637991769,1279.1785685675484,3399.6,551.6785637991769,1279.1785685675484,3504.1,551.6785637991769,1279.1785685675484,3604.2,551.6785637991769,1279.1785685675484,3709.5,551.6785637991769,1279.1785685675484,3814.5,551.6785637991769,1279.1785685675484,3919.2,551.6785637991769,1279.1785685675484,4019.2,551.6785637991769,1279.1785685675484,4119.4,551.6785637991769,1279.1785685675484,4225.5,551.6785637991769,1279.1785685675484,4329.5,551.6785637991769,1279.1785685675484,4429.7,551.6785637991769,1279.1785685675484,4529.9,551.6785637991769,1279.1785685675484,4634.6,551.6785637991769,1279.1785685675484,4734.9,551.6785637991769,1279.1785685675484,4839.1,551.6785637991769,1279.1785685675484,4944.7]","[1326.5,1326.5,1000,0,326.5,""oops"",""left"",""down"",""good_move"",3925.6,2598.9,2253.9,1326.7,345,""smooth"",""left"",""left"",""good_move"",7290.4,3364.6,3060.6,3925.8,304,""oops"",""left"",""left"",""good_move"",13560.4,6269.9,2557.6,10600.1,402.7,""smooth"",""down"",""down"",""good_move"",19561.5,6000.9,2398.1,16860.3,303.1,""smooth"",""down"",""down"",""good_move"",21604.3,2042.6,1703.7,19561.7,338.9,""smooth"",""left"",""left"",""good_move""]"
"1140","","<div style=""width:500px;"">
  <p>What determined the result of this run?</p>
  </div>","76","html-slider-response","69","781471","0.0-7.0-1.11","13","1","2025-07-30 08:38:40","36c45c0696341be0efffe67d72a12abb","188.78.170.120","Mozilla/5.0 (Windows NT 10.0; Win64; x64) AppleWebKit/537.36 (KHTML, like Gecko) Chrome/138.0.0.0 Safari/537.36","WebKit","Chrome","138.0.0.0","Windows","10.0","https://app.prolific.com/","es-ES,es;q=0.9","5883a935c0c9a10001df6345","687a19d2168e237449fb8af4","6889d9daabf956105bc9b364","0","5883a935c0c9a10001df6345","0","2025-07-30T08:51:44.042Z","","","","AttribQ","","","","","","","","","","","50","","","","","","","","","","","","","","","","","","","","","","","","","","",""
"3494","","<div style=""width:500px;"">
  <p>How much control did you have over the ball?</p>
  </div>","64","html-slider-response","70","784966","0.0-7.0-2.11","13","1","2025-07-30 08:38:40","36c45c0696341be0efffe67d72a12abb","188.78.170.120","Mozilla/5.0 (Windows NT 10.0; Win64; x64) AppleWebKit/537.36 (KHTML, like Gecko) Chrome/138.0.0.0 Safari/537.36","WebKit","Chrome","138.0.0.0","Windows","10.0","https://app.prolific.com/","es-ES,es;q=0.9","5883a935c0c9a10001df6345","687a19d2168e237449fb8af4","6889d9daabf956105bc9b364","0","5883a935c0c9a10001df6345","0","2025-07-30T08:51:47.537Z","","","","ControlQ","","","","","","","","","","","50","","","","","","","","","","","","","","","","","","","","","","","","","","",""
"1090","","<div style=""width:500px;"">
  <p>How would you describe your current emotional state?</p>
  </div>","50","html-slider-response","71","786056","0.0-7.0-3.11","13","1","2025-07-30 08:38:40","36c45c0696341be0efffe67d72a12abb","188.78.170.120","Mozilla/5.0 (Windows NT 10.0; Win64; x64) AppleWebKit/537.36 (KHTML, like Gecko) Chrome/138.0.0.0 Safari/537.36","WebKit","Chrome","138.0.0.0","Windows","10.0","https://app.prolific.com/","es-ES,es;q=0.9","5883a935c0c9a10001df6345","687a19d2168e237449fb8af4","6889d9daabf956105bc9b364","0","5883a935c0c9a10001df6345","0","2025-07-30T08:51:48.628Z","","","","StressQ","","","","","","","","","","","50","","","","","","","","","","","","","","","","","","","","","","","","","","",""
"658","","<div style=""width:500px;"">
  <p>What best describes how you currently feel?</p>
  </div>","50","html-slider-response","72","786715","0.0-7.0-4.11","13","1","2025-07-30 08:38:40","36c45c0696341be0efffe67d72a12abb","188.78.170.120","Mozilla/5.0 (Windows NT 10.0; Win64; x64) AppleWebKit/537.36 (KHTML, like Gecko) Chrome/138.0.0.0 Safari/537.36","WebKit","Chrome","138.0.0.0","Windows","10.0","https://app.prolific.com/","es-ES,es;q=0.9","5883a935c0c9a10001df6345","687a19d2168e237449fb8af4","6889d9daabf956105bc9b364","0","5883a935c0c9a10001df6345","0","2025-07-30T08:51:49.286Z","","","","MotivationQ","","","","","","","","","","","50","","","","","","","","","","","","","","","","","","","","","","","","","","",""
"","","","","ctl-task-cpt","73","803543","0.0-7.0-0.12","13","1","2025-07-30 08:38:40","36c45c0696341be0efffe67d72a12abb","188.78.170.120","Mozilla/5.0 (Windows NT 10.0; Win64; x64) AppleWebKit/537.36 (KHTML, like Gecko) Chrome/138.0.0.0 Safari/537.36","WebKit","Chrome","138.0.0.0","Windows","10.0","https://app.prolific.com/","es-ES,es;q=0.9","5883a935c0c9a10001df6345","687a19d2168e237449fb8af4","6889d9daabf956105bc9b364","0","5883a935c0c9a10001df6345","0","2025-07-30T08:52:06.114Z","","","","","","","","","","","","","","","","win-only","0","g1:NW,g2:SE","0.8","13","0","787838.9","536.1","5540.7","13810.9","1","4","4","6","1","1","1","15","14","0.11363636363636363","876.9","3000","1765","[""left"",""up""]","{""num_key_presses"":4,""num_perfect"":2,""num_errors"":0,""num_randdir"":2,""num_randdir_good_moves"":2,""num_whilered"":0,""num_whileblue"":0,""num_blue"":0,""num_good_moves"":4}","[556.6785637991769,564.1785685675485,0.1,556.6785637991769,564.1785685675485,100,556.6785637991769,564.1785685675485,200.8,556.6785637991769,564.1785685675485,304.4,556.6785637991769,564.1785685675485,409,556.6785637991769,564.1785685675485,509.6,420.4285637991769,429.1785685675485,614.1,132.9285637991769,215.4285685675485,714.4,95.4285637991769,144.1785685675485,814.8,91.6785637991769,129.1785685675485,918.9,92.9285637991769,135.4285685675485,1019.7,161.6785637991769,280.4285685675485,1124.3,292.9285637991769,549.1785685675485,1224.7,335.4285637991769,740.4285685675485,1329.6,375.4285637991769,777.9285685675485,1429.8,375.4285637991769,777.9285685675485,1530.1,311.6785637991769,835.4285685675485,1634.3,295.4285637991769,995.4285685675485,1735.9,291.6785637991769,1030.4285685675484,1839.2,279.1785637991769,1067.9285685675484,1944.7,277.9285637991769,1082.9285685675484,2050,295.4285637991769,1151.6785685675484,2154.1,325.4285637991769,1152.9285685675484,2254.8,325.4285637991769,1152.9285685675484,2360,326.6785637991769,1172.9285685675484,2464.9,365.4285637991769,1254.1785685675484,2564.9,365.4285637991769,1255.4285685675484,2664.9,365.4285637991769,1255.4285685675484,2769.6,365.4285637991769,1255.4285685675484,2874.8,365.4285637991769,1255.4285685675484,2979.3,365.4285637991769,1255.4285685675484,3079.3,365.4285637991769,1255.4285685675484,3184.8,365.4285637991769,1255.4285685675484,3289.4,365.4285637991769,1255.4285685675484,3394,365.4285637991769,1255.4285685675484,3494.6,365.4285637991769,1255.4285685675484,3600,365.4285637991769,1255.4285685675484,3700,365.4285637991769,1255.4285685675484,3804.6,365.4285637991769,1255.4285685675484,3904.8,365.4285637991769,1255.4285685675484,4010,365.4285637991769,1255.4285685675484,4113.9,365.4285637991769,1255.4285685675484,4214.5,365.4285637991769,1255.4285685675484,4314.7,365.4285637991769,1255.4285685675484,4414.9,365.4285637991769,1255.4285685675484,4514.9,365.4285637991769,1255.4285685675484,4620,365.4285637991769,1255.4285685675484,4723.9,365.4285637991769,1255.4285685675484,4824.6,365.4285637991769,1255.4285685675484,4924.9]","[1316.2,1316.2,1000,0,316.2,""smooth"",""up"",""up"",""good_move"",3728.3,2411.9,2096.3,1316.4,315.6,""oops"",""left"",""left"",""good_move"",6373,2644.5,2347.6,3728.5,296.9,""smooth"",""up"",""up"",""good_move"",8183.9,1810.7,1485.9,6373.2,324.8,""oops"",""left"",""left"",""good_move""]"
"2781","","<div style=""width:500px;"">
  <p>What determined the result of this run?</p>
  </div>","43","html-slider-response","74","806325","0.0-7.0-1.12","13","1","2025-07-30 08:38:40","36c45c0696341be0efffe67d72a12abb","188.78.170.120","Mozilla/5.0 (Windows NT 10.0; Win64; x64) AppleWebKit/537.36 (KHTML, like Gecko) Chrome/138.0.0.0 Safari/537.36","WebKit","Chrome","138.0.0.0","Windows","10.0","https://app.prolific.com/","es-ES,es;q=0.9","5883a935c0c9a10001df6345","687a19d2168e237449fb8af4","6889d9daabf956105bc9b364","0","5883a935c0c9a10001df6345","0","2025-07-30T08:52:08.896Z","","","","AttribQ","","","","","","","","","","","50","","","","","","","","","","","","","","","","","","","","","","","","","","",""
"1734","","<div style=""width:500px;"">
  <p>How much control did you have over the ball?</p>
  </div>","44","html-slider-response","75","808060","0.0-7.0-2.12","13","1","2025-07-30 08:38:40","36c45c0696341be0efffe67d72a12abb","188.78.170.120","Mozilla/5.0 (Windows NT 10.0; Win64; x64) AppleWebKit/537.36 (KHTML, like Gecko) Chrome/138.0.0.0 Safari/537.36","WebKit","Chrome","138.0.0.0","Windows","10.0","https://app.prolific.com/","es-ES,es;q=0.9","5883a935c0c9a10001df6345","687a19d2168e237449fb8af4","6889d9daabf956105bc9b364","0","5883a935c0c9a10001df6345","0","2025-07-30T08:52:10.631Z","","","","ControlQ","","","","","","","","","","","50","","","","","","","","","","","","","","","","","","","","","","","","","","",""
"1234","","<div style=""width:500px;"">
  <p>How would you describe your current emotional state?</p>
  </div>","57","html-slider-response","76","809295","0.0-7.0-3.12","13","1","2025-07-30 08:38:40","36c45c0696341be0efffe67d72a12abb","188.78.170.120","Mozilla/5.0 (Windows NT 10.0; Win64; x64) AppleWebKit/537.36 (KHTML, like Gecko) Chrome/138.0.0.0 Safari/537.36","WebKit","Chrome","138.0.0.0","Windows","10.0","https://app.prolific.com/","es-ES,es;q=0.9","5883a935c0c9a10001df6345","687a19d2168e237449fb8af4","6889d9daabf956105bc9b364","0","5883a935c0c9a10001df6345","0","2025-07-30T08:52:11.866Z","","","","StressQ","","","","","","","","","","","50","","","","","","","","","","","","","","","","","","","","","","","","","","",""
"820","","<div style=""width:500px;"">
  <p>What best describes how you currently feel?</p>
  </div>","51","html-slider-response","77","810116","0.0-7.0-4.12","13","1","2025-07-30 08:38:40","36c45c0696341be0efffe67d72a12abb","188.78.170.120","Mozilla/5.0 (Windows NT 10.0; Win64; x64) AppleWebKit/537.36 (KHTML, like Gecko) Chrome/138.0.0.0 Safari/537.36","WebKit","Chrome","138.0.0.0","Windows","10.0","https://app.prolific.com/","es-ES,es;q=0.9","5883a935c0c9a10001df6345","687a19d2168e237449fb8af4","6889d9daabf956105bc9b364","0","5883a935c0c9a10001df6345","0","2025-07-30T08:52:12.687Z","","","","MotivationQ","","","","","","","","","","","50","","","","","","","","","","","","","","","","","","","","","","","","","","",""
