"rt","response_timestamp","stimulus","response","trial_type","trial_index","time_elapsed","internal_node_id","run_id","condition","recorded_at","source_code_version","ip","user_agent","device","browser","browser_version","platform","platform_version","referer","accept_language","PROLIFIC_PID","STUDY_ID","SESSION_ID","BATCH","prolific_id","batch","realtime","success","question_order","question_id","eventType","responses","item_order","radio_event_ids","radio_event_times","key_event_times","mouse_event_times","straightlining","zigzagging","honeypot","view_history","slider_start","which_type","canvas_config","goals_layout","control_level","trial_number","tutorial_trial_number","trial_start_time","phase1_start_time","phase2_start_time","phase3_start_time","goal_1_value","goal_1_distance","goal_2_value","goal_2_distance","goal_selected","outcome","outcome_total","participant_final_score","participant_initial_score","participant_final_score_prop","goal_choice_rt","allocated_time","allocated_time_remaining","goal_direction","counts","mouse_movements","key_presses"
"1367","1754470123218","<p style='font-size:40px;line-height:1.25'><strong>Welcome to the experiment!</strong></p><p style='font-size:1.1em;line-height:1.25'>Thank you for participanting in our experiment again! You will be asked to play the Dysfunctional Ball Game again. We will briefly recap the rules before we start.</p><p style='font-size:1.1em;line-height:1.25'>Press <strong>Next</strong> to continue.</p>","0","custom-html-button-response","0","1373","0.0-0.0","120","1","2025-08-06 08:48:40","36c45c0696341be0efffe67d72a12abb","109.146.82.40","Mozilla/5.0 (Windows NT 10.0; Win64; x64) AppleWebKit/537.36 (KHTML, like Gecko) Chrome/138.0.0.0 Safari/537.36","WebKit","Chrome","138.0.0.0","Windows","10.0","https://app.prolific.com/","en-US,en;q=0.9","59cb95053306be000195be2e","6877649eabb845cf142cd221","689316da934685510b185f49","1","59cb95053306be000195be2e","1","2025-08-06T08:48:43.221Z","","","","","","","","","","","","","","","","","","","","","","","","","","","","","","","","","","","","","","","","","",""
"14848","","","","fullscreen","1","17235","0.0-1.0","120","1","2025-08-06 08:48:40","36c45c0696341be0efffe67d72a12abb","109.146.82.40","Mozilla/5.0 (Windows NT 10.0; Win64; x64) AppleWebKit/537.36 (KHTML, like Gecko) Chrome/138.0.0.0 Safari/537.36","WebKit","Chrome","138.0.0.0","Windows","10.0","https://app.prolific.com/","en-US,en;q=0.9","59cb95053306be000195be2e","6877649eabb845cf142cd221","689316da934685510b185f49","1","59cb95053306be000195be2e","1","","true","","","","","","","","","","","","","","","","","","","","","","","","","","","","","","","","","","","","","","","","",""
"2803","1754470141890"," <p style='font-size:1.1em;line-height:1.25'>Thank you for closing all other tabs.</p><p style='font-size:1.1em;line-height:1.25'>We will now invite you to fill in some questionnaires, before starting the game.<br>This will take about 5 minutes.<br></p><p style='font-size:1.1em;line-height:1.25'>Press the <strong>Next</strong> button to continue.</p>","0","custom-html-button-response","2","20043","0.0-2.0","120","1","2025-08-06 08:48:40","36c45c0696341be0efffe67d72a12abb","109.146.82.40","Mozilla/5.0 (Windows NT 10.0; Win64; x64) AppleWebKit/537.36 (KHTML, like Gecko) Chrome/138.0.0.0 Safari/537.36","WebKit","Chrome","138.0.0.0","Windows","10.0","https://app.prolific.com/","en-US,en;q=0.9","59cb95053306be000195be2e","6877649eabb845cf142cd221","689316da934685510b185f49","1","59cb95053306be000195be2e","1","2025-08-06T08:49:01.892Z","","","","","","","","","","","","","","","","","","","","","","","","","","","","","","","","","","","","","","","","","",""
"5314","","","{""assigned_sex"":""female""}","survey-multi-choice","3","25363","0.0-3.0-0.0","120","1","2025-08-06 08:48:40","36c45c0696341be0efffe67d72a12abb","109.146.82.40","Mozilla/5.0 (Windows NT 10.0; Win64; x64) AppleWebKit/537.36 (KHTML, like Gecko) Chrome/138.0.0.0 Safari/537.36","WebKit","Chrome","138.0.0.0","Windows","10.0","https://app.prolific.com/","en-US,en;q=0.9","59cb95053306be000195be2e","6877649eabb845cf142cd221","689316da934685510b185f49","1","59cb95053306be000195be2e","1","","","[0]","0","demographics","","","","","","","","","","","","","","","","","","","","","","","","","","","","","","","","","","","","","",""
"4500","1754470151713","<p style='font-size:1.1em;line-height:1.25'>In the following, we will perform a baseline assessment. This means that we will ask you a few questions relating to your experiences over the past month.<br></p><p style='font-size:1.1em;line-height:1.25'>Press the <strong>Next</strong> button to continue.</p>","0","custom-html-button-response","4","29866","0.0-4.0-0.0","120","1","2025-08-06 08:48:40","36c45c0696341be0efffe67d72a12abb","109.146.82.40","Mozilla/5.0 (Windows NT 10.0; Win64; x64) AppleWebKit/537.36 (KHTML, like Gecko) Chrome/138.0.0.0 Safari/537.36","WebKit","Chrome","138.0.0.0","Windows","10.0","https://app.prolific.com/","en-US,en;q=0.9","59cb95053306be000195be2e","6877649eabb845cf142cd221","689316da934685510b185f49","1","59cb95053306be000195be2e","1","2025-08-06T08:49:11.714Z","","","","","","","","","","","","","","","","","","","","","","","","","","","","","","","","","","","","","","","","","",""
"47293","","","","survey-template","5","77166","0.0-4.0-1.0","120","1","2025-08-06 08:48:40","36c45c0696341be0efffe67d72a12abb","109.146.82.40","Mozilla/5.0 (Windows NT 10.0; Win64; x64) AppleWebKit/537.36 (KHTML, like Gecko) Chrome/138.0.0.0 Safari/537.36","WebKit","Chrome","138.0.0.0","Windows","10.0","https://app.prolific.com/","en-US,en;q=0.9","59cb95053306be000195be2e","6877649eabb845cf142cd221","689316da934685510b185f49","1","59cb95053306be000195be2e","1","2025-08-06T08:49:59.014Z","","","","pss","{""Q01"":""1"",""Q02"":""1"",""Q03"":""2"",""Q04"":""4"",""Q05"":""4"",""Q06"":""2"",""Q07"":""2"",""Q08"":""3"",""Q09"":""2"",""Q10"":""1""}","[0,1,2,3,4,5,6,7,8,9]","[""Q01"",""Q02"",""Q02"",""Q03"",""Q04"",""Q05"",""Q06"",""Q07"",""Q08"",""Q09"",""Q10""]","[8086.100000143051,11167.5,12783.900000095367,15640.300000190735,18985.700000047684,22082,26413.900000095367,31250.60000014305,37455.200000047684,42812.5,46387.300000190735]","[0.20000004768371582]","[8086.100000143051,11167.5,12783.900000095367,15640.300000190735,18985.700000047684,22082,26413.900000095367,31250.60000014305,37455.200000047684,42812.5,46387.300000190735,47288.300000190735]","0.4","0.4444444444444444","0","","","","","","","","","","","","","","","","","","","","","","","","","","","","",""
"1832","1754470200848","<p style='font-size:1.1em;line-height:1.25'>Thank you for your answers! Now we will ask you a few more questions relating to your feelings in the last 24 hours.<br></p><p style='font-size:1.1em;line-height:1.25'>Press the <strong>Next</strong> button to continue.</p>","0","custom-html-button-response","6","79001","0.0-4.0-2.0","120","1","2025-08-06 08:48:40","36c45c0696341be0efffe67d72a12abb","109.146.82.40","Mozilla/5.0 (Windows NT 10.0; Win64; x64) AppleWebKit/537.36 (KHTML, like Gecko) Chrome/138.0.0.0 Safari/537.36","WebKit","Chrome","138.0.0.0","Windows","10.0","https://app.prolific.com/","en-US,en;q=0.9","59cb95053306be000195be2e","6877649eabb845cf142cd221","689316da934685510b185f49","1","59cb95053306be000195be2e","1","2025-08-06T08:50:00.849Z","","","","","","","","","","","","","","","","","","","","","","","","","","","","","","","","","","","","","","","","","",""
"72649.29999995232","","","","survey-template","7","151661","0.0-4.0-3.0","120","1","2025-08-06 08:48:40","36c45c0696341be0efffe67d72a12abb","109.146.82.40","Mozilla/5.0 (Windows NT 10.0; Win64; x64) AppleWebKit/537.36 (KHTML, like Gecko) Chrome/138.0.0.0 Safari/537.36","WebKit","Chrome","138.0.0.0","Windows","10.0","https://app.prolific.com/","en-US,en;q=0.9","59cb95053306be000195be2e","6877649eabb845cf142cd221","689316da934685510b185f49","1","59cb95053306be000195be2e","1","2025-08-06T08:51:13.510Z","","","","drsp","{""Q01"":""2"",""Q02"":""0"",""Q03"":""0"",""Q04"":""1"",""Q05"":""1"",""Q06"":""0"",""Q07"":""2"",""Q08"":""0"",""Q09"":""0"",""Q10"":""0"",""Q11"":""2"",""Q12"":""0"",""Q13"":""5"",""Q14"":""0"",""Q15"":""0"",""Q16"":""0"",""Q17"":""2"",""Q18"":""0"",""Q19"":""0"",""Q20"":""1"",""Q21"":""1"",""Q22"":""1""}","[0,1,2,3,4,5,6,7,8,9,10,11,12,13,14,15,16,17,18,19,20,21]","[""Q01"",""Q02"",""Q03"",""Q04"",""Q05"",""Q06"",""Q07"",""Q08"",""Q09"",""Q10"",""Q11"",""Q12"",""Q13"",""Q14"",""Q15"",""Q16"",""Q17"",""Q18"",""Q19"",""Q20"",""Q20"",""Q21"",""Q22""]","[6240.399999856949,8365.699999809265,9511.799999952316,11843.199999809265,14968.699999809265,17289.599999904633,19043.299999952316,21452.5,23626.599999904633,24646.099999904633,28563.799999952316,29905.099999904633,31512.299999952316,33529.799999952316,42036.199999809265,44519.89999985695,46733.39999985695,48182.799999952316,53706.799999952316,59702.89999985695,62259.09999990463,66442.79999995232,71811.89999985695]","[]","[0,6240.399999856949,8365.699999809265,9511.799999952316,11843.199999809265,14968.699999809265,17289.599999904633,19043.299999952316,21452.5,23626.599999904633,24646.099999904633,28563.799999952316,29905.099999904633,31512.299999952316,33529.799999952316,42036.199999809265,44519.89999985695,46733.39999985695,48182.799999952316,53706.799999952316,59702.89999985695,62259.09999990463,65786.29999995232,66442.79999995232,71811.89999985695,72635.79999995232]","0.5454545454545454","0.23809523809523808","0","","","","","","","","","","","","","","","","","","","","","","","","","","","","",""
"11834.799999952316","","","","survey-template","8","163501","0.0-4.0-4.0","120","1","2025-08-06 08:48:40","36c45c0696341be0efffe67d72a12abb","109.146.82.40","Mozilla/5.0 (Windows NT 10.0; Win64; x64) AppleWebKit/537.36 (KHTML, like Gecko) Chrome/138.0.0.0 Safari/537.36","WebKit","Chrome","138.0.0.0","Windows","10.0","https://app.prolific.com/","en-US,en;q=0.9","59cb95053306be000195be2e","6877649eabb845cf142cd221","689316da934685510b185f49","1","59cb95053306be000195be2e","1","2025-08-06T08:51:25.349Z","","","","stress","{""Q01"":""1"",""Q02"":""5"",""Q03"":""1""}","[0,1,2]","[""Q01"",""Q02"",""Q03""]","[3366.899999856949,7638.399999856949,11047.699999809265]","[]","[3366.899999856949,7638.399999856949,11047.699999809265,11832.099999904633]","0.6666666666666666","1","0","","","","","","","","","","","","","","","","","","","","","","","","","","","","",""
"13442","","","","instructions","9","176945","0.0-5.0-0.0","120","1","2025-08-06 08:48:40","36c45c0696341be0efffe67d72a12abb","109.146.82.40","Mozilla/5.0 (Windows NT 10.0; Win64; x64) AppleWebKit/537.36 (KHTML, like Gecko) Chrome/138.0.0.0 Safari/537.36","WebKit","Chrome","138.0.0.0","Windows","10.0","https://app.prolific.com/","en-US,en;q=0.9","59cb95053306be000195be2e","6877649eabb845cf142cd221","689316da934685510b185f49","1","59cb95053306be000195be2e","1","","","","","","","","","","","","","","","[{""page_index"":0,""viewing_time"":13441}]","","","","","","","","","","","","","","","","","","","","","","","","","","","",""
"3978","","<p>Before you start with this game please answer the following three questions yourself. </p>
  <p>Through this game, we measure several aspects of your cognitive performance, such as reaction times, multi-tasking capabilities </p>
  <p>and the ability to assess the situation you are in.</p>
  <p></p>
  <p><b>How good do you usually are in such tasks?</b></p>","67","html-slider-response","10","180928","0.0-6.0-0.0","120","1","2025-08-06 08:48:40","36c45c0696341be0efffe67d72a12abb","109.146.82.40","Mozilla/5.0 (Windows NT 10.0; Win64; x64) AppleWebKit/537.36 (KHTML, like Gecko) Chrome/138.0.0.0 Safari/537.36","WebKit","Chrome","138.0.0.0","Windows","10.0","https://app.prolific.com/","en-US,en;q=0.9","59cb95053306be000195be2e","6877649eabb845cf142cd221","689316da934685510b185f49","1","59cb95053306be000195be2e","1","2025-08-06T08:51:42.777Z","","","","PreSkillQ","","","","","","","","","","","50","","","","","","","","","","","","","","","","","","","","","","","","","","",""
"4043","","<div style=""width:500px;"">
  <p>How well do you think you will perform in this task compared to other participants?</p>
  </div>","49","html-slider-response","11","184974","0.0-6.0-1.0","120","1","2025-08-06 08:48:40","36c45c0696341be0efffe67d72a12abb","109.146.82.40","Mozilla/5.0 (Windows NT 10.0; Win64; x64) AppleWebKit/537.36 (KHTML, like Gecko) Chrome/138.0.0.0 Safari/537.36","WebKit","Chrome","138.0.0.0","Windows","10.0","https://app.prolific.com/","en-US,en;q=0.9","59cb95053306be000195be2e","6877649eabb845cf142cd221","689316da934685510b185f49","1","59cb95053306be000195be2e","1","2025-08-06T08:51:46.822Z","","","","PrePerfQ","","","","","","","","","","","50","","","","","","","","","","","","","","","","","","","","","","","","","","",""
"3670","","<div style=""width:500px;"">
  <p>What best describes how you currently feel?</p>
  </div>","80","html-slider-response","12","188648","0.0-6.0-2.0","120","1","2025-08-06 08:48:40","36c45c0696341be0efffe67d72a12abb","109.146.82.40","Mozilla/5.0 (Windows NT 10.0; Win64; x64) AppleWebKit/537.36 (KHTML, like Gecko) Chrome/138.0.0.0 Safari/537.36","WebKit","Chrome","138.0.0.0","Windows","10.0","https://app.prolific.com/","en-US,en;q=0.9","59cb95053306be000195be2e","6877649eabb845cf142cd221","689316da934685510b185f49","1","59cb95053306be000195be2e","1","2025-08-06T08:51:50.496Z","","","","PreMotivationQ","","","","","","","","","","","50","","","","","","","","","","","","","","","","","","","","","","","","","","",""
"","","","","ctl-task-cpt","13","217800","0.0-7.0-0.0","120","1","2025-08-06 08:48:40","36c45c0696341be0efffe67d72a12abb","109.146.82.40","Mozilla/5.0 (Windows NT 10.0; Win64; x64) AppleWebKit/537.36 (KHTML, like Gecko) Chrome/138.0.0.0 Safari/537.36","WebKit","Chrome","138.0.0.0","Windows","10.0","https://app.prolific.com/","en-US,en;q=0.9","59cb95053306be000195be2e","6877649eabb845cf142cd221","689316da934685510b185f49","1","59cb95053306be000195be2e","1","2025-08-06T08:52:19.648Z","","","","","","","","","","","","","","","","win-only","3","g1:SW,g2:NE","1","1","0","190630.6","5642.6","10649.4","26143","1","4","8","6","2","8","8","8","0","0.06060606060606061","1166.8","3000","955","[""up"",""right""]","{""num_key_presses"":6,""num_perfect"":6,""num_errors"":0,""num_randdir"":0,""num_randdir_good_moves"":0,""num_whilered"":0,""num_whileblue"":0,""num_blue"":0,""num_good_moves"":6}","[416.5714133126395,415.32142761775424,1.6,416.5714133126395,415.32142761775424,115.5,416.5714133126395,415.32142761775424,218.7,416.5714133126395,415.32142761775424,318.7,416.5714133126395,415.32142761775424,420.5,435.3214133126395,386.57142761775424,524.6,701.5714133126395,116.57142761775425,636.1,764.0714133126395,76.57142761775425,737.1,766.5714133126395,74.07142761775425,840.1,770.3214133126395,70.32142761775425,946.4,771.5714133126395,69.07142761775425,1049,771.5714133126395,69.07142761775425,1151.3,771.5714133126395,69.07142761775425,1253.8,771.5714133126395,69.07142761775425,1354.7,771.5714133126395,69.07142761775425,1458.8,771.5714133126395,69.07142761775425,1558.9,771.5714133126395,69.07142761775425,1659,771.5714133126395,69.07142761775425,1765.6,771.5714133126395,69.07142761775425,1869.1,771.5714133126395,69.07142761775425,1974.5,771.5714133126395,69.07142761775425,2074.7,771.5714133126395,69.07142761775425,2181.4,771.5714133126395,69.07142761775425,2282.4,771.5714133126395,69.07142761775425,2383.2,771.5714133126395,69.07142761775425,2483.8,771.5714133126395,69.07142761775425,2584.6,771.5714133126395,69.07142761775425,2688.8,771.5714133126395,69.07142761775425,2798.7,771.5714133126395,69.07142761775425,2899.1,771.5714133126395,69.07142761775425,2999.7,771.5714133126395,69.07142761775425,3103.5,771.5714133126395,69.07142761775425,3204.6,771.5714133126395,69.07142761775425,3308.3,771.5714133126395,69.07142761775425,3415.3,771.5714133126395,69.07142761775425,3518.6,771.5714133126395,69.07142761775425,3624.4,771.5714133126395,69.07142761775425,3725,771.5714133126395,69.07142761775425,3831.9,771.5714133126395,69.07142761775425,3934.9,771.5714133126395,69.07142761775425,4042.2,771.5714133126395,69.07142761775425,4148.6,771.5714133126395,69.07142761775425,4248.7,771.5714133126395,69.07142761775425,4353.4,771.5714133126395,69.07142761775425,4453.9,771.5714133126395,69.07142761775425,4554.6,771.5714133126395,69.07142761775425,4665,771.5714133126395,69.07142761775425,4765.2,771.5714133126395,69.07142761775425,4868.4,771.5714133126395,69.07142761775425,4979.1]","[1404.6,1404.6,1000,0,404.6,""smooth"",""right"",""right"",""good_move"",4481.5,3074.4,2681.5,1407.3,392.7,""smooth"",""right"",""right"",""good_move"",7245.4,2762.5,2391.3,4483,371.1,""smooth"",""right"",""right"",""good_move"",10228.1,2980.8,2671.9,7247.3,308.9,""smooth"",""up"",""up"",""good_move"",12490.8,2261.2,1912.2,10229.6,349,""smooth"",""up"",""up"",""good_move"",15391.7,2899.6,2539,12492.2,360.6,""smooth"",""up"",""up"",""good_move""]"
"4443","","<div style=""width:500px;"">
  <p>What determined the result of this run?</p>
  </div>","99","html-slider-response","14","222245","0.0-7.0-1.0","120","1","2025-08-06 08:48:40","36c45c0696341be0efffe67d72a12abb","109.146.82.40","Mozilla/5.0 (Windows NT 10.0; Win64; x64) AppleWebKit/537.36 (KHTML, like Gecko) Chrome/138.0.0.0 Safari/537.36","WebKit","Chrome","138.0.0.0","Windows","10.0","https://app.prolific.com/","en-US,en;q=0.9","59cb95053306be000195be2e","6877649eabb845cf142cd221","689316da934685510b185f49","1","59cb95053306be000195be2e","1","2025-08-06T08:52:24.093Z","","","","AttribQ","","","","","","","","","","","50","","","","","","","","","","","","","","","","","","","","","","","","","","",""
"3466","","<div style=""width:500px;"">
  <p>How much control did you have over the ball?</p>
  </div>","100","html-slider-response","15","225713","0.0-7.0-2.0","120","1","2025-08-06 08:48:40","36c45c0696341be0efffe67d72a12abb","109.146.82.40","Mozilla/5.0 (Windows NT 10.0; Win64; x64) AppleWebKit/537.36 (KHTML, like Gecko) Chrome/138.0.0.0 Safari/537.36","WebKit","Chrome","138.0.0.0","Windows","10.0","https://app.prolific.com/","en-US,en;q=0.9","59cb95053306be000195be2e","6877649eabb845cf142cd221","689316da934685510b185f49","1","59cb95053306be000195be2e","1","2025-08-06T08:52:27.561Z","","","","ControlQ","","","","","","","","","","","50","","","","","","","","","","","","","","","","","","","","","","","","","","",""
"3976","","<div style=""width:500px;"">
  <p>How would you describe your current emotional state?</p>
  </div>","17","html-slider-response","16","229692","0.0-7.0-3.0","120","1","2025-08-06 08:48:40","36c45c0696341be0efffe67d72a12abb","109.146.82.40","Mozilla/5.0 (Windows NT 10.0; Win64; x64) AppleWebKit/537.36 (KHTML, like Gecko) Chrome/138.0.0.0 Safari/537.36","WebKit","Chrome","138.0.0.0","Windows","10.0","https://app.prolific.com/","en-US,en;q=0.9","59cb95053306be000195be2e","6877649eabb845cf142cd221","689316da934685510b185f49","1","59cb95053306be000195be2e","1","2025-08-06T08:52:31.540Z","","","","StressQ","","","","","","","","","","","50","","","","","","","","","","","","","","","","","","","","","","","","","","",""
"4593","","<div style=""width:500px;"">
  <p>What best describes how you currently feel?</p>
  </div>","62","html-slider-response","17","234287","0.0-7.0-4.0","120","1","2025-08-06 08:48:40","36c45c0696341be0efffe67d72a12abb","109.146.82.40","Mozilla/5.0 (Windows NT 10.0; Win64; x64) AppleWebKit/537.36 (KHTML, like Gecko) Chrome/138.0.0.0 Safari/537.36","WebKit","Chrome","138.0.0.0","Windows","10.0","https://app.prolific.com/","en-US,en;q=0.9","59cb95053306be000195be2e","6877649eabb845cf142cd221","689316da934685510b185f49","1","59cb95053306be000195be2e","1","2025-08-06T08:52:36.136Z","","","","MotivationQ","","","","","","","","","","","50","","","","","","","","","","","","","","","","","","","","","","","","","","",""
"","","","","ctl-task-cpt","18","253324","0.0-7.0-0.1","120","1","2025-08-06 08:48:40","36c45c0696341be0efffe67d72a12abb","109.146.82.40","Mozilla/5.0 (Windows NT 10.0; Win64; x64) AppleWebKit/537.36 (KHTML, like Gecko) Chrome/138.0.0.0 Safari/537.36","WebKit","Chrome","138.0.0.0","Windows","10.0","https://app.prolific.com/","en-US,en;q=0.9","59cb95053306be000195be2e","6877649eabb845cf142cd221","689316da934685510b185f49","1","59cb95053306be000195be2e","1","2025-08-06T08:52:55.172Z","","","","","","","","","","","","","","","","win-only","2","g1:SE,g2:NW","0.9","2","0","236267.7","1414.5","6416.2","16017.3","1","4","4","6","1","1","1","9","8","0.06818181818181818","1591","3000","1370","[""down"",""right""]","{""num_key_presses"":4,""num_perfect"":4,""num_errors"":0,""num_randdir"":0,""num_randdir_good_moves"":0,""num_whilered"":0,""num_whileblue"":0,""num_blue"":0,""num_good_moves"":4}","[416.5714133126395,411.57142761775424,1.5,416.5714133126395,411.57142761775424,110.4,416.5714133126395,411.57142761775424,211.7,416.5714133126395,411.57142761775424,314.6,416.5714133126395,411.57142761775424,422.4,416.5714133126395,411.57142761775424,526.8,416.5714133126395,411.57142761775424,631.7,416.5714133126395,411.57142761775424,736.8,416.5714133126395,411.57142761775424,837.3,845.3214133126395,777.8214276177542,941.6,944.0714133126395,851.5714276177542,1042.9,944.0714133126395,851.5714276177542,1150.1,834.0714133126395,799.0714276177542,1257.6,742.8214133126395,747.8214276177542,1360,741.5714133126395,746.5714276177542,1462,741.5714133126395,746.5714276177542,1565.4,741.5714133126395,746.5714276177542,1669,741.5714133126395,746.5714276177542,1774.4,741.5714133126395,746.5714276177542,1877,741.5714133126395,746.5714276177542,1985.2,741.5714133126395,746.5714276177542,2087.2,741.5714133126395,746.5714276177542,2189.4,741.5714133126395,746.5714276177542,2292.2,741.5714133126395,746.5714276177542,2392.9,741.5714133126395,746.5714276177542,2497.7,741.5714133126395,746.5714276177542,2601.8,741.5714133126395,746.5714276177542,2702.1,741.5714133126395,746.5714276177542,2807.1,741.5714133126395,746.5714276177542,2911.9,741.5714133126395,746.5714276177542,3016.8,741.5714133126395,746.5714276177542,3122,741.5714133126395,746.5714276177542,3226.8,741.5714133126395,746.5714276177542,3327.1,741.5714133126395,746.5714276177542,3435.6,741.5714133126395,746.5714276177542,3536.6,741.5714133126395,746.5714276177542,3637.3,741.5714133126395,746.5714276177542,3742.9,741.5714133126395,746.5714276177542,3850.4,741.5714133126395,746.5714276177542,3952.3,741.5714133126395,746.5714276177542,4059.7,741.5714133126395,746.5714276177542,4165,741.5714133126395,746.5714276177542,4271.5,741.5714133126395,746.5714276177542,4372.6,741.5714133126395,746.5714276177542,4476.8,741.5714133126395,746.5714276177542,4576.9,741.5714133126395,746.5714276177542,4685,741.5714133126395,746.5714276177542,4786.2,741.5714133126395,746.5714276177542,4887.2,741.5714133126395,746.5714276177542,4992.3]","[1539.8,1539.8,1000,0,539.8,""smooth"",""right"",""right"",""good_move"",4387.1,2846.2,2444.4,1540.9,401.8,""smooth"",""right"",""right"",""good_move"",7286.5,2897.8,2391,4388.7,506.8,""smooth"",""down"",""down"",""good_move"",9485.8,2197.7,1708.5,7288.1,489.2,""smooth"",""down"",""down"",""good_move""]"
"7504","","<div style=""width:500px;"">
  <p>What determined the result of this run?</p>
  </div>","95","html-slider-response","19","260829","0.0-7.0-1.1","120","1","2025-08-06 08:48:40","36c45c0696341be0efffe67d72a12abb","109.146.82.40","Mozilla/5.0 (Windows NT 10.0; Win64; x64) AppleWebKit/537.36 (KHTML, like Gecko) Chrome/138.0.0.0 Safari/537.36","WebKit","Chrome","138.0.0.0","Windows","10.0","https://app.prolific.com/","en-US,en;q=0.9","59cb95053306be000195be2e","6877649eabb845cf142cd221","689316da934685510b185f49","1","59cb95053306be000195be2e","1","2025-08-06T08:53:02.678Z","","","","AttribQ","","","","","","","","","","","50","","","","","","","","","","","","","","","","","","","","","","","","","","",""
"6102","","<div style=""width:500px;"">
  <p>How much control did you have over the ball?</p>
  </div>","100","html-slider-response","20","266935","0.0-7.0-2.1","120","1","2025-08-06 08:48:40","36c45c0696341be0efffe67d72a12abb","109.146.82.40","Mozilla/5.0 (Windows NT 10.0; Win64; x64) AppleWebKit/537.36 (KHTML, like Gecko) Chrome/138.0.0.0 Safari/537.36","WebKit","Chrome","138.0.0.0","Windows","10.0","https://app.prolific.com/","en-US,en;q=0.9","59cb95053306be000195be2e","6877649eabb845cf142cd221","689316da934685510b185f49","1","59cb95053306be000195be2e","1","2025-08-06T08:53:08.784Z","","","","ControlQ","","","","","","","","","","","50","","","","","","","","","","","","","","","","","","","","","","","","","","",""
"2672","","<div style=""width:500px;"">
  <p>How would you describe your current emotional state?</p>
  </div>","17","html-slider-response","21","269611","0.0-7.0-3.1","120","1","2025-08-06 08:48:40","36c45c0696341be0efffe67d72a12abb","109.146.82.40","Mozilla/5.0 (Windows NT 10.0; Win64; x64) AppleWebKit/537.36 (KHTML, like Gecko) Chrome/138.0.0.0 Safari/537.36","WebKit","Chrome","138.0.0.0","Windows","10.0","https://app.prolific.com/","en-US,en;q=0.9","59cb95053306be000195be2e","6877649eabb845cf142cd221","689316da934685510b185f49","1","59cb95053306be000195be2e","1","2025-08-06T08:53:11.459Z","","","","StressQ","","","","","","","","","","","50","","","","","","","","","","","","","","","","","","","","","","","","","","",""
"4024","","<div style=""width:500px;"">
  <p>What best describes how you currently feel?</p>
  </div>","59","html-slider-response","22","273638","0.0-7.0-4.1","120","1","2025-08-06 08:48:40","36c45c0696341be0efffe67d72a12abb","109.146.82.40","Mozilla/5.0 (Windows NT 10.0; Win64; x64) AppleWebKit/537.36 (KHTML, like Gecko) Chrome/138.0.0.0 Safari/537.36","WebKit","Chrome","138.0.0.0","Windows","10.0","https://app.prolific.com/","en-US,en;q=0.9","59cb95053306be000195be2e","6877649eabb845cf142cd221","689316da934685510b185f49","1","59cb95053306be000195be2e","1","2025-08-06T08:53:15.486Z","","","","MotivationQ","","","","","","","","","","","50","","","","","","","","","","","","","","","","","","","","","","","","","","",""
"","","","","ctl-task-cpt","23","310619","0.0-7.0-0.2","120","1","2025-08-06 08:48:40","36c45c0696341be0efffe67d72a12abb","109.146.82.40","Mozilla/5.0 (Windows NT 10.0; Win64; x64) AppleWebKit/537.36 (KHTML, like Gecko) Chrome/138.0.0.0 Safari/537.36","WebKit","Chrome","138.0.0.0","Windows","10.0","https://app.prolific.com/","en-US,en;q=0.9","59cb95053306be000195be2e","6877649eabb845cf142cd221","689316da934685510b185f49","1","59cb95053306be000195be2e","1","2025-08-06T08:53:52.467Z","","","","","","","","","","","","","","","","win-only","3","g1:SW,g2:NE","0.8","3","0","275620.1","1163.3","6168.7","33962.6","1","4","4","6","2","-4","-5","4","9","0.030303030303030304","1177.4","3000","-2540","[""up"",""right""]","{""num_key_presses"":9,""num_perfect"":6,""num_errors"":1,""num_randdir"":2,""num_randdir_good_moves"":1,""num_whilered"":0,""num_whileblue"":1,""num_blue"":1,""num_good_moves"":7}","[419.0714133126395,425.32142761775424,2.2,419.0714133126395,425.32142761775424,102.7,419.0714133126395,425.32142761775424,203.1,419.0714133126395,425.32142761775424,303.7,419.0714133126395,425.32142761775424,414,417.8214133126395,424.07142761775424,518.6,636.5714133126395,215.32142761775424,620.2,660.3214133126395,177.82142761775424,722.5,660.3214133126395,176.57142761775424,824.1,660.3214133126395,176.57142761775424,937.1,744.0714133126395,89.07142761775425,1038.2,744.0714133126395,89.07142761775425,1145.8,744.0714133126395,89.07142761775425,1250.2,744.0714133126395,89.07142761775425,1350.7,744.0714133126395,89.07142761775425,1453,744.0714133126395,89.07142761775425,1553,744.0714133126395,89.07142761775425,1653,744.0714133126395,89.07142761775425,1757.9,744.0714133126395,89.07142761775425,1858.5,744.0714133126395,89.07142761775425,1959.3,744.0714133126395,89.07142761775425,2063.3,744.0714133126395,89.07142761775425,2164.1,744.0714133126395,89.07142761775425,2268.4,744.0714133126395,89.07142761775425,2373.3,744.0714133126395,89.07142761775425,2473.5,744.0714133126395,89.07142761775425,2578.6,744.0714133126395,89.07142761775425,2678.8,744.0714133126395,89.07142761775425,2779.4,744.0714133126395,89.07142761775425,2882.5,744.0714133126395,89.07142761775425,2985.9,744.0714133126395,89.07142761775425,3089,744.0714133126395,89.07142761775425,3193.6,744.0714133126395,89.07142761775425,3298,744.0714133126395,89.07142761775425,3398.8,744.0714133126395,89.07142761775425,3503.2,744.0714133126395,89.07142761775425,3609.8,744.0714133126395,89.07142761775425,3712,744.0714133126395,89.07142761775425,3817.3,744.0714133126395,89.07142761775425,3917.9,744.0714133126395,89.07142761775425,4018.6,744.0714133126395,89.07142761775425,4125.2,744.0714133126395,89.07142761775425,4226.7,744.0714133126395,89.07142761775425,4328.8,744.0714133126395,89.07142761775425,4432.7,744.0714133126395,89.07142761775425,4532.8,744.0714133126395,89.07142761775425,4633.5,744.0714133126395,89.07142761775425,4743.3,744.0714133126395,89.07142761775425,4847.3,744.0714133126395,89.07142761775425,4950]","[1472.8,1472.8,1000,0,472.8,""smooth"",""right"",""right"",""good_move"",4461.2,2987.1,2581.4,1474.1,405.7,""smooth"",""right"",""right"",""good_move"",7581.5,3118.9,2668.9,4462.6,450,""smooth"",""right"",""right"",""good_move"",10751.9,3168.5,2734.2,7583.4,434.3,""smooth"",""up"",""up"",""good_move"",12875.6,2121.9,1612.4,10753.7,509.5,""smooth"",""up"",""up"",""good_move"",16068.8,3191.7,2740,12877.1,451.7,""oops"",""up"",""left"",""bad_move"",19070,2998.7,2425.3,16071.4,573.4,""oops"",""up"",""up"",""good_move"",21983.5,2906.5,2415.9,19077.1,490.5,""while_blue"",""right"",""down"",""bad_move"",24899.9,2908.5,2487.1,21991.4,421.4,""smooth"",""right"",""right"",""good_move""]"
"3682","","<div style=""width:500px;"">
  <p>What determined the result of this run?</p>
  </div>","55","html-slider-response","24","314304","0.0-7.0-1.2","120","1","2025-08-06 08:48:40","36c45c0696341be0efffe67d72a12abb","109.146.82.40","Mozilla/5.0 (Windows NT 10.0; Win64; x64) AppleWebKit/537.36 (KHTML, like Gecko) Chrome/138.0.0.0 Safari/537.36","WebKit","Chrome","138.0.0.0","Windows","10.0","https://app.prolific.com/","en-US,en;q=0.9","59cb95053306be000195be2e","6877649eabb845cf142cd221","689316da934685510b185f49","1","59cb95053306be000195be2e","1","2025-08-06T08:53:56.152Z","","","","AttribQ","","","","","","","","","","","50","","","","","","","","","","","","","","","","","","","","","","","","","","",""
"4729","","<div style=""width:500px;"">
  <p>How much control did you have over the ball?</p>
  </div>","54","html-slider-response","25","319035","0.0-7.0-2.2","120","1","2025-08-06 08:48:40","36c45c0696341be0efffe67d72a12abb","109.146.82.40","Mozilla/5.0 (Windows NT 10.0; Win64; x64) AppleWebKit/537.36 (KHTML, like Gecko) Chrome/138.0.0.0 Safari/537.36","WebKit","Chrome","138.0.0.0","Windows","10.0","https://app.prolific.com/","en-US,en;q=0.9","59cb95053306be000195be2e","6877649eabb845cf142cd221","689316da934685510b185f49","1","59cb95053306be000195be2e","1","2025-08-06T08:54:00.883Z","","","","ControlQ","","","","","","","","","","","50","","","","","","","","","","","","","","","","","","","","","","","","","","",""
"7644","","<div style=""width:500px;"">
  <p>How would you describe your current emotional state?</p>
  </div>","33","html-slider-response","26","326681","0.0-7.0-3.2","120","1","2025-08-06 08:48:40","36c45c0696341be0efffe67d72a12abb","109.146.82.40","Mozilla/5.0 (Windows NT 10.0; Win64; x64) AppleWebKit/537.36 (KHTML, like Gecko) Chrome/138.0.0.0 Safari/537.36","WebKit","Chrome","138.0.0.0","Windows","10.0","https://app.prolific.com/","en-US,en;q=0.9","59cb95053306be000195be2e","6877649eabb845cf142cd221","689316da934685510b185f49","1","59cb95053306be000195be2e","1","2025-08-06T08:54:08.530Z","","","","StressQ","","","","","","","","","","","50","","","","","","","","","","","","","","","","","","","","","","","","","","",""
"2532","","<div style=""width:500px;"">
  <p>What best describes how you currently feel?</p>
  </div>","53","html-slider-response","27","329216","0.0-7.0-4.2","120","1","2025-08-06 08:48:40","36c45c0696341be0efffe67d72a12abb","109.146.82.40","Mozilla/5.0 (Windows NT 10.0; Win64; x64) AppleWebKit/537.36 (KHTML, like Gecko) Chrome/138.0.0.0 Safari/537.36","WebKit","Chrome","138.0.0.0","Windows","10.0","https://app.prolific.com/","en-US,en;q=0.9","59cb95053306be000195be2e","6877649eabb845cf142cd221","689316da934685510b185f49","1","59cb95053306be000195be2e","1","2025-08-06T08:54:11.065Z","","","","MotivationQ","","","","","","","","","","","50","","","","","","","","","","","","","","","","","","","","","","","","","","",""
"","","","","ctl-task-cpt","28","353244","0.0-7.0-0.3","120","1","2025-08-06 08:48:40","36c45c0696341be0efffe67d72a12abb","109.146.82.40","Mozilla/5.0 (Windows NT 10.0; Win64; x64) AppleWebKit/537.36 (KHTML, like Gecko) Chrome/138.0.0.0 Safari/537.36","WebKit","Chrome","138.0.0.0","Windows","10.0","https://app.prolific.com/","en-US,en;q=0.9","59cb95053306be000195be2e","6877649eabb845cf142cd221","689316da934685510b185f49","1","59cb95053306be000195be2e","1","2025-08-06T08:54:35.092Z","","","","","","","","","","","","","","","","win-only","3","g1:SW,g2:NE","0.7","4","0","331204.2","1023.4","6025.6","21005.9","1","4","8","6","1","1","1","5","4","0.03787878787878788","1231.7","3000","1245","[""down"",""left""]","{""num_key_presses"":6,""num_perfect"":5,""num_errors"":0,""num_randdir"":1,""num_randdir_good_moves"":0,""num_whilered"":0,""num_whileblue"":0,""num_blue"":0,""num_good_moves"":5}","[419.0714133126395,411.57142761775424,0.1,419.0714133126395,411.57142761775424,110.7,419.0714133126395,411.57142761775424,213.7,419.0714133126395,411.57142761775424,319.4,430.3214133126395,406.57142761775424,430.4,339.0714133126395,546.5714276177542,536.9,241.5714133126395,626.5714276177542,637.7,240.3214133126395,626.5714276177542,738.7,240.3214133126395,626.5714276177542,838.7,120.3214133126395,685.3214276177542,940.7,96.5714133126395,711.5714276177542,1044.2,79.0714133126395,725.3214276177542,1144.4,76.5714133126395,726.5714276177542,1247.7,76.5714133126395,726.5714276177542,1350.1,76.5714133126395,726.5714276177542,1450.9,76.5714133126395,726.5714276177542,1553.9,76.5714133126395,726.5714276177542,1657.4,76.5714133126395,726.5714276177542,1768.2,76.5714133126395,726.5714276177542,1868.5,76.5714133126395,726.5714276177542,1969.1,76.5714133126395,726.5714276177542,2074.5,76.5714133126395,726.5714276177542,2179.9,76.5714133126395,726.5714276177542,2283.1,76.5714133126395,726.5714276177542,2384.4,76.5714133126395,726.5714276177542,2499.3,76.5714133126395,726.5714276177542,2601.7,76.5714133126395,726.5714276177542,2703.4,76.5714133126395,726.5714276177542,2803.8,76.5714133126395,726.5714276177542,2909.4,76.5714133126395,726.5714276177542,3020.3,76.5714133126395,726.5714276177542,3131.9,76.5714133126395,726.5714276177542,3233.3,76.5714133126395,726.5714276177542,3333.4,76.5714133126395,726.5714276177542,3434.2,76.5714133126395,726.5714276177542,3537,76.5714133126395,726.5714276177542,3639.4,76.5714133126395,726.5714276177542,3748.5,76.5714133126395,726.5714276177542,3848.7,76.5714133126395,726.5714276177542,3949.7,76.5714133126395,726.5714276177542,4057.8,76.5714133126395,726.5714276177542,4158.1,76.5714133126395,726.5714276177542,4263.9,76.5714133126395,726.5714276177542,4364.8,76.5714133126395,726.5714276177542,4467.5,76.5714133126395,726.5714276177542,4567.9,76.5714133126395,726.5714276177542,4667.9,76.5714133126395,726.5714276177542,4768.1,76.5714133126395,726.5714276177542,4876.5,76.5714133126395,726.5714276177542,4982.6]","[1432.4,1432.4,1000,0,432.4,""smooth"",""left"",""left"",""good_move"",4031.4,2597.5,2140.9,1433.9,456.6,""smooth"",""left"",""left"",""good_move"",6437,2404.2,2037.2,4032.9,366.9,""smooth"",""down"",""down"",""good_move"",8896.4,2456.5,2141.7,6439.9,314.8,""oops"",""down"",""right"",""bad_move"",11687.6,2789.3,2412.2,8898.3,377.1,""smooth"",""down"",""down"",""good_move"",14831.6,3141.8,2725.7,11689.8,416.1,""smooth"",""left"",""left"",""good_move""]"
"3932","","<div style=""width:500px;"">
  <p>What determined the result of this run?</p>
  </div>","76","html-slider-response","29","357177","0.0-7.0-1.3","120","1","2025-08-06 08:48:40","36c45c0696341be0efffe67d72a12abb","109.146.82.40","Mozilla/5.0 (Windows NT 10.0; Win64; x64) AppleWebKit/537.36 (KHTML, like Gecko) Chrome/138.0.0.0 Safari/537.36","WebKit","Chrome","138.0.0.0","Windows","10.0","https://app.prolific.com/","en-US,en;q=0.9","59cb95053306be000195be2e","6877649eabb845cf142cd221","689316da934685510b185f49","1","59cb95053306be000195be2e","1","2025-08-06T08:54:39.026Z","","","","AttribQ","","","","","","","","","","","50","","","","","","","","","","","","","","","","","","","","","","","","","","",""
"3359","","<div style=""width:500px;"">
  <p>How much control did you have over the ball?</p>
  </div>","65","html-slider-response","30","360539","0.0-7.0-2.3","120","1","2025-08-06 08:48:40","36c45c0696341be0efffe67d72a12abb","109.146.82.40","Mozilla/5.0 (Windows NT 10.0; Win64; x64) AppleWebKit/537.36 (KHTML, like Gecko) Chrome/138.0.0.0 Safari/537.36","WebKit","Chrome","138.0.0.0","Windows","10.0","https://app.prolific.com/","en-US,en;q=0.9","59cb95053306be000195be2e","6877649eabb845cf142cd221","689316da934685510b185f49","1","59cb95053306be000195be2e","1","2025-08-06T08:54:42.387Z","","","","ControlQ","","","","","","","","","","","50","","","","","","","","","","","","","","","","","","","","","","","","","","",""
"2770","","<div style=""width:500px;"">
  <p>How would you describe your current emotional state?</p>
  </div>","41","html-slider-response","31","363311","0.0-7.0-3.3","120","1","2025-08-06 08:48:40","36c45c0696341be0efffe67d72a12abb","109.146.82.40","Mozilla/5.0 (Windows NT 10.0; Win64; x64) AppleWebKit/537.36 (KHTML, like Gecko) Chrome/138.0.0.0 Safari/537.36","WebKit","Chrome","138.0.0.0","Windows","10.0","https://app.prolific.com/","en-US,en;q=0.9","59cb95053306be000195be2e","6877649eabb845cf142cd221","689316da934685510b185f49","1","59cb95053306be000195be2e","1","2025-08-06T08:54:45.160Z","","","","StressQ","","","","","","","","","","","50","","","","","","","","","","","","","","","","","","","","","","","","","","",""
"2298","","<div style=""width:500px;"">
  <p>What best describes how you currently feel?</p>
  </div>","54","html-slider-response","32","365612","0.0-7.0-4.3","120","1","2025-08-06 08:48:40","36c45c0696341be0efffe67d72a12abb","109.146.82.40","Mozilla/5.0 (Windows NT 10.0; Win64; x64) AppleWebKit/537.36 (KHTML, like Gecko) Chrome/138.0.0.0 Safari/537.36","WebKit","Chrome","138.0.0.0","Windows","10.0","https://app.prolific.com/","en-US,en;q=0.9","59cb95053306be000195be2e","6877649eabb845cf142cd221","689316da934685510b185f49","1","59cb95053306be000195be2e","1","2025-08-06T08:54:47.460Z","","","","MotivationQ","","","","","","","","","","","50","","","","","","","","","","","","","","","","","","","","","","","","","","",""
"","","","","ctl-task-cpt","33","406230","0.0-7.0-0.4","120","1","2025-08-06 08:48:40","36c45c0696341be0efffe67d72a12abb","109.146.82.40","Mozilla/5.0 (Windows NT 10.0; Win64; x64) AppleWebKit/537.36 (KHTML, like Gecko) Chrome/138.0.0.0 Safari/537.36","WebKit","Chrome","138.0.0.0","Windows","10.0","https://app.prolific.com/","en-US,en;q=0.9","59cb95053306be000195be2e","6877649eabb845cf142cd221","689316da934685510b185f49","1","59cb95053306be000195be2e","1","2025-08-06T08:55:28.078Z","","","","","","","","","","","","","","","","win-only","1","g1:NE,g2:SW","0.6","5","0","367593.7","962.8","5971.8","37602.9","1","4","4","6","2","-4","-4","1","5","0.007575757575757576","1876.7","3000","-1805","[""down"",""left""]","{""num_key_presses"":11,""num_perfect"":6,""num_errors"":0,""num_randdir"":5,""num_randdir_good_moves"":1,""num_whilered"":0,""num_whileblue"":0,""num_blue"":0,""num_good_moves"":7}","[416.5714133126395,416.57142761775424,3,416.5714133126395,416.57142761775424,100.9,416.5714133126395,416.57142761775424,203.5,416.5714133126395,416.57142761775424,307.5,416.5714133126395,416.57142761775424,408,416.5714133126395,416.57142761775424,524.3,486.5714133126395,317.82142761775424,627.6,570.3214133126395,229.07142761775424,728.4,572.8214133126395,226.57142761775424,832.7,572.8214133126395,226.57142761775424,939.6,684.0714133126395,97.82142761775425,1044.1,687.8214133126395,96.57142761775425,1157.1,377.8214133126395,522.8214276177542,1265.1,151.5714133126395,674.0714276177542,1372.8,147.8214133126395,676.5714276177542,1473.9,147.8214133126395,676.5714276177542,1583.2,114.0714133126395,710.3214276177542,1684.3,96.5714133126395,735.3214276177542,1791.9,95.3214133126395,739.0714276177542,1894.3,95.3214133126395,739.0714276177542,2002.3,95.3214133126395,739.0714276177542,2102.9,95.3214133126395,739.0714276177542,2209.9,95.3214133126395,739.0714276177542,2312.4,95.3214133126395,739.0714276177542,2425.5,95.3214133126395,739.0714276177542,2527.5,95.3214133126395,739.0714276177542,2641.4,95.3214133126395,739.0714276177542,2751.5,95.3214133126395,739.0714276177542,2852.1,95.3214133126395,739.0714276177542,2952.9,95.3214133126395,739.0714276177542,3060,95.3214133126395,739.0714276177542,3171.7,95.3214133126395,739.0714276177542,3275,95.3214133126395,739.0714276177542,3375.1,95.3214133126395,739.0714276177542,3480.9,95.3214133126395,739.0714276177542,3581.5,95.3214133126395,739.0714276177542,3683,95.3214133126395,739.0714276177542,3783.5,95.3214133126395,739.0714276177542,3884.9,95.3214133126395,739.0714276177542,3987.7,95.3214133126395,739.0714276177542,4090.5,95.3214133126395,739.0714276177542,4196.1,95.3214133126395,739.0714276177542,4302.1,95.3214133126395,739.0714276177542,4402.8,95.3214133126395,739.0714276177542,4511.8,95.3214133126395,739.0714276177542,4612.9,95.3214133126395,739.0714276177542,4714.7,95.3214133126395,739.0714276177542,4817.2,95.3214133126395,739.0714276177542,4917.7]","[1453.2,1453.2,1000,0,453.2,""oops"",""down"",""right"",""bad_move"",3868.9,2411.3,1969.4,1457.7,441.8,""smooth"",""down"",""down"",""good_move"",7037.3,3166.1,2734.5,3871.2,431.6,""smooth"",""down"",""down"",""good_move"",10128.6,3088.3,2756.4,7040.3,331.9,""smooth"",""down"",""down"",""good_move"",13248.8,3118.3,2725.8,10131.5,392.9,""smooth"",""left"",""left"",""good_move"",15784.6,2527.9,2119,13256.7,408.9,""smooth"",""left"",""left"",""good_move"",18304.4,2512.8,2138.7,15791.6,374.1,""smooth"",""left"",""left"",""good_move"",21553.6,3247.7,2919.5,18306.1,328,""oops"",""left"",""right"",""bad_move"",23792.1,2234.2,1811.6,21557.9,422.6,""oops"",""left"",""up"",""bad_move"",26352.8,2558.5,2180.5,23794.3,378,""oops"",""left"",""down"",""good_move"",28725.5,2371.2,1891.6,26354.3,479.6,""oops"",""left"",""up"",""bad_move""]"
"4472","","<div style=""width:500px;"">
  <p>What determined the result of this run?</p>
  </div>","19","html-slider-response","34","410704","0.0-7.0-1.4","120","1","2025-08-06 08:48:40","36c45c0696341be0efffe67d72a12abb","109.146.82.40","Mozilla/5.0 (Windows NT 10.0; Win64; x64) AppleWebKit/537.36 (KHTML, like Gecko) Chrome/138.0.0.0 Safari/537.36","WebKit","Chrome","138.0.0.0","Windows","10.0","https://app.prolific.com/","en-US,en;q=0.9","59cb95053306be000195be2e","6877649eabb845cf142cd221","689316da934685510b185f49","1","59cb95053306be000195be2e","1","2025-08-06T08:55:32.552Z","","","","AttribQ","","","","","","","","","","","50","","","","","","","","","","","","","","","","","","","","","","","","","","",""
"3280","","<div style=""width:500px;"">
  <p>How much control did you have over the ball?</p>
  </div>","38","html-slider-response","35","413988","0.0-7.0-2.4","120","1","2025-08-06 08:48:40","36c45c0696341be0efffe67d72a12abb","109.146.82.40","Mozilla/5.0 (Windows NT 10.0; Win64; x64) AppleWebKit/537.36 (KHTML, like Gecko) Chrome/138.0.0.0 Safari/537.36","WebKit","Chrome","138.0.0.0","Windows","10.0","https://app.prolific.com/","en-US,en;q=0.9","59cb95053306be000195be2e","6877649eabb845cf142cd221","689316da934685510b185f49","1","59cb95053306be000195be2e","1","2025-08-06T08:55:35.836Z","","","","ControlQ","","","","","","","","","","","50","","","","","","","","","","","","","","","","","","","","","","","","","","",""
"2580","","<div style=""width:500px;"">
  <p>How would you describe your current emotional state?</p>
  </div>","48","html-slider-response","36","416571","0.0-7.0-3.4","120","1","2025-08-06 08:48:40","36c45c0696341be0efffe67d72a12abb","109.146.82.40","Mozilla/5.0 (Windows NT 10.0; Win64; x64) AppleWebKit/537.36 (KHTML, like Gecko) Chrome/138.0.0.0 Safari/537.36","WebKit","Chrome","138.0.0.0","Windows","10.0","https://app.prolific.com/","en-US,en;q=0.9","59cb95053306be000195be2e","6877649eabb845cf142cd221","689316da934685510b185f49","1","59cb95053306be000195be2e","1","2025-08-06T08:55:38.419Z","","","","StressQ","","","","","","","","","","","50","","","","","","","","","","","","","","","","","","","","","","","","","","",""
"1879","","<div style=""width:500px;"">
  <p>What best describes how you currently feel?</p>
  </div>","12","html-slider-response","37","418453","0.0-7.0-4.4","120","1","2025-08-06 08:48:40","36c45c0696341be0efffe67d72a12abb","109.146.82.40","Mozilla/5.0 (Windows NT 10.0; Win64; x64) AppleWebKit/537.36 (KHTML, like Gecko) Chrome/138.0.0.0 Safari/537.36","WebKit","Chrome","138.0.0.0","Windows","10.0","https://app.prolific.com/","en-US,en;q=0.9","59cb95053306be000195be2e","6877649eabb845cf142cd221","689316da934685510b185f49","1","59cb95053306be000195be2e","1","2025-08-06T08:55:40.301Z","","","","MotivationQ","","","","","","","","","","","50","","","","","","","","","","","","","","","","","","","","","","","","","","",""
"","","","","ctl-task-cpt","38","490103","0.0-7.0-0.5","120","1","2025-08-06 08:48:40","36c45c0696341be0efffe67d72a12abb","109.146.82.40","Mozilla/5.0 (Windows NT 10.0; Win64; x64) AppleWebKit/537.36 (KHTML, like Gecko) Chrome/138.0.0.0 Safari/537.36","WebKit","Chrome","138.0.0.0","Windows","10.0","https://app.prolific.com/","en-US,en;q=0.9","59cb95053306be000195be2e","6877649eabb845cf142cd221","689316da934685510b185f49","1","59cb95053306be000195be2e","1","2025-08-06T08:56:51.952Z","","","","","","","","","","","","","","","","win-only","1","g1:NE,g2:SW","0.5","6","0","420444.2","1478.5","6480.7","68614.9","1","4","8","6","1","1","-2","0","1","0","1118","3000","180","[""up"",""right""]","{""num_key_presses"":18,""num_perfect"":7,""num_errors"":3,""num_randdir"":8,""num_randdir_good_moves"":2,""num_whilered"":0,""num_whileblue"":1,""num_blue"":4,""num_good_moves"":10}","[421.5714133126395,421.57142761775424,0.7,421.5714133126395,421.57142761775424,107.5,421.5714133126395,421.57142761775424,221.4,421.5714133126395,421.57142761775424,328.5,421.5714133126395,421.57142761775424,433.1,421.5714133126395,421.57142761775424,552.6,396.5714133126395,444.07142761775424,666,731.5714133126395,50.32142761775425,783.4,737.8214133126395,41.57142761775425,890.4,737.8214133126395,41.57142761775425,993.1,737.8214133126395,41.57142761775425,1094.8,737.8214133126395,41.57142761775425,1196,737.8214133126395,41.57142761775425,1302.5,737.8214133126395,41.57142761775425,1411.9,737.8214133126395,41.57142761775425,1519.7,737.8214133126395,41.57142761775425,1621.3,737.8214133126395,41.57142761775425,1727.6,737.8214133126395,41.57142761775425,1835.5,737.8214133126395,41.57142761775425,1938.7,737.8214133126395,41.57142761775425,2050.9,737.8214133126395,41.57142761775425,2156.6,737.8214133126395,41.57142761775425,2258.8,737.8214133126395,41.57142761775425,2363.4,737.8214133126395,41.57142761775425,2468.2,737.8214133126395,41.57142761775425,2571.3,737.8214133126395,41.57142761775425,2676.3,737.8214133126395,41.57142761775425,2778.5,737.8214133126395,41.57142761775425,2884.3,737.8214133126395,41.57142761775425,2988.7,737.8214133126395,41.57142761775425,3093.5,737.8214133126395,41.57142761775425,3204.7,737.8214133126395,41.57142761775425,3306.1,737.8214133126395,41.57142761775425,3411.9,737.8214133126395,41.57142761775425,3517.6,737.8214133126395,41.57142761775425,3625.6,737.8214133126395,41.57142761775425,3728.2,737.8214133126395,41.57142761775425,3837.4,737.8214133126395,41.57142761775425,3946.6,737.8214133126395,41.57142761775425,4051.5,737.8214133126395,41.57142761775425,4165.8,737.8214133126395,41.57142761775425,4275.9,737.8214133126395,41.57142761775425,4387.3,737.8214133126395,41.57142761775425,4498.1,737.8214133126395,41.57142761775425,4601.8,737.8214133126395,41.57142761775425,4710.2,737.8214133126395,41.57142761775425,4810.8,737.8214133126395,41.57142761775425,4912.8]","[1438.6,1438.6,1000,0,438.6,""smooth"",""right"",""right"",""good_move"",4434.9,2994.1,2593.2,1440.8,400.9,""smooth"",""right"",""right"",""good_move"",7440.4,2999.6,2660.4,4440.8,339.2,""smooth"",""up"",""up"",""good_move"",10142.1,2696,2332,7446.1,364,""oops"",""up"",""left"",""bad_move"",12640.4,2494.9,2049.2,10145.5,445.7,""oops"",""up"",""left"",""bad_move"",16098.2,3455.9,3111.4,12642.4,344.5,""while_blue"",""up"",""right"",""good_move"",19241.5,3141.8,2777.2,16099.7,364.6,""oops"",""up"",""left"",""bad_move"",20345.9,1101,2231.6,19244.9,-1130.6,""error"",""-"",""-"",""no_move"",31353.8,11003.2,3397.4,28692.7,-736.3,""error"",""-"",""-"",""no_move"",35204.3,3849.3,2324.5,32362.1,517.7,""smooth"",""up"",""up"",""good_move"",41945.5,6737.3,2828.3,38558.6,558.6,""oops"",""right"",""down"",""bad_move"",44859.6,2908,2439.8,41951.6,468.2,""oops"",""right"",""down"",""bad_move"",48203.4,3340.6,2930.4,44862.8,410.2,""smooth"",""right"",""right"",""good_move"",51025.6,2815.3,2422,48210.3,393.3,""smooth"",""right"",""right"",""good_move"",53770,2742.3,2371.8,51027.7,370.6,""oops"",""up"",""up"",""good_move"",56805.8,3032.9,2663.8,53773.1,368.9,""oops"",""up"",""left"",""bad_move"",59449.6,2635.8,2242.3,56813.8,393.5,""oops"",""up"",""right"",""good_move"",61956.7,2495.4,2068.9,59461.3,426.5,""smooth"",""up"",""up"",""good_move""]"
"3628","","<div style=""width:500px;"">
  <p>What determined the result of this run?</p>
  </div>","12","html-slider-response","39","493734","0.0-7.0-1.5","120","1","2025-08-06 08:48:40","36c45c0696341be0efffe67d72a12abb","109.146.82.40","Mozilla/5.0 (Windows NT 10.0; Win64; x64) AppleWebKit/537.36 (KHTML, like Gecko) Chrome/138.0.0.0 Safari/537.36","WebKit","Chrome","138.0.0.0","Windows","10.0","https://app.prolific.com/","en-US,en;q=0.9","59cb95053306be000195be2e","6877649eabb845cf142cd221","689316da934685510b185f49","1","59cb95053306be000195be2e","1","2025-08-06T08:56:55.582Z","","","","AttribQ","","","","","","","","","","","50","","","","","","","","","","","","","","","","","","","","","","","","","","",""
"3210","","<div style=""width:500px;"">
  <p>How much control did you have over the ball?</p>
  </div>","48","html-slider-response","40","496947","0.0-7.0-2.5","120","1","2025-08-06 08:48:40","36c45c0696341be0efffe67d72a12abb","109.146.82.40","Mozilla/5.0 (Windows NT 10.0; Win64; x64) AppleWebKit/537.36 (KHTML, like Gecko) Chrome/138.0.0.0 Safari/537.36","WebKit","Chrome","138.0.0.0","Windows","10.0","https://app.prolific.com/","en-US,en;q=0.9","59cb95053306be000195be2e","6877649eabb845cf142cd221","689316da934685510b185f49","1","59cb95053306be000195be2e","1","2025-08-06T08:56:58.796Z","","","","ControlQ","","","","","","","","","","","50","","","","","","","","","","","","","","","","","","","","","","","","","","",""
"2881","","<div style=""width:500px;"">
  <p>How would you describe your current emotional state?</p>
  </div>","68","html-slider-response","41","499836","0.0-7.0-3.5","120","1","2025-08-06 08:48:40","36c45c0696341be0efffe67d72a12abb","109.146.82.40","Mozilla/5.0 (Windows NT 10.0; Win64; x64) AppleWebKit/537.36 (KHTML, like Gecko) Chrome/138.0.0.0 Safari/537.36","WebKit","Chrome","138.0.0.0","Windows","10.0","https://app.prolific.com/","en-US,en;q=0.9","59cb95053306be000195be2e","6877649eabb845cf142cd221","689316da934685510b185f49","1","59cb95053306be000195be2e","1","2025-08-06T08:57:01.684Z","","","","StressQ","","","","","","","","","","","50","","","","","","","","","","","","","","","","","","","","","","","","","","",""
"2673","","<div style=""width:500px;"">
  <p>What best describes how you currently feel?</p>
  </div>","7","html-slider-response","42","502511","0.0-7.0-4.5","120","1","2025-08-06 08:48:40","36c45c0696341be0efffe67d72a12abb","109.146.82.40","Mozilla/5.0 (Windows NT 10.0; Win64; x64) AppleWebKit/537.36 (KHTML, like Gecko) Chrome/138.0.0.0 Safari/537.36","WebKit","Chrome","138.0.0.0","Windows","10.0","https://app.prolific.com/","en-US,en;q=0.9","59cb95053306be000195be2e","6877649eabb845cf142cd221","689316da934685510b185f49","1","59cb95053306be000195be2e","1","2025-08-06T08:57:04.359Z","","","","MotivationQ","","","","","","","","","","","50","","","","","","","","","","","","","","","","","","","","","","","","","","",""
"","","","","ctl-task-cpt","43","533766","0.0-7.0-0.6","120","1","2025-08-06 08:48:40","36c45c0696341be0efffe67d72a12abb","109.146.82.40","Mozilla/5.0 (Windows NT 10.0; Win64; x64) AppleWebKit/537.36 (KHTML, like Gecko) Chrome/138.0.0.0 Safari/537.36","WebKit","Chrome","138.0.0.0","Windows","10.0","https://app.prolific.com/","en-US,en;q=0.9","59cb95053306be000195be2e","6877649eabb845cf142cd221","689316da934685510b185f49","1","59cb95053306be000195be2e","1","2025-08-06T08:57:35.614Z","","","","","","","","","","","","","","","","win-only","1","g1:NE,g2:SW","0.4","7","0","504495.5","1090.8","6100","28221.2","1","4","4","6","1","1","1","1","0","0.007575757575757576","1509.5","3000","2415","[""up"",""right""]","{""num_key_presses"":4,""num_perfect"":2,""num_errors"":0,""num_randdir"":2,""num_randdir_good_moves"":2,""num_whilered"":0,""num_whileblue"":0,""num_blue"":3,""num_good_moves"":4}","[406.5714133126395,420.32142761775424,1.1,406.5714133126395,420.32142761775424,104,406.5714133126395,420.32142761775424,206.6,406.5714133126395,420.32142761775424,315.9,406.5714133126395,420.32142761775424,421.8,406.5714133126395,420.32142761775424,532.5,595.3214133126395,241.57142761775424,640.2,622.8214133126395,214.07142761775424,742,622.8214133126395,214.07142761775424,852.6,622.8214133126395,214.07142761775424,952.8,535.3214133126395,229.07142761775424,1061.9,722.8214133126395,75.32142761775425,1179.1,741.5714133126395,66.57142761775425,1283.3,744.0714133126395,66.57142761775425,1387.8,745.3214133126395,65.32142761775425,1500.4,745.3214133126395,65.32142761775425,1609.5,745.3214133126395,65.32142761775425,1713.3,745.3214133126395,65.32142761775425,1818.2,745.3214133126395,65.32142761775425,1923.3,745.3214133126395,65.32142761775425,2037,745.3214133126395,65.32142761775425,2137.1,745.3214133126395,65.32142761775425,2239.4,745.3214133126395,65.32142761775425,2341.7,745.3214133126395,65.32142761775425,2446.8,745.3214133126395,65.32142761775425,2554.5,745.3214133126395,65.32142761775425,2662,745.3214133126395,65.32142761775425,2768.8,745.3214133126395,65.32142761775425,2871.1,745.3214133126395,65.32142761775425,2983.3,745.3214133126395,65.32142761775425,3086.5,745.3214133126395,65.32142761775425,3186.6,745.3214133126395,65.32142761775425,3287,745.3214133126395,65.32142761775425,3387.4,745.3214133126395,65.32142761775425,3495.2,745.3214133126395,65.32142761775425,3604.4,745.3214133126395,65.32142761775425,3707.4,745.3214133126395,65.32142761775425,3809.5,745.3214133126395,65.32142761775425,3918.1,745.3214133126395,65.32142761775425,4025.7,745.3214133126395,65.32142761775425,4133.1,745.3214133126395,65.32142761775425,4240.6,745.3214133126395,65.32142761775425,4347.4,745.3214133126395,65.32142761775425,4450.8,745.3214133126395,65.32142761775425,4550.8,745.3214133126395,65.32142761775425,4652.3,745.3214133126395,65.32142761775425,4753.6,745.3214133126395,65.32142761775425,4866.1,745.3214133126395,65.32142761775425,4968.2]","[1492.3,1492.3,1000,0,492.3,""smooth"",""up"",""up"",""good_move"",7532.5,6038.9,2253.8,4903.7,375.1,""oops"",""right"",""up"",""good_move"",13900.7,6364.5,2161.3,11312.4,427,""oops"",""right"",""right"",""good_move"",21748.3,7834,2985.1,18357.3,405.9,""smooth"",""right"",""right"",""good_move""]"
"3900","","<div style=""width:500px;"">
  <p>What determined the result of this run?</p>
  </div>","66","html-slider-response","44","537670","0.0-7.0-1.6","120","1","2025-08-06 08:48:40","36c45c0696341be0efffe67d72a12abb","109.146.82.40","Mozilla/5.0 (Windows NT 10.0; Win64; x64) AppleWebKit/537.36 (KHTML, like Gecko) Chrome/138.0.0.0 Safari/537.36","WebKit","Chrome","138.0.0.0","Windows","10.0","https://app.prolific.com/","en-US,en;q=0.9","59cb95053306be000195be2e","6877649eabb845cf142cd221","689316da934685510b185f49","1","59cb95053306be000195be2e","1","2025-08-06T08:57:39.518Z","","","","AttribQ","","","","","","","","","","","50","","","","","","","","","","","","","","","","","","","","","","","","","","",""
"4170","","<div style=""width:500px;"">
  <p>How much control did you have over the ball?</p>
  </div>","62","html-slider-response","45","541844","0.0-7.0-2.6","120","1","2025-08-06 08:48:40","36c45c0696341be0efffe67d72a12abb","109.146.82.40","Mozilla/5.0 (Windows NT 10.0; Win64; x64) AppleWebKit/537.36 (KHTML, like Gecko) Chrome/138.0.0.0 Safari/537.36","WebKit","Chrome","138.0.0.0","Windows","10.0","https://app.prolific.com/","en-US,en;q=0.9","59cb95053306be000195be2e","6877649eabb845cf142cd221","689316da934685510b185f49","1","59cb95053306be000195be2e","1","2025-08-06T08:57:43.693Z","","","","ControlQ","","","","","","","","","","","50","","","","","","","","","","","","","","","","","","","","","","","","","","",""
"3221","","<div style=""width:500px;"">
  <p>How would you describe your current emotional state?</p>
  </div>","56","html-slider-response","46","545069","0.0-7.0-3.6","120","1","2025-08-06 08:48:40","36c45c0696341be0efffe67d72a12abb","109.146.82.40","Mozilla/5.0 (Windows NT 10.0; Win64; x64) AppleWebKit/537.36 (KHTML, like Gecko) Chrome/138.0.0.0 Safari/537.36","WebKit","Chrome","138.0.0.0","Windows","10.0","https://app.prolific.com/","en-US,en;q=0.9","59cb95053306be000195be2e","6877649eabb845cf142cd221","689316da934685510b185f49","1","59cb95053306be000195be2e","1","2025-08-06T08:57:46.917Z","","","","StressQ","","","","","","","","","","","50","","","","","","","","","","","","","","","","","","","","","","","","","","",""
"4314","","<div style=""width:500px;"">
  <p>What best describes how you currently feel?</p>
  </div>","36","html-slider-response","47","549388","0.0-7.0-4.6","120","1","2025-08-06 08:48:40","36c45c0696341be0efffe67d72a12abb","109.146.82.40","Mozilla/5.0 (Windows NT 10.0; Win64; x64) AppleWebKit/537.36 (KHTML, like Gecko) Chrome/138.0.0.0 Safari/537.36","WebKit","Chrome","138.0.0.0","Windows","10.0","https://app.prolific.com/","en-US,en;q=0.9","59cb95053306be000195be2e","6877649eabb845cf142cd221","689316da934685510b185f49","1","59cb95053306be000195be2e","1","2025-08-06T08:57:51.237Z","","","","MotivationQ","","","","","","","","","","","50","","","","","","","","","","","","","","","","","","","","","","","","","","",""
"","","","","ctl-task-cpt","48","693056","0.0-7.0-0.7","120","1","2025-08-06 08:48:40","36c45c0696341be0efffe67d72a12abb","109.146.82.40","Mozilla/5.0 (Windows NT 10.0; Win64; x64) AppleWebKit/537.36 (KHTML, like Gecko) Chrome/138.0.0.0 Safari/537.36","WebKit","Chrome","138.0.0.0","Windows","10.0","https://app.prolific.com/","en-US,en;q=0.9","59cb95053306be000195be2e","6877649eabb845cf142cd221","689316da934685510b185f49","1","59cb95053306be000195be2e","1","2025-08-06T09:00:14.904Z","","","","","","","","","","","","","","","","win-only","1","g1:NE,g2:SW","0.3","8","0","551375.6","969.7","5995.3","140646.8","1","4","8","6","1","-1","-2","0","1","0","1607.6","3000","-1180","[""up"",""right""]","{""num_key_presses"":22,""num_perfect"":6,""num_errors"":1,""num_randdir"":15,""num_randdir_good_moves"":5,""num_whilered"":0,""num_whileblue"":0,""num_blue"":5,""num_good_moves"":11}","[426.5714133126395,421.57142761775424,2.3,426.5714133126395,421.57142761775424,125.5,426.5714133126395,421.57142761775424,251.2,426.5714133126395,421.57142761775424,352.9,426.5714133126395,421.57142761775424,455.4,426.5714133126395,421.57142761775424,563,564.0714133126395,195.32142761775424,695.4,602.8214133126395,142.82142761775424,814.8,607.8214133126395,141.57142761775424,932.6,670.3214133126395,121.57142761775425,1056.7,687.8214133126395,111.57142761775425,1176.9,700.3214133126395,102.82142761775425,1295,700.3214133126395,102.82142761775425,1415.7,716.5714133126395,101.57142761775425,1551,720.3214133126395,101.57142761775425,1679.1,720.3214133126395,101.57142761775425,1793.2,720.3214133126395,101.57142761775425,1897.2,720.3214133126395,101.57142761775425,1998.7,720.3214133126395,101.57142761775425,2116.7,720.3214133126395,101.57142761775425,2242.4,720.3214133126395,101.57142761775425,2347.9,720.3214133126395,101.57142761775425,2478.4,720.3214133126395,101.57142761775425,2610.7,720.3214133126395,101.57142761775425,2742,720.3214133126395,101.57142761775425,2869,720.3214133126395,101.57142761775425,2972.1,720.3214133126395,101.57142761775425,3082.7,720.3214133126395,101.57142761775425,3190.5,720.3214133126395,101.57142761775425,3295.7,720.3214133126395,101.57142761775425,3427.8,720.3214133126395,101.57142761775425,3559.5,720.3214133126395,101.57142761775425,3689.4,720.3214133126395,101.57142761775425,3824.4,720.3214133126395,101.57142761775425,3963.7,720.3214133126395,101.57142761775425,4102.2,720.3214133126395,101.57142761775425,4207.9,720.3214133126395,101.57142761775425,4315.3,720.3214133126395,101.57142761775425,4447.4,720.3214133126395,101.57142761775425,4579.5,720.3214133126395,101.57142761775425,4679.9,720.3214133126395,101.57142761775425,4814.3,720.3214133126395,101.57142761775425,4914.7]","[1958,1958,1000,0,958,""smooth"",""right"",""right"",""good_move"",5063.1,3103.9,2688.2,1959.2,415.7,""oops"",""right"",""down"",""bad_move"",8101.7,3034.5,2662.6,5067.2,371.9,""oops"",""right"",""left"",""bad_move"",14481.8,6377.9,2443.1,8103.9,3934.8,""smooth"",""up"",""up"",""good_move"",20900.2,6417,2544.2,14483.2,3872.8,""smooth"",""up"",""up"",""good_move"",27601.1,6690.6,2870.1,20910.5,3820.6,""oops"",""up"",""right"",""good_move"",30806,3204,2711.2,27602.3,492.8,""oops"",""up"",""down"",""bad_move"",35428.7,4619.9,3873.7,30808.8,746.2,""oops"",""right"",""up"",""good_move"",42070.1,6639.7,2941.9,35430.4,3697.8,""oops"",""right"",""up"",""good_move"",49499.9,7428.7,2413.5,42071.2,5015.2,""oops"",""right"",""down"",""bad_move"",56242.5,6741.3,2698.9,53180.2,363.4,""oops"",""right"",""left"",""bad_move"",64126.2,7882.4,3040.5,56243.8,4841.9,""oops"",""right"",""left"",""bad_move"",71345.7,7217.9,2579.6,64127.8,4638.4,""oops"",""up"",""up"",""good_move"",78722.9,7376,2115.1,71346.9,5260.9,""smooth"",""right"",""right"",""good_move"",82027.9,3304,2844.2,78724,459.7,""oops"",""right"",""down"",""bad_move"",87974.5,5944.8,2282.3,82029.7,3662.5,""oops"",""right"",""down"",""bad_move"",93242.7,5266.6,2961.2,87976.1,2305.4,""oops"",""right"",""down"",""bad_move"",96459.3,3213.5,2657.5,93245.8,556,""oops"",""right"",""left"",""bad_move"",108041.1,11580.2,2295.2,107073,-1327.1,""error"",""-"",""-"",""no_move"",116675.3,8632.8,2532.9,113645,497.5,""smooth"",""right"",""right"",""good_move"",123076.4,6388.9,2246,120199.6,630.8,""smooth"",""right"",""right"",""good_move"",130902.7,7807.6,2849,127403.3,650.4,""oops"",""right"",""up"",""good_move""]"
"5102","","<div style=""width:500px;"">
  <p>What determined the result of this run?</p>
  </div>","4","html-slider-response","49","698161","0.0-7.0-1.7","120","1","2025-08-06 08:48:40","36c45c0696341be0efffe67d72a12abb","109.146.82.40","Mozilla/5.0 (Windows NT 10.0; Win64; x64) AppleWebKit/537.36 (KHTML, like Gecko) Chrome/138.0.0.0 Safari/537.36","WebKit","Chrome","138.0.0.0","Windows","10.0","https://app.prolific.com/","en-US,en;q=0.9","59cb95053306be000195be2e","6877649eabb845cf142cd221","689316da934685510b185f49","1","59cb95053306be000195be2e","1","2025-08-06T09:00:20.009Z","","","","AttribQ","","","","","","","","","","","50","","","","","","","","","","","","","","","","","","","","","","","","","","",""
"3981","","<div style=""width:500px;"">
  <p>How much control did you have over the ball?</p>
  </div>","13","html-slider-response","50","702148","0.0-7.0-2.7","120","1","2025-08-06 08:48:40","36c45c0696341be0efffe67d72a12abb","109.146.82.40","Mozilla/5.0 (Windows NT 10.0; Win64; x64) AppleWebKit/537.36 (KHTML, like Gecko) Chrome/138.0.0.0 Safari/537.36","WebKit","Chrome","138.0.0.0","Windows","10.0","https://app.prolific.com/","en-US,en;q=0.9","59cb95053306be000195be2e","6877649eabb845cf142cd221","689316da934685510b185f49","1","59cb95053306be000195be2e","1","2025-08-06T09:00:23.997Z","","","","ControlQ","","","","","","","","","","","50","","","","","","","","","","","","","","","","","","","","","","","","","","",""
"2561","","<div style=""width:500px;"">
  <p>How would you describe your current emotional state?</p>
  </div>","86","html-slider-response","51","704714","0.0-7.0-3.7","120","1","2025-08-06 08:48:40","36c45c0696341be0efffe67d72a12abb","109.146.82.40","Mozilla/5.0 (Windows NT 10.0; Win64; x64) AppleWebKit/537.36 (KHTML, like Gecko) Chrome/138.0.0.0 Safari/537.36","WebKit","Chrome","138.0.0.0","Windows","10.0","https://app.prolific.com/","en-US,en;q=0.9","59cb95053306be000195be2e","6877649eabb845cf142cd221","689316da934685510b185f49","1","59cb95053306be000195be2e","1","2025-08-06T09:00:26.562Z","","","","StressQ","","","","","","","","","","","50","","","","","","","","","","","","","","","","","","","","","","","","","","",""
"2897","","<div style=""width:500px;"">
  <p>What best describes how you currently feel?</p>
  </div>","11","html-slider-response","52","707614","0.0-7.0-4.7","120","1","2025-08-06 08:48:40","36c45c0696341be0efffe67d72a12abb","109.146.82.40","Mozilla/5.0 (Windows NT 10.0; Win64; x64) AppleWebKit/537.36 (KHTML, like Gecko) Chrome/138.0.0.0 Safari/537.36","WebKit","Chrome","138.0.0.0","Windows","10.0","https://app.prolific.com/","en-US,en;q=0.9","59cb95053306be000195be2e","6877649eabb845cf142cd221","689316da934685510b185f49","1","59cb95053306be000195be2e","1","2025-08-06T09:00:29.462Z","","","","MotivationQ","","","","","","","","","","","50","","","","","","","","","","","","","","","","","","","","","","","","","","",""
"","","","","ctl-task-cpt","53","729236","0.0-7.0-0.8","120","1","2025-08-06 08:48:40","36c45c0696341be0efffe67d72a12abb","109.146.82.40","Mozilla/5.0 (Windows NT 10.0; Win64; x64) AppleWebKit/537.36 (KHTML, like Gecko) Chrome/138.0.0.0 Safari/537.36","WebKit","Chrome","138.0.0.0","Windows","10.0","https://app.prolific.com/","en-US,en;q=0.9","59cb95053306be000195be2e","6877649eabb845cf142cd221","689316da934685510b185f49","1","59cb95053306be000195be2e","1","2025-08-06T09:00:51.085Z","","","","","","","","","","","","","","","","win-only","2","g1:SE,g2:NW","0.4","9","0","709596.9","1396.3","6424.7","18577.4","1","4","4","6","1","1","1","1","0","0.007575757575757576","1722.8","3000","2670","[""down"",""right""]","{""num_key_presses"":4,""num_perfect"":3,""num_errors"":0,""num_randdir"":1,""num_randdir_good_moves"":1,""num_whilered"":0,""num_whileblue"":0,""num_blue"":0,""num_good_moves"":4}","[414.0714133126395,426.57142761775424,0.9,414.0714133126395,426.57142761775424,111.2,414.0714133126395,426.57142761775424,212.6,414.0714133126395,426.57142761775424,315.5,414.0714133126395,426.57142761775424,426.1,414.0714133126395,426.57142761775424,533.9,414.0714133126395,426.57142761775424,635.2,414.0714133126395,426.57142761775424,738.1,414.0714133126395,426.57142761775424,867,657.8214133126395,716.5714276177542,1016.8,666.5714133126395,726.5714276177542,1144.8,760.3214133126395,802.8214276177542,1268.8,770.3214133126395,812.8214276177542,1385.9,770.3214133126395,812.8214276177542,1495.3,771.5714133126395,805.3214276177542,1611.1,771.5714133126395,796.5714276177542,1756,771.5714133126395,796.5714276177542,1874.1,771.5714133126395,796.5714276177542,1995.5,771.5714133126395,796.5714276177542,2116.2,771.5714133126395,796.5714276177542,2239.5,771.5714133126395,796.5714276177542,2359.7,771.5714133126395,796.5714276177542,2460.6,771.5714133126395,796.5714276177542,2564.1,771.5714133126395,796.5714276177542,2668.5,771.5714133126395,796.5714276177542,2792.6,771.5714133126395,796.5714276177542,2912.2,771.5714133126395,796.5714276177542,3015.6,771.5714133126395,796.5714276177542,3119.6,771.5714133126395,796.5714276177542,3243.6,771.5714133126395,796.5714276177542,3344.8,771.5714133126395,796.5714276177542,3467.4,771.5714133126395,796.5714276177542,3567.7,771.5714133126395,796.5714276177542,3667.8,771.5714133126395,796.5714276177542,3788.3,771.5714133126395,796.5714276177542,3890.3,771.5714133126395,796.5714276177542,3991.8,771.5714133126395,796.5714276177542,4117.4,771.5714133126395,796.5714276177542,4243.9,771.5714133126395,796.5714276177542,4348.9,771.5714133126395,796.5714276177542,4468.4,771.5714133126395,796.5714276177542,4573.9,771.5714133126395,796.5714276177542,4677.3,771.5714133126395,796.5714276177542,4780.1,771.5714133126395,796.5714276177542,4880.3,771.5714133126395,796.5714276177542,4999.6]","[1456.1,1456.1,1000,0,456.2,""oops"",""right"",""right"",""good_move"",5179.4,3721.9,3277.6,1457.5,444.3,""smooth"",""right"",""right"",""good_move"",7854.2,2673,2101.5,5181.2,571.5,""smooth"",""down"",""down"",""good_move"",11616.6,3760,3323.3,7856.6,436.7,""smooth"",""down"",""down"",""good_move""]"
"3998","","<div style=""width:500px;"">
  <p>What determined the result of this run?</p>
  </div>","96","html-slider-response","54","733238","0.0-7.0-1.8","120","1","2025-08-06 08:48:40","36c45c0696341be0efffe67d72a12abb","109.146.82.40","Mozilla/5.0 (Windows NT 10.0; Win64; x64) AppleWebKit/537.36 (KHTML, like Gecko) Chrome/138.0.0.0 Safari/537.36","WebKit","Chrome","138.0.0.0","Windows","10.0","https://app.prolific.com/","en-US,en;q=0.9","59cb95053306be000195be2e","6877649eabb845cf142cd221","689316da934685510b185f49","1","59cb95053306be000195be2e","1","2025-08-06T09:00:55.087Z","","","","AttribQ","","","","","","","","","","","50","","","","","","","","","","","","","","","","","","","","","","","","","","",""
"2512","","<div style=""width:500px;"">
  <p>How much control did you have over the ball?</p>
  </div>","52","html-slider-response","55","735754","0.0-7.0-2.8","120","1","2025-08-06 08:48:40","36c45c0696341be0efffe67d72a12abb","109.146.82.40","Mozilla/5.0 (Windows NT 10.0; Win64; x64) AppleWebKit/537.36 (KHTML, like Gecko) Chrome/138.0.0.0 Safari/537.36","WebKit","Chrome","138.0.0.0","Windows","10.0","https://app.prolific.com/","en-US,en;q=0.9","59cb95053306be000195be2e","6877649eabb845cf142cd221","689316da934685510b185f49","1","59cb95053306be000195be2e","1","2025-08-06T09:00:57.602Z","","","","ControlQ","","","","","","","","","","","50","","","","","","","","","","","","","","","","","","","","","","","","","","",""
"3163","","<div style=""width:500px;"">
  <p>How would you describe your current emotional state?</p>
  </div>","37","html-slider-response","56","738922","0.0-7.0-3.8","120","1","2025-08-06 08:48:40","36c45c0696341be0efffe67d72a12abb","109.146.82.40","Mozilla/5.0 (Windows NT 10.0; Win64; x64) AppleWebKit/537.36 (KHTML, like Gecko) Chrome/138.0.0.0 Safari/537.36","WebKit","Chrome","138.0.0.0","Windows","10.0","https://app.prolific.com/","en-US,en;q=0.9","59cb95053306be000195be2e","6877649eabb845cf142cd221","689316da934685510b185f49","1","59cb95053306be000195be2e","1","2025-08-06T09:01:00.770Z","","","","StressQ","","","","","","","","","","","50","","","","","","","","","","","","","","","","","","","","","","","","","","",""
"3010","","<div style=""width:500px;"">
  <p>What best describes how you currently feel?</p>
  </div>","22","html-slider-response","57","741937","0.0-7.0-4.8","120","1","2025-08-06 08:48:40","36c45c0696341be0efffe67d72a12abb","109.146.82.40","Mozilla/5.0 (Windows NT 10.0; Win64; x64) AppleWebKit/537.36 (KHTML, like Gecko) Chrome/138.0.0.0 Safari/537.36","WebKit","Chrome","138.0.0.0","Windows","10.0","https://app.prolific.com/","en-US,en;q=0.9","59cb95053306be000195be2e","6877649eabb845cf142cd221","689316da934685510b185f49","1","59cb95053306be000195be2e","1","2025-08-06T09:01:03.785Z","","","","MotivationQ","","","","","","","","","","","50","","","","","","","","","","","","","","","","","","","","","","","","","","",""
"","","","","ctl-task-cpt","58","811198","0.0-7.0-0.9","120","1","2025-08-06 08:48:40","36c45c0696341be0efffe67d72a12abb","109.146.82.40","Mozilla/5.0 (Windows NT 10.0; Win64; x64) AppleWebKit/537.36 (KHTML, like Gecko) Chrome/138.0.0.0 Safari/537.36","WebKit","Chrome","138.0.0.0","Windows","10.0","https://app.prolific.com/","en-US,en;q=0.9","59cb95053306be000195be2e","6877649eabb845cf142cd221","689316da934685510b185f49","1","59cb95053306be000195be2e","1","2025-08-06T09:02:13.046Z","","","","","","","","","","","","","","","","win-only","2","g1:SE,g2:NW","0.5","10","0","743919.8","1273.1","6303.5","66234.7","1","4","8","6","1","-1","-1","0","1","0","3359.2","3000","-885","[""down"",""right""]","{""num_key_presses"":6,""num_perfect"":1,""num_errors"":0,""num_randdir"":5,""num_randdir_good_moves"":1,""num_whilered"":0,""num_whileblue"":0,""num_blue"":2,""num_good_moves"":2}","[420.3214133126395,420.32142761775424,1.1,420.3214133126395,420.32142761775424,112.9,420.3214133126395,420.32142761775424,244.1,420.3214133126395,420.32142761775424,369.5,420.3214133126395,420.32142761775424,504.9,420.3214133126395,420.32142761775424,637.3,420.3214133126395,420.32142761775424,762.3,420.3214133126395,420.32142761775424,891.8,420.3214133126395,420.32142761775424,1011.8,420.3214133126395,420.32142761775424,1144.8,420.3214133126395,420.32142761775424,1269.2,420.3214133126395,420.32142761775424,1395.3,420.3214133126395,420.32142761775424,1514.2,420.3214133126395,420.32142761775424,1637.6,420.3214133126395,420.32142761775424,1761.8,420.3214133126395,420.32142761775424,1887.9,420.3214133126395,420.32142761775424,2012.7,420.3214133126395,420.32142761775424,2120.7,726.5714133126395,612.8214276177542,2272.9,791.5714133126395,652.8214276177542,2404.8,791.5714133126395,652.8214276177542,2545.5,787.8214133126395,674.0714276177542,2646.1,776.5714133126395,690.3214276177542,2751.4,771.5714133126395,702.8214276177542,2852.6,764.0714133126395,722.8214276177542,2953.2,762.8214133126395,724.0714276177542,3082.1,762.8214133126395,724.0714276177542,3215.2,762.8214133126395,724.0714276177542,3362.4,762.8214133126395,724.0714276177542,3499.9,762.8214133126395,724.0714276177542,3625.7,762.8214133126395,724.0714276177542,3757.3,762.8214133126395,724.0714276177542,3881.7,762.8214133126395,724.0714276177542,4011,762.8214133126395,724.0714276177542,4141.3,762.8214133126395,724.0714276177542,4269.2,762.8214133126395,724.0714276177542,4389,762.8214133126395,724.0714276177542,4518.7,762.8214133126395,724.0714276177542,4647.2,762.8214133126395,724.0714276177542,4769.8,762.8214133126395,724.0714276177542,4898.7]","[9078.8,9078.8,2804.2,5760.1,514.5,""oops"",""down"",""up"",""bad_move"",17354.2,8273.9,3091.5,9080.5,5182.3,""smooth"",""right"",""right"",""good_move"",25497.8,8142.3,2033.4,17355.5,6109,""oops"",""right"",""left"",""bad_move"",35154.5,9654.5,2427.1,25500,7227.4,""oops"",""down"",""left"",""bad_move"",43706.6,8551,2639.1,35155.6,5911.9,""oops"",""down"",""left"",""bad_move"",52353.1,8645.2,3292.5,43707.9,5352.7,""oops"",""down"",""down"",""good_move""]"
"35030","","<div style=""width:500px;"">
  <p>What determined the result of this run?</p>
  </div>","8","html-slider-response","59","846232","0.0-7.0-1.9","120","1","2025-08-06 08:48:40","36c45c0696341be0efffe67d72a12abb","109.146.82.40","Mozilla/5.0 (Windows NT 10.0; Win64; x64) AppleWebKit/537.36 (KHTML, like Gecko) Chrome/138.0.0.0 Safari/537.36","WebKit","Chrome","138.0.0.0","Windows","10.0","https://app.prolific.com/","en-US,en;q=0.9","59cb95053306be000195be2e","6877649eabb845cf142cd221","689316da934685510b185f49","1","59cb95053306be000195be2e","1","2025-08-06T09:02:48.080Z","","","","AttribQ","","","","","","","","","","","50","","","","","","","","","","","","","","","","","","","","","","","","","","",""
"3943","","<div style=""width:500px;"">
  <p>How much control did you have over the ball?</p>
  </div>","12","html-slider-response","60","850181","0.0-7.0-2.9","120","1","2025-08-06 08:48:40","36c45c0696341be0efffe67d72a12abb","109.146.82.40","Mozilla/5.0 (Windows NT 10.0; Win64; x64) AppleWebKit/537.36 (KHTML, like Gecko) Chrome/138.0.0.0 Safari/537.36","WebKit","Chrome","138.0.0.0","Windows","10.0","https://app.prolific.com/","en-US,en;q=0.9","59cb95053306be000195be2e","6877649eabb845cf142cd221","689316da934685510b185f49","1","59cb95053306be000195be2e","1","2025-08-06T09:02:52.029Z","","","","ControlQ","","","","","","","","","","","50","","","","","","","","","","","","","","","","","","","","","","","","","","",""
"3520","","<div style=""width:500px;"">
  <p>How would you describe your current emotional state?</p>
  </div>","66","html-slider-response","61","853708","0.0-7.0-3.9","120","1","2025-08-06 08:48:40","36c45c0696341be0efffe67d72a12abb","109.146.82.40","Mozilla/5.0 (Windows NT 10.0; Win64; x64) AppleWebKit/537.36 (KHTML, like Gecko) Chrome/138.0.0.0 Safari/537.36","WebKit","Chrome","138.0.0.0","Windows","10.0","https://app.prolific.com/","en-US,en;q=0.9","59cb95053306be000195be2e","6877649eabb845cf142cd221","689316da934685510b185f49","1","59cb95053306be000195be2e","1","2025-08-06T09:02:55.556Z","","","","StressQ","","","","","","","","","","","50","","","","","","","","","","","","","","","","","","","","","","","","","","",""
"2905","","<div style=""width:500px;"">
  <p>What best describes how you currently feel?</p>
  </div>","7","html-slider-response","62","856618","0.0-7.0-4.9","120","1","2025-08-06 08:48:40","36c45c0696341be0efffe67d72a12abb","109.146.82.40","Mozilla/5.0 (Windows NT 10.0; Win64; x64) AppleWebKit/537.36 (KHTML, like Gecko) Chrome/138.0.0.0 Safari/537.36","WebKit","Chrome","138.0.0.0","Windows","10.0","https://app.prolific.com/","en-US,en;q=0.9","59cb95053306be000195be2e","6877649eabb845cf142cd221","689316da934685510b185f49","1","59cb95053306be000195be2e","1","2025-08-06T09:02:58.466Z","","","","MotivationQ","","","","","","","","","","","50","","","","","","","","","","","","","","","","","","","","","","","","","","",""
"","","","","ctl-task-cpt","63","900218","0.0-7.0-0.10","120","1","2025-08-06 08:48:40","36c45c0696341be0efffe67d72a12abb","109.146.82.40","Mozilla/5.0 (Windows NT 10.0; Win64; x64) AppleWebKit/537.36 (KHTML, like Gecko) Chrome/138.0.0.0 Safari/537.36","WebKit","Chrome","138.0.0.0","Windows","10.0","https://app.prolific.com/","en-US,en;q=0.9","59cb95053306be000195be2e","6877649eabb845cf142cd221","689316da934685510b185f49","1","59cb95053306be000195be2e","1","2025-08-06T09:03:42.066Z","","","","","","","","","","","","","","","","win-only","2","g1:SE,g2:NW","0.6","11","0","858603.5","1272.1","6308.6","40542.2","1","4","4","6","1","1","0","0","0","0","1280","3000","2545","[""down"",""right""]","{""num_key_presses"":6,""num_perfect"":5,""num_errors"":1,""num_randdir"":0,""num_randdir_good_moves"":0,""num_whilered"":0,""num_whileblue"":1,""num_blue"":3,""num_good_moves"":5}","[410.3214133126395,406.57142761775424,1,410.3214133126395,406.57142761775424,122.8,410.3214133126395,406.57142761775424,232.9,410.3214133126395,406.57142761775424,393,410.3214133126395,406.57142761775424,510.7,410.3214133126395,406.57142761775424,659.7,569.0714133126395,659.0714276177542,777,680.3214133126395,730.3214276177542,888.5,680.3214133126395,731.5714276177542,1013.6,701.5714133126395,737.8214276177542,1142.5,705.3214133126395,740.3214276177542,1269.3,706.5714133126395,741.5714276177542,1399.6,706.5714133126395,741.5714276177542,1517,706.5714133126395,741.5714276177542,1669.9,706.5714133126395,741.5714276177542,1770.7,706.5714133126395,741.5714276177542,1873.6,706.5714133126395,741.5714276177542,1983,706.5714133126395,741.5714276177542,2092.3,706.5714133126395,741.5714276177542,2236.6,706.5714133126395,741.5714276177542,2378.5,706.5714133126395,741.5714276177542,2518.5,706.5714133126395,741.5714276177542,2657.2,706.5714133126395,741.5714276177542,2797.4,706.5714133126395,741.5714276177542,2941.2,706.5714133126395,741.5714276177542,3046,706.5714133126395,741.5714276177542,3186.1,706.5714133126395,741.5714276177542,3327.4,706.5714133126395,741.5714276177542,3469.9,706.5714133126395,741.5714276177542,3599.8,706.5714133126395,741.5714276177542,3729.3,706.5714133126395,741.5714276177542,3858.4,706.5714133126395,741.5714276177542,3988.6,706.5714133126395,741.5714276177542,4130.5,706.5714133126395,741.5714276177542,4275.7,706.5714133126395,741.5714276177542,4414.6,706.5714133126395,741.5714276177542,4558.1,706.5714133126395,741.5714276177542,4698.6,706.5714133126395,741.5714276177542,4844.6,706.5714133126395,741.5714276177542,4986.2]","[1670.5,1670.5,1000,0,670.5,""smooth"",""right"",""right"",""good_move"",5010.8,3338.9,2395.2,1671.9,943.7,""smooth"",""right"",""right"",""good_move"",9107.4,4095,2993.1,5012.4,1101.9,""smooth"",""down"",""down"",""good_move"",12364.6,3254.9,2709.2,9109.7,545.7,""while_blue"",""down"",""up"",""bad_move"",21644.1,9278,2639.5,12366.2,6638.5,""smooth"",""down"",""down"",""good_move"",33135.4,11489.7,3089.8,29115.8,929.8,""smooth"",""down"",""down"",""good_move""]"
"3153","","<div style=""width:500px;"">
  <p>What determined the result of this run?</p>
  </div>","59","html-slider-response","64","903375","0.0-7.0-1.10","120","1","2025-08-06 08:48:40","36c45c0696341be0efffe67d72a12abb","109.146.82.40","Mozilla/5.0 (Windows NT 10.0; Win64; x64) AppleWebKit/537.36 (KHTML, like Gecko) Chrome/138.0.0.0 Safari/537.36","WebKit","Chrome","138.0.0.0","Windows","10.0","https://app.prolific.com/","en-US,en;q=0.9","59cb95053306be000195be2e","6877649eabb845cf142cd221","689316da934685510b185f49","1","59cb95053306be000195be2e","1","2025-08-06T09:03:45.223Z","","","","AttribQ","","","","","","","","","","","50","","","","","","","","","","","","","","","","","","","","","","","","","","",""
"1697","","<div style=""width:500px;"">
  <p>How much control did you have over the ball?</p>
  </div>","58","html-slider-response","65","905079","0.0-7.0-2.10","120","1","2025-08-06 08:48:40","36c45c0696341be0efffe67d72a12abb","109.146.82.40","Mozilla/5.0 (Windows NT 10.0; Win64; x64) AppleWebKit/537.36 (KHTML, like Gecko) Chrome/138.0.0.0 Safari/537.36","WebKit","Chrome","138.0.0.0","Windows","10.0","https://app.prolific.com/","en-US,en;q=0.9","59cb95053306be000195be2e","6877649eabb845cf142cd221","689316da934685510b185f49","1","59cb95053306be000195be2e","1","2025-08-06T09:03:46.927Z","","","","ControlQ","","","","","","","","","","","50","","","","","","","","","","","","","","","","","","","","","","","","","","",""
"2776","","<div style=""width:500px;"">
  <p>How would you describe your current emotional state?</p>
  </div>","55","html-slider-response","66","907861","0.0-7.0-3.10","120","1","2025-08-06 08:48:40","36c45c0696341be0efffe67d72a12abb","109.146.82.40","Mozilla/5.0 (Windows NT 10.0; Win64; x64) AppleWebKit/537.36 (KHTML, like Gecko) Chrome/138.0.0.0 Safari/537.36","WebKit","Chrome","138.0.0.0","Windows","10.0","https://app.prolific.com/","en-US,en;q=0.9","59cb95053306be000195be2e","6877649eabb845cf142cd221","689316da934685510b185f49","1","59cb95053306be000195be2e","1","2025-08-06T09:03:49.709Z","","","","StressQ","","","","","","","","","","","50","","","","","","","","","","","","","","","","","","","","","","","","","","",""
"1644","","<div style=""width:500px;"">
  <p>What best describes how you currently feel?</p>
  </div>","38","html-slider-response","67","909510","0.0-7.0-4.10","120","1","2025-08-06 08:48:40","36c45c0696341be0efffe67d72a12abb","109.146.82.40","Mozilla/5.0 (Windows NT 10.0; Win64; x64) AppleWebKit/537.36 (KHTML, like Gecko) Chrome/138.0.0.0 Safari/537.36","WebKit","Chrome","138.0.0.0","Windows","10.0","https://app.prolific.com/","en-US,en;q=0.9","59cb95053306be000195be2e","6877649eabb845cf142cd221","689316da934685510b185f49","1","59cb95053306be000195be2e","1","2025-08-06T09:03:51.358Z","","","","MotivationQ","","","","","","","","","","","50","","","","","","","","","","","","","","","","","","","","","","","","","","",""
"","","","","ctl-task-cpt","68","967188","0.0-7.0-0.11","120","1","2025-08-06 08:48:40","36c45c0696341be0efffe67d72a12abb","109.146.82.40","Mozilla/5.0 (Windows NT 10.0; Win64; x64) AppleWebKit/537.36 (KHTML, like Gecko) Chrome/138.0.0.0 Safari/537.36","WebKit","Chrome","138.0.0.0","Windows","10.0","https://app.prolific.com/","en-US,en;q=0.9","59cb95053306be000195be2e","6877649eabb845cf142cd221","689316da934685510b185f49","1","59cb95053306be000195be2e","1","2025-08-06T09:04:49.036Z","","","","","","","","","","","","","","","","win-only","0","g1:NW,g2:SE","0.7","12","0","911493.9","1016.2","6062.5","54582.7","1","4","8","6","2","8","5","5","0","0.03787878787878788","2498","3000","2445","[""down"",""right""]","{""num_key_presses"":11,""num_perfect"":6,""num_errors"":3,""num_randdir"":2,""num_randdir_good_moves"":1,""num_whilered"":0,""num_whileblue"":0,""num_blue"":3,""num_good_moves"":7}","[416.5714133126395,417.82142761775424,1.7,416.5714133126395,417.82142761775424,131.4,416.5714133126395,417.82142761775424,249.7,416.5714133126395,417.82142761775424,357.8,416.5714133126395,417.82142761775424,474.9,416.5714133126395,417.82142761775424,591.4,431.5714133126395,430.32142761775424,727.8,681.5714133126395,695.3214276177542,865.6,681.5714133126395,695.3214276177542,983.8,681.5714133126395,695.3214276177542,1111.1,341.5714133126395,212.82142761775424,1242.6,341.5714133126395,212.82142761775424,1369.1,229.0714133126395,151.57142761775424,1512.2,226.5714133126395,150.32142761775424,1626.9,226.5714133126395,150.32142761775424,1752.8,771.5714133126395,601.5714276177542,1892.6,776.5714133126395,606.5714276177542,2019.1,797.8214133126395,649.0714276177542,2151.2,799.0714133126395,672.8214276177542,2289.8,782.8214133126395,695.3214276177542,2432.1,774.0714133126395,714.0714276177542,2568.5,774.0714133126395,714.0714276177542,2693.8,774.0714133126395,714.0714276177542,2819.3,774.0714133126395,714.0714276177542,2936.9,774.0714133126395,714.0714276177542,3049.5,774.0714133126395,714.0714276177542,3167.7,774.0714133126395,714.0714276177542,3282,774.0714133126395,714.0714276177542,3396.8,774.0714133126395,714.0714276177542,3509,774.0714133126395,714.0714276177542,3624.1,774.0714133126395,714.0714276177542,3735.5,774.0714133126395,714.0714276177542,3849.2,774.0714133126395,714.0714276177542,3963.4,774.0714133126395,714.0714276177542,4078.9,774.0714133126395,714.0714276177542,4191.3,774.0714133126395,714.0714276177542,4310,774.0714133126395,714.0714276177542,4418.1,774.0714133126395,714.0714276177542,4535.8,774.0714133126395,714.0714276177542,4647.6,774.0714133126395,714.0714276177542,4760.4,774.0714133126395,714.0714276177542,4873,774.0714133126395,714.0714276177542,4987.9]","[4741.9,4741.9,2177,2083,481.9,""smooth"",""right"",""right"",""good_move"",7765.9,3022.6,1565.1,4743.4,1457.4,""smooth"",""right"",""right"",""good_move"",12824.1,5056.4,2558.1,7767.8,2498.2,""oops"",""right"",""left"",""bad_move"",19840,7014,2522.3,12826,4491.7,""error"",""-"",""-"",""no_move"",22975.2,3133.9,3414.6,20874.3,-1313.6,""error"",""-"",""-"",""no_move"",27179,4201.3,2419.4,24052.4,707.2,""smooth"",""down"",""down"",""good_move"",33250.7,6070.6,2762.9,29703.8,784,""smooth"",""down"",""down"",""good_move"",36273.6,3021.7,2065,33251.9,956.7,""smooth"",""down"",""down"",""good_move"",36815.3,538.8,2041,36276.5,-1502.2,""error"",""-"",""-"",""no_move"",40830.6,4014.3,2345.2,37819.8,665.6,""smooth"",""right"",""right"",""good_move"",44050,3217.9,2378.2,40832.2,839.6,""oops"",""right"",""right"",""good_move""]"
"3584","","<div style=""width:500px;"">
  <p>What determined the result of this run?</p>
  </div>","64","html-slider-response","69","970779","0.0-7.0-1.11","120","1","2025-08-06 08:48:40","36c45c0696341be0efffe67d72a12abb","109.146.82.40","Mozilla/5.0 (Windows NT 10.0; Win64; x64) AppleWebKit/537.36 (KHTML, like Gecko) Chrome/138.0.0.0 Safari/537.36","WebKit","Chrome","138.0.0.0","Windows","10.0","https://app.prolific.com/","en-US,en;q=0.9","59cb95053306be000195be2e","6877649eabb845cf142cd221","689316da934685510b185f49","1","59cb95053306be000195be2e","1","2025-08-06T09:04:52.627Z","","","","AttribQ","","","","","","","","","","","50","","","","","","","","","","","","","","","","","","","","","","","","","","",""
"3124","","<div style=""width:500px;"">
  <p>How much control did you have over the ball?</p>
  </div>","48","html-slider-response","70","973912","0.0-7.0-2.11","120","1","2025-08-06 08:48:40","36c45c0696341be0efffe67d72a12abb","109.146.82.40","Mozilla/5.0 (Windows NT 10.0; Win64; x64) AppleWebKit/537.36 (KHTML, like Gecko) Chrome/138.0.0.0 Safari/537.36","WebKit","Chrome","138.0.0.0","Windows","10.0","https://app.prolific.com/","en-US,en;q=0.9","59cb95053306be000195be2e","6877649eabb845cf142cd221","689316da934685510b185f49","1","59cb95053306be000195be2e","1","2025-08-06T09:04:55.760Z","","","","ControlQ","","","","","","","","","","","50","","","","","","","","","","","","","","","","","","","","","","","","","","",""
"3839","","<div style=""width:500px;"">
  <p>How would you describe your current emotional state?</p>
  </div>","47","html-slider-response","71","977753","0.0-7.0-3.11","120","1","2025-08-06 08:48:40","36c45c0696341be0efffe67d72a12abb","109.146.82.40","Mozilla/5.0 (Windows NT 10.0; Win64; x64) AppleWebKit/537.36 (KHTML, like Gecko) Chrome/138.0.0.0 Safari/537.36","WebKit","Chrome","138.0.0.0","Windows","10.0","https://app.prolific.com/","en-US,en;q=0.9","59cb95053306be000195be2e","6877649eabb845cf142cd221","689316da934685510b185f49","1","59cb95053306be000195be2e","1","2025-08-06T09:04:59.601Z","","","","StressQ","","","","","","","","","","","50","","","","","","","","","","","","","","","","","","","","","","","","","","",""
"2977","","<div style=""width:500px;"">
  <p>What best describes how you currently feel?</p>
  </div>","31","html-slider-response","72","980735","0.0-7.0-4.11","120","1","2025-08-06 08:48:40","36c45c0696341be0efffe67d72a12abb","109.146.82.40","Mozilla/5.0 (Windows NT 10.0; Win64; x64) AppleWebKit/537.36 (KHTML, like Gecko) Chrome/138.0.0.0 Safari/537.36","WebKit","Chrome","138.0.0.0","Windows","10.0","https://app.prolific.com/","en-US,en;q=0.9","59cb95053306be000195be2e","6877649eabb845cf142cd221","689316da934685510b185f49","1","59cb95053306be000195be2e","1","2025-08-06T09:05:02.583Z","","","","MotivationQ","","","","","","","","","","","50","","","","","","","","","","","","","","","","","","","","","","","","","","",""
"","","","","ctl-task-cpt","73","1012334","0.0-7.0-0.12","120","1","2025-08-06 08:48:40","36c45c0696341be0efffe67d72a12abb","109.146.82.40","Mozilla/5.0 (Windows NT 10.0; Win64; x64) AppleWebKit/537.36 (KHTML, like Gecko) Chrome/138.0.0.0 Safari/537.36","WebKit","Chrome","138.0.0.0","Windows","10.0","https://app.prolific.com/","en-US,en;q=0.9","59cb95053306be000195be2e","6877649eabb845cf142cd221","689316da934685510b185f49","1","59cb95053306be000195be2e","1","2025-08-06T09:05:34.182Z","","","","","","","","","","","","","","","","win-only","1","g1:NE,g2:SW","0.8","13","0","982718","1376","6383.9","28554.1","1","4","4","6","1","1","0","5","5","0.03787878787878788","1472.1","3000","2505","[""up"",""right""]","{""num_key_presses"":4,""num_perfect"":3,""num_errors"":1,""num_randdir"":0,""num_randdir_good_moves"":0,""num_whilered"":0,""num_whileblue"":1,""num_blue"":3,""num_good_moves"":4}","[411.5714133126395,414.07142761775424,6.9,411.5714133126395,414.07142761775424,119.5,411.5714133126395,414.07142761775424,232.2,411.5714133126395,414.07142761775424,353.3,411.5714133126395,414.07142761775424,453.3,492.8214133126395,311.57142761775424,557.5,621.5714133126395,190.32142761775424,669.5,640.3214133126395,175.32142761775424,783.4,651.5714133126395,166.57142761775424,892.2,709.0714133126395,114.07142761775425,994.8,714.0714133126395,109.07142761775425,1098,714.0714133126395,109.07142761775425,1210.9,721.5714133126395,102.82142761775425,1322.4,725.3214133126395,99.07142761775425,1427.5,726.5714133126395,99.07142761775425,1547.2,726.5714133126395,99.07142761775425,1652.9,726.5714133126395,99.07142761775425,1762,726.5714133126395,99.07142761775425,1876.3,726.5714133126395,99.07142761775425,1988,726.5714133126395,99.07142761775425,2095,726.5714133126395,99.07142761775425,2211.9,726.5714133126395,99.07142761775425,2322.1,726.5714133126395,99.07142761775425,2424.3,726.5714133126395,99.07142761775425,2553.8,726.5714133126395,99.07142761775425,2657.8,726.5714133126395,99.07142761775425,2768.2,726.5714133126395,99.07142761775425,2869.9,726.5714133126395,99.07142761775425,2975.9,726.5714133126395,99.07142761775425,3086.2,726.5714133126395,99.07142761775425,3189,726.5714133126395,99.07142761775425,3295.2,726.5714133126395,99.07142761775425,3401.4,726.5714133126395,99.07142761775425,3507.3,726.5714133126395,99.07142761775425,3614.5,726.5714133126395,99.07142761775425,3721.2,726.5714133126395,99.07142761775425,3824.8,726.5714133126395,99.07142761775425,3925.9,726.5714133126395,99.07142761775425,4027.6,726.5714133126395,99.07142761775425,4146.3,726.5714133126395,99.07142761775425,4254.4,726.5714133126395,99.07142761775425,4365.2,726.5714133126395,99.07142761775425,4472.4,726.5714133126395,99.07142761775425,4577.3,726.5714133126395,99.07142761775425,4683,726.5714133126395,99.07142761775425,4789,726.5714133126395,99.07142761775425,4906.9]","[1844.2,1844.2,1000,0,844.2,""smooth"",""up"",""up"",""good_move"",14635.8,12790.1,2506.9,11617.5,511.4,""smooth"",""up"",""up"",""good_move"",18440.6,3797,2691.1,14643.6,1105.9,""smooth"",""right"",""right"",""good_move"",21699,3256.6,2431.5,18442.5,825,""while_blue"",""right"",""right"",""good_move""]"
"3017","","<div style=""width:500px;"">
  <p>What determined the result of this run?</p>
  </div>","67","html-slider-response","74","1015354","0.0-7.0-1.12","120","1","2025-08-06 08:48:40","36c45c0696341be0efffe67d72a12abb","109.146.82.40","Mozilla/5.0 (Windows NT 10.0; Win64; x64) AppleWebKit/537.36 (KHTML, like Gecko) Chrome/138.0.0.0 Safari/537.36","WebKit","Chrome","138.0.0.0","Windows","10.0","https://app.prolific.com/","en-US,en;q=0.9","59cb95053306be000195be2e","6877649eabb845cf142cd221","689316da934685510b185f49","1","59cb95053306be000195be2e","1","2025-08-06T09:05:37.202Z","","","","AttribQ","","","","","","","","","","","50","","","","","","","","","","","","","","","","","","","","","","","","","","",""
"2517","","<div style=""width:500px;"">
  <p>How much control did you have over the ball?</p>
  </div>","44","html-slider-response","75","1017873","0.0-7.0-2.12","120","1","2025-08-06 08:48:40","36c45c0696341be0efffe67d72a12abb","109.146.82.40","Mozilla/5.0 (Windows NT 10.0; Win64; x64) AppleWebKit/537.36 (KHTML, like Gecko) Chrome/138.0.0.0 Safari/537.36","WebKit","Chrome","138.0.0.0","Windows","10.0","https://app.prolific.com/","en-US,en;q=0.9","59cb95053306be000195be2e","6877649eabb845cf142cd221","689316da934685510b185f49","1","59cb95053306be000195be2e","1","2025-08-06T09:05:39.721Z","","","","ControlQ","","","","","","","","","","","50","","","","","","","","","","","","","","","","","","","","","","","","","","",""
"2387","","<div style=""width:500px;"">
  <p>How would you describe your current emotional state?</p>
  </div>","54","html-slider-response","76","1020263","0.0-7.0-3.12","120","1","2025-08-06 08:48:40","36c45c0696341be0efffe67d72a12abb","109.146.82.40","Mozilla/5.0 (Windows NT 10.0; Win64; x64) AppleWebKit/537.36 (KHTML, like Gecko) Chrome/138.0.0.0 Safari/537.36","WebKit","Chrome","138.0.0.0","Windows","10.0","https://app.prolific.com/","en-US,en;q=0.9","59cb95053306be000195be2e","6877649eabb845cf142cd221","689316da934685510b185f49","1","59cb95053306be000195be2e","1","2025-08-06T09:05:42.112Z","","","","StressQ","","","","","","","","","","","50","","","","","","","","","","","","","","","","","","","","","","","","","","",""
"2517","","<div style=""width:500px;"">
  <p>What best describes how you currently feel?</p>
  </div>","9","html-slider-response","77","1022783","0.0-7.0-4.12","120","1","2025-08-06 08:48:40","36c45c0696341be0efffe67d72a12abb","109.146.82.40","Mozilla/5.0 (Windows NT 10.0; Win64; x64) AppleWebKit/537.36 (KHTML, like Gecko) Chrome/138.0.0.0 Safari/537.36","WebKit","Chrome","138.0.0.0","Windows","10.0","https://app.prolific.com/","en-US,en;q=0.9","59cb95053306be000195be2e","6877649eabb845cf142cd221","689316da934685510b185f49","1","59cb95053306be000195be2e","1","2025-08-06T09:05:44.631Z","","","","MotivationQ","","","","","","","","","","","50","","","","","","","","","","","","","","","","","","","","","","","","","","",""
