"rt","response_timestamp","stimulus","response","trial_type","trial_index","time_elapsed","internal_node_id","run_id","condition","recorded_at","source_code_version","ip","user_agent","device","browser","browser_version","platform","platform_version","referer","accept_language","PROLIFIC_PID","STUDY_ID","SESSION_ID","BATCH","prolific_id","batch","realtime","success","question_order","question_id","eventType","responses","item_order","radio_event_ids","radio_event_times","key_event_times","mouse_event_times","straightlining","zigzagging","honeypot","view_history","slider_start","which_type","canvas_config","goals_layout","control_level","trial_number","tutorial_trial_number","trial_start_time","phase1_start_time","phase2_start_time","phase3_start_time","goal_1_value","goal_1_distance","goal_2_value","goal_2_distance","goal_selected","outcome","outcome_total","participant_final_score","participant_initial_score","participant_final_score_prop","goal_choice_rt","allocated_time","allocated_time_remaining","goal_direction","counts","mouse_movements","key_presses"
"9006","1754506919387","<p style='font-size:40px;line-height:1.25'><strong>Welcome to the experiment!</strong></p><p style='font-size:1.1em;line-height:1.25'>Thank you for participanting in our experiment again! You will be asked to play the Dysfunctional Ball Game again. We will briefly recap the rules before we start.</p><p style='font-size:1.1em;line-height:1.25'>Press <strong>Next</strong> to continue.</p>","0","custom-html-button-response","0","9008","0.0-0.0","214","1","2025-08-06 19:01:36","36c45c0696341be0efffe67d72a12abb","51.19.161.91","Mozilla/5.0 (Windows NT 10.0; Win64; x64) AppleWebKit/537.36 (KHTML, like Gecko) Chrome/138.0.0.0 Safari/537.36","WebKit","Chrome","138.0.0.0","Windows","10.0","https://app.prolific.com/","en-GB,en-US;q=0.9,en;q=0.8","59dd90f6e75b450001a68dac","6877649eabb845cf142cd221","6893a67962430aae9931f324","1","59dd90f6e75b450001a68dac","1","2025-08-06T19:01:59.388Z","","","","","","","","","","","","","","","","","","","","","","","","","","","","","","","","","","","","","","","","","",""
"2071","","","","fullscreen","1","12087","0.0-1.0","214","1","2025-08-06 19:01:36","36c45c0696341be0efffe67d72a12abb","51.19.161.91","Mozilla/5.0 (Windows NT 10.0; Win64; x64) AppleWebKit/537.36 (KHTML, like Gecko) Chrome/138.0.0.0 Safari/537.36","WebKit","Chrome","138.0.0.0","Windows","10.0","https://app.prolific.com/","en-GB,en-US;q=0.9,en;q=0.8","59dd90f6e75b450001a68dac","6877649eabb845cf142cd221","6893a67962430aae9931f324","1","59dd90f6e75b450001a68dac","1","","true","","","","","","","","","","","","","","","","","","","","","","","","","","","","","","","","","","","","","","","","",""
"8812","1754506931280"," <p style='font-size:1.1em;line-height:1.25'>Thank you for closing all other tabs.</p><p style='font-size:1.1em;line-height:1.25'>We will now invite you to fill in some questionnaires, before starting the game.<br>This will take about 5 minutes.<br></p><p style='font-size:1.1em;line-height:1.25'>Press the <strong>Next</strong> button to continue.</p>","0","custom-html-button-response","2","20900","0.0-2.0","214","1","2025-08-06 19:01:36","36c45c0696341be0efffe67d72a12abb","51.19.161.91","Mozilla/5.0 (Windows NT 10.0; Win64; x64) AppleWebKit/537.36 (KHTML, like Gecko) Chrome/138.0.0.0 Safari/537.36","WebKit","Chrome","138.0.0.0","Windows","10.0","https://app.prolific.com/","en-GB,en-US;q=0.9,en;q=0.8","59dd90f6e75b450001a68dac","6877649eabb845cf142cd221","6893a67962430aae9931f324","1","59dd90f6e75b450001a68dac","1","2025-08-06T19:02:11.280Z","","","","","","","","","","","","","","","","","","","","","","","","","","","","","","","","","","","","","","","","","",""
"2814","","","{""assigned_sex"":""female""}","survey-multi-choice","3","23716","0.0-3.0-0.0","214","1","2025-08-06 19:01:36","36c45c0696341be0efffe67d72a12abb","51.19.161.91","Mozilla/5.0 (Windows NT 10.0; Win64; x64) AppleWebKit/537.36 (KHTML, like Gecko) Chrome/138.0.0.0 Safari/537.36","WebKit","Chrome","138.0.0.0","Windows","10.0","https://app.prolific.com/","en-GB,en-US;q=0.9,en;q=0.8","59dd90f6e75b450001a68dac","6877649eabb845cf142cd221","6893a67962430aae9931f324","1","59dd90f6e75b450001a68dac","1","","","[0]","0","demographics","","","","","","","","","","","","","","","","","","","","","","","","","","","","","","","","","","","","","",""
"3453","1754506937549","<p style='font-size:1.1em;line-height:1.25'>In the following, we will perform a baseline assessment. This means that we will ask you a few questions relating to your experiences over the past month.<br></p><p style='font-size:1.1em;line-height:1.25'>Press the <strong>Next</strong> button to continue.</p>","0","custom-html-button-response","4","27169","0.0-4.0-0.0","214","1","2025-08-06 19:01:36","36c45c0696341be0efffe67d72a12abb","51.19.161.91","Mozilla/5.0 (Windows NT 10.0; Win64; x64) AppleWebKit/537.36 (KHTML, like Gecko) Chrome/138.0.0.0 Safari/537.36","WebKit","Chrome","138.0.0.0","Windows","10.0","https://app.prolific.com/","en-GB,en-US;q=0.9,en;q=0.8","59dd90f6e75b450001a68dac","6877649eabb845cf142cd221","6893a67962430aae9931f324","1","59dd90f6e75b450001a68dac","1","2025-08-06T19:02:17.549Z","","","","","","","","","","","","","","","","","","","","","","","","","","","","","","","","","","","","","","","","","",""
"38184.59999996424","","","","survey-template","5","65356","0.0-4.0-1.0","214","1","2025-08-06 19:01:36","36c45c0696341be0efffe67d72a12abb","51.19.161.91","Mozilla/5.0 (Windows NT 10.0; Win64; x64) AppleWebKit/537.36 (KHTML, like Gecko) Chrome/138.0.0.0 Safari/537.36","WebKit","Chrome","138.0.0.0","Windows","10.0","https://app.prolific.com/","en-GB,en-US;q=0.9,en;q=0.8","59dd90f6e75b450001a68dac","6877649eabb845cf142cd221","6893a67962430aae9931f324","1","59dd90f6e75b450001a68dac","1","2025-08-06T19:02:55.736Z","","","","pss","{""Q01"":""2"",""Q02"":""4"",""Q03"":""4"",""Q04"":""4"",""Q05"":""3"",""Q06"":""4"",""Q07"":""3"",""Q08"":""4"",""Q09"":""1"",""Q10"":""4""}","[0,1,2,3,4,5,6,7,8,9]","[""Q01"",""Q02"",""Q03"",""Q04"",""Q05"",""Q05"",""Q06"",""Q07"",""Q08"",""Q09"",""Q10""]","[7338.899999976158,12348.599999964237,14768.300000011921,17346.599999964237,19018.80000001192,21468.69999998808,27278.80000001192,29558.599999964237,32428.899999976158,36822.5,37656.39999997616]","[]","[0.09999996423721313,4386.599999964237,7338.899999976158,12348.599999964237,14768.300000011921,17346.599999964237,19018.80000001192,20374.69999998808,21468.69999998808,27278.80000001192,29558.599999964237,32428.899999976158,35858.69999998808,36822.5,37656.39999997616,38182.19999998808]","0.4","0.4444444444444444","0","","","","","","","","","","","","","","","","","","","","","","","","","","","","",""
"10830","1754506986568","<p style='font-size:1.1em;line-height:1.25'>Thank you for your answers! Now we will ask you a few more questions relating to your feelings in the last 24 hours.<br></p><p style='font-size:1.1em;line-height:1.25'>Press the <strong>Next</strong> button to continue.</p>","0","custom-html-button-response","6","76188","0.0-4.0-2.0","214","1","2025-08-06 19:01:36","36c45c0696341be0efffe67d72a12abb","51.19.161.91","Mozilla/5.0 (Windows NT 10.0; Win64; x64) AppleWebKit/537.36 (KHTML, like Gecko) Chrome/138.0.0.0 Safari/537.36","WebKit","Chrome","138.0.0.0","Windows","10.0","https://app.prolific.com/","en-GB,en-US;q=0.9,en;q=0.8","59dd90f6e75b450001a68dac","6877649eabb845cf142cd221","6893a67962430aae9931f324","1","59dd90f6e75b450001a68dac","1","2025-08-06T19:03:06.568Z","","","","","","","","","","","","","","","","","","","","","","","","","","","","","","","","","","","","","","","","","",""
"149002.60000002384","","","","survey-template","7","225192","0.0-4.0-3.0","214","1","2025-08-06 19:01:36","36c45c0696341be0efffe67d72a12abb","51.19.161.91","Mozilla/5.0 (Windows NT 10.0; Win64; x64) AppleWebKit/537.36 (KHTML, like Gecko) Chrome/138.0.0.0 Safari/537.36","WebKit","Chrome","138.0.0.0","Windows","10.0","https://app.prolific.com/","en-GB,en-US;q=0.9,en;q=0.8","59dd90f6e75b450001a68dac","6877649eabb845cf142cd221","6893a67962430aae9931f324","1","59dd90f6e75b450001a68dac","1","2025-08-06T19:05:35.572Z","","","","drsp","{""Q01"":""4"",""Q02"":""4"",""Q03"":""3"",""Q04"":""4"",""Q05"":""1"",""Q06"":""2"",""Q07"":""3"",""Q08"":""0"",""Q09"":""3"",""Q10"":""3"",""Q11"":""4"",""Q12"":""3"",""Q13"":""5"",""Q14"":""3"",""Q15"":""4"",""Q16"":""0"",""Q17"":""5"",""Q18"":""3"",""Q19"":""3"",""Q20"":""4"",""Q21"":""4"",""Q22"":""2""}","[0,1,2,3,4,5,6,7,8,9,10,11,12,13,14,15,16,17,18,19,20,21]","[""Q01"",""Q02"",""Q01"",""Q03"",""Q04"",""Q05"",""Q05"",""Q05"",""Q06"",""Q07"",""Q08"",""Q09"",""Q09"",""Q10"",""Q11"",""Q11"",""Q12"",""Q13"",""Q22"",""Q21"",""Q20"",""Q19"",""Q18"",""Q18"",""Q17"",""Q16"",""Q15"",""Q14""]","[7915.300000011921,9425.900000035763,11401.300000011921,14474.700000047684,16416.200000047684,17450.100000023842,21022.30000001192,22520.30000001192,25273.100000023842,26950.200000047684,29596,31335.80000001192,34308.40000003576,35769.700000047684,37222.30000001192,39114.200000047684,40949.80000001192,42830.30000001192,122995.30000001192,124493.60000002384,127241.40000003576,131135.5,133571.90000003576,134632,136079.40000003576,139068,141783,145369.70000004768]","[]","[0,7915.300000011921,9425.900000035763,11401.300000011921,14474.700000047684,16416.200000047684,17450.100000023842,21022.30000001192,22520.30000001192,25273.100000023842,26950.200000047684,29596,30421.5,31335.80000001192,34308.40000003576,35769.700000047684,37222.30000001192,39114.200000047684,40949.80000001192,42830.30000001192,66639.70000004768,122995.30000001192,124493.60000002384,127241.40000003576,131135.5,133571.90000003576,134632,136079.40000003576,139068,141783,145369.70000004768,148998.80000001192]","0.36363636363636365","0.42857142857142855","0","","","","","","","","","","","","","","","","","","","","","","","","","","","","",""
"6945.400000035763","","","","survey-template","8","232139","0.0-4.0-4.0","214","1","2025-08-06 19:01:36","36c45c0696341be0efffe67d72a12abb","51.19.161.91","Mozilla/5.0 (Windows NT 10.0; Win64; x64) AppleWebKit/537.36 (KHTML, like Gecko) Chrome/138.0.0.0 Safari/537.36","WebKit","Chrome","138.0.0.0","Windows","10.0","https://app.prolific.com/","en-GB,en-US;q=0.9,en;q=0.8","59dd90f6e75b450001a68dac","6877649eabb845cf142cd221","6893a67962430aae9931f324","1","59dd90f6e75b450001a68dac","1","2025-08-06T19:05:42.519Z","","","","stress","{""Q01"":""4"",""Q02"":""4"",""Q03"":""5""}","[0,1,2]","[""Q01"",""Q02"",""Q03""]","[2984.900000035763,4952.400000035763,6452.700000047684]","[]","[2984.900000035763,4952.400000035763,6452.700000047684,6944.600000023842]","0.3333333333333333","0","0","","","","","","","","","","","","","","","","","","","","","","","","","","","","",""
"30161","","","","instructions","9","262301","0.0-5.0-0.0","214","1","2025-08-06 19:01:36","36c45c0696341be0efffe67d72a12abb","51.19.161.91","Mozilla/5.0 (Windows NT 10.0; Win64; x64) AppleWebKit/537.36 (KHTML, like Gecko) Chrome/138.0.0.0 Safari/537.36","WebKit","Chrome","138.0.0.0","Windows","10.0","https://app.prolific.com/","en-GB,en-US;q=0.9,en;q=0.8","59dd90f6e75b450001a68dac","6877649eabb845cf142cd221","6893a67962430aae9931f324","1","59dd90f6e75b450001a68dac","1","","","","","","","","","","","","","","","[{""page_index"":0,""viewing_time"":30161}]","","","","","","","","","","","","","","","","","","","","","","","","","","","",""
"7112","","<p>Before you start with this game please answer the following three questions yourself. </p>
  <p>Through this game, we measure several aspects of your cognitive performance, such as reaction times, multi-tasking capabilities </p>
  <p>and the ability to assess the situation you are in.</p>
  <p></p>
  <p><b>How good do you usually are in such tasks?</b></p>","62","html-slider-response","10","269414","0.0-6.0-0.0","214","1","2025-08-06 19:01:36","36c45c0696341be0efffe67d72a12abb","51.19.161.91","Mozilla/5.0 (Windows NT 10.0; Win64; x64) AppleWebKit/537.36 (KHTML, like Gecko) Chrome/138.0.0.0 Safari/537.36","WebKit","Chrome","138.0.0.0","Windows","10.0","https://app.prolific.com/","en-GB,en-US;q=0.9,en;q=0.8","59dd90f6e75b450001a68dac","6877649eabb845cf142cd221","6893a67962430aae9931f324","1","59dd90f6e75b450001a68dac","1","2025-08-06T19:06:19.794Z","","","","PreSkillQ","","","","","","","","","","","50","","","","","","","","","","","","","","","","","","","","","","","","","","",""
"4179","","<div style=""width:500px;"">
  <p>How well do you think you will perform in this task compared to other participants?</p>
  </div>","39","html-slider-response","11","273594","0.0-6.0-1.0","214","1","2025-08-06 19:01:36","36c45c0696341be0efffe67d72a12abb","51.19.161.91","Mozilla/5.0 (Windows NT 10.0; Win64; x64) AppleWebKit/537.36 (KHTML, like Gecko) Chrome/138.0.0.0 Safari/537.36","WebKit","Chrome","138.0.0.0","Windows","10.0","https://app.prolific.com/","en-GB,en-US;q=0.9,en;q=0.8","59dd90f6e75b450001a68dac","6877649eabb845cf142cd221","6893a67962430aae9931f324","1","59dd90f6e75b450001a68dac","1","2025-08-06T19:06:23.974Z","","","","PrePerfQ","","","","","","","","","","","50","","","","","","","","","","","","","","","","","","","","","","","","","","",""
"3865","","<div style=""width:500px;"">
  <p>What best describes how you currently feel?</p>
  </div>","29","html-slider-response","12","277459","0.0-6.0-2.0","214","1","2025-08-06 19:01:36","36c45c0696341be0efffe67d72a12abb","51.19.161.91","Mozilla/5.0 (Windows NT 10.0; Win64; x64) AppleWebKit/537.36 (KHTML, like Gecko) Chrome/138.0.0.0 Safari/537.36","WebKit","Chrome","138.0.0.0","Windows","10.0","https://app.prolific.com/","en-GB,en-US;q=0.9,en;q=0.8","59dd90f6e75b450001a68dac","6877649eabb845cf142cd221","6893a67962430aae9931f324","1","59dd90f6e75b450001a68dac","1","2025-08-06T19:06:27.839Z","","","","PreMotivationQ","","","","","","","","","","","50","","","","","","","","","","","","","","","","","","","","","","","","","","",""
"","","","","ctl-task-cpt","13","308108","0.0-7.0-0.0","214","1","2025-08-06 19:01:36","36c45c0696341be0efffe67d72a12abb","51.19.161.91","Mozilla/5.0 (Windows NT 10.0; Win64; x64) AppleWebKit/537.36 (KHTML, like Gecko) Chrome/138.0.0.0 Safari/537.36","WebKit","Chrome","138.0.0.0","Windows","10.0","https://app.prolific.com/","en-GB,en-US;q=0.9,en;q=0.8","59dd90f6e75b450001a68dac","6877649eabb845cf142cd221","6893a67962430aae9931f324","1","59dd90f6e75b450001a68dac","1","2025-08-06T19:06:58.488Z","","","","","","","","","","","","","","","","win-only","1","g1:NE,g2:SW","1","1","0","292399.3","3364.3","8365.8","27643","1","4","4","6","2","4","4","4","0","0.030303030303030304","2744.3","3000","465","[""down"",""left""]","{""num_key_presses"":6,""num_perfect"":6,""num_errors"":0,""num_randdir"":0,""num_randdir_good_moves"":0,""num_whilered"":0,""num_whileblue"":0,""num_blue"":1,""num_good_moves"":6}","[415.57142857142856,412.47767857142856,0.3,415.57142857142856,412.47767857142856,101.6,415.57142857142856,412.47767857142856,202.5,-351.42857142857144,-61.52232142857143,312,-408.42857142857144,-101.52232142857143,412,-408.42857142857144,-101.52232142857143,517.1,-408.42857142857144,-101.52232142857143,621.5,-408.42857142857144,-101.52232142857143,721.8,-408.42857142857144,-101.52232142857143,827.7,-408.42857142857144,-101.52232142857143,927.8,-408.42857142857144,-101.52232142857143,1032.7,-408.42857142857144,-101.52232142857143,1136.5,-408.42857142857144,-101.52232142857143,1236.5,-408.42857142857144,-101.52232142857143,1336.9,-408.42857142857144,-101.52232142857143,1436.9,-408.42857142857144,-101.52232142857143,1544.3,-408.42857142857144,-101.52232142857143,1644.5,-543.4285714285714,29.47767857142857,1744.5,-496.42857142857144,61.47767857142857,1844.9,-457.42857142857144,256.47767857142856,1947.1,-530.4285714285714,609.4776785714286,2051.8,-397.42857142857144,883.4776785714286,2160.7,-206.42857142857144,828.4776785714286,2261.1,-166.42857142857144,817.4776785714286,2361.2,-59.42857142857143,808.4776785714286,2461.3,-0.4285714285714306,766.4776785714286,2561.7,16.57142857142857,762.4776785714286,2667.6,40.57142857142857,757.4776785714286,2771.5,43.57142857142857,756.4776785714286,2871.6,40.57142857142857,754.4776785714286,2972,-91.42857142857143,672.4776785714286,3072.2,-435.42857142857144,504.47767857142856,3173.1,-444.42857142857144,489.47767857142856,3277.8,-444.42857142857144,489.47767857142856,3382.2,-444.42857142857144,489.47767857142856,3486.8,-444.42857142857144,489.47767857142856,3587.2,-444.42857142857144,489.47767857142856,3694.4,-444.42857142857144,489.47767857142856,3796.1,-444.42857142857144,489.47767857142856,3897.8,-444.42857142857144,489.47767857142856,4001.3,-444.42857142857144,489.47767857142856,4101.6,-444.42857142857144,489.47767857142856,4211.3,-444.42857142857144,489.47767857142856,4317,-444.42857142857144,489.47767857142856,4421.2,-444.42857142857144,489.47767857142856,4521.3,-444.42857142857144,489.47767857142856,4621.9,-444.42857142857144,489.47767857142856,4722.1,-444.42857142857144,489.47767857142856,4827.6,-444.42857142857144,489.47767857142856,4927.8]","[1542.8,1542.9,1000,0,542.9,""smooth"",""down"",""down"",""good_move"",4659.9,3116.7,2707.6,1543.2,409.1,""smooth"",""down"",""down"",""good_move"",8268.5,3608.2,3186.5,4660.3,421.7,""smooth"",""down"",""down"",""good_move"",14101.1,5832.5,2140.9,11426,534.3,""smooth"",""left"",""left"",""good_move"",16828.1,2726.6,2290.4,14101.6,436.1,""smooth"",""left"",""left"",""good_move"",19180.7,2352.5,1913.7,16828.3,438.8,""smooth"",""left"",""left"",""good_move""]"
"9303","","<div style=""width:500px;"">
  <p>What determined the result of this run?</p>
  </div>","0","html-slider-response","14","317412","0.0-7.0-1.0","214","1","2025-08-06 19:01:36","36c45c0696341be0efffe67d72a12abb","51.19.161.91","Mozilla/5.0 (Windows NT 10.0; Win64; x64) AppleWebKit/537.36 (KHTML, like Gecko) Chrome/138.0.0.0 Safari/537.36","WebKit","Chrome","138.0.0.0","Windows","10.0","https://app.prolific.com/","en-GB,en-US;q=0.9,en;q=0.8","59dd90f6e75b450001a68dac","6877649eabb845cf142cd221","6893a67962430aae9931f324","1","59dd90f6e75b450001a68dac","1","2025-08-06T19:07:07.792Z","","","","AttribQ","","","","","","","","","","","50","","","","","","","","","","","","","","","","","","","","","","","","","","",""
"4165","","<div style=""width:500px;"">
  <p>How much control did you have over the ball?</p>
  </div>","100","html-slider-response","15","321577","0.0-7.0-2.0","214","1","2025-08-06 19:01:36","36c45c0696341be0efffe67d72a12abb","51.19.161.91","Mozilla/5.0 (Windows NT 10.0; Win64; x64) AppleWebKit/537.36 (KHTML, like Gecko) Chrome/138.0.0.0 Safari/537.36","WebKit","Chrome","138.0.0.0","Windows","10.0","https://app.prolific.com/","en-GB,en-US;q=0.9,en;q=0.8","59dd90f6e75b450001a68dac","6877649eabb845cf142cd221","6893a67962430aae9931f324","1","59dd90f6e75b450001a68dac","1","2025-08-06T19:07:11.958Z","","","","ControlQ","","","","","","","","","","","50","","","","","","","","","","","","","","","","","","","","","","","","","","",""
"5387","","<div style=""width:500px;"">
  <p>How would you describe your current emotional state?</p>
  </div>","37","html-slider-response","16","326965","0.0-7.0-3.0","214","1","2025-08-06 19:01:36","36c45c0696341be0efffe67d72a12abb","51.19.161.91","Mozilla/5.0 (Windows NT 10.0; Win64; x64) AppleWebKit/537.36 (KHTML, like Gecko) Chrome/138.0.0.0 Safari/537.36","WebKit","Chrome","138.0.0.0","Windows","10.0","https://app.prolific.com/","en-GB,en-US;q=0.9,en;q=0.8","59dd90f6e75b450001a68dac","6877649eabb845cf142cd221","6893a67962430aae9931f324","1","59dd90f6e75b450001a68dac","1","2025-08-06T19:07:17.345Z","","","","StressQ","","","","","","","","","","","50","","","","","","","","","","","","","","","","","","","","","","","","","","",""
"6034","","<div style=""width:500px;"">
  <p>What best describes how you currently feel?</p>
  </div>","50","html-slider-response","17","333000","0.0-7.0-4.0","214","1","2025-08-06 19:01:36","36c45c0696341be0efffe67d72a12abb","51.19.161.91","Mozilla/5.0 (Windows NT 10.0; Win64; x64) AppleWebKit/537.36 (KHTML, like Gecko) Chrome/138.0.0.0 Safari/537.36","WebKit","Chrome","138.0.0.0","Windows","10.0","https://app.prolific.com/","en-GB,en-US;q=0.9,en;q=0.8","59dd90f6e75b450001a68dac","6877649eabb845cf142cd221","6893a67962430aae9931f324","1","59dd90f6e75b450001a68dac","1","2025-08-06T19:07:23.380Z","","","","MotivationQ","","","","","","","","","","","50","","","","","","","","","","","","","","","","","","","","","","","","","","",""
"","","","","ctl-task-cpt","18","365320","0.0-7.0-0.1","214","1","2025-08-06 19:01:36","36c45c0696341be0efffe67d72a12abb","51.19.161.91","Mozilla/5.0 (Windows NT 10.0; Win64; x64) AppleWebKit/537.36 (KHTML, like Gecko) Chrome/138.0.0.0 Safari/537.36","WebKit","Chrome","138.0.0.0","Windows","10.0","https://app.prolific.com/","en-GB,en-US;q=0.9,en;q=0.8","59dd90f6e75b450001a68dac","6877649eabb845cf142cd221","6893a67962430aae9931f324","1","59dd90f6e75b450001a68dac","1","2025-08-06T19:07:55.700Z","","","","","","","","","","","","","","","","win-only","3","g1:SW,g2:NE","0.9","2","0","347938.9","1304.4","6306.3","29295.8","1","4","8","6","2","8","8","12","4","0.09090909090909091","983.4","3000","5","[""up"",""right""]","{""num_key_presses"":8,""num_perfect"":7,""num_errors"":0,""num_randdir"":1,""num_randdir_good_moves"":0,""num_whilered"":0,""num_whileblue"":0,""num_blue"":1,""num_good_moves"":7}","[418.57142857142856,416.47767857142856,0.2,418.57142857142856,416.47767857142856,102.3,418.57142857142856,416.47767857142856,206.6,418.57142857142856,416.47767857142856,311.5,418.57142857142856,416.47767857142856,416.4,416.57142857142856,417.47767857142856,521.4,602.5714285714286,261.47767857142856,621.6,763.5714285714286,125.47767857142857,721.6,763.5714285714286,125.47767857142857,821.9,770.5714285714286,109.47767857142857,926.5,770.5714285714286,108.47767857142857,1027.4,770.5714285714286,108.47767857142857,1131.1,537.5714285714286,177.47767857142856,1231.1,129.57142857142856,271.47767857142856,1333.4,121.57142857142857,271.47767857142856,1436.9,121.57142857142857,271.47767857142856,1537,121.57142857142857,271.47767857142856,1641.4,121.57142857142857,271.47767857142856,1746.4,121.57142857142857,271.47767857142856,1846.5,121.57142857142857,271.47767857142856,1951,121.57142857142857,271.47767857142856,2052.3,121.57142857142857,271.47767857142856,2156.6,121.57142857142857,271.47767857142856,2261,121.57142857142857,271.47767857142856,2361,121.57142857142857,271.47767857142856,2461.3,121.57142857142857,271.47767857142856,2566.3,121.57142857142857,271.47767857142856,2666.6,121.57142857142857,271.47767857142856,2771.4,121.57142857142857,271.47767857142856,2871.4,121.57142857142857,271.47767857142856,2971.5,121.57142857142857,271.47767857142856,3071.9,121.57142857142857,271.47767857142856,3177,121.57142857142857,271.47767857142856,3280.9,121.57142857142857,271.47767857142856,3380.9,121.57142857142857,271.47767857142856,3481.6,121.57142857142857,271.47767857142856,3581.7,121.57142857142857,271.47767857142856,3686.1,121.57142857142857,271.47767857142856,3786.1,121.57142857142857,271.47767857142856,3891.1,121.57142857142857,271.47767857142856,3991.4,121.57142857142857,271.47767857142856,4097.4,121.57142857142857,271.47767857142856,4201.4,121.57142857142857,271.47767857142856,4306.3,121.57142857142857,271.47767857142856,4411,121.57142857142857,271.47767857142856,4511,121.57142857142857,271.47767857142856,4612.1,121.57142857142857,271.47767857142856,4716.3,121.57142857142857,271.47767857142856,4816.9,121.57142857142857,271.47767857142856,4921.4]","[1437.2,1437.2,1000,0,437.2,""smooth"",""up"",""up"",""good_move"",4496,3058.5,2468.2,1437.5,590.3,""oops"",""up"",""down"",""bad_move"",7531.7,3035.6,2650.3,4496.2,385.3,""smooth"",""up"",""up"",""good_move"",8947.7,1415.7,909.3,7532,506.4,""smooth"",""up"",""up"",""good_move"",15962.5,7014.6,2645.9,12913.5,403.1,""smooth"",""up"",""up"",""good_move"",18236.1,2273.4,1903.9,15962.7,369.5,""smooth"",""right"",""right"",""good_move"",20484.1,2247.8,1868.1,18236.3,379.7,""smooth"",""right"",""right"",""good_move"",22895.9,2411.7,2083.8,20484.2,327.9,""smooth"",""right"",""right"",""good_move""]"
"8828","","<div style=""width:500px;"">
  <p>What determined the result of this run?</p>
  </div>","0","html-slider-response","19","374149","0.0-7.0-1.1","214","1","2025-08-06 19:01:36","36c45c0696341be0efffe67d72a12abb","51.19.161.91","Mozilla/5.0 (Windows NT 10.0; Win64; x64) AppleWebKit/537.36 (KHTML, like Gecko) Chrome/138.0.0.0 Safari/537.36","WebKit","Chrome","138.0.0.0","Windows","10.0","https://app.prolific.com/","en-GB,en-US;q=0.9,en;q=0.8","59dd90f6e75b450001a68dac","6877649eabb845cf142cd221","6893a67962430aae9931f324","1","59dd90f6e75b450001a68dac","1","2025-08-06T19:08:04.529Z","","","","AttribQ","","","","","","","","","","","50","","","","","","","","","","","","","","","","","","","","","","","","","","",""
"6527","","<div style=""width:500px;"">
  <p>How much control did you have over the ball?</p>
  </div>","66","html-slider-response","20","380677","0.0-7.0-2.1","214","1","2025-08-06 19:01:36","36c45c0696341be0efffe67d72a12abb","51.19.161.91","Mozilla/5.0 (Windows NT 10.0; Win64; x64) AppleWebKit/537.36 (KHTML, like Gecko) Chrome/138.0.0.0 Safari/537.36","WebKit","Chrome","138.0.0.0","Windows","10.0","https://app.prolific.com/","en-GB,en-US;q=0.9,en;q=0.8","59dd90f6e75b450001a68dac","6877649eabb845cf142cd221","6893a67962430aae9931f324","1","59dd90f6e75b450001a68dac","1","2025-08-06T19:08:11.057Z","","","","ControlQ","","","","","","","","","","","50","","","","","","","","","","","","","","","","","","","","","","","","","","",""
"3145","","<div style=""width:500px;"">
  <p>How would you describe your current emotional state?</p>
  </div>","54","html-slider-response","21","383823","0.0-7.0-3.1","214","1","2025-08-06 19:01:36","36c45c0696341be0efffe67d72a12abb","51.19.161.91","Mozilla/5.0 (Windows NT 10.0; Win64; x64) AppleWebKit/537.36 (KHTML, like Gecko) Chrome/138.0.0.0 Safari/537.36","WebKit","Chrome","138.0.0.0","Windows","10.0","https://app.prolific.com/","en-GB,en-US;q=0.9,en;q=0.8","59dd90f6e75b450001a68dac","6877649eabb845cf142cd221","6893a67962430aae9931f324","1","59dd90f6e75b450001a68dac","1","2025-08-06T19:08:14.203Z","","","","StressQ","","","","","","","","","","","50","","","","","","","","","","","","","","","","","","","","","","","","","","",""
"3353","","<div style=""width:500px;"">
  <p>What best describes how you currently feel?</p>
  </div>","55","html-slider-response","22","387176","0.0-7.0-4.1","214","1","2025-08-06 19:01:36","36c45c0696341be0efffe67d72a12abb","51.19.161.91","Mozilla/5.0 (Windows NT 10.0; Win64; x64) AppleWebKit/537.36 (KHTML, like Gecko) Chrome/138.0.0.0 Safari/537.36","WebKit","Chrome","138.0.0.0","Windows","10.0","https://app.prolific.com/","en-GB,en-US;q=0.9,en;q=0.8","59dd90f6e75b450001a68dac","6877649eabb845cf142cd221","6893a67962430aae9931f324","1","59dd90f6e75b450001a68dac","1","2025-08-06T19:08:17.556Z","","","","MotivationQ","","","","","","","","","","","50","","","","","","","","","","","","","","","","","","","","","","","","","","",""
"","","","","ctl-task-cpt","23","406386","0.0-7.0-0.2","214","1","2025-08-06 19:01:36","36c45c0696341be0efffe67d72a12abb","51.19.161.91","Mozilla/5.0 (Windows NT 10.0; Win64; x64) AppleWebKit/537.36 (KHTML, like Gecko) Chrome/138.0.0.0 Safari/537.36","WebKit","Chrome","138.0.0.0","Windows","10.0","https://app.prolific.com/","en-GB,en-US;q=0.9,en;q=0.8","59dd90f6e75b450001a68dac","6877649eabb845cf142cd221","6893a67962430aae9931f324","1","59dd90f6e75b450001a68dac","1","2025-08-06T19:08:36.766Z","","","","","","","","","","","","","","","","win-only","1","g1:NE,g2:SW","0.8","3","0","402116.7","1032.7","6036.2","16201.5","1","4","4","6","1","1","1","13","12","0.09848484848484848","2790.6","3000","1625","[""up"",""right""]","{""num_key_presses"":4,""num_perfect"":4,""num_errors"":0,""num_randdir"":0,""num_randdir_good_moves"":0,""num_whilered"":0,""num_whileblue"":0,""num_blue"":0,""num_good_moves"":4}","[415.57142857142856,416.47767857142856,0.1,415.57142857142856,416.47767857142856,103.3,415.57142857142856,416.47767857142856,203.5,415.57142857142856,416.47767857142856,307.6,415.57142857142856,416.47767857142856,408.2,415.57142857142856,416.47767857142856,513.4,415.57142857142856,416.47767857142856,613.8,415.57142857142856,416.47767857142856,718.7,406.57142857142856,423.47767857142856,823.9,189.57142857142856,685.4776785714286,927.6,128.57142857142856,816.4776785714286,1027.8,101.57142857142857,822.4776785714286,1128.5,95.57142857142857,792.4776785714286,1229.2,95.57142857142857,785.4776785714286,1332.6,94.57142857142857,785.4776785714286,1433.8,93.57142857142857,785.4776785714286,1538.2,93.57142857142857,785.4776785714286,1643.6,93.57142857142857,785.4776785714286,1748.5,93.57142857142857,785.4776785714286,1848.8,93.57142857142857,785.4776785714286,1953.5,93.57142857142857,785.4776785714286,2057.7,93.57142857142857,785.4776785714286,2157.9,121.57142857142857,766.4776785714286,2259.2,864.5714285714286,200.47767857142856,2363.7,852.5714285714286,154.47767857142856,2468.4,849.5714285714286,119.47767857142857,2568.6,785.5714285714286,103.47767857142857,2668.6,774.5714285714286,96.47767857142857,2773.1,774.5714285714286,96.47767857142857,2874.8,394.57142857142856,181.47767857142856,2978.8,-543.4285714285714,229.47767857142856,3082.7,-543.4285714285714,219.47767857142856,3183.5,-543.4285714285714,219.47767857142856,3288.4,-543.4285714285714,219.47767857142856,3392.9,-543.4285714285714,219.47767857142856,3498.5,-543.4285714285714,219.47767857142856,3604.5,-543.4285714285714,219.47767857142856,3707.9,-543.4285714285714,219.47767857142856,3812.9,-543.4285714285714,219.47767857142856,3913,-543.4285714285714,219.47767857142856,4013.8,-543.4285714285714,219.47767857142856,4113.9,-543.4285714285714,219.47767857142856,4217.9,-543.4285714285714,219.47767857142856,4318.4,-543.4285714285714,219.47767857142856,4419,-543.4285714285714,219.47767857142856,4527.9,-543.4285714285714,219.47767857142856,4629.6,-543.4285714285714,219.47767857142856,4733.5,-543.4285714285714,219.47767857142856,4833.8,-543.4285714285714,219.47767857142856,4934.3]","[1405.4,1405.4,1000,0,405.4,""smooth"",""up"",""up"",""good_move"",4144.2,2738.5,2350.7,1405.7,387.8,""smooth"",""up"",""up"",""good_move"",7256,3111.7,2727.7,4144.4,383.9,""smooth"",""right"",""right"",""good_move"",10056.5,2800.2,2410.7,7256.3,389.5,""smooth"",""right"",""right"",""good_move""]"
"6487","","<div style=""width:500px;"">
  <p>What determined the result of this run?</p>
  </div>","80","html-slider-response","24","412874","0.0-7.0-1.2","214","1","2025-08-06 19:01:36","36c45c0696341be0efffe67d72a12abb","51.19.161.91","Mozilla/5.0 (Windows NT 10.0; Win64; x64) AppleWebKit/537.36 (KHTML, like Gecko) Chrome/138.0.0.0 Safari/537.36","WebKit","Chrome","138.0.0.0","Windows","10.0","https://app.prolific.com/","en-GB,en-US;q=0.9,en;q=0.8","59dd90f6e75b450001a68dac","6877649eabb845cf142cd221","6893a67962430aae9931f324","1","59dd90f6e75b450001a68dac","1","2025-08-06T19:08:43.254Z","","","","AttribQ","","","","","","","","","","","50","","","","","","","","","","","","","","","","","","","","","","","","","","",""
"4291","","<div style=""width:500px;"">
  <p>How much control did you have over the ball?</p>
  </div>","100","html-slider-response","25","417166","0.0-7.0-2.2","214","1","2025-08-06 19:01:36","36c45c0696341be0efffe67d72a12abb","51.19.161.91","Mozilla/5.0 (Windows NT 10.0; Win64; x64) AppleWebKit/537.36 (KHTML, like Gecko) Chrome/138.0.0.0 Safari/537.36","WebKit","Chrome","138.0.0.0","Windows","10.0","https://app.prolific.com/","en-GB,en-US;q=0.9,en;q=0.8","59dd90f6e75b450001a68dac","6877649eabb845cf142cd221","6893a67962430aae9931f324","1","59dd90f6e75b450001a68dac","1","2025-08-06T19:08:47.546Z","","","","ControlQ","","","","","","","","","","","50","","","","","","","","","","","","","","","","","","","","","","","","","","",""
"2141","","<div style=""width:500px;"">
  <p>How would you describe your current emotional state?</p>
  </div>","38","html-slider-response","26","419308","0.0-7.0-3.2","214","1","2025-08-06 19:01:36","36c45c0696341be0efffe67d72a12abb","51.19.161.91","Mozilla/5.0 (Windows NT 10.0; Win64; x64) AppleWebKit/537.36 (KHTML, like Gecko) Chrome/138.0.0.0 Safari/537.36","WebKit","Chrome","138.0.0.0","Windows","10.0","https://app.prolific.com/","en-GB,en-US;q=0.9,en;q=0.8","59dd90f6e75b450001a68dac","6877649eabb845cf142cd221","6893a67962430aae9931f324","1","59dd90f6e75b450001a68dac","1","2025-08-06T19:08:49.688Z","","","","StressQ","","","","","","","","","","","50","","","","","","","","","","","","","","","","","","","","","","","","","","",""
"2137","","<div style=""width:500px;"">
  <p>What best describes how you currently feel?</p>
  </div>","62","html-slider-response","27","421446","0.0-7.0-4.2","214","1","2025-08-06 19:01:36","36c45c0696341be0efffe67d72a12abb","51.19.161.91","Mozilla/5.0 (Windows NT 10.0; Win64; x64) AppleWebKit/537.36 (KHTML, like Gecko) Chrome/138.0.0.0 Safari/537.36","WebKit","Chrome","138.0.0.0","Windows","10.0","https://app.prolific.com/","en-GB,en-US;q=0.9,en;q=0.8","59dd90f6e75b450001a68dac","6877649eabb845cf142cd221","6893a67962430aae9931f324","1","59dd90f6e75b450001a68dac","1","2025-08-06T19:08:51.826Z","","","","MotivationQ","","","","","","","","","","","50","","","","","","","","","","","","","","","","","","","","","","","","","","",""
"","","","","ctl-task-cpt","28","447888","0.0-7.0-0.3","214","1","2025-08-06 19:01:36","36c45c0696341be0efffe67d72a12abb","51.19.161.91","Mozilla/5.0 (Windows NT 10.0; Win64; x64) AppleWebKit/537.36 (KHTML, like Gecko) Chrome/138.0.0.0 Safari/537.36","WebKit","Chrome","138.0.0.0","Windows","10.0","https://app.prolific.com/","en-GB,en-US;q=0.9,en;q=0.8","59dd90f6e75b450001a68dac","6877649eabb845cf142cd221","6893a67962430aae9931f324","1","59dd90f6e75b450001a68dac","1","2025-08-06T19:09:18.268Z","","","","","","","","","","","","","","","","win-only","0","g1:NW,g2:SE","0.7","4","0","436386.2","510.9","5511.3","23431.2","1","4","8","6","2","8","8","21","13","0.1590909090909091","2227.7","3000","865","[""down"",""right""]","{""num_key_presses"":6,""num_perfect"":5,""num_errors"":0,""num_randdir"":1,""num_randdir_good_moves"":1,""num_whilered"":0,""num_whileblue"":0,""num_blue"":1,""num_good_moves"":6}","[412.57142857142856,410.47767857142856,0.1,412.57142857142856,410.47767857142856,105.1,412.57142857142856,410.47767857142856,211.9,412.57142857142856,410.47767857142856,315.9,412.57142857142856,410.47767857142856,420.3,412.57142857142856,410.47767857142856,520.4,412.57142857142856,410.47767857142856,629.3,412.57142857142856,410.47767857142856,731.3,412.57142857142856,410.47767857142856,835.1,412.57142857142856,410.47767857142856,945.4,412.57142857142856,410.47767857142856,1050.1,412.57142857142856,410.47767857142856,1150.3,412.57142857142856,410.47767857142856,1250.3,412.57142857142856,410.47767857142856,1350.3,424.57142857142856,419.47767857142856,1454.5,597.5714285714286,591.4776785714286,1562.4,760.5714285714286,763.4776785714286,1662.8,783.5714285714286,787.4776785714286,1765.3,783.5714285714286,787.4776785714286,1870.1,783.5714285714286,787.4776785714286,1970.3,783.5714285714286,787.4776785714286,2079.3,783.5714285714286,787.4776785714286,2180.6,783.5714285714286,787.4776785714286,2285.8,783.5714285714286,787.4776785714286,2395.2,695.5714285714286,748.4776785714286,2495.8,-199.42857142857144,256.47767857142856,2600.4,-286.42857142857144,190.47767857142856,2706.1,-286.42857142857144,190.47767857142856,2812,-286.42857142857144,190.47767857142856,2912.4,-286.42857142857144,190.47767857142856,3014.6,-286.42857142857144,190.47767857142856,3119.6,-286.42857142857144,190.47767857142856,3220.4,-286.42857142857144,190.47767857142856,3329.1,-286.42857142857144,190.47767857142856,3430.2,-286.42857142857144,190.47767857142856,3534.3,-286.42857142857144,190.47767857142856,3636,-286.42857142857144,190.47767857142856,3745.7,-286.42857142857144,190.47767857142856,3845.8,-286.42857142857144,190.47767857142856,3951.2,-286.42857142857144,190.47767857142856,4054.5,-286.42857142857144,190.47767857142856,4156.1,-286.42857142857144,190.47767857142856,4262.7,-286.42857142857144,190.47767857142856,4365.2,-286.42857142857144,190.47767857142856,4470.4,-286.42857142857144,190.47767857142856,4570.9,-286.42857142857144,190.47767857142856,4679.6,-286.42857142857144,190.47767857142856,4780.8,-286.42857142857144,190.47767857142856,4884.6,-286.42857142857144,190.47767857142856,4986.1]","[4280,4280,1851.4,2011.3,417.3,""smooth"",""down"",""down"",""good_move"",6644,2363.8,1967.6,4280.2,396.2,""smooth"",""down"",""down"",""good_move"",9943.9,3299.7,2908.8,6644.2,390.9,""smooth"",""right"",""right"",""good_move"",12063.5,2119.4,1711,9944.1,408.4,""oops"",""right"",""right"",""good_move"",15152.4,3088.6,2689.7,12063.8,398.9,""smooth"",""right"",""right"",""good_move"",17824.2,2671.6,2266,15152.6,405.6,""smooth"",""down"",""down"",""good_move""]"
"4367","","<div style=""width:500px;"">
  <p>What determined the result of this run?</p>
  </div>","0","html-slider-response","29","452256","0.0-7.0-1.3","214","1","2025-08-06 19:01:36","36c45c0696341be0efffe67d72a12abb","51.19.161.91","Mozilla/5.0 (Windows NT 10.0; Win64; x64) AppleWebKit/537.36 (KHTML, like Gecko) Chrome/138.0.0.0 Safari/537.36","WebKit","Chrome","138.0.0.0","Windows","10.0","https://app.prolific.com/","en-GB,en-US;q=0.9,en;q=0.8","59dd90f6e75b450001a68dac","6877649eabb845cf142cd221","6893a67962430aae9931f324","1","59dd90f6e75b450001a68dac","1","2025-08-06T19:09:22.636Z","","","","AttribQ","","","","","","","","","","","50","","","","","","","","","","","","","","","","","","","","","","","","","","",""
"1833","","<div style=""width:500px;"">
  <p>How much control did you have over the ball?</p>
  </div>","100","html-slider-response","30","454090","0.0-7.0-2.3","214","1","2025-08-06 19:01:36","36c45c0696341be0efffe67d72a12abb","51.19.161.91","Mozilla/5.0 (Windows NT 10.0; Win64; x64) AppleWebKit/537.36 (KHTML, like Gecko) Chrome/138.0.0.0 Safari/537.36","WebKit","Chrome","138.0.0.0","Windows","10.0","https://app.prolific.com/","en-GB,en-US;q=0.9,en;q=0.8","59dd90f6e75b450001a68dac","6877649eabb845cf142cd221","6893a67962430aae9931f324","1","59dd90f6e75b450001a68dac","1","2025-08-06T19:09:24.470Z","","","","ControlQ","","","","","","","","","","","50","","","","","","","","","","","","","","","","","","","","","","","","","","",""
"3163","","<div style=""width:500px;"">
  <p>How would you describe your current emotional state?</p>
  </div>","29","html-slider-response","31","457254","0.0-7.0-3.3","214","1","2025-08-06 19:01:36","36c45c0696341be0efffe67d72a12abb","51.19.161.91","Mozilla/5.0 (Windows NT 10.0; Win64; x64) AppleWebKit/537.36 (KHTML, like Gecko) Chrome/138.0.0.0 Safari/537.36","WebKit","Chrome","138.0.0.0","Windows","10.0","https://app.prolific.com/","en-GB,en-US;q=0.9,en;q=0.8","59dd90f6e75b450001a68dac","6877649eabb845cf142cd221","6893a67962430aae9931f324","1","59dd90f6e75b450001a68dac","1","2025-08-06T19:09:27.634Z","","","","StressQ","","","","","","","","","","","50","","","","","","","","","","","","","","","","","","","","","","","","","","",""
"1745","","<div style=""width:500px;"">
  <p>What best describes how you currently feel?</p>
  </div>","61","html-slider-response","32","459000","0.0-7.0-4.3","214","1","2025-08-06 19:01:36","36c45c0696341be0efffe67d72a12abb","51.19.161.91","Mozilla/5.0 (Windows NT 10.0; Win64; x64) AppleWebKit/537.36 (KHTML, like Gecko) Chrome/138.0.0.0 Safari/537.36","WebKit","Chrome","138.0.0.0","Windows","10.0","https://app.prolific.com/","en-GB,en-US;q=0.9,en;q=0.8","59dd90f6e75b450001a68dac","6877649eabb845cf142cd221","6893a67962430aae9931f324","1","59dd90f6e75b450001a68dac","1","2025-08-06T19:09:29.380Z","","","","MotivationQ","","","","","","","","","","","50","","","","","","","","","","","","","","","","","","","","","","","","","","",""
"","","","","ctl-task-cpt","33","489629","0.0-7.0-0.4","214","1","2025-08-06 19:01:36","36c45c0696341be0efffe67d72a12abb","51.19.161.91","Mozilla/5.0 (Windows NT 10.0; Win64; x64) AppleWebKit/537.36 (KHTML, like Gecko) Chrome/138.0.0.0 Safari/537.36","WebKit","Chrome","138.0.0.0","Windows","10.0","https://app.prolific.com/","en-GB,en-US;q=0.9,en;q=0.8","59dd90f6e75b450001a68dac","6877649eabb845cf142cd221","6893a67962430aae9931f324","1","59dd90f6e75b450001a68dac","1","2025-08-06T19:10:00.009Z","","","","","","","","","","","","","","","","win-only","3","g1:SW,g2:NE","0.6","5","0","473941.2","1688","6691.7","27610.3","1","4","4","6","2","-4","-4","17","21","0.12878787878787878","2434.1","3000","-3015","[""up"",""right""]","{""num_key_presses"":7,""num_perfect"":3,""num_errors"":0,""num_randdir"":4,""num_randdir_good_moves"":1,""num_whilered"":0,""num_whileblue"":0,""num_blue"":0,""num_good_moves"":4}","[411.57142857142856,423.47767857142856,1.9,411.57142857142856,423.47767857142856,102.3,411.57142857142856,423.47767857142856,202.5,411.57142857142856,423.47767857142856,302.9,411.57142857142856,423.47767857142856,403.3,411.57142857142856,423.47767857142856,507.3,411.57142857142856,423.47767857142856,608.4,293.57142857142856,532.4776785714286,713.6,194.57142857142856,639.4776785714286,817.6,139.57142857142856,670.4776785714286,923,101.57142857142857,725.4776785714286,1023.1,86.57142857142857,738.4776785714286,1127.5,86.57142857142857,738.4776785714286,1227.5,86.57142857142857,738.4776785714286,1327.9,86.57142857142857,738.4776785714286,1427.9,86.57142857142857,738.4776785714286,1533.4,86.57142857142857,738.4776785714286,1637.5,86.57142857142857,738.4776785714286,1737.6,551.5714285714286,503.47767857142856,1843.2,840.5714285714286,207.47767857142856,1947.9,844.5714285714286,173.47767857142856,2052.3,818.5714285714286,155.47767857142856,2153,789.5714285714286,103.47767857142857,2253.1,782.5714285714286,95.47767857142857,2353.4,782.5714285714286,95.47767857142857,2458.2,782.5714285714286,95.47767857142857,2562.4,113.57142857142857,89.47767857142857,2663,-543.4285714285714,48.47767857142857,2767.6,-543.4285714285714,47.47767857142857,2872.4,-543.4285714285714,47.47767857142857,2972.9,-543.4285714285714,47.47767857142857,3073.2,-543.4285714285714,47.47767857142857,3177.3,-543.4285714285714,47.47767857142857,3277.4,-543.4285714285714,47.47767857142857,3378.1,-543.4285714285714,47.47767857142857,3482.3,-543.4285714285714,47.47767857142857,3583.1,-543.4285714285714,47.47767857142857,3683.1,-543.4285714285714,47.47767857142857,3787.5,-543.4285714285714,47.47767857142857,3887.8,-543.4285714285714,47.47767857142857,3988.3,-543.4285714285714,47.47767857142857,4088.3,-543.4285714285714,47.47767857142857,4193.2,-543.4285714285714,47.47767857142857,4297.9,-543.4285714285714,47.47767857142857,4403.3,-543.4285714285714,47.47767857142857,4503.6,-543.4285714285714,47.47767857142857,4608,-543.4285714285714,47.47767857142857,4708.3,-543.4285714285714,47.47767857142857,4813.2,-543.4285714285714,47.47767857142857,4917.3]","[1460.5,1460.5,1000,0,460.5,""oops"",""up"",""left"",""bad_move"",4432.4,2971.5,2586.1,1460.9,385.4,""oops"",""up"",""left"",""bad_move"",7120.7,2688.1,2286.7,4432.6,401.4,""smooth"",""right"",""right"",""good_move"",9912.6,2791.6,2418.1,7121,373.5,""smooth"",""right"",""right"",""good_move"",13043.4,3130.7,2782.5,9912.7,348.2,""smooth"",""right"",""right"",""good_move"",15856.8,2813.2,2466.4,13043.6,346.8,""oops"",""right"",""down"",""bad_move"",18393.5,2536.3,2108.5,15857.2,427.8,""oops"",""right"",""right"",""good_move""]"
"3388","","<div style=""width:500px;"">
  <p>What determined the result of this run?</p>
  </div>","63","html-slider-response","34","493018","0.0-7.0-1.4","214","1","2025-08-06 19:01:36","36c45c0696341be0efffe67d72a12abb","51.19.161.91","Mozilla/5.0 (Windows NT 10.0; Win64; x64) AppleWebKit/537.36 (KHTML, like Gecko) Chrome/138.0.0.0 Safari/537.36","WebKit","Chrome","138.0.0.0","Windows","10.0","https://app.prolific.com/","en-GB,en-US;q=0.9,en;q=0.8","59dd90f6e75b450001a68dac","6877649eabb845cf142cd221","6893a67962430aae9931f324","1","59dd90f6e75b450001a68dac","1","2025-08-06T19:10:03.398Z","","","","AttribQ","","","","","","","","","","","50","","","","","","","","","","","","","","","","","","","","","","","","","","",""
"2921","","<div style=""width:500px;"">
  <p>How much control did you have over the ball?</p>
  </div>","26","html-slider-response","35","495940","0.0-7.0-2.4","214","1","2025-08-06 19:01:36","36c45c0696341be0efffe67d72a12abb","51.19.161.91","Mozilla/5.0 (Windows NT 10.0; Win64; x64) AppleWebKit/537.36 (KHTML, like Gecko) Chrome/138.0.0.0 Safari/537.36","WebKit","Chrome","138.0.0.0","Windows","10.0","https://app.prolific.com/","en-GB,en-US;q=0.9,en;q=0.8","59dd90f6e75b450001a68dac","6877649eabb845cf142cd221","6893a67962430aae9931f324","1","59dd90f6e75b450001a68dac","1","2025-08-06T19:10:06.320Z","","","","ControlQ","","","","","","","","","","","50","","","","","","","","","","","","","","","","","","","","","","","","","","",""
"2293","","<div style=""width:500px;"">
  <p>How would you describe your current emotional state?</p>
  </div>","69","html-slider-response","36","498234","0.0-7.0-3.4","214","1","2025-08-06 19:01:36","36c45c0696341be0efffe67d72a12abb","51.19.161.91","Mozilla/5.0 (Windows NT 10.0; Win64; x64) AppleWebKit/537.36 (KHTML, like Gecko) Chrome/138.0.0.0 Safari/537.36","WebKit","Chrome","138.0.0.0","Windows","10.0","https://app.prolific.com/","en-GB,en-US;q=0.9,en;q=0.8","59dd90f6e75b450001a68dac","6877649eabb845cf142cd221","6893a67962430aae9931f324","1","59dd90f6e75b450001a68dac","1","2025-08-06T19:10:08.615Z","","","","StressQ","","","","","","","","","","","50","","","","","","","","","","","","","","","","","","","","","","","","","","",""
"2969","","<div style=""width:500px;"">
  <p>What best describes how you currently feel?</p>
  </div>","45","html-slider-response","37","501204","0.0-7.0-4.4","214","1","2025-08-06 19:01:36","36c45c0696341be0efffe67d72a12abb","51.19.161.91","Mozilla/5.0 (Windows NT 10.0; Win64; x64) AppleWebKit/537.36 (KHTML, like Gecko) Chrome/138.0.0.0 Safari/537.36","WebKit","Chrome","138.0.0.0","Windows","10.0","https://app.prolific.com/","en-GB,en-US;q=0.9,en;q=0.8","59dd90f6e75b450001a68dac","6877649eabb845cf142cd221","6893a67962430aae9931f324","1","59dd90f6e75b450001a68dac","1","2025-08-06T19:10:11.584Z","","","","MotivationQ","","","","","","","","","","","50","","","","","","","","","","","","","","","","","","","","","","","","","","",""
"","","","","ctl-task-cpt","38","526303","0.0-7.0-0.5","214","1","2025-08-06 19:01:36","36c45c0696341be0efffe67d72a12abb","51.19.161.91","Mozilla/5.0 (Windows NT 10.0; Win64; x64) AppleWebKit/537.36 (KHTML, like Gecko) Chrome/138.0.0.0 Safari/537.36","WebKit","Chrome","138.0.0.0","Windows","10.0","https://app.prolific.com/","en-GB,en-US;q=0.9,en;q=0.8","59dd90f6e75b450001a68dac","6877649eabb845cf142cd221","6893a67962430aae9931f324","1","59dd90f6e75b450001a68dac","1","2025-08-06T19:10:36.683Z","","","","","","","","","","","","","","","","win-only","1","g1:NE,g2:SW","0.5","6","0","516144.9","703.1","5705.7","22080.7","1","4","8","6","2","-8","-8","9","17","0.06818181818181818","1259.4","3000","-2700","[""down"",""left""]","{""num_key_presses"":5,""num_perfect"":2,""num_errors"":0,""num_randdir"":3,""num_randdir_good_moves"":1,""num_whilered"":0,""num_whileblue"":0,""num_blue"":0,""num_good_moves"":3}","[414.57142857142856,408.47767857142856,0.1,414.57142857142856,408.47767857142856,109,414.57142857142856,408.47767857142856,212.4,414.57142857142856,408.47767857142856,317.4,414.57142857142856,408.47767857142856,422.2,414.57142857142856,408.47767857142856,522.2,414.57142857142856,408.47767857142856,623.3,414.57142857142856,408.47767857142856,728,311.57142857142856,482.47767857142856,829.6,48.57142857142857,736.4776785714286,930.6,45.57142857142857,752.4776785714286,1032.4,45.57142857142857,752.4776785714286,1137.5,45.57142857142857,752.4776785714286,1237.9,45.57142857142857,752.4776785714286,1338.4,35.57142857142857,752.4776785714286,1443,-543.4285714285714,480.47767857142856,1547.9,-543.4285714285714,224.47767857142856,1648.2,-543.4285714285714,207.47767857142856,1752.7,-543.4285714285714,207.47767857142856,1858.1,-543.4285714285714,207.47767857142856,1963,-543.4285714285714,207.47767857142856,2064.3,-543.4285714285714,207.47767857142856,2168.5,-543.4285714285714,207.47767857142856,2272.4,-543.4285714285714,207.47767857142856,2372.6,-543.4285714285714,207.47767857142856,2472.7,-543.4285714285714,207.47767857142856,2572.9,-543.4285714285714,207.47767857142856,2673.2,-543.4285714285714,207.47767857142856,2777.9,-543.4285714285714,207.47767857142856,2882.8,-543.4285714285714,207.47767857142856,2988,-543.4285714285714,207.47767857142856,3094.2,-543.4285714285714,207.47767857142856,3194.5,-543.4285714285714,207.47767857142856,3295.6,-543.4285714285714,207.47767857142856,3397.4,-543.4285714285714,207.47767857142856,3497.5,-543.4285714285714,207.47767857142856,3597.8,-543.4285714285714,207.47767857142856,3703.4,-543.4285714285714,207.47767857142856,3809.9,-543.4285714285714,207.47767857142856,3912.5,-543.4285714285714,207.47767857142856,4017.1,-543.4285714285714,207.47767857142856,4117.5,-543.4285714285714,207.47767857142856,4217.6,-543.4285714285714,207.47767857142856,4322.5,-543.4285714285714,207.47767857142856,4423,-543.4285714285714,207.47767857142856,4523.9,-543.4285714285714,207.47767857142856,4627.5,-543.4285714285714,207.47767857142856,4727.5,-543.4285714285714,207.47767857142856,4828.4,-543.4285714285714,207.47767857142856,4928.4]","[1718.6,1718.6,1000,0,718.6,""oops"",""down"",""right"",""bad_move"",5142.9,3423.9,2552.9,1719,871,""smooth"",""down"",""down"",""good_move"",8439,3295.8,2890.6,5143.2,405.2,""smooth"",""down"",""down"",""good_move"",11303.9,2864.7,2444.1,8439.2,420.6,""oops"",""down"",""right"",""bad_move"",13998.8,2694.4,2288.5,11304.4,405.9,""oops"",""left"",""down"",""good_move""]"
"3395","","<div style=""width:500px;"">
  <p>What determined the result of this run?</p>
  </div>","68","html-slider-response","39","529700","0.0-7.0-1.5","214","1","2025-08-06 19:01:36","36c45c0696341be0efffe67d72a12abb","51.19.161.91","Mozilla/5.0 (Windows NT 10.0; Win64; x64) AppleWebKit/537.36 (KHTML, like Gecko) Chrome/138.0.0.0 Safari/537.36","WebKit","Chrome","138.0.0.0","Windows","10.0","https://app.prolific.com/","en-GB,en-US;q=0.9,en;q=0.8","59dd90f6e75b450001a68dac","6877649eabb845cf142cd221","6893a67962430aae9931f324","1","59dd90f6e75b450001a68dac","1","2025-08-06T19:10:40.080Z","","","","AttribQ","","","","","","","","","","","50","","","","","","","","","","","","","","","","","","","","","","","","","","",""
"3503","","<div style=""width:500px;"">
  <p>How much control did you have over the ball?</p>
  </div>","22","html-slider-response","40","533203","0.0-7.0-2.5","214","1","2025-08-06 19:01:36","36c45c0696341be0efffe67d72a12abb","51.19.161.91","Mozilla/5.0 (Windows NT 10.0; Win64; x64) AppleWebKit/537.36 (KHTML, like Gecko) Chrome/138.0.0.0 Safari/537.36","WebKit","Chrome","138.0.0.0","Windows","10.0","https://app.prolific.com/","en-GB,en-US;q=0.9,en;q=0.8","59dd90f6e75b450001a68dac","6877649eabb845cf142cd221","6893a67962430aae9931f324","1","59dd90f6e75b450001a68dac","1","2025-08-06T19:10:43.583Z","","","","ControlQ","","","","","","","","","","","50","","","","","","","","","","","","","","","","","","","","","","","","","","",""
"2527","","<div style=""width:500px;"">
  <p>How would you describe your current emotional state?</p>
  </div>","85","html-slider-response","41","535732","0.0-7.0-3.5","214","1","2025-08-06 19:01:36","36c45c0696341be0efffe67d72a12abb","51.19.161.91","Mozilla/5.0 (Windows NT 10.0; Win64; x64) AppleWebKit/537.36 (KHTML, like Gecko) Chrome/138.0.0.0 Safari/537.36","WebKit","Chrome","138.0.0.0","Windows","10.0","https://app.prolific.com/","en-GB,en-US;q=0.9,en;q=0.8","59dd90f6e75b450001a68dac","6877649eabb845cf142cd221","6893a67962430aae9931f324","1","59dd90f6e75b450001a68dac","1","2025-08-06T19:10:46.112Z","","","","StressQ","","","","","","","","","","","50","","","","","","","","","","","","","","","","","","","","","","","","","","",""
"1780","","<div style=""width:500px;"">
  <p>What best describes how you currently feel?</p>
  </div>","35","html-slider-response","42","537512","0.0-7.0-4.5","214","1","2025-08-06 19:01:36","36c45c0696341be0efffe67d72a12abb","51.19.161.91","Mozilla/5.0 (Windows NT 10.0; Win64; x64) AppleWebKit/537.36 (KHTML, like Gecko) Chrome/138.0.0.0 Safari/537.36","WebKit","Chrome","138.0.0.0","Windows","10.0","https://app.prolific.com/","en-GB,en-US;q=0.9,en;q=0.8","59dd90f6e75b450001a68dac","6877649eabb845cf142cd221","6893a67962430aae9931f324","1","59dd90f6e75b450001a68dac","1","2025-08-06T19:10:47.892Z","","","","MotivationQ","","","","","","","","","","","50","","","","","","","","","","","","","","","","","","","","","","","","","","",""
"","","","","ctl-task-cpt","43","576803","0.0-7.0-0.6","214","1","2025-08-06 19:01:36","36c45c0696341be0efffe67d72a12abb","51.19.161.91","Mozilla/5.0 (Windows NT 10.0; Win64; x64) AppleWebKit/537.36 (KHTML, like Gecko) Chrome/138.0.0.0 Safari/537.36","WebKit","Chrome","138.0.0.0","Windows","10.0","https://app.prolific.com/","en-GB,en-US;q=0.9,en;q=0.8","59dd90f6e75b450001a68dac","6877649eabb845cf142cd221","6893a67962430aae9931f324","1","59dd90f6e75b450001a68dac","1","2025-08-06T19:11:27.183Z","","","","","","","","","","","","","","","","win-only","3","g1:SW,g2:NE","0.4","7","0","552453.2","589.4","5591.3","36265.4","1","4","8","6","2","-8","-8","1","9","0.007575757575757576","1357.3","3000","-2715","[""up"",""right""]","{""num_key_presses"":7,""num_perfect"":3,""num_errors"":0,""num_randdir"":4,""num_randdir_good_moves"":2,""num_whilered"":0,""num_whileblue"":0,""num_blue"":2,""num_good_moves"":5}","[413.57142857142856,421.47767857142856,0.1,415.57142857142856,421.47767857142856,101.1,415.57142857142856,421.47767857142856,201.8,406.57142857142856,425.47767857142856,306.5,360.57142857142856,496.47767857142856,412.7,299.57142857142856,558.4776785714286,518.9,302.57142857142856,556.4776785714286,621.9,460.57142857142856,425.47767857142856,727.3,645.5714285714286,265.47767857142856,834,687.5714285714286,217.47767857142856,935.9,717.5714285714286,156.47767857142856,1037.4,728.5714285714286,126.47767857142857,1142.7,730.5714285714286,119.47767857142857,1251,732.5714285714286,117.47767857142857,1351.6,732.5714285714286,117.47767857142857,1456.7,568.5714285714286,150.47767857142856,1561.8,-221.42857142857144,169.47767857142856,1669,-543.4285714285714,169.47767857142856,1771.5,-543.4285714285714,169.47767857142856,1876.4,-543.4285714285714,169.47767857142856,1976.5,-543.4285714285714,169.47767857142856,2076.5,-543.4285714285714,169.47767857142856,2187.6,-543.4285714285714,169.47767857142856,2288.4,-543.4285714285714,169.47767857142856,2391.9,-543.4285714285714,169.47767857142856,2501.2,-543.4285714285714,169.47767857142856,2601.8,-543.4285714285714,169.47767857142856,2707.3,-543.4285714285714,169.47767857142856,2811.6,-543.4285714285714,169.47767857142856,2919.2,-543.4285714285714,169.47767857142856,3021.6,-543.4285714285714,169.47767857142856,3122.9,-543.4285714285714,169.47767857142856,3228.3,-543.4285714285714,169.47767857142856,3334.2,-543.4285714285714,169.47767857142856,3434.3,-543.4285714285714,169.47767857142856,3534.8,-543.4285714285714,169.47767857142856,3635.9,-543.4285714285714,169.47767857142856,3736.1,-543.4285714285714,169.47767857142856,3836.7,-543.4285714285714,169.47767857142856,3937.2,-543.4285714285714,169.47767857142856,4041.5,-543.4285714285714,169.47767857142856,4151,-543.4285714285714,169.47767857142856,4255.9,-543.4285714285714,169.47767857142856,4361,-543.4285714285714,169.47767857142856,4467.9,-543.4285714285714,169.47767857142856,4568.5,-543.4285714285714,169.47767857142856,4672.2,-543.4285714285714,169.47767857142856,4777.1,-543.4285714285714,169.47767857142856,4884.9,-543.4285714285714,169.47767857142856,4986.5]","[1513.8,1513.8,1000,0,513.8,""oops"",""up"",""up"",""good_move"",5348.9,3834.9,3413.9,1514,421,""smooth"",""up"",""up"",""good_move"",12500.9,7151.8,2561.8,9269.6,669.5,""smooth"",""up"",""up"",""good_move"",17932.6,5431.5,1637.5,15749.9,545.2,""smooth"",""right"",""right"",""good_move"",21420.6,3487.7,3039.9,17932.9,447.8,""oops"",""right"",""down"",""bad_move"",24597.6,3176.6,2777.9,21421,398.7,""oops"",""up"",""right"",""good_move"",27204.5,2606.8,2256.1,24597.7,350.7,""oops"",""up"",""left"",""bad_move""]"
"3567","","<div style=""width:500px;"">
  <p>What determined the result of this run?</p>
  </div>","72","html-slider-response","44","580371","0.0-7.0-1.6","214","1","2025-08-06 19:01:36","36c45c0696341be0efffe67d72a12abb","51.19.161.91","Mozilla/5.0 (Windows NT 10.0; Win64; x64) AppleWebKit/537.36 (KHTML, like Gecko) Chrome/138.0.0.0 Safari/537.36","WebKit","Chrome","138.0.0.0","Windows","10.0","https://app.prolific.com/","en-GB,en-US;q=0.9,en;q=0.8","59dd90f6e75b450001a68dac","6877649eabb845cf142cd221","6893a67962430aae9931f324","1","59dd90f6e75b450001a68dac","1","2025-08-06T19:11:30.751Z","","","","AttribQ","","","","","","","","","","","50","","","","","","","","","","","","","","","","","","","","","","","","","","",""
"2331","","<div style=""width:500px;"">
  <p>How much control did you have over the ball?</p>
  </div>","6","html-slider-response","45","582703","0.0-7.0-2.6","214","1","2025-08-06 19:01:36","36c45c0696341be0efffe67d72a12abb","51.19.161.91","Mozilla/5.0 (Windows NT 10.0; Win64; x64) AppleWebKit/537.36 (KHTML, like Gecko) Chrome/138.0.0.0 Safari/537.36","WebKit","Chrome","138.0.0.0","Windows","10.0","https://app.prolific.com/","en-GB,en-US;q=0.9,en;q=0.8","59dd90f6e75b450001a68dac","6877649eabb845cf142cd221","6893a67962430aae9931f324","1","59dd90f6e75b450001a68dac","1","2025-08-06T19:11:33.083Z","","","","ControlQ","","","","","","","","","","","50","","","","","","","","","","","","","","","","","","","","","","","","","","",""
"2452","","<div style=""width:500px;"">
  <p>How would you describe your current emotional state?</p>
  </div>","100","html-slider-response","46","585156","0.0-7.0-3.6","214","1","2025-08-06 19:01:36","36c45c0696341be0efffe67d72a12abb","51.19.161.91","Mozilla/5.0 (Windows NT 10.0; Win64; x64) AppleWebKit/537.36 (KHTML, like Gecko) Chrome/138.0.0.0 Safari/537.36","WebKit","Chrome","138.0.0.0","Windows","10.0","https://app.prolific.com/","en-GB,en-US;q=0.9,en;q=0.8","59dd90f6e75b450001a68dac","6877649eabb845cf142cd221","6893a67962430aae9931f324","1","59dd90f6e75b450001a68dac","1","2025-08-06T19:11:35.536Z","","","","StressQ","","","","","","","","","","","50","","","","","","","","","","","","","","","","","","","","","","","","","","",""
"2164","","<div style=""width:500px;"">
  <p>What best describes how you currently feel?</p>
  </div>","19","html-slider-response","47","587321","0.0-7.0-4.6","214","1","2025-08-06 19:01:36","36c45c0696341be0efffe67d72a12abb","51.19.161.91","Mozilla/5.0 (Windows NT 10.0; Win64; x64) AppleWebKit/537.36 (KHTML, like Gecko) Chrome/138.0.0.0 Safari/537.36","WebKit","Chrome","138.0.0.0","Windows","10.0","https://app.prolific.com/","en-GB,en-US;q=0.9,en;q=0.8","59dd90f6e75b450001a68dac","6877649eabb845cf142cd221","6893a67962430aae9931f324","1","59dd90f6e75b450001a68dac","1","2025-08-06T19:11:37.701Z","","","","MotivationQ","","","","","","","","","","","50","","","","","","","","","","","","","","","","","","","","","","","","","","",""
"","","","","ctl-task-cpt","48","616401","0.0-7.0-0.7","214","1","2025-08-06 19:01:36","36c45c0696341be0efffe67d72a12abb","51.19.161.91","Mozilla/5.0 (Windows NT 10.0; Win64; x64) AppleWebKit/537.36 (KHTML, like Gecko) Chrome/138.0.0.0 Safari/537.36","WebKit","Chrome","138.0.0.0","Windows","10.0","https://app.prolific.com/","en-GB,en-US;q=0.9,en;q=0.8","59dd90f6e75b450001a68dac","6877649eabb845cf142cd221","6893a67962430aae9931f324","1","59dd90f6e75b450001a68dac","1","2025-08-06T19:12:06.781Z","","","","","","","","","","","","","","","","win-only","0","g1:NW,g2:SE","0.3","8","0","602262.2","645.5","5646.3","26061.8","1","4","4","6","1","-1","-1","0","1","0","1070.2","3000","-3015","[""left"",""up""]","{""num_key_presses"":7,""num_perfect"":2,""num_errors"":0,""num_randdir"":5,""num_randdir_good_moves"":3,""num_whilered"":0,""num_whileblue"":0,""num_blue"":0,""num_good_moves"":5}","[411.57142857142856,421.47767857142856,0.1,411.57142857142856,421.47767857142856,100.8,408.57142857142856,422.47767857142856,201,408.57142857142856,422.47767857142856,306,408.57142857142856,422.47767857142856,410.2,408.57142857142856,422.47767857142856,511.4,408.57142857142856,422.47767857142856,614.7,66.57142857142857,172.47767857142856,717.1,49.57142857142857,138.47767857142856,818.9,46.57142857142857,115.47767857142857,920.8,51.57142857142857,93.47767857142857,1025.1,51.57142857142857,93.47767857142857,1129.8,47.57142857142857,93.47767857142857,1230.7,47.57142857142857,93.47767857142857,1335.4,47.57142857142857,93.47767857142857,1439.8,47.57142857142857,93.47767857142857,1540.9,47.57142857142857,93.47767857142857,1645.8,47.57142857142857,93.47767857142857,1750.2,47.57142857142857,93.47767857142857,1851.6,47.57142857142857,93.47767857142857,1956,47.57142857142857,93.47767857142857,2056.1,47.57142857142857,93.47767857142857,2156.4,47.57142857142857,93.47767857142857,2261.3,47.57142857142857,93.47767857142857,2361.6,47.57142857142857,93.47767857142857,2465.8,47.57142857142857,93.47767857142857,2570.7,47.57142857142857,93.47767857142857,2676.1,47.57142857142857,93.47767857142857,2780.7,47.57142857142857,93.47767857142857,2887.9,47.57142857142857,93.47767857142857,2989.8,47.57142857142857,93.47767857142857,3091,47.57142857142857,93.47767857142857,3196.2,47.57142857142857,93.47767857142857,3296.6,47.57142857142857,93.47767857142857,3403.6,47.57142857142857,93.47767857142857,3506.4,47.57142857142857,93.47767857142857,3610.3,47.57142857142857,93.47767857142857,3715.2,47.57142857142857,93.47767857142857,3816.9,47.57142857142857,93.47767857142857,3921.3,47.57142857142857,93.47767857142857,4026.3,47.57142857142857,93.47767857142857,4130.4,47.57142857142857,93.47767857142857,4230.7,47.57142857142857,93.47767857142857,4331.5,47.57142857142857,93.47767857142857,4435.7,47.57142857142857,93.47767857142857,4536,47.57142857142857,93.47767857142857,4636.7,47.57142857142857,93.47767857142857,4737.8,47.57142857142857,93.47767857142857,4840.9,47.57142857142857,93.47767857142857,4944.8]","[1485,1485,1000,0,485,""oops"",""left"",""up"",""good_move"",4404.7,2919.4,2219.8,1485.3,699.6,""oops"",""left"",""down"",""bad_move"",6636.8,2231.9,1877,4405,354.9,""oops"",""left"",""up"",""good_move"",9284.6,2647.5,2237.7,6637.1,409.8,""oops"",""left"",""up"",""good_move"",11716.6,2431.7,2049.3,9284.9,382.4,""smooth"",""left"",""left"",""good_move"",14772.6,3055.7,2713.5,11716.9,342.2,""oops"",""left"",""down"",""bad_move"",17734.5,2961.6,2596.3,14772.9,365.3,""smooth"",""left"",""left"",""good_move""]"
"2399","","<div style=""width:500px;"">
  <p>What determined the result of this run?</p>
  </div>","1","html-slider-response","49","618802","0.0-7.0-1.7","214","1","2025-08-06 19:01:36","36c45c0696341be0efffe67d72a12abb","51.19.161.91","Mozilla/5.0 (Windows NT 10.0; Win64; x64) AppleWebKit/537.36 (KHTML, like Gecko) Chrome/138.0.0.0 Safari/537.36","WebKit","Chrome","138.0.0.0","Windows","10.0","https://app.prolific.com/","en-GB,en-US;q=0.9,en;q=0.8","59dd90f6e75b450001a68dac","6877649eabb845cf142cd221","6893a67962430aae9931f324","1","59dd90f6e75b450001a68dac","1","2025-08-06T19:12:09.182Z","","","","AttribQ","","","","","","","","","","","50","","","","","","","","","","","","","","","","","","","","","","","","","","",""
"2838","","<div style=""width:500px;"">
  <p>How much control did you have over the ball?</p>
  </div>","19","html-slider-response","50","621640","0.0-7.0-2.7","214","1","2025-08-06 19:01:36","36c45c0696341be0efffe67d72a12abb","51.19.161.91","Mozilla/5.0 (Windows NT 10.0; Win64; x64) AppleWebKit/537.36 (KHTML, like Gecko) Chrome/138.0.0.0 Safari/537.36","WebKit","Chrome","138.0.0.0","Windows","10.0","https://app.prolific.com/","en-GB,en-US;q=0.9,en;q=0.8","59dd90f6e75b450001a68dac","6877649eabb845cf142cd221","6893a67962430aae9931f324","1","59dd90f6e75b450001a68dac","1","2025-08-06T19:12:12.020Z","","","","ControlQ","","","","","","","","","","","50","","","","","","","","","","","","","","","","","","","","","","","","","","",""
"2666","","<div style=""width:500px;"">
  <p>How would you describe your current emotional state?</p>
  </div>","92","html-slider-response","51","624307","0.0-7.0-3.7","214","1","2025-08-06 19:01:36","36c45c0696341be0efffe67d72a12abb","51.19.161.91","Mozilla/5.0 (Windows NT 10.0; Win64; x64) AppleWebKit/537.36 (KHTML, like Gecko) Chrome/138.0.0.0 Safari/537.36","WebKit","Chrome","138.0.0.0","Windows","10.0","https://app.prolific.com/","en-GB,en-US;q=0.9,en;q=0.8","59dd90f6e75b450001a68dac","6877649eabb845cf142cd221","6893a67962430aae9931f324","1","59dd90f6e75b450001a68dac","1","2025-08-06T19:12:14.687Z","","","","StressQ","","","","","","","","","","","50","","","","","","","","","","","","","","","","","","","","","","","","","","",""
"1680","","<div style=""width:500px;"">
  <p>What best describes how you currently feel?</p>
  </div>","36","html-slider-response","52","625987","0.0-7.0-4.7","214","1","2025-08-06 19:01:36","36c45c0696341be0efffe67d72a12abb","51.19.161.91","Mozilla/5.0 (Windows NT 10.0; Win64; x64) AppleWebKit/537.36 (KHTML, like Gecko) Chrome/138.0.0.0 Safari/537.36","WebKit","Chrome","138.0.0.0","Windows","10.0","https://app.prolific.com/","en-GB,en-US;q=0.9,en;q=0.8","59dd90f6e75b450001a68dac","6877649eabb845cf142cd221","6893a67962430aae9931f324","1","59dd90f6e75b450001a68dac","1","2025-08-06T19:12:16.367Z","","","","MotivationQ","","","","","","","","","","","50","","","","","","","","","","","","","","","","","","","","","","","","","","",""
"","","","","ctl-task-cpt","53","655820","0.0-7.0-0.8","214","1","2025-08-06 19:01:36","36c45c0696341be0efffe67d72a12abb","51.19.161.91","Mozilla/5.0 (Windows NT 10.0; Win64; x64) AppleWebKit/537.36 (KHTML, like Gecko) Chrome/138.0.0.0 Safari/537.36","WebKit","Chrome","138.0.0.0","Windows","10.0","https://app.prolific.com/","en-GB,en-US;q=0.9,en;q=0.8","59dd90f6e75b450001a68dac","6877649eabb845cf142cd221","6893a67962430aae9931f324","1","59dd90f6e75b450001a68dac","1","2025-08-06T19:12:46.200Z","","","","","","","","","","","","","","","","win-only","2","g1:SE,g2:NW","0.4","9","0","640928.8","997.1","6000.8","26825.9","1","4","8","6","1","-1","-1","0","0","0","998","3000","-2700","[""down"",""right""]","{""num_key_presses"":5,""num_perfect"":2,""num_errors"":0,""num_randdir"":3,""num_randdir_good_moves"":0,""num_whilered"":0,""num_whileblue"":0,""num_blue"":1,""num_good_moves"":2}","[415.57142857142856,418.47767857142856,0.2,413.57142857142856,418.47767857142856,103.6,410.57142857142856,418.47767857142856,208.3,407.57142857142856,419.47767857142856,308.6,407.57142857142856,419.47767857142856,409.6,431.57142857142856,438.47767857142856,513.1,687.5714285714286,693.4776785714286,614.1,692.5714285714286,705.4776785714286,718.7,692.5714285714286,705.4776785714286,819.1,715.5714285714286,718.4776785714286,923.6,725.5714285714286,722.4776785714286,1024.1,725.5714285714286,722.4776785714286,1128.5,710.5714285714286,712.4776785714286,1228.8,711.5714285714286,712.4776785714286,1329.1,711.5714285714286,712.4776785714286,1433.4,711.5714285714286,712.4776785714286,1533.6,711.5714285714286,712.4776785714286,1639.4,711.5714285714286,712.4776785714286,1743.8,711.5714285714286,712.4776785714286,1848.9,711.5714285714286,712.4776785714286,1949.6,711.5714285714286,712.4776785714286,2054.3,711.5714285714286,712.4776785714286,2158.6,711.5714285714286,712.4776785714286,2259.2,711.5714285714286,712.4776785714286,2363.4,711.5714285714286,712.4776785714286,2468.5,711.5714285714286,712.4776785714286,2573.5,711.5714285714286,712.4776785714286,2674.4,711.5714285714286,712.4776785714286,2778.5,711.5714285714286,712.4776785714286,2879.1,711.5714285714286,712.4776785714286,2985.4,711.5714285714286,712.4776785714286,3086.8,711.5714285714286,712.4776785714286,3188.6,711.5714285714286,712.4776785714286,3289.4,711.5714285714286,712.4776785714286,3394,711.5714285714286,712.4776785714286,3494.8,711.5714285714286,712.4776785714286,3599,711.5714285714286,712.4776785714286,3703.8,711.5714285714286,712.4776785714286,3804.6,711.5714285714286,712.4776785714286,3908.7,711.5714285714286,712.4776785714286,4008.8,711.5714285714286,712.4776785714286,4113,711.5714285714286,712.4776785714286,4213.8,711.5714285714286,712.4776785714286,4319.1,711.5714285714286,712.4776785714286,4424.3,711.5714285714286,712.4776785714286,4528.7,711.5714285714286,712.4776785714286,4628.8,711.5714285714286,712.4776785714286,4730.1,711.5714285714286,712.4776785714286,4834.2,711.5714285714286,712.4776785714286,4938.7]","[1504.6,1504.6,1000,0,504.6,""oops"",""down"",""up"",""bad_move"",4215.4,2710.5,2225.5,1504.9,485,""smooth"",""down"",""down"",""good_move"",8352,4136.3,3559.3,4215.7,577,""oops"",""down"",""up"",""bad_move"",11615.7,3263.5,2603.8,8352.2,659.7,""oops"",""down"",""up"",""bad_move"",17511.7,5895.8,1972.5,14984.6,554.6,""smooth"",""down"",""down"",""good_move""]"
"2462","","<div style=""width:500px;"">
  <p>What determined the result of this run?</p>
  </div>","0","html-slider-response","54","658283","0.0-7.0-1.8","214","1","2025-08-06 19:01:36","36c45c0696341be0efffe67d72a12abb","51.19.161.91","Mozilla/5.0 (Windows NT 10.0; Win64; x64) AppleWebKit/537.36 (KHTML, like Gecko) Chrome/138.0.0.0 Safari/537.36","WebKit","Chrome","138.0.0.0","Windows","10.0","https://app.prolific.com/","en-GB,en-US;q=0.9,en;q=0.8","59dd90f6e75b450001a68dac","6877649eabb845cf142cd221","6893a67962430aae9931f324","1","59dd90f6e75b450001a68dac","1","2025-08-06T19:12:48.663Z","","","","AttribQ","","","","","","","","","","","50","","","","","","","","","","","","","","","","","","","","","","","","","","",""
"2935","","<div style=""width:500px;"">
  <p>How much control did you have over the ball?</p>
  </div>","0","html-slider-response","55","661219","0.0-7.0-2.8","214","1","2025-08-06 19:01:36","36c45c0696341be0efffe67d72a12abb","51.19.161.91","Mozilla/5.0 (Windows NT 10.0; Win64; x64) AppleWebKit/537.36 (KHTML, like Gecko) Chrome/138.0.0.0 Safari/537.36","WebKit","Chrome","138.0.0.0","Windows","10.0","https://app.prolific.com/","en-GB,en-US;q=0.9,en;q=0.8","59dd90f6e75b450001a68dac","6877649eabb845cf142cd221","6893a67962430aae9931f324","1","59dd90f6e75b450001a68dac","1","2025-08-06T19:12:51.599Z","","","","ControlQ","","","","","","","","","","","50","","","","","","","","","","","","","","","","","","","","","","","","","","",""
"3095","","<div style=""width:500px;"">
  <p>How would you describe your current emotional state?</p>
  </div>","74","html-slider-response","56","664314","0.0-7.0-3.8","214","1","2025-08-06 19:01:36","36c45c0696341be0efffe67d72a12abb","51.19.161.91","Mozilla/5.0 (Windows NT 10.0; Win64; x64) AppleWebKit/537.36 (KHTML, like Gecko) Chrome/138.0.0.0 Safari/537.36","WebKit","Chrome","138.0.0.0","Windows","10.0","https://app.prolific.com/","en-GB,en-US;q=0.9,en;q=0.8","59dd90f6e75b450001a68dac","6877649eabb845cf142cd221","6893a67962430aae9931f324","1","59dd90f6e75b450001a68dac","1","2025-08-06T19:12:54.695Z","","","","StressQ","","","","","","","","","","","50","","","","","","","","","","","","","","","","","","","","","","","","","","",""
"1759","","<div style=""width:500px;"">
  <p>What best describes how you currently feel?</p>
  </div>","14","html-slider-response","57","666075","0.0-7.0-4.8","214","1","2025-08-06 19:01:36","36c45c0696341be0efffe67d72a12abb","51.19.161.91","Mozilla/5.0 (Windows NT 10.0; Win64; x64) AppleWebKit/537.36 (KHTML, like Gecko) Chrome/138.0.0.0 Safari/537.36","WebKit","Chrome","138.0.0.0","Windows","10.0","https://app.prolific.com/","en-GB,en-US;q=0.9,en;q=0.8","59dd90f6e75b450001a68dac","6877649eabb845cf142cd221","6893a67962430aae9931f324","1","59dd90f6e75b450001a68dac","1","2025-08-06T19:12:56.455Z","","","","MotivationQ","","","","","","","","","","","50","","","","","","","","","","","","","","","","","","","","","","","","","","",""
"","","","","ctl-task-cpt","58","688520","0.0-7.0-0.9","214","1","2025-08-06 19:01:36","36c45c0696341be0efffe67d72a12abb","51.19.161.91","Mozilla/5.0 (Windows NT 10.0; Win64; x64) AppleWebKit/537.36 (KHTML, like Gecko) Chrome/138.0.0.0 Safari/537.36","WebKit","Chrome","138.0.0.0","Windows","10.0","https://app.prolific.com/","en-GB,en-US;q=0.9,en;q=0.8","59dd90f6e75b450001a68dac","6877649eabb845cf142cd221","6893a67962430aae9931f324","1","59dd90f6e75b450001a68dac","1","2025-08-06T19:13:18.900Z","","","","","","","","","","","","","","","","win-only","1","g1:NE,g2:SW","0.5","10","0","681016.5","675","5675.7","19441","1","4","4","6","1","1","1","1","0","0.007575757575757576","1207.2","3000","1560","[""up"",""right""]","{""num_key_presses"":4,""num_perfect"":2,""num_errors"":0,""num_randdir"":2,""num_randdir_good_moves"":2,""num_whilered"":0,""num_whileblue"":0,""num_blue"":1,""num_good_moves"":4}","[415.57142857142856,409.47767857142856,0.1,415.57142857142856,409.47767857142856,100.6,415.57142857142856,413.47767857142856,201.4,415.57142857142856,415.47767857142856,302.2,417.57142857142856,432.47767857142856,403.6,417.57142857142856,432.47767857142856,505.4,417.57142857142856,432.47767857142856,607.4,473.57142857142856,411.47767857142856,711.9,765.5714285714286,203.47767857142856,819.3,814.5714285714286,150.47767857142856,921,808.5714285714286,138.47767857142856,1027.1,764.5714285714286,101.47767857142857,1130.9,750.5714285714286,86.47767857142857,1235.6,750.5714285714286,86.47767857142857,1335.8,720.5714285714286,186.47767857142856,1437,411.57142857142856,452.47767857142856,1541.2,388.57142857142856,471.47767857142856,1646.5,388.57142857142856,471.47767857142856,1746.9,388.57142857142856,471.47767857142856,1846.9,388.57142857142856,471.47767857142856,1952,388.57142857142856,471.47767857142856,2055.5,388.57142857142856,471.47767857142856,2156,388.57142857142856,471.47767857142856,2261.3,388.57142857142856,471.47767857142856,2366,388.57142857142856,471.47767857142856,2470.7,388.57142857142856,471.47767857142856,2570.9,388.57142857142856,471.47767857142856,2676.4,388.57142857142856,471.47767857142856,2777.5,388.57142857142856,471.47767857142856,2881.6,388.57142857142856,471.47767857142856,2982,388.57142857142856,471.47767857142856,3087.1,388.57142857142856,471.47767857142856,3190.7,388.57142857142856,471.47767857142856,3291.3,388.57142857142856,471.47767857142856,3396.5,388.57142857142856,471.47767857142856,3501.1,388.57142857142856,471.47767857142856,3602.7,388.57142857142856,471.47767857142856,3705.4,388.57142857142856,471.47767857142856,3806.5,388.57142857142856,471.47767857142856,3911.4,388.57142857142856,471.47767857142856,4016,388.57142857142856,471.47767857142856,4120.4,388.57142857142856,471.47767857142856,4221.2,388.57142857142856,471.47767857142856,4321.2,388.57142857142856,471.47767857142856,4427.7,388.57142857142856,471.47767857142856,4530.6,388.57142857142856,471.47767857142856,4631.3,388.57142857142856,471.47767857142856,4731.9,388.57142857142856,471.47767857142856,4835.6,388.57142857142856,471.47767857142856,4937.9]","[1436.8,1436.8,1000,0,436.8,""smooth"",""up"",""up"",""good_move"",4292.9,2855.8,2422.3,1437.1,433.5,""oops"",""up"",""up"",""good_move"",6669.3,2376.1,2006.1,4293.2,370,""oops"",""right"",""right"",""good_move"",13653,6983.4,2920.7,10353.1,379.2,""smooth"",""right"",""right"",""good_move""]"
"5039","","<div style=""width:500px;"">
  <p>What determined the result of this run?</p>
  </div>","100","html-slider-response","59","693560","0.0-7.0-1.9","214","1","2025-08-06 19:01:36","36c45c0696341be0efffe67d72a12abb","51.19.161.91","Mozilla/5.0 (Windows NT 10.0; Win64; x64) AppleWebKit/537.36 (KHTML, like Gecko) Chrome/138.0.0.0 Safari/537.36","WebKit","Chrome","138.0.0.0","Windows","10.0","https://app.prolific.com/","en-GB,en-US;q=0.9,en;q=0.8","59dd90f6e75b450001a68dac","6877649eabb845cf142cd221","6893a67962430aae9931f324","1","59dd90f6e75b450001a68dac","1","2025-08-06T19:13:23.940Z","","","","AttribQ","","","","","","","","","","","50","","","","","","","","","","","","","","","","","","","","","","","","","","",""
"1493","","<div style=""width:500px;"">
  <p>How much control did you have over the ball?</p>
  </div>","100","html-slider-response","60","695054","0.0-7.0-2.9","214","1","2025-08-06 19:01:36","36c45c0696341be0efffe67d72a12abb","51.19.161.91","Mozilla/5.0 (Windows NT 10.0; Win64; x64) AppleWebKit/537.36 (KHTML, like Gecko) Chrome/138.0.0.0 Safari/537.36","WebKit","Chrome","138.0.0.0","Windows","10.0","https://app.prolific.com/","en-GB,en-US;q=0.9,en;q=0.8","59dd90f6e75b450001a68dac","6877649eabb845cf142cd221","6893a67962430aae9931f324","1","59dd90f6e75b450001a68dac","1","2025-08-06T19:13:25.434Z","","","","ControlQ","","","","","","","","","","","50","","","","","","","","","","","","","","","","","","","","","","","","","","",""
"2349","","<div style=""width:500px;"">
  <p>How would you describe your current emotional state?</p>
  </div>","72","html-slider-response","61","697404","0.0-7.0-3.9","214","1","2025-08-06 19:01:36","36c45c0696341be0efffe67d72a12abb","51.19.161.91","Mozilla/5.0 (Windows NT 10.0; Win64; x64) AppleWebKit/537.36 (KHTML, like Gecko) Chrome/138.0.0.0 Safari/537.36","WebKit","Chrome","138.0.0.0","Windows","10.0","https://app.prolific.com/","en-GB,en-US;q=0.9,en;q=0.8","59dd90f6e75b450001a68dac","6877649eabb845cf142cd221","6893a67962430aae9931f324","1","59dd90f6e75b450001a68dac","1","2025-08-06T19:13:27.784Z","","","","StressQ","","","","","","","","","","","50","","","","","","","","","","","","","","","","","","","","","","","","","","",""
"1868","","<div style=""width:500px;"">
  <p>What best describes how you currently feel?</p>
  </div>","25","html-slider-response","62","699273","0.0-7.0-4.9","214","1","2025-08-06 19:01:36","36c45c0696341be0efffe67d72a12abb","51.19.161.91","Mozilla/5.0 (Windows NT 10.0; Win64; x64) AppleWebKit/537.36 (KHTML, like Gecko) Chrome/138.0.0.0 Safari/537.36","WebKit","Chrome","138.0.0.0","Windows","10.0","https://app.prolific.com/","en-GB,en-US;q=0.9,en;q=0.8","59dd90f6e75b450001a68dac","6877649eabb845cf142cd221","6893a67962430aae9931f324","1","59dd90f6e75b450001a68dac","1","2025-08-06T19:13:29.653Z","","","","MotivationQ","","","","","","","","","","","50","","","","","","","","","","","","","","","","","","","","","","","","","","",""
"","","","","ctl-task-cpt","63","740355","0.0-7.0-0.10","214","1","2025-08-06 19:01:36","36c45c0696341be0efffe67d72a12abb","51.19.161.91","Mozilla/5.0 (Windows NT 10.0; Win64; x64) AppleWebKit/537.36 (KHTML, like Gecko) Chrome/138.0.0.0 Safari/537.36","WebKit","Chrome","138.0.0.0","Windows","10.0","https://app.prolific.com/","en-GB,en-US;q=0.9,en;q=0.8","59dd90f6e75b450001a68dac","6877649eabb845cf142cd221","6893a67962430aae9931f324","1","59dd90f6e75b450001a68dac","1","2025-08-06T19:14:10.735Z","","","","","","","","","","","","","","","","win-only","2","g1:SE,g2:NW","0.6","11","0","714214.9","8278.2","13280","38076.2","1","4","4","6","1","1","0","1","1","0.007575757575757576","1176.5","3000","1355","[""down"",""right""]","{""num_key_presses"":5,""num_perfect"":2,""num_errors"":1,""num_randdir"":2,""num_randdir_good_moves"":2,""num_whilered"":0,""num_whileblue"":0,""num_blue"":3,""num_good_moves"":4}","[420.57142857142856,412.47767857142856,0.3,420.57142857142856,412.47767857142856,102.7,420.57142857142856,412.47767857142856,202.7,379.57142857142856,434.47767857142856,307,309.57142857142856,478.47767857142856,407,276.57142857142856,498.47767857142856,507.3,290.57142857142856,505.47767857142856,607.7,437.57142857142856,572.4776785714286,712.1,581.5714285714286,641.4776785714286,813.9,800.5714285714286,759.4776785714286,919.3,804.5714285714286,767.4776785714286,1024.1,803.5714285714286,771.4776785714286,1127.4,803.5714285714286,776.4776785714286,1234.7,803.5714285714286,776.4776785714286,1336.1,651.5714285714286,776.4776785714286,1437.8,321.57142857142856,814.4776785714286,1544,318.57142857142856,816.4776785714286,1650.9,318.57142857142856,816.4776785714286,1751.6,318.57142857142856,816.4776785714286,1852.3,318.57142857142856,816.4776785714286,1953.3,318.57142857142856,816.4776785714286,2057.7,318.57142857142856,816.4776785714286,2168.6,318.57142857142856,816.4776785714286,2268.7,318.57142857142856,816.4776785714286,2372.3,318.57142857142856,816.4776785714286,2473.2,318.57142857142856,816.4776785714286,2585,318.57142857142856,816.4776785714286,2686.4,318.57142857142856,816.4776785714286,2787.6,318.57142857142856,816.4776785714286,2893.5,318.57142857142856,816.4776785714286,2993.7,318.57142857142856,816.4776785714286,3101,318.57142857142856,816.4776785714286,3202,318.57142857142856,816.4776785714286,3302.6,318.57142857142856,816.4776785714286,3402.7,318.57142857142856,816.4776785714286,3507.1,318.57142857142856,816.4776785714286,3607.6,318.57142857142856,816.4776785714286,3707.6,318.57142857142856,816.4776785714286,3808,318.57142857142856,816.4776785714286,3917.2,318.57142857142856,816.4776785714286,4019.2,318.57142857142856,816.4776785714286,4122.9,318.57142857142856,816.4776785714286,4227.5,318.57142857142856,816.4776785714286,4327.6,318.57142857142856,816.4776785714286,4427.9,318.57142857142856,816.4776785714286,4535.8,318.57142857142856,816.4776785714286,4638.8,318.57142857142856,816.4776785714286,4738.9,318.57142857142856,816.4776785714286,4842.5,318.57142857142856,816.4776785714286,4943]","[410.4,410.4,1000,0,-589.6,""error"",""-"",""-"",""no_move"",4802.1,4391.5,2949.4,1411.7,441,""smooth"",""down"",""down"",""good_move"",8018.5,3215.8,2661.5,4802.7,554.3,""smooth"",""down"",""down"",""good_move"",14247.8,6229.1,2257.5,11555.4,434.9,""oops"",""right"",""right"",""good_move"",24690.4,10442.2,2325.2,21899.5,465.7,""oops"",""right"",""right"",""good_move""]"
"4191","","<div style=""width:500px;"">
  <p>What determined the result of this run?</p>
  </div>","84","html-slider-response","64","744546","0.0-7.0-1.10","214","1","2025-08-06 19:01:36","36c45c0696341be0efffe67d72a12abb","51.19.161.91","Mozilla/5.0 (Windows NT 10.0; Win64; x64) AppleWebKit/537.36 (KHTML, like Gecko) Chrome/138.0.0.0 Safari/537.36","WebKit","Chrome","138.0.0.0","Windows","10.0","https://app.prolific.com/","en-GB,en-US;q=0.9,en;q=0.8","59dd90f6e75b450001a68dac","6877649eabb845cf142cd221","6893a67962430aae9931f324","1","59dd90f6e75b450001a68dac","1","2025-08-06T19:14:14.926Z","","","","AttribQ","","","","","","","","","","","50","","","","","","","","","","","","","","","","","","","","","","","","","","",""
"2339","","<div style=""width:500px;"">
  <p>How much control did you have over the ball?</p>
  </div>","100","html-slider-response","65","746885","0.0-7.0-2.10","214","1","2025-08-06 19:01:36","36c45c0696341be0efffe67d72a12abb","51.19.161.91","Mozilla/5.0 (Windows NT 10.0; Win64; x64) AppleWebKit/537.36 (KHTML, like Gecko) Chrome/138.0.0.0 Safari/537.36","WebKit","Chrome","138.0.0.0","Windows","10.0","https://app.prolific.com/","en-GB,en-US;q=0.9,en;q=0.8","59dd90f6e75b450001a68dac","6877649eabb845cf142cd221","6893a67962430aae9931f324","1","59dd90f6e75b450001a68dac","1","2025-08-06T19:14:17.265Z","","","","ControlQ","","","","","","","","","","","50","","","","","","","","","","","","","","","","","","","","","","","","","","",""
"2714","","<div style=""width:500px;"">
  <p>How would you describe your current emotional state?</p>
  </div>","75","html-slider-response","66","749600","0.0-7.0-3.10","214","1","2025-08-06 19:01:36","36c45c0696341be0efffe67d72a12abb","51.19.161.91","Mozilla/5.0 (Windows NT 10.0; Win64; x64) AppleWebKit/537.36 (KHTML, like Gecko) Chrome/138.0.0.0 Safari/537.36","WebKit","Chrome","138.0.0.0","Windows","10.0","https://app.prolific.com/","en-GB,en-US;q=0.9,en;q=0.8","59dd90f6e75b450001a68dac","6877649eabb845cf142cd221","6893a67962430aae9931f324","1","59dd90f6e75b450001a68dac","1","2025-08-06T19:14:19.980Z","","","","StressQ","","","","","","","","","","","50","","","","","","","","","","","","","","","","","","","","","","","","","","",""
"1357","","<div style=""width:500px;"">
  <p>What best describes how you currently feel?</p>
  </div>","13","html-slider-response","67","750958","0.0-7.0-4.10","214","1","2025-08-06 19:01:36","36c45c0696341be0efffe67d72a12abb","51.19.161.91","Mozilla/5.0 (Windows NT 10.0; Win64; x64) AppleWebKit/537.36 (KHTML, like Gecko) Chrome/138.0.0.0 Safari/537.36","WebKit","Chrome","138.0.0.0","Windows","10.0","https://app.prolific.com/","en-GB,en-US;q=0.9,en;q=0.8","59dd90f6e75b450001a68dac","6877649eabb845cf142cd221","6893a67962430aae9931f324","1","59dd90f6e75b450001a68dac","1","2025-08-06T19:14:21.338Z","","","","MotivationQ","","","","","","","","","","","50","","","","","","","","","","","","","","","","","","","","","","","","","","",""
"","","","","ctl-task-cpt","68","783321","0.0-7.0-0.11","214","1","2025-08-06 19:01:36","36c45c0696341be0efffe67d72a12abb","51.19.161.91","Mozilla/5.0 (Windows NT 10.0; Win64; x64) AppleWebKit/537.36 (KHTML, like Gecko) Chrome/138.0.0.0 Safari/537.36","WebKit","Chrome","138.0.0.0","Windows","10.0","https://app.prolific.com/","en-GB,en-US;q=0.9,en;q=0.8","59dd90f6e75b450001a68dac","6877649eabb845cf142cd221","6893a67962430aae9931f324","1","59dd90f6e75b450001a68dac","1","2025-08-06T19:14:53.701Z","","","","","","","","","","","","","","","","win-only","3","g1:SW,g2:NE","0.7","12","0","765900.6","539","5544.7","29345.3","1","4","8","6","2","-8","-8","0","1","0","1374","3000","-2645","[""up"",""right""]","{""num_key_presses"":7,""num_perfect"":6,""num_errors"":0,""num_randdir"":1,""num_randdir_good_moves"":0,""num_whilered"":0,""num_whileblue"":0,""num_blue"":1,""num_good_moves"":6}","[411.57142857142856,418.47767857142856,0.2,411.57142857142856,418.47767857142856,102.5,385.57142857142856,475.47767857142856,203.5,346.57142857142856,538.4776785714286,307.1,304.57142857142856,560.4776785714286,407.9,280.57142857142856,584.4776785714286,511.5,273.57142857142856,592.4776785714286,612,249.57142857142856,617.4776785714286,712,219.57142857142856,646.4776785714286,823.5,523.5714285714286,423.47767857142856,928,647.5714285714286,239.47767857142856,1032,689.5714285714286,196.47767857142856,1139.8,756.5714285714286,135.47767857142856,1242.1,771.5714285714286,105.47767857142857,1342.3,771.5714285714286,105.47767857142857,1446.5,622.5714285714286,228.47767857142856,1546.6,-277.42857142857144,699.4776785714286,1656.5,-378.42857142857144,757.4776785714286,1761.6,-378.42857142857144,757.4776785714286,1861.6,-378.42857142857144,757.4776785714286,1962,-378.42857142857144,757.4776785714286,2062.7,-378.42857142857144,757.4776785714286,2168.4,-378.42857142857144,757.4776785714286,2272.1,-378.42857142857144,757.4776785714286,2372.2,-378.42857142857144,757.4776785714286,2473,-378.42857142857144,757.4776785714286,2576.1,-378.42857142857144,757.4776785714286,2676.8,-378.42857142857144,757.4776785714286,2781.2,-378.42857142857144,757.4776785714286,2881.5,-378.42857142857144,757.4776785714286,2981.8,-378.42857142857144,757.4776785714286,3083.5,-378.42857142857144,757.4776785714286,3189.7,-378.42857142857144,757.4776785714286,3290.4,-378.42857142857144,757.4776785714286,3390.8,-378.42857142857144,757.4776785714286,3491.8,-378.42857142857144,757.4776785714286,3591.9,-378.42857142857144,757.4776785714286,3696.5,-378.42857142857144,757.4776785714286,3805.4,-378.42857142857144,757.4776785714286,3906.4,-378.42857142857144,757.4776785714286,4006.5,-378.42857142857144,757.4776785714286,4111.3,-378.42857142857144,757.4776785714286,4211.6,-378.42857142857144,757.4776785714286,4311.6,-378.42857142857144,757.4776785714286,4412.1,-378.42857142857144,757.4776785714286,4520.8,-378.42857142857144,757.4776785714286,4623,-378.42857142857144,757.4776785714286,4723.2,-378.42857142857144,757.4776785714286,4826.3,-378.42857142857144,757.4776785714286,4926.3]","[1498.2,1498.2,1000,0,498.2,""smooth"",""up"",""up"",""good_move"",4372.2,2873.4,2233,1498.8,640.4,""oops"",""up"",""left"",""bad_move"",7115.9,2743.5,2295.3,4372.5,448.1,""smooth"",""up"",""up"",""good_move"",10035.8,2919.5,2302.2,7116.3,617.3,""smooth"",""right"",""right"",""good_move"",16187.9,6151.8,2179.2,13625.5,383.2,""smooth"",""right"",""right"",""good_move"",18896.9,2708.7,2240.8,16188.2,467.9,""smooth"",""right"",""right"",""good_move"",20848.3,1951.3,1561.3,18897,390,""smooth"",""right"",""right"",""good_move""]"
"5154","","<div style=""width:500px;"">
  <p>What determined the result of this run?</p>
  </div>","64","html-slider-response","69","788477","0.0-7.0-1.11","214","1","2025-08-06 19:01:36","36c45c0696341be0efffe67d72a12abb","51.19.161.91","Mozilla/5.0 (Windows NT 10.0; Win64; x64) AppleWebKit/537.36 (KHTML, like Gecko) Chrome/138.0.0.0 Safari/537.36","WebKit","Chrome","138.0.0.0","Windows","10.0","https://app.prolific.com/","en-GB,en-US;q=0.9,en;q=0.8","59dd90f6e75b450001a68dac","6877649eabb845cf142cd221","6893a67962430aae9931f324","1","59dd90f6e75b450001a68dac","1","2025-08-06T19:14:58.857Z","","","","AttribQ","","","","","","","","","","","50","","","","","","","","","","","","","","","","","","","","","","","","","","",""
"5688","","<div style=""width:500px;"">
  <p>How much control did you have over the ball?</p>
  </div>","75","html-slider-response","70","794166","0.0-7.0-2.11","214","1","2025-08-06 19:01:36","36c45c0696341be0efffe67d72a12abb","51.19.161.91","Mozilla/5.0 (Windows NT 10.0; Win64; x64) AppleWebKit/537.36 (KHTML, like Gecko) Chrome/138.0.0.0 Safari/537.36","WebKit","Chrome","138.0.0.0","Windows","10.0","https://app.prolific.com/","en-GB,en-US;q=0.9,en;q=0.8","59dd90f6e75b450001a68dac","6877649eabb845cf142cd221","6893a67962430aae9931f324","1","59dd90f6e75b450001a68dac","1","2025-08-06T19:15:04.546Z","","","","ControlQ","","","","","","","","","","","50","","","","","","","","","","","","","","","","","","","","","","","","","","",""
"2161","","<div style=""width:500px;"">
  <p>How would you describe your current emotional state?</p>
  </div>","85","html-slider-response","71","796328","0.0-7.0-3.11","214","1","2025-08-06 19:01:36","36c45c0696341be0efffe67d72a12abb","51.19.161.91","Mozilla/5.0 (Windows NT 10.0; Win64; x64) AppleWebKit/537.36 (KHTML, like Gecko) Chrome/138.0.0.0 Safari/537.36","WebKit","Chrome","138.0.0.0","Windows","10.0","https://app.prolific.com/","en-GB,en-US;q=0.9,en;q=0.8","59dd90f6e75b450001a68dac","6877649eabb845cf142cd221","6893a67962430aae9931f324","1","59dd90f6e75b450001a68dac","1","2025-08-06T19:15:06.708Z","","","","StressQ","","","","","","","","","","","50","","","","","","","","","","","","","","","","","","","","","","","","","","",""
"1603","","<div style=""width:500px;"">
  <p>What best describes how you currently feel?</p>
  </div>","8","html-slider-response","72","797932","0.0-7.0-4.11","214","1","2025-08-06 19:01:36","36c45c0696341be0efffe67d72a12abb","51.19.161.91","Mozilla/5.0 (Windows NT 10.0; Win64; x64) AppleWebKit/537.36 (KHTML, like Gecko) Chrome/138.0.0.0 Safari/537.36","WebKit","Chrome","138.0.0.0","Windows","10.0","https://app.prolific.com/","en-GB,en-US;q=0.9,en;q=0.8","59dd90f6e75b450001a68dac","6877649eabb845cf142cd221","6893a67962430aae9931f324","1","59dd90f6e75b450001a68dac","1","2025-08-06T19:15:08.312Z","","","","MotivationQ","","","","","","","","","","","50","","","","","","","","","","","","","","","","","","","","","","","","","","",""
"","","","","ctl-task-cpt","73","829138","0.0-7.0-0.12","214","1","2025-08-06 19:01:36","36c45c0696341be0efffe67d72a12abb","51.19.161.91","Mozilla/5.0 (Windows NT 10.0; Win64; x64) AppleWebKit/537.36 (KHTML, like Gecko) Chrome/138.0.0.0 Safari/537.36","WebKit","Chrome","138.0.0.0","Windows","10.0","https://app.prolific.com/","en-GB,en-US;q=0.9,en;q=0.8","59dd90f6e75b450001a68dac","6877649eabb845cf142cd221","6893a67962430aae9931f324","1","59dd90f6e75b450001a68dac","1","2025-08-06T19:15:39.518Z","","","","","","","","","","","","","","","","win-only","1","g1:NE,g2:SW","0.8","13","0","812874.6","720.9","5721.2","28188.9","1","4","8","6","2","-8","-8","0","0","0","1259.9","3000","-2560","[""down"",""left""]","{""num_key_presses"":5,""num_perfect"":4,""num_errors"":0,""num_randdir"":1,""num_randdir_good_moves"":0,""num_whilered"":0,""num_whileblue"":0,""num_blue"":1,""num_good_moves"":4}","[413.57142857142856,417.47767857142856,0.2,412.57142857142856,418.47767857142856,100.3,413.57142857142856,416.47767857142856,200.5,451.57142857142856,370.47767857142856,305,498.57142857142856,326.47767857142856,409.4,539.5714285714286,283.47767857142856,510.7,541.5714285714286,260.47767857142856,614.5,540.5714285714286,246.47767857142856,715.1,407.57142857142856,352.47767857142856,819.7,179.57142857142856,658.4776785714286,920.2,128.57142857142856,729.4776785714286,1024.6,108.57142857142857,737.4776785714286,1132.9,85.57142857142857,751.4776785714286,1234.3,82.57142857142857,753.4776785714286,1334.8,75.57142857142857,753.4776785714286,1434.8,72.57142857142857,752.4776785714286,1539.5,72.57142857142857,752.4776785714286,1644.6,72.57142857142857,752.4776785714286,1746.9,72.57142857142857,752.4776785714286,1847.7,72.57142857142857,752.4776785714286,1949.8,72.57142857142857,752.4776785714286,2055.1,72.57142857142857,752.4776785714286,2155.2,72.57142857142857,752.4776785714286,2255.3,72.57142857142857,752.4776785714286,2360,72.57142857142857,752.4776785714286,2465.7,72.57142857142857,752.4776785714286,2570.1,72.57142857142857,752.4776785714286,2670.7,72.57142857142857,752.4776785714286,2771,72.57142857142857,752.4776785714286,2874.8,72.57142857142857,752.4776785714286,2975.7,72.57142857142857,752.4776785714286,3079.6,72.57142857142857,752.4776785714286,3180,72.57142857142857,752.4776785714286,3284.3,72.57142857142857,752.4776785714286,3385.2,72.57142857142857,752.4776785714286,3490.3,72.57142857142857,752.4776785714286,3595.7,72.57142857142857,752.4776785714286,3700.1,72.57142857142857,752.4776785714286,3804.5,72.57142857142857,752.4776785714286,3905.4,72.57142857142857,752.4776785714286,4009.5,72.57142857142857,752.4776785714286,4109.8,72.57142857142857,752.4776785714286,4210.7,72.57142857142857,752.4776785714286,4314.6,72.57142857142857,752.4776785714286,4414.7,72.57142857142857,752.4776785714286,4515.6,72.57142857142857,752.4776785714286,4619.8,72.57142857142857,752.4776785714286,4725.6,72.57142857142857,752.4776785714286,4830.1,72.57142857142857,752.4776785714286,4934.9]","[1453.4,1453.4,1000,0,453.4,""smooth"",""down"",""down"",""good_move"",8717.6,7263.8,2447.6,5505.6,764.4,""smooth"",""down"",""down"",""good_move"",12485.1,3767.2,3179.3,8717.9,588,""oops"",""down"",""up"",""bad_move"",16141.1,3655.6,3262.6,12485.5,393,""smooth"",""down"",""down"",""good_move"",19514,3372.6,2845.6,16141.4,527,""smooth"",""down"",""down"",""good_move""]"
"2112","","<div style=""width:500px;"">
  <p>What determined the result of this run?</p>
  </div>","57","html-slider-response","74","831250","0.0-7.0-1.12","214","1","2025-08-06 19:01:36","36c45c0696341be0efffe67d72a12abb","51.19.161.91","Mozilla/5.0 (Windows NT 10.0; Win64; x64) AppleWebKit/537.36 (KHTML, like Gecko) Chrome/138.0.0.0 Safari/537.36","WebKit","Chrome","138.0.0.0","Windows","10.0","https://app.prolific.com/","en-GB,en-US;q=0.9,en;q=0.8","59dd90f6e75b450001a68dac","6877649eabb845cf142cd221","6893a67962430aae9931f324","1","59dd90f6e75b450001a68dac","1","2025-08-06T19:15:41.630Z","","","","AttribQ","","","","","","","","","","","50","","","","","","","","","","","","","","","","","","","","","","","","","","",""
"2615","","<div style=""width:500px;"">
  <p>How much control did you have over the ball?</p>
  </div>","56","html-slider-response","75","833866","0.0-7.0-2.12","214","1","2025-08-06 19:01:36","36c45c0696341be0efffe67d72a12abb","51.19.161.91","Mozilla/5.0 (Windows NT 10.0; Win64; x64) AppleWebKit/537.36 (KHTML, like Gecko) Chrome/138.0.0.0 Safari/537.36","WebKit","Chrome","138.0.0.0","Windows","10.0","https://app.prolific.com/","en-GB,en-US;q=0.9,en;q=0.8","59dd90f6e75b450001a68dac","6877649eabb845cf142cd221","6893a67962430aae9931f324","1","59dd90f6e75b450001a68dac","1","2025-08-06T19:15:44.246Z","","","","ControlQ","","","","","","","","","","","50","","","","","","","","","","","","","","","","","","","","","","","","","","",""
"2723","","<div style=""width:500px;"">
  <p>How would you describe your current emotional state?</p>
  </div>","80","html-slider-response","76","836590","0.0-7.0-3.12","214","1","2025-08-06 19:01:36","36c45c0696341be0efffe67d72a12abb","51.19.161.91","Mozilla/5.0 (Windows NT 10.0; Win64; x64) AppleWebKit/537.36 (KHTML, like Gecko) Chrome/138.0.0.0 Safari/537.36","WebKit","Chrome","138.0.0.0","Windows","10.0","https://app.prolific.com/","en-GB,en-US;q=0.9,en;q=0.8","59dd90f6e75b450001a68dac","6877649eabb845cf142cd221","6893a67962430aae9931f324","1","59dd90f6e75b450001a68dac","1","2025-08-06T19:15:46.970Z","","","","StressQ","","","","","","","","","","","50","","","","","","","","","","","","","","","","","","","","","","","","","","",""
"1639","","<div style=""width:500px;"">
  <p>What best describes how you currently feel?</p>
  </div>","10","html-slider-response","77","838230","0.0-7.0-4.12","214","1","2025-08-06 19:01:36","36c45c0696341be0efffe67d72a12abb","51.19.161.91","Mozilla/5.0 (Windows NT 10.0; Win64; x64) AppleWebKit/537.36 (KHTML, like Gecko) Chrome/138.0.0.0 Safari/537.36","WebKit","Chrome","138.0.0.0","Windows","10.0","https://app.prolific.com/","en-GB,en-US;q=0.9,en;q=0.8","59dd90f6e75b450001a68dac","6877649eabb845cf142cd221","6893a67962430aae9931f324","1","59dd90f6e75b450001a68dac","1","2025-08-06T19:15:48.610Z","","","","MotivationQ","","","","","","","","","","","50","","","","","","","","","","","","","","","","","","","","","","","","","","",""
