"rt","response_timestamp","stimulus","response","trial_type","trial_index","time_elapsed","internal_node_id","run_id","condition","recorded_at","source_code_version","ip","user_agent","device","browser","browser_version","platform","platform_version","referer","accept_language","PROLIFIC_PID","STUDY_ID","SESSION_ID","BATCH","prolific_id","batch","realtime","success","question_order","question_id","eventType","responses","item_order","radio_event_ids","radio_event_times","key_event_times","mouse_event_times","straightlining","zigzagging","honeypot","view_history","slider_start","which_type","canvas_config","goals_layout","control_level","trial_number","tutorial_trial_number","trial_start_time","phase1_start_time","phase2_start_time","phase3_start_time","goal_1_value","goal_1_distance","goal_2_value","goal_2_distance","goal_selected","outcome","outcome_total","participant_final_score","participant_initial_score","participant_final_score_prop","goal_choice_rt","allocated_time","allocated_time_remaining","goal_direction","counts","mouse_movements","key_presses"
"2530","1753870607270","<p style='font-size:40px;line-height:1.25'><strong>Welcome to the experiment!</strong></p><p style='font-size:1.1em;line-height:1.25'>Thank you for participanting in our experiment again! You will be asked to play the Dysfunctional Ball Game again. We will briefly recap the rules before we start.</p><p style='font-size:1.1em;line-height:1.25'>Press <strong>Next</strong> to continue.</p>","0","custom-html-button-response","0","2542","0.0-0.0","87","1","2025-07-30 10:16:35","36c45c0696341be0efffe67d72a12abb","216.205.162.102","Mozilla/5.0 (X11; CrOS x86_64 14541.0.0) AppleWebKit/537.36 (KHTML, like Gecko) Chrome/138.0.0.0 Safari/537.36","WebKit","Chrome","138.0.0.0","ChromeOS","14541.0.0","https://app.prolific.com/","en-GB,en-US;q=0.9,en;q=0.8","5a1dda5480acd8000104a12b","683dba9a53627eb9ab41b36a","6889f0983a98f4b8f39a9202","0","5a1dda5480acd8000104a12b","0","2025-07-30T10:16:47.276Z","","","","","","","","","","","","","","","","","","","","","","","","","","","","","","","","","","","","","","","","","",""
"979","","","","fullscreen","1","4532","0.0-1.0","87","1","2025-07-30 10:16:35","36c45c0696341be0efffe67d72a12abb","216.205.162.102","Mozilla/5.0 (X11; CrOS x86_64 14541.0.0) AppleWebKit/537.36 (KHTML, like Gecko) Chrome/138.0.0.0 Safari/537.36","WebKit","Chrome","138.0.0.0","ChromeOS","14541.0.0","https://app.prolific.com/","en-GB,en-US;q=0.9,en;q=0.8","5a1dda5480acd8000104a12b","683dba9a53627eb9ab41b36a","6889f0983a98f4b8f39a9202","0","5a1dda5480acd8000104a12b","0","","true","","","","","","","","","","","","","","","","","","","","","","","","","","","","","","","","","","","","","","","","",""
"1385","1753870610653"," <p style='font-size:1.1em;line-height:1.25'>Thank you for closing all other tabs.</p><p style='font-size:1.1em;line-height:1.25'>We will now invite you to fill in some questionnaires, before starting the game.<br>This will take about 5 minutes.<br></p><p style='font-size:1.1em;line-height:1.25'>Press the <strong>Next</strong> button to continue.</p>","0","custom-html-button-response","2","5921","0.0-2.0","87","1","2025-07-30 10:16:35","36c45c0696341be0efffe67d72a12abb","216.205.162.102","Mozilla/5.0 (X11; CrOS x86_64 14541.0.0) AppleWebKit/537.36 (KHTML, like Gecko) Chrome/138.0.0.0 Safari/537.36","WebKit","Chrome","138.0.0.0","ChromeOS","14541.0.0","https://app.prolific.com/","en-GB,en-US;q=0.9,en;q=0.8","5a1dda5480acd8000104a12b","683dba9a53627eb9ab41b36a","6889f0983a98f4b8f39a9202","0","5a1dda5480acd8000104a12b","0","2025-07-30T10:16:50.654Z","","","","","","","","","","","","","","","","","","","","","","","","","","","","","","","","","","","","","","","","","",""
"6225","","","{""assigned_sex"":""female""}","survey-multi-choice","3","12156","0.0-3.0-0.0","87","1","2025-07-30 10:16:35","36c45c0696341be0efffe67d72a12abb","216.205.162.102","Mozilla/5.0 (X11; CrOS x86_64 14541.0.0) AppleWebKit/537.36 (KHTML, like Gecko) Chrome/138.0.0.0 Safari/537.36","WebKit","Chrome","138.0.0.0","ChromeOS","14541.0.0","https://app.prolific.com/","en-GB,en-US;q=0.9,en;q=0.8","5a1dda5480acd8000104a12b","683dba9a53627eb9ab41b36a","6889f0983a98f4b8f39a9202","0","5a1dda5480acd8000104a12b","0","","","[0]","0","demographics","","","","","","","","","","","","","","","","","","","","","","","","","","","","","","","","","","","","","",""
"1524","1753870618415","<p style='font-size:1.1em;line-height:1.25'>In the following, we will perform a baseline assessment. This means that we will ask you a few questions relating to your experiences over the past month.<br></p><p style='font-size:1.1em;line-height:1.25'>Press the <strong>Next</strong> button to continue.</p>","0","custom-html-button-response","4","13684","0.0-4.0-0.0","87","1","2025-07-30 10:16:35","36c45c0696341be0efffe67d72a12abb","216.205.162.102","Mozilla/5.0 (X11; CrOS x86_64 14541.0.0) AppleWebKit/537.36 (KHTML, like Gecko) Chrome/138.0.0.0 Safari/537.36","WebKit","Chrome","138.0.0.0","ChromeOS","14541.0.0","https://app.prolific.com/","en-GB,en-US;q=0.9,en;q=0.8","5a1dda5480acd8000104a12b","683dba9a53627eb9ab41b36a","6889f0983a98f4b8f39a9202","0","5a1dda5480acd8000104a12b","0","2025-07-30T10:16:58.417Z","","","","","","","","","","","","","","","","","","","","","","","","","","","","","","","","","","","","","","","","","",""
"156599.1000000001","","","","survey-template","5","170298","0.0-4.0-1.0","87","1","2025-07-30 10:16:35","36c45c0696341be0efffe67d72a12abb","216.205.162.102","Mozilla/5.0 (X11; CrOS x86_64 14541.0.0) AppleWebKit/537.36 (KHTML, like Gecko) Chrome/138.0.0.0 Safari/537.36","WebKit","Chrome","138.0.0.0","ChromeOS","14541.0.0","https://app.prolific.com/","en-GB,en-US;q=0.9,en;q=0.8","5a1dda5480acd8000104a12b","683dba9a53627eb9ab41b36a","6889f0983a98f4b8f39a9202","0","5a1dda5480acd8000104a12b","0","2025-07-30T10:19:35.032Z","","","","pss","{""Q01"":""0"",""Q02"":""2"",""Q03"":""0"",""Q04"":""2"",""Q05"":""2"",""Q06"":""1"",""Q07"":""3"",""Q08"":""2"",""Q09"":""0"",""Q10"":""0""}","[0,1,2,3,4,5,6,7,8,9]","[""Q01"",""Q02"",""Q03"",""Q04"",""Q05"",""Q06"",""Q07"",""Q08"",""Q08"",""Q09"",""Q10""]","[16974,33276,65275.60000000009,79952.90000000014,87222,97841.80000000005,109324.1000000001,119339.1000000001,138165.30000000005,147912.2000000002,155284.30000000005]","[]","[0.5,16974,33276,65275.60000000009,79952.90000000014,87222,97841.80000000005,109324.1000000001,119339.1000000001,138165.30000000005,147912.2000000002,155284.30000000005,156583]","0.4","0.2222222222222222","0","","","","","","","","","","","","","","","","","","","","","","","","","","","","",""
"1749","1753870776786","<p style='font-size:1.1em;line-height:1.25'>Thank you for your answers! Now we will ask you a few more questions relating to your feelings in the last 24 hours.<br></p><p style='font-size:1.1em;line-height:1.25'>Press the <strong>Next</strong> button to continue.</p>","0","custom-html-button-response","6","172054","0.0-4.0-2.0","87","1","2025-07-30 10:16:35","36c45c0696341be0efffe67d72a12abb","216.205.162.102","Mozilla/5.0 (X11; CrOS x86_64 14541.0.0) AppleWebKit/537.36 (KHTML, like Gecko) Chrome/138.0.0.0 Safari/537.36","WebKit","Chrome","138.0.0.0","ChromeOS","14541.0.0","https://app.prolific.com/","en-GB,en-US;q=0.9,en;q=0.8","5a1dda5480acd8000104a12b","683dba9a53627eb9ab41b36a","6889f0983a98f4b8f39a9202","0","5a1dda5480acd8000104a12b","0","2025-07-30T10:19:36.788Z","","","","","","","","","","","","","","","","","","","","","","","","","","","","","","","","","","","","","","","","","",""
"111546.5","","","","survey-template","7","283619","0.0-4.0-3.0","87","1","2025-07-30 10:16:35","36c45c0696341be0efffe67d72a12abb","216.205.162.102","Mozilla/5.0 (X11; CrOS x86_64 14541.0.0) AppleWebKit/537.36 (KHTML, like Gecko) Chrome/138.0.0.0 Safari/537.36","WebKit","Chrome","138.0.0.0","ChromeOS","14541.0.0","https://app.prolific.com/","en-GB,en-US;q=0.9,en;q=0.8","5a1dda5480acd8000104a12b","683dba9a53627eb9ab41b36a","6889f0983a98f4b8f39a9202","0","5a1dda5480acd8000104a12b","0","2025-07-30T10:21:28.353Z","","","","drsp","{""Q01"":""0"",""Q02"":""0"",""Q03"":""0"",""Q04"":""3"",""Q05"":""0"",""Q06"":""0"",""Q07"":""0"",""Q08"":""0"",""Q09"":""0"",""Q10"":""0"",""Q11"":""0"",""Q12"":""0"",""Q13"":""5"",""Q14"":""0"",""Q15"":""0"",""Q16"":""2"",""Q17"":""2"",""Q18"":""2"",""Q19"":""0"",""Q20"":""0"",""Q21"":""0"",""Q22"":""0""}","[0,1,2,3,4,5,6,7,8,9,10,11,12,13,14,15,16,17,18,19,20,21]","[""Q01"",""Q02"",""Q03"",""Q04"",""Q05"",""Q06"",""Q07"",""Q08"",""Q09"",""Q10"",""Q11"",""Q12"",""Q13"",""Q14"",""Q15"",""Q16"",""Q16"",""Q16"",""Q17"",""Q18"",""Q19"",""Q20"",""Q21"",""Q22""]","[9747.199999999953,14423.800000000047,28583.800000000047,41735.69999999995,44979.80000000005,48285,49411.69999999995,54407.89999999991,55042.60000000009,56648.89999999991,57915.39999999991,59987.10000000009,61653.30000000005,64568.60000000009,66518.80000000005,73816.69999999995,74727.3999999999,78091.3999999999,83257.69999999995,85870.6000000001,87882.5,88389.6000000001,91833.19999999995,92491.19999999995]","[]","[0.10000000009313226,9747.199999999953,14423.800000000047,24394,28583.800000000047,41735.69999999995,44979.80000000005,46773.89999999991,48285,49411.69999999995,51620.30000000005,54407.89999999991,55042.60000000009,56648.89999999991,57915.39999999991,59987.10000000009,61653.30000000005,64568.60000000009,66518.80000000005,73816.69999999995,74727.3999999999,78091.3999999999,83257.69999999995,85870.6000000001,87882.5,88389.6000000001,91833.19999999995,92491.19999999995,111515.1000000001]","0.7727272727272727","0.09523809523809523","0","","","","","","","","","","","","","","","","","","","","","","","","","","","","",""
"29959.200000000186","","","","survey-template","8","313588","0.0-4.0-4.0","87","1","2025-07-30 10:16:35","36c45c0696341be0efffe67d72a12abb","216.205.162.102","Mozilla/5.0 (X11; CrOS x86_64 14541.0.0) AppleWebKit/537.36 (KHTML, like Gecko) Chrome/138.0.0.0 Safari/537.36","WebKit","Chrome","138.0.0.0","ChromeOS","14541.0.0","https://app.prolific.com/","en-GB,en-US;q=0.9,en;q=0.8","5a1dda5480acd8000104a12b","683dba9a53627eb9ab41b36a","6889f0983a98f4b8f39a9202","0","5a1dda5480acd8000104a12b","0","2025-07-30T10:21:58.322Z","","","","stress","{""Q01"":""3"",""Q02"":""4"",""Q03"":""0""}","[0,1,2]","[""Q01"",""Q02"",""Q03""]","[9355.5,26325.800000000047,28591.90000000014]","[]","[6357.300000000047,9355.5,26325.800000000047,28591.90000000014,29953.40000000014]","0.3333333333333333","0.5","0","","","","","","","","","","","","","","","","","","","","","","","","","","","","",""
"3584","","","","instructions","9","317178","0.0-5.0-0.0","87","1","2025-07-30 10:16:35","36c45c0696341be0efffe67d72a12abb","216.205.162.102","Mozilla/5.0 (X11; CrOS x86_64 14541.0.0) AppleWebKit/537.36 (KHTML, like Gecko) Chrome/138.0.0.0 Safari/537.36","WebKit","Chrome","138.0.0.0","ChromeOS","14541.0.0","https://app.prolific.com/","en-GB,en-US;q=0.9,en;q=0.8","5a1dda5480acd8000104a12b","683dba9a53627eb9ab41b36a","6889f0983a98f4b8f39a9202","0","5a1dda5480acd8000104a12b","0","","","","","","","","","","","","","","","[{""page_index"":0,""viewing_time"":3583}]","","","","","","","","","","","","","","","","","","","","","","","","","","","",""
"2635","","<p>Before you start with this game please answer the following three questions yourself. </p>
  <p>Through this game, we measure several aspects of your cognitive performance, such as reaction times, multi-tasking capabilities </p>
  <p>and the ability to assess the situation you are in.</p>
  <p></p>
  <p><b>How good do you usually are in such tasks?</b></p>","50","html-slider-response","10","319823","0.0-6.0-0.0","87","1","2025-07-30 10:16:35","36c45c0696341be0efffe67d72a12abb","216.205.162.102","Mozilla/5.0 (X11; CrOS x86_64 14541.0.0) AppleWebKit/537.36 (KHTML, like Gecko) Chrome/138.0.0.0 Safari/537.36","WebKit","Chrome","138.0.0.0","ChromeOS","14541.0.0","https://app.prolific.com/","en-GB,en-US;q=0.9,en;q=0.8","5a1dda5480acd8000104a12b","683dba9a53627eb9ab41b36a","6889f0983a98f4b8f39a9202","0","5a1dda5480acd8000104a12b","0","2025-07-30T10:22:04.556Z","","","","PreSkillQ","","","","","","","","","","","50","","","","","","","","","","","","","","","","","","","","","","","","","","",""
"2458","","<div style=""width:500px;"">
  <p>How well do you think you will perform in this task compared to other participants?</p>
  </div>","50","html-slider-response","11","322286","0.0-6.0-1.0","87","1","2025-07-30 10:16:35","36c45c0696341be0efffe67d72a12abb","216.205.162.102","Mozilla/5.0 (X11; CrOS x86_64 14541.0.0) AppleWebKit/537.36 (KHTML, like Gecko) Chrome/138.0.0.0 Safari/537.36","WebKit","Chrome","138.0.0.0","ChromeOS","14541.0.0","https://app.prolific.com/","en-GB,en-US;q=0.9,en;q=0.8","5a1dda5480acd8000104a12b","683dba9a53627eb9ab41b36a","6889f0983a98f4b8f39a9202","0","5a1dda5480acd8000104a12b","0","2025-07-30T10:22:07.019Z","","","","PrePerfQ","","","","","","","","","","","50","","","","","","","","","","","","","","","","","","","","","","","","","","",""
"6552","","<div style=""width:500px;"">
  <p>What best describes how you currently feel?</p>
  </div>","33","html-slider-response","12","328842","0.0-6.0-2.0","87","1","2025-07-30 10:16:35","36c45c0696341be0efffe67d72a12abb","216.205.162.102","Mozilla/5.0 (X11; CrOS x86_64 14541.0.0) AppleWebKit/537.36 (KHTML, like Gecko) Chrome/138.0.0.0 Safari/537.36","WebKit","Chrome","138.0.0.0","ChromeOS","14541.0.0","https://app.prolific.com/","en-GB,en-US;q=0.9,en;q=0.8","5a1dda5480acd8000104a12b","683dba9a53627eb9ab41b36a","6889f0983a98f4b8f39a9202","0","5a1dda5480acd8000104a12b","0","2025-07-30T10:22:13.575Z","","","","PreMotivationQ","","","","","","","","","","","50","","","","","","","","","","","","","","","","","","","","","","","","","","",""
"","","","","ctl-task-cpt","13","361262","0.0-7.0-0.0","87","1","2025-07-30 10:16:35","36c45c0696341be0efffe67d72a12abb","216.205.162.102","Mozilla/5.0 (X11; CrOS x86_64 14541.0.0) AppleWebKit/537.36 (KHTML, like Gecko) Chrome/138.0.0.0 Safari/537.36","WebKit","Chrome","138.0.0.0","ChromeOS","14541.0.0","https://app.prolific.com/","en-GB,en-US;q=0.9,en;q=0.8","5a1dda5480acd8000104a12b","683dba9a53627eb9ab41b36a","6889f0983a98f4b8f39a9202","0","5a1dda5480acd8000104a12b","0","2025-07-30T10:22:45.995Z","","","","","","","","","","","","","","","","win-only","3","g1:SW,g2:NE","1","1","0","349925.6","1375.7","6376.8","29394.8","1","4","4","6","2","4","4","4","0","0.030303030303030304","1525.9","3000","1200","[""up"",""right""]","{""num_key_presses"":6,""num_perfect"":6,""num_errors"":0,""num_randdir"":0,""num_randdir_good_moves"":0,""num_whilered"":0,""num_whileblue"":0,""num_blue"":2,""num_good_moves"":6}","[302.22232142857143,297.12857142857143,1.1,302.22232142857143,297.12857142857143,100.9,302.22232142857143,297.12857142857143,207.2,302.22232142857143,297.12857142857143,314.5,302.22232142857143,297.12857142857143,414.5,302.22232142857143,297.12857142857143,515.1,283.22232142857143,318.12857142857143,616.6,72.22232142857143,497.12857142857143,718.2,159.22232142857143,446.12857142857143,822.7,611.2223214285714,121.12857142857143,927,613.2223214285714,114.12857142857143,1029.2,614.2223214285714,102.12857142857143,1129.3,564.2223214285714,78.12857142857143,1230.9,563.2223214285714,78.12857142857143,1333.1,563.2223214285714,78.12857142857143,1438.2,563.2223214285714,78.12857142857143,1544,563.2223214285714,78.12857142857143,1666.2,563.2223214285714,78.12857142857143,1767.3,563.2223214285714,78.12857142857143,1869.6,563.2223214285714,78.12857142857143,1981,563.2223214285714,78.12857142857143,2082.5,563.2223214285714,78.12857142857143,2185.6,563.2223214285714,78.12857142857143,2293,563.2223214285714,78.12857142857143,2395.9,563.2223214285714,78.12857142857143,2506.3,563.2223214285714,78.12857142857143,2609.2,563.2223214285714,78.12857142857143,2710.6,563.2223214285714,78.12857142857143,2813.2,563.2223214285714,78.12857142857143,2917,563.2223214285714,78.12857142857143,3021.8,563.2223214285714,78.12857142857143,3122.2,563.2223214285714,78.12857142857143,3226.4,563.2223214285714,78.12857142857143,3340.9,563.2223214285714,78.12857142857143,3444.2,563.2223214285714,78.12857142857143,3548.5,563.2223214285714,78.12857142857143,3650.8,563.2223214285714,78.12857142857143,3754.5,563.2223214285714,78.12857142857143,3856.3,563.2223214285714,78.12857142857143,3959.2,563.2223214285714,78.12857142857143,4059.8,563.2223214285714,78.12857142857143,4160.3,563.2223214285714,78.12857142857143,4264.8,563.2223214285714,78.12857142857143,4368.5,563.2223214285714,78.12857142857143,4473.7,563.2223214285714,78.12857142857143,4574.1,563.2223214285714,78.12857142857143,4678.2,563.2223214285714,78.12857142857143,4781.4,563.2223214285714,78.12857142857143,4886.8,563.2223214285714,78.12857142857143,4990.8]","[1464.4,1464.3,1000,0.1,464.3,""smooth"",""right"",""right"",""good_move"",4578.1,3112.4,2722.2,1465.8,390.1,""smooth"",""right"",""right"",""good_move"",7098.2,2518.2,2102.9,4580,415.3,""smooth"",""right"",""right"",""good_move"",13366.5,6267.5,2429.6,10585.9,351,""smooth"",""up"",""up"",""good_move"",16554,3186.4,2788.5,13367.6,397.9,""smooth"",""up"",""up"",""good_move"",22888.1,6331.1,2257.7,20226.3,404.2,""smooth"",""up"",""up"",""good_move""]"
"6999","","<div style=""width:500px;"">
  <p>What determined the result of this run?</p>
  </div>","92","html-slider-response","14","368264","0.0-7.0-1.0","87","1","2025-07-30 10:16:35","36c45c0696341be0efffe67d72a12abb","216.205.162.102","Mozilla/5.0 (X11; CrOS x86_64 14541.0.0) AppleWebKit/537.36 (KHTML, like Gecko) Chrome/138.0.0.0 Safari/537.36","WebKit","Chrome","138.0.0.0","ChromeOS","14541.0.0","https://app.prolific.com/","en-GB,en-US;q=0.9,en;q=0.8","5a1dda5480acd8000104a12b","683dba9a53627eb9ab41b36a","6889f0983a98f4b8f39a9202","0","5a1dda5480acd8000104a12b","0","2025-07-30T10:22:52.998Z","","","","AttribQ","","","","","","","","","","","50","","","","","","","","","","","","","","","","","","","","","","","","","","",""
"2368","","<div style=""width:500px;"">
  <p>How much control did you have over the ball?</p>
  </div>","91","html-slider-response","15","370638","0.0-7.0-2.0","87","1","2025-07-30 10:16:35","36c45c0696341be0efffe67d72a12abb","216.205.162.102","Mozilla/5.0 (X11; CrOS x86_64 14541.0.0) AppleWebKit/537.36 (KHTML, like Gecko) Chrome/138.0.0.0 Safari/537.36","WebKit","Chrome","138.0.0.0","ChromeOS","14541.0.0","https://app.prolific.com/","en-GB,en-US;q=0.9,en;q=0.8","5a1dda5480acd8000104a12b","683dba9a53627eb9ab41b36a","6889f0983a98f4b8f39a9202","0","5a1dda5480acd8000104a12b","0","2025-07-30T10:22:55.372Z","","","","ControlQ","","","","","","","","","","","50","","","","","","","","","","","","","","","","","","","","","","","","","","",""
"3328","","<div style=""width:500px;"">
  <p>How would you describe your current emotional state?</p>
  </div>","33","html-slider-response","16","373971","0.0-7.0-3.0","87","1","2025-07-30 10:16:35","36c45c0696341be0efffe67d72a12abb","216.205.162.102","Mozilla/5.0 (X11; CrOS x86_64 14541.0.0) AppleWebKit/537.36 (KHTML, like Gecko) Chrome/138.0.0.0 Safari/537.36","WebKit","Chrome","138.0.0.0","ChromeOS","14541.0.0","https://app.prolific.com/","en-GB,en-US;q=0.9,en;q=0.8","5a1dda5480acd8000104a12b","683dba9a53627eb9ab41b36a","6889f0983a98f4b8f39a9202","0","5a1dda5480acd8000104a12b","0","2025-07-30T10:22:58.705Z","","","","StressQ","","","","","","","","","","","50","","","","","","","","","","","","","","","","","","","","","","","","","","",""
"3675","","<div style=""width:500px;"">
  <p>What best describes how you currently feel?</p>
  </div>","50","html-slider-response","17","377651","0.0-7.0-4.0","87","1","2025-07-30 10:16:35","36c45c0696341be0efffe67d72a12abb","216.205.162.102","Mozilla/5.0 (X11; CrOS x86_64 14541.0.0) AppleWebKit/537.36 (KHTML, like Gecko) Chrome/138.0.0.0 Safari/537.36","WebKit","Chrome","138.0.0.0","ChromeOS","14541.0.0","https://app.prolific.com/","en-GB,en-US;q=0.9,en;q=0.8","5a1dda5480acd8000104a12b","683dba9a53627eb9ab41b36a","6889f0983a98f4b8f39a9202","0","5a1dda5480acd8000104a12b","0","2025-07-30T10:23:02.385Z","","","","MotivationQ","","","","","","","","","","","50","","","","","","","","","","","","","","","","","","","","","","","","","","",""
"","","","","ctl-task-cpt","18","413648","0.0-7.0-0.1","87","1","2025-07-30 10:16:35","36c45c0696341be0efffe67d72a12abb","216.205.162.102","Mozilla/5.0 (X11; CrOS x86_64 14541.0.0) AppleWebKit/537.36 (KHTML, like Gecko) Chrome/138.0.0.0 Safari/537.36","WebKit","Chrome","138.0.0.0","ChromeOS","14541.0.0","https://app.prolific.com/","en-GB,en-US;q=0.9,en;q=0.8","5a1dda5480acd8000104a12b","683dba9a53627eb9ab41b36a","6889f0983a98f4b8f39a9202","0","5a1dda5480acd8000104a12b","0","2025-07-30T10:23:38.382Z","","","","","","","","","","","","","","","","win-only","2","g1:SE,g2:NW","0.9","2","0","398726.8","1315.6","6319","32981.8","1","4","8","6","2","8","8","12","4","0.09090909090909091","1371","3000","745","[""left"",""up""]","{""num_key_presses"":8,""num_perfect"":7,""num_errors"":0,""num_randdir"":1,""num_randdir_good_moves"":0,""num_whilered"":0,""num_whileblue"":0,""num_blue"":1,""num_good_moves"":7}","[294.22232142857143,296.12857142857143,0.8,294.22232142857143,296.12857142857143,101.6,294.22232142857143,296.12857142857143,205.8,294.22232142857143,296.12857142857143,307.1,294.22232142857143,296.12857142857143,416.6,311.22232142857143,297.12857142857143,520.6,100.22232142857143,-41.871428571428574,623.2,80.22232142857143,-48.871428571428574,724.3,80.22232142857143,-48.871428571428574,826.2,78.22232142857143,-42.871428571428574,931.3,68.22232142857143,23.128571428571426,1034.6,67.22232142857143,25.128571428571426,1136.5,67.22232142857143,25.128571428571426,1236.8,67.22232142857143,25.128571428571426,1349.2,67.22232142857143,25.128571428571426,1453.1,67.22232142857143,25.128571428571426,1556.7,67.22232142857143,25.128571428571426,1663.8,67.22232142857143,25.128571428571426,1767.2,67.22232142857143,25.128571428571426,1869.8,67.22232142857143,25.128571428571426,1972.9,67.22232142857143,25.128571428571426,2074.3,67.22232142857143,25.128571428571426,2178.7,67.22232142857143,25.128571428571426,2293.3,67.22232142857143,25.128571428571426,2396.1,67.22232142857143,25.128571428571426,2508.1,67.22232142857143,25.128571428571426,2609.8,67.22232142857143,25.128571428571426,2712.3,67.22232142857143,25.128571428571426,2825.7,67.22232142857143,25.128571428571426,2935.1,67.22232142857143,25.128571428571426,3037.1,67.22232142857143,25.128571428571426,3177.7,67.22232142857143,25.128571428571426,3290.8,67.22232142857143,25.128571428571426,3398.4,67.22232142857143,25.128571428571426,3513.3,67.22232142857143,25.128571428571426,3616.3,67.22232142857143,25.128571428571426,3722.3,67.22232142857143,25.128571428571426,3823.2,67.22232142857143,25.128571428571426,3926.3,67.22232142857143,25.128571428571426,4028.5,67.22232142857143,25.128571428571426,4132.1,67.22232142857143,25.128571428571426,4233,67.22232142857143,25.128571428571426,4336.6,67.22232142857143,25.128571428571426,4451.4,67.22232142857143,25.128571428571426,4555,67.22232142857143,25.128571428571426,4657.9,67.22232142857143,25.128571428571426,4760.5,67.22232142857143,25.128571428571426,4861.3,67.22232142857143,25.128571428571426,4966.9]","[1468.4,1468.4,1000,0,468.4,""smooth"",""left"",""left"",""good_move"",5263.9,3794.4,3396.4,1469.6,398,""smooth"",""left"",""left"",""good_move"",8622.7,3357.9,2928.7,5264.8,429.2,""smooth"",""left"",""left"",""good_move"",11754.6,3130.5,2786,8624.1,344.5,""oops"",""up"",""down"",""bad_move"",14785.7,3029.5,2593.7,11756.3,435.7,""smooth"",""up"",""up"",""good_move"",21867.1,7080.8,3150.3,18304.6,412.2,""smooth"",""up"",""up"",""good_move"",23772.4,1904.7,1500.6,21867.8,404,""smooth"",""up"",""up"",""good_move"",26550.3,2776.5,2396.6,23773.9,379.8,""smooth"",""up"",""up"",""good_move""]"
"3818","","<div style=""width:500px;"">
  <p>What determined the result of this run?</p>
  </div>","90","html-slider-response","19","417471","0.0-7.0-1.1","87","1","2025-07-30 10:16:35","36c45c0696341be0efffe67d72a12abb","216.205.162.102","Mozilla/5.0 (X11; CrOS x86_64 14541.0.0) AppleWebKit/537.36 (KHTML, like Gecko) Chrome/138.0.0.0 Safari/537.36","WebKit","Chrome","138.0.0.0","ChromeOS","14541.0.0","https://app.prolific.com/","en-GB,en-US;q=0.9,en;q=0.8","5a1dda5480acd8000104a12b","683dba9a53627eb9ab41b36a","6889f0983a98f4b8f39a9202","0","5a1dda5480acd8000104a12b","0","2025-07-30T10:23:42.204Z","","","","AttribQ","","","","","","","","","","","50","","","","","","","","","","","","","","","","","","","","","","","","","","",""
"2758","","<div style=""width:500px;"">
  <p>How much control did you have over the ball?</p>
  </div>","88","html-slider-response","20","420233","0.0-7.0-2.1","87","1","2025-07-30 10:16:35","36c45c0696341be0efffe67d72a12abb","216.205.162.102","Mozilla/5.0 (X11; CrOS x86_64 14541.0.0) AppleWebKit/537.36 (KHTML, like Gecko) Chrome/138.0.0.0 Safari/537.36","WebKit","Chrome","138.0.0.0","ChromeOS","14541.0.0","https://app.prolific.com/","en-GB,en-US;q=0.9,en;q=0.8","5a1dda5480acd8000104a12b","683dba9a53627eb9ab41b36a","6889f0983a98f4b8f39a9202","0","5a1dda5480acd8000104a12b","0","2025-07-30T10:23:44.966Z","","","","ControlQ","","","","","","","","","","","50","","","","","","","","","","","","","","","","","","","","","","","","","","",""
"2898","","<div style=""width:500px;"">
  <p>How would you describe your current emotional state?</p>
  </div>","34","html-slider-response","21","423134","0.0-7.0-3.1","87","1","2025-07-30 10:16:35","36c45c0696341be0efffe67d72a12abb","216.205.162.102","Mozilla/5.0 (X11; CrOS x86_64 14541.0.0) AppleWebKit/537.36 (KHTML, like Gecko) Chrome/138.0.0.0 Safari/537.36","WebKit","Chrome","138.0.0.0","ChromeOS","14541.0.0","https://app.prolific.com/","en-GB,en-US;q=0.9,en;q=0.8","5a1dda5480acd8000104a12b","683dba9a53627eb9ab41b36a","6889f0983a98f4b8f39a9202","0","5a1dda5480acd8000104a12b","0","2025-07-30T10:23:47.868Z","","","","StressQ","","","","","","","","","","","50","","","","","","","","","","","","","","","","","","","","","","","","","","",""
"2868","","<div style=""width:500px;"">
  <p>What best describes how you currently feel?</p>
  </div>","50","html-slider-response","22","426007","0.0-7.0-4.1","87","1","2025-07-30 10:16:35","36c45c0696341be0efffe67d72a12abb","216.205.162.102","Mozilla/5.0 (X11; CrOS x86_64 14541.0.0) AppleWebKit/537.36 (KHTML, like Gecko) Chrome/138.0.0.0 Safari/537.36","WebKit","Chrome","138.0.0.0","ChromeOS","14541.0.0","https://app.prolific.com/","en-GB,en-US;q=0.9,en;q=0.8","5a1dda5480acd8000104a12b","683dba9a53627eb9ab41b36a","6889f0983a98f4b8f39a9202","0","5a1dda5480acd8000104a12b","0","2025-07-30T10:23:50.741Z","","","","MotivationQ","","","","","","","","","","","50","","","","","","","","","","","","","","","","","","","","","","","","","","",""
"","","","","ctl-task-cpt","23","456491","0.0-7.0-0.2","87","1","2025-07-30 10:16:35","36c45c0696341be0efffe67d72a12abb","216.205.162.102","Mozilla/5.0 (X11; CrOS x86_64 14541.0.0) AppleWebKit/537.36 (KHTML, like Gecko) Chrome/138.0.0.0 Safari/537.36","WebKit","Chrome","138.0.0.0","ChromeOS","14541.0.0","https://app.prolific.com/","en-GB,en-US;q=0.9,en;q=0.8","5a1dda5480acd8000104a12b","683dba9a53627eb9ab41b36a","6889f0983a98f4b8f39a9202","0","5a1dda5480acd8000104a12b","0","2025-07-30T10:24:21.224Z","","","","","","","","","","","","","","","","win-only","0","g1:NW,g2:SE","0.8","3","0","447085.8","1194.5","6205","27459.8","1","4","8","6","2","8","8","20","12","0.15151515151515152","1287.1","3000","1425","[""down"",""right""]","{""num_key_presses"":6,""num_perfect"":6,""num_errors"":0,""num_randdir"":0,""num_randdir_good_moves"":0,""num_whilered"":0,""num_whileblue"":0,""num_blue"":1,""num_good_moves"":6}","[290.22232142857143,300.12857142857143,0.6,290.22232142857143,300.12857142857143,108.8,290.22232142857143,300.12857142857143,209.2,290.22232142857143,300.12857142857143,323.2,288.22232142857143,299.12857142857143,426.4,286.22232142857143,299.12857142857143,530,380.22232142857143,425.12857142857143,633.6,422.22232142857143,472.12857142857143,734.1,451.22232142857143,498.12857142857143,835.8,477.22232142857143,503.12857142857143,955,509.22232142857143,535.1285714285714,1061.6,511.22232142857143,536.1285714285714,1168.1,511.22232142857143,536.1285714285714,1270.2,511.22232142857143,536.1285714285714,1379.9,511.22232142857143,536.1285714285714,1487.3,511.22232142857143,536.1285714285714,1589,511.22232142857143,536.1285714285714,1699.4,511.22232142857143,536.1285714285714,1815.7,511.22232142857143,536.1285714285714,1917.4,511.22232142857143,536.1285714285714,2036.8,511.22232142857143,536.1285714285714,2141.3,511.22232142857143,536.1285714285714,2247.3,511.22232142857143,536.1285714285714,2354.3,511.22232142857143,536.1285714285714,2461.3,511.22232142857143,536.1285714285714,2562.2,511.22232142857143,536.1285714285714,2673.7,511.22232142857143,536.1285714285714,2784.8,511.22232142857143,536.1285714285714,2885.3,511.22232142857143,536.1285714285714,3001,511.22232142857143,536.1285714285714,3105.5,511.22232142857143,536.1285714285714,3213.8,511.22232142857143,536.1285714285714,3319.4,511.22232142857143,536.1285714285714,3423.4,511.22232142857143,536.1285714285714,3534.1,511.22232142857143,536.1285714285714,3655,511.22232142857143,536.1285714285714,3759.5,511.22232142857143,536.1285714285714,3860.5,511.22232142857143,536.1285714285714,3974.1,511.22232142857143,536.1285714285714,4090.7,511.22232142857143,536.1285714285714,4210.5,511.22232142857143,536.1285714285714,4317.6,511.22232142857143,536.1285714285714,4432.5,511.22232142857143,536.1285714285714,4539,511.22232142857143,536.1285714285714,4643.1,511.22232142857143,536.1285714285714,4743.8,511.22232142857143,536.1285714285714,4848.3,511.22232142857143,536.1285714285714,4951.3]","[1559.1,1559.1,1000,0,559.1,""smooth"",""right"",""right"",""good_move"",8342.1,6781.9,2990.9,4799.6,551.6,""smooth"",""right"",""right"",""good_move"",11719.6,3376.7,2911.3,8342.9,465.4,""smooth"",""right"",""right"",""good_move"",15083.3,3362.9,2808.5,11720.4,554.4,""smooth"",""down"",""down"",""good_move"",17855.2,2770.3,2278,15084.9,492.3,""smooth"",""down"",""down"",""good_move"",21018.4,3162.4,2680.6,17856,481.8,""smooth"",""down"",""down"",""good_move""]"
"3637","","<div style=""width:500px;"">
  <p>What determined the result of this run?</p>
  </div>","97","html-slider-response","24","460132","0.0-7.0-1.2","87","1","2025-07-30 10:16:35","36c45c0696341be0efffe67d72a12abb","216.205.162.102","Mozilla/5.0 (X11; CrOS x86_64 14541.0.0) AppleWebKit/537.36 (KHTML, like Gecko) Chrome/138.0.0.0 Safari/537.36","WebKit","Chrome","138.0.0.0","ChromeOS","14541.0.0","https://app.prolific.com/","en-GB,en-US;q=0.9,en;q=0.8","5a1dda5480acd8000104a12b","683dba9a53627eb9ab41b36a","6889f0983a98f4b8f39a9202","0","5a1dda5480acd8000104a12b","0","2025-07-30T10:24:24.866Z","","","","AttribQ","","","","","","","","","","","50","","","","","","","","","","","","","","","","","","","","","","","","","","",""
"3199","","<div style=""width:500px;"">
  <p>How much control did you have over the ball?</p>
  </div>","98","html-slider-response","25","463335","0.0-7.0-2.2","87","1","2025-07-30 10:16:35","36c45c0696341be0efffe67d72a12abb","216.205.162.102","Mozilla/5.0 (X11; CrOS x86_64 14541.0.0) AppleWebKit/537.36 (KHTML, like Gecko) Chrome/138.0.0.0 Safari/537.36","WebKit","Chrome","138.0.0.0","ChromeOS","14541.0.0","https://app.prolific.com/","en-GB,en-US;q=0.9,en;q=0.8","5a1dda5480acd8000104a12b","683dba9a53627eb9ab41b36a","6889f0983a98f4b8f39a9202","0","5a1dda5480acd8000104a12b","0","2025-07-30T10:24:28.069Z","","","","ControlQ","","","","","","","","","","","50","","","","","","","","","","","","","","","","","","","","","","","","","","",""
"2012","","<div style=""width:500px;"">
  <p>How would you describe your current emotional state?</p>
  </div>","10","html-slider-response","26","465351","0.0-7.0-3.2","87","1","2025-07-30 10:16:35","36c45c0696341be0efffe67d72a12abb","216.205.162.102","Mozilla/5.0 (X11; CrOS x86_64 14541.0.0) AppleWebKit/537.36 (KHTML, like Gecko) Chrome/138.0.0.0 Safari/537.36","WebKit","Chrome","138.0.0.0","ChromeOS","14541.0.0","https://app.prolific.com/","en-GB,en-US;q=0.9,en;q=0.8","5a1dda5480acd8000104a12b","683dba9a53627eb9ab41b36a","6889f0983a98f4b8f39a9202","0","5a1dda5480acd8000104a12b","0","2025-07-30T10:24:30.085Z","","","","StressQ","","","","","","","","","","","50","","","","","","","","","","","","","","","","","","","","","","","","","","",""
"5681","","<div style=""width:500px;"">
  <p>What best describes how you currently feel?</p>
  </div>","50","html-slider-response","27","471036","0.0-7.0-4.2","87","1","2025-07-30 10:16:35","36c45c0696341be0efffe67d72a12abb","216.205.162.102","Mozilla/5.0 (X11; CrOS x86_64 14541.0.0) AppleWebKit/537.36 (KHTML, like Gecko) Chrome/138.0.0.0 Safari/537.36","WebKit","Chrome","138.0.0.0","ChromeOS","14541.0.0","https://app.prolific.com/","en-GB,en-US;q=0.9,en;q=0.8","5a1dda5480acd8000104a12b","683dba9a53627eb9ab41b36a","6889f0983a98f4b8f39a9202","0","5a1dda5480acd8000104a12b","0","2025-07-30T10:24:35.769Z","","","","MotivationQ","","","","","","","","","","","50","","","","","","","","","","","","","","","","","","","","","","","","","","",""
"","","","","ctl-task-cpt","28","500725","0.0-7.0-0.3","87","1","2025-07-30 10:16:35","36c45c0696341be0efffe67d72a12abb","216.205.162.102","Mozilla/5.0 (X11; CrOS x86_64 14541.0.0) AppleWebKit/537.36 (KHTML, like Gecko) Chrome/138.0.0.0 Safari/537.36","WebKit","Chrome","138.0.0.0","ChromeOS","14541.0.0","https://app.prolific.com/","en-GB,en-US;q=0.9,en;q=0.8","5a1dda5480acd8000104a12b","683dba9a53627eb9ab41b36a","6889f0983a98f4b8f39a9202","0","5a1dda5480acd8000104a12b","0","2025-07-30T10:25:05.458Z","","","","","","","","","","","","","","","","win-only","2","g1:SE,g2:NW","0.7","4","0","492112.5","1324.9","6330.5","26670.5","1","4","4","6","2","4","4","24","20","0.18181818181818182","1274.7","3000","2035","[""left"",""up""]","{""num_key_presses"":6,""num_perfect"":5,""num_errors"":0,""num_randdir"":1,""num_randdir_good_moves"":1,""num_whilered"":0,""num_whileblue"":0,""num_blue"":1,""num_good_moves"":6}","[300.22232142857143,295.12857142857143,0.5,300.22232142857143,295.12857142857143,101.6,300.22232142857143,295.12857142857143,203.5,300.22232142857143,295.12857142857143,306.1,300.22232142857143,295.12857142857143,417.9,360.22232142857143,367.12857142857143,553.9,240.22232142857143,207.12857142857143,660.8,13.222321428571426,-82.87142857142857,765.5,19.222321428571426,-16.871428571428574,866.6,43.222321428571426,20.128571428571426,968.8,61.222321428571426,45.128571428571426,1071.4,61.222321428571426,45.128571428571426,1177.6,61.222321428571426,45.128571428571426,1289.6,61.222321428571426,45.128571428571426,1392.6,61.222321428571426,45.128571428571426,1499,61.222321428571426,45.128571428571426,1605.8,61.222321428571426,45.128571428571426,1724.9,61.222321428571426,45.128571428571426,1844,61.222321428571426,45.128571428571426,1952.3,61.222321428571426,45.128571428571426,2073.9,61.222321428571426,45.128571428571426,2180.2,61.222321428571426,45.128571428571426,2302.6,61.222321428571426,45.128571428571426,2407.3,61.222321428571426,45.128571428571426,2510.9,61.222321428571426,45.128571428571426,2622.2,61.222321428571426,45.128571428571426,2731.4,61.222321428571426,45.128571428571426,2838.1,61.222321428571426,45.128571428571426,2940.5,61.222321428571426,45.128571428571426,3042.3,61.222321428571426,45.128571428571426,3148.1,61.222321428571426,45.128571428571426,3255.2,61.222321428571426,45.128571428571426,3375.8,61.222321428571426,45.128571428571426,3483.4,61.222321428571426,45.128571428571426,3585.9,61.222321428571426,45.128571428571426,3701.1,61.222321428571426,45.128571428571426,3822.6,61.222321428571426,45.128571428571426,3932.3,61.222321428571426,45.128571428571426,4034.1,61.222321428571426,45.128571428571426,4137.4,61.222321428571426,45.128571428571426,4253.1,61.222321428571426,45.128571428571426,4358.3,61.222321428571426,45.128571428571426,4460.3,61.222321428571426,45.128571428571426,4568.7,61.222321428571426,45.128571428571426,4668.7,61.222321428571426,45.128571428571426,4772.1,61.222321428571426,45.128571428571426,4884.5,61.222321428571426,45.128571428571426,4997.2]","[5017,5017,2611,2009.1,396.9,""smooth"",""left"",""left"",""good_move"",8078.9,3060.3,2654.8,5018.6,405.5,""smooth"",""left"",""left"",""good_move"",11424.6,3344.4,2972.5,8080.3,371.8,""oops"",""left"",""left"",""good_move"",14648.7,3222.5,2801.7,11426.2,420.8,""smooth"",""up"",""up"",""good_move"",17094.9,2445.1,2063.5,14649.8,381.6,""smooth"",""up"",""up"",""good_move"",20078.7,2983.1,2565.1,17095.7,417.9,""smooth"",""up"",""up"",""good_move""]"
"2899","","<div style=""width:500px;"">
  <p>What determined the result of this run?</p>
  </div>","95","html-slider-response","29","503627","0.0-7.0-1.3","87","1","2025-07-30 10:16:35","36c45c0696341be0efffe67d72a12abb","216.205.162.102","Mozilla/5.0 (X11; CrOS x86_64 14541.0.0) AppleWebKit/537.36 (KHTML, like Gecko) Chrome/138.0.0.0 Safari/537.36","WebKit","Chrome","138.0.0.0","ChromeOS","14541.0.0","https://app.prolific.com/","en-GB,en-US;q=0.9,en;q=0.8","5a1dda5480acd8000104a12b","683dba9a53627eb9ab41b36a","6889f0983a98f4b8f39a9202","0","5a1dda5480acd8000104a12b","0","2025-07-30T10:25:08.361Z","","","","AttribQ","","","","","","","","","","","50","","","","","","","","","","","","","","","","","","","","","","","","","","",""
"2439","","<div style=""width:500px;"">
  <p>How much control did you have over the ball?</p>
  </div>","97","html-slider-response","30","506070","0.0-7.0-2.3","87","1","2025-07-30 10:16:35","36c45c0696341be0efffe67d72a12abb","216.205.162.102","Mozilla/5.0 (X11; CrOS x86_64 14541.0.0) AppleWebKit/537.36 (KHTML, like Gecko) Chrome/138.0.0.0 Safari/537.36","WebKit","Chrome","138.0.0.0","ChromeOS","14541.0.0","https://app.prolific.com/","en-GB,en-US;q=0.9,en;q=0.8","5a1dda5480acd8000104a12b","683dba9a53627eb9ab41b36a","6889f0983a98f4b8f39a9202","0","5a1dda5480acd8000104a12b","0","2025-07-30T10:25:10.804Z","","","","ControlQ","","","","","","","","","","","50","","","","","","","","","","","","","","","","","","","","","","","","","","",""
"3176","","<div style=""width:500px;"">
  <p>How would you describe your current emotional state?</p>
  </div>","38","html-slider-response","31","509250","0.0-7.0-3.3","87","1","2025-07-30 10:16:35","36c45c0696341be0efffe67d72a12abb","216.205.162.102","Mozilla/5.0 (X11; CrOS x86_64 14541.0.0) AppleWebKit/537.36 (KHTML, like Gecko) Chrome/138.0.0.0 Safari/537.36","WebKit","Chrome","138.0.0.0","ChromeOS","14541.0.0","https://app.prolific.com/","en-GB,en-US;q=0.9,en;q=0.8","5a1dda5480acd8000104a12b","683dba9a53627eb9ab41b36a","6889f0983a98f4b8f39a9202","0","5a1dda5480acd8000104a12b","0","2025-07-30T10:25:13.983Z","","","","StressQ","","","","","","","","","","","50","","","","","","","","","","","","","","","","","","","","","","","","","","",""
"2226","","<div style=""width:500px;"">
  <p>What best describes how you currently feel?</p>
  </div>","50","html-slider-response","32","511479","0.0-7.0-4.3","87","1","2025-07-30 10:16:35","36c45c0696341be0efffe67d72a12abb","216.205.162.102","Mozilla/5.0 (X11; CrOS x86_64 14541.0.0) AppleWebKit/537.36 (KHTML, like Gecko) Chrome/138.0.0.0 Safari/537.36","WebKit","Chrome","138.0.0.0","ChromeOS","14541.0.0","https://app.prolific.com/","en-GB,en-US;q=0.9,en;q=0.8","5a1dda5480acd8000104a12b","683dba9a53627eb9ab41b36a","6889f0983a98f4b8f39a9202","0","5a1dda5480acd8000104a12b","0","2025-07-30T10:25:16.213Z","","","","MotivationQ","","","","","","","","","","","50","","","","","","","","","","","","","","","","","","","","","","","","","","",""
"","","","","ctl-task-cpt","33","559142","0.0-7.0-0.4","87","1","2025-07-30 10:16:35","36c45c0696341be0efffe67d72a12abb","216.205.162.102","Mozilla/5.0 (X11; CrOS x86_64 14541.0.0) AppleWebKit/537.36 (KHTML, like Gecko) Chrome/138.0.0.0 Safari/537.36","WebKit","Chrome","138.0.0.0","ChromeOS","14541.0.0","https://app.prolific.com/","en-GB,en-US;q=0.9,en;q=0.8","5a1dda5480acd8000104a12b","683dba9a53627eb9ab41b36a","6889f0983a98f4b8f39a9202","0","5a1dda5480acd8000104a12b","0","2025-07-30T10:26:03.875Z","","","","","","","","","","","","","","","","win-only","3","g1:SW,g2:NE","0.6","5","0","532555.4","1295.4","6310.7","44635.5","1","4","8","6","2","8","7","31","24","0.23484848484848486","1273.6","3000","995","[""up"",""right""]","{""num_key_presses"":12,""num_perfect"":6,""num_errors"":1,""num_randdir"":5,""num_randdir_good_moves"":3,""num_whilered"":0,""num_whileblue"":1,""num_blue"":2,""num_good_moves"":9}","[294.22232142857143,297.12857142857143,0.8,294.22232142857143,297.12857142857143,104.3,294.22232142857143,297.12857142857143,206.9,294.22232142857143,297.12857142857143,314.4,294.22232142857143,297.12857142857143,414.4,294.22232142857143,321.12857142857143,520.5,493.22232142857143,101.12857142857143,629.2,554.2223214285714,40.128571428571426,735.7,559.2223214285714,31.128571428571426,839.6,562.2223214285714,25.128571428571426,939.9,547.2223214285714,44.128571428571426,1049.1,534.2223214285714,57.128571428571426,1158.7,534.2223214285714,57.128571428571426,1263.4,534.2223214285714,57.128571428571426,1371.9,534.2223214285714,57.128571428571426,1473,534.2223214285714,57.128571428571426,1601.9,534.2223214285714,57.128571428571426,1708.6,534.2223214285714,57.128571428571426,1828,534.2223214285714,57.128571428571426,1938.8,534.2223214285714,57.128571428571426,2043.1,534.2223214285714,57.128571428571426,2148.6,534.2223214285714,57.128571428571426,2257,534.2223214285714,57.128571428571426,2359.1,534.2223214285714,57.128571428571426,2467.3,534.2223214285714,57.128571428571426,2570,534.2223214285714,57.128571428571426,2671.6,534.2223214285714,57.128571428571426,2779.3,534.2223214285714,57.128571428571426,2883.8,534.2223214285714,57.128571428571426,2997.4,534.2223214285714,57.128571428571426,3116.8,534.2223214285714,57.128571428571426,3233,534.2223214285714,57.128571428571426,3347.2,534.2223214285714,57.128571428571426,3452.6,534.2223214285714,57.128571428571426,3560.9,534.2223214285714,57.128571428571426,3664.8,534.2223214285714,57.128571428571426,3773.2,534.2223214285714,57.128571428571426,3881,534.2223214285714,57.128571428571426,3983.3,534.2223214285714,57.128571428571426,4090,534.2223214285714,57.128571428571426,4207.9,534.2223214285714,57.128571428571426,4324.7,534.2223214285714,57.128571428571426,4426.1,534.2223214285714,57.128571428571426,4529.2,534.2223214285714,57.128571428571426,4630.9,534.2223214285714,57.128571428571426,4733.3,534.2223214285714,57.128571428571426,4855.7,534.2223214285714,57.128571428571426,4977]","[1522.2,1522.2,1000,0,522.2,""smooth"",""right"",""right"",""good_move"",7424.5,5901,1976.8,4945.7,502,""oops"",""right"",""down"",""bad_move"",10053.2,2627.4,2095.2,7425.8,532.3,""smooth"",""right"",""right"",""good_move"",12809.3,2755.6,2277.2,10053.7,478.4,""smooth"",""right"",""right"",""good_move"",16201.6,3391.7,3018.4,12809.9,373.3,""oops"",""up"",""up"",""good_move"",19607.4,3404.7,3047.2,16202.7,357.5,""while_blue"",""up"",""left"",""bad_move"",22921.4,3312.7,2802.5,19608.7,510.2,""smooth"",""right"",""right"",""good_move"",26190.1,3269.2,2839,22921.9,430.3,""smooth"",""up"",""up"",""good_move"",29808.8,3615.9,3149.6,26192.9,466.4,""smooth"",""up"",""up"",""good_move"",32303.6,2493.5,1415.6,29810.2,1077.8,""oops"",""up"",""left"",""bad_move"",35649.6,3345.4,2887.9,32304.3,457.5,""oops"",""up"",""up"",""good_move"",38110.9,2460.6,1906.5,35650.4,554.1,""oops"",""right"",""right"",""good_move""]"
"2855","","<div style=""width:500px;"">
  <p>What determined the result of this run?</p>
  </div>","85","html-slider-response","34","562001","0.0-7.0-1.4","87","1","2025-07-30 10:16:35","36c45c0696341be0efffe67d72a12abb","216.205.162.102","Mozilla/5.0 (X11; CrOS x86_64 14541.0.0) AppleWebKit/537.36 (KHTML, like Gecko) Chrome/138.0.0.0 Safari/537.36","WebKit","Chrome","138.0.0.0","ChromeOS","14541.0.0","https://app.prolific.com/","en-GB,en-US;q=0.9,en;q=0.8","5a1dda5480acd8000104a12b","683dba9a53627eb9ab41b36a","6889f0983a98f4b8f39a9202","0","5a1dda5480acd8000104a12b","0","2025-07-30T10:26:06.735Z","","","","AttribQ","","","","","","","","","","","50","","","","","","","","","","","","","","","","","","","","","","","","","","",""
"2586","","<div style=""width:500px;"">
  <p>How much control did you have over the ball?</p>
  </div>","85","html-slider-response","35","564592","0.0-7.0-2.4","87","1","2025-07-30 10:16:35","36c45c0696341be0efffe67d72a12abb","216.205.162.102","Mozilla/5.0 (X11; CrOS x86_64 14541.0.0) AppleWebKit/537.36 (KHTML, like Gecko) Chrome/138.0.0.0 Safari/537.36","WebKit","Chrome","138.0.0.0","ChromeOS","14541.0.0","https://app.prolific.com/","en-GB,en-US;q=0.9,en;q=0.8","5a1dda5480acd8000104a12b","683dba9a53627eb9ab41b36a","6889f0983a98f4b8f39a9202","0","5a1dda5480acd8000104a12b","0","2025-07-30T10:26:09.325Z","","","","ControlQ","","","","","","","","","","","50","","","","","","","","","","","","","","","","","","","","","","","","","","",""
"3352","","<div style=""width:500px;"">
  <p>How would you describe your current emotional state?</p>
  </div>","35","html-slider-response","36","567949","0.0-7.0-3.4","87","1","2025-07-30 10:16:35","36c45c0696341be0efffe67d72a12abb","216.205.162.102","Mozilla/5.0 (X11; CrOS x86_64 14541.0.0) AppleWebKit/537.36 (KHTML, like Gecko) Chrome/138.0.0.0 Safari/537.36","WebKit","Chrome","138.0.0.0","ChromeOS","14541.0.0","https://app.prolific.com/","en-GB,en-US;q=0.9,en;q=0.8","5a1dda5480acd8000104a12b","683dba9a53627eb9ab41b36a","6889f0983a98f4b8f39a9202","0","5a1dda5480acd8000104a12b","0","2025-07-30T10:26:12.682Z","","","","StressQ","","","","","","","","","","","50","","","","","","","","","","","","","","","","","","","","","","","","","","",""
"3381","","<div style=""width:500px;"">
  <p>What best describes how you currently feel?</p>
  </div>","36","html-slider-response","37","571334","0.0-7.0-4.4","87","1","2025-07-30 10:16:35","36c45c0696341be0efffe67d72a12abb","216.205.162.102","Mozilla/5.0 (X11; CrOS x86_64 14541.0.0) AppleWebKit/537.36 (KHTML, like Gecko) Chrome/138.0.0.0 Safari/537.36","WebKit","Chrome","138.0.0.0","ChromeOS","14541.0.0","https://app.prolific.com/","en-GB,en-US;q=0.9,en;q=0.8","5a1dda5480acd8000104a12b","683dba9a53627eb9ab41b36a","6889f0983a98f4b8f39a9202","0","5a1dda5480acd8000104a12b","0","2025-07-30T10:26:16.067Z","","","","MotivationQ","","","","","","","","","","","50","","","","","","","","","","","","","","","","","","","","","","","","","","",""
"","","","","ctl-task-cpt","38","612825","0.0-7.0-0.5","87","1","2025-07-30 10:16:35","36c45c0696341be0efffe67d72a12abb","216.205.162.102","Mozilla/5.0 (X11; CrOS x86_64 14541.0.0) AppleWebKit/537.36 (KHTML, like Gecko) Chrome/138.0.0.0 Safari/537.36","WebKit","Chrome","138.0.0.0","ChromeOS","14541.0.0","https://app.prolific.com/","en-GB,en-US;q=0.9,en;q=0.8","5a1dda5480acd8000104a12b","683dba9a53627eb9ab41b36a","6889f0983a98f4b8f39a9202","0","5a1dda5480acd8000104a12b","0","2025-07-30T10:26:57.558Z","","","","","","","","","","","","","","","","win-only","2","g1:SE,g2:NW","0.5","6","0","592410.5","1064.6","6070.8","38466.6","1","4","4","6","2","4","4","35","31","0.26515151515151514","1229.2","3000","1495","[""left"",""up""]","{""num_key_presses"":10,""num_perfect"":5,""num_errors"":0,""num_randdir"":5,""num_randdir_good_moves"":3,""num_whilered"":0,""num_whileblue"":0,""num_blue"":1,""num_good_moves"":8}","[287.22232142857143,293.12857142857143,0.7,287.22232142857143,293.12857142857143,102.5,287.22232142857143,293.12857142857143,203.9,287.22232142857143,293.12857142857143,310.1,287.22232142857143,293.12857142857143,415.6,287.22232142857143,293.12857142857143,519.3,322.22232142857143,322.12857142857143,621.3,-55.777678571428574,-83.87142857142857,733,-26.777678571428574,-21.871428571428574,834,14.222321428571426,41.128571428571426,937,17.222321428571426,46.128571428571426,1046.8,17.222321428571426,46.128571428571426,1148.3,17.222321428571426,46.128571428571426,1253.5,17.222321428571426,46.128571428571426,1360.4,17.222321428571426,46.128571428571426,1471,17.222321428571426,46.128571428571426,1572.4,17.222321428571426,46.128571428571426,1684.8,17.222321428571426,46.128571428571426,1794.3,17.222321428571426,46.128571428571426,1902.7,17.222321428571426,46.128571428571426,2007.9,17.222321428571426,46.128571428571426,2113.1,17.222321428571426,46.128571428571426,2214.3,17.222321428571426,46.128571428571426,2315.4,17.222321428571426,46.128571428571426,2415.6,17.222321428571426,46.128571428571426,2518.7,17.222321428571426,46.128571428571426,2624.9,17.222321428571426,46.128571428571426,2728.1,17.222321428571426,46.128571428571426,2843.1,17.222321428571426,46.128571428571426,2951.4,17.222321428571426,46.128571428571426,3064.4,17.222321428571426,46.128571428571426,3174,17.222321428571426,46.128571428571426,3284.6,17.222321428571426,46.128571428571426,3392.5,17.222321428571426,46.128571428571426,3503.9,17.222321428571426,46.128571428571426,3606.1,17.222321428571426,46.128571428571426,3707.1,17.222321428571426,46.128571428571426,3811.6,17.222321428571426,46.128571428571426,3911.6,17.222321428571426,46.128571428571426,4017.1,17.222321428571426,46.128571428571426,4137.3,17.222321428571426,46.128571428571426,4247.2,17.222321428571426,46.128571428571426,4361,17.222321428571426,46.128571428571426,4463.6,17.222321428571426,46.128571428571426,4574.4,17.222321428571426,46.128571428571426,4675.8,17.222321428571426,46.128571428571426,4784.7,17.222321428571426,46.128571428571426,4889.2,17.222321428571426,46.128571428571426,4996.4]","[1449,1449,1000,0,449,""oops"",""left"",""left"",""good_move"",4155,2705.2,2288.7,1449.9,416.5,""smooth"",""left"",""left"",""good_move"",6860.7,2705,1961.8,4155.7,743.2,""smooth"",""left"",""left"",""good_move"",9796.5,2934.8,2178,6861.7,756.8,""oops"",""up"",""up"",""good_move"",13228.1,3430.4,3028.9,9797.7,401.5,""oops"",""up"",""right"",""bad_move"",16456.8,3227.7,2847.5,13229.1,380.2,""smooth"",""up"",""up"",""good_move"",19535.2,3077.8,2628.5,16457.5,449.2,""oops"",""up"",""down"",""bad_move"",22684.9,3148.6,2726.1,19536.3,422.5,""smooth"",""up"",""up"",""good_move"",25878,3192.5,2555.8,22685.5,636.8,""smooth"",""up"",""up"",""good_move"",32131.7,6252.7,2455.9,29275.8,400,""oops"",""left"",""left"",""good_move""]"
"2830","","<div style=""width:500px;"">
  <p>What determined the result of this run?</p>
  </div>","87","html-slider-response","39","615659","0.0-7.0-1.5","87","1","2025-07-30 10:16:35","36c45c0696341be0efffe67d72a12abb","216.205.162.102","Mozilla/5.0 (X11; CrOS x86_64 14541.0.0) AppleWebKit/537.36 (KHTML, like Gecko) Chrome/138.0.0.0 Safari/537.36","WebKit","Chrome","138.0.0.0","ChromeOS","14541.0.0","https://app.prolific.com/","en-GB,en-US;q=0.9,en;q=0.8","5a1dda5480acd8000104a12b","683dba9a53627eb9ab41b36a","6889f0983a98f4b8f39a9202","0","5a1dda5480acd8000104a12b","0","2025-07-30T10:27:00.392Z","","","","AttribQ","","","","","","","","","","","50","","","","","","","","","","","","","","","","","","","","","","","","","","",""
"3817","","<div style=""width:500px;"">
  <p>How much control did you have over the ball?</p>
  </div>","84","html-slider-response","40","619479","0.0-7.0-2.5","87","1","2025-07-30 10:16:35","36c45c0696341be0efffe67d72a12abb","216.205.162.102","Mozilla/5.0 (X11; CrOS x86_64 14541.0.0) AppleWebKit/537.36 (KHTML, like Gecko) Chrome/138.0.0.0 Safari/537.36","WebKit","Chrome","138.0.0.0","ChromeOS","14541.0.0","https://app.prolific.com/","en-GB,en-US;q=0.9,en;q=0.8","5a1dda5480acd8000104a12b","683dba9a53627eb9ab41b36a","6889f0983a98f4b8f39a9202","0","5a1dda5480acd8000104a12b","0","2025-07-30T10:27:04.212Z","","","","ControlQ","","","","","","","","","","","50","","","","","","","","","","","","","","","","","","","","","","","","","","",""
"2095","","<div style=""width:500px;"">
  <p>How would you describe your current emotional state?</p>
  </div>","40","html-slider-response","41","621578","0.0-7.0-3.5","87","1","2025-07-30 10:16:35","36c45c0696341be0efffe67d72a12abb","216.205.162.102","Mozilla/5.0 (X11; CrOS x86_64 14541.0.0) AppleWebKit/537.36 (KHTML, like Gecko) Chrome/138.0.0.0 Safari/537.36","WebKit","Chrome","138.0.0.0","ChromeOS","14541.0.0","https://app.prolific.com/","en-GB,en-US;q=0.9,en;q=0.8","5a1dda5480acd8000104a12b","683dba9a53627eb9ab41b36a","6889f0983a98f4b8f39a9202","0","5a1dda5480acd8000104a12b","0","2025-07-30T10:27:06.311Z","","","","StressQ","","","","","","","","","","","50","","","","","","","","","","","","","","","","","","","","","","","","","","",""
"4605","","<div style=""width:500px;"">
  <p>What best describes how you currently feel?</p>
  </div>","40","html-slider-response","42","626187","0.0-7.0-4.5","87","1","2025-07-30 10:16:35","36c45c0696341be0efffe67d72a12abb","216.205.162.102","Mozilla/5.0 (X11; CrOS x86_64 14541.0.0) AppleWebKit/537.36 (KHTML, like Gecko) Chrome/138.0.0.0 Safari/537.36","WebKit","Chrome","138.0.0.0","ChromeOS","14541.0.0","https://app.prolific.com/","en-GB,en-US;q=0.9,en;q=0.8","5a1dda5480acd8000104a12b","683dba9a53627eb9ab41b36a","6889f0983a98f4b8f39a9202","0","5a1dda5480acd8000104a12b","0","2025-07-30T10:27:10.920Z","","","","MotivationQ","","","","","","","","","","","50","","","","","","","","","","","","","","","","","","","","","","","","","","",""
"","","","","ctl-task-cpt","43","740951","0.0-7.0-0.6","87","1","2025-07-30 10:16:35","36c45c0696341be0efffe67d72a12abb","216.205.162.102","Mozilla/5.0 (X11; CrOS x86_64 14541.0.0) AppleWebKit/537.36 (KHTML, like Gecko) Chrome/138.0.0.0 Safari/537.36","WebKit","Chrome","138.0.0.0","ChromeOS","14541.0.0","https://app.prolific.com/","en-GB,en-US;q=0.9,en;q=0.8","5a1dda5480acd8000104a12b","683dba9a53627eb9ab41b36a","6889f0983a98f4b8f39a9202","0","5a1dda5480acd8000104a12b","0","2025-07-30T10:29:05.685Z","","","","","","","","","","","","","","","","win-only","2","g1:SE,g2:NW","0.4","7","0","647263.2","1212.4","6224.9","111730.6","1","4","4","6","2","-4","-4","31","35","0.23484848484848486","1604.9","3000","-740","[""left"",""up""]","{""num_key_presses"":24,""num_perfect"":10,""num_errors"":0,""num_randdir"":14,""num_randdir_good_moves"":4,""num_whilered"":0,""num_whileblue"":0,""num_blue"":8,""num_good_moves"":14}","[295.22232142857143,301.12857142857143,0.5,295.22232142857143,301.12857142857143,111.8,295.22232142857143,301.12857142857143,222.1,295.22232142857143,301.12857142857143,335.8,158.22232142857143,130.12857142857143,449.3,120.22232142857143,104.12857142857143,562.7,120.22232142857143,104.12857142857143,667.2,120.22232142857143,104.12857142857143,778.8,112.22232142857143,96.12857142857143,888.2,110.22232142857143,96.12857142857143,1000.1,110.22232142857143,96.12857142857143,1115.4,110.22232142857143,96.12857142857143,1219.6,102.22232142857143,90.12857142857143,1328.6,86.22232142857143,70.12857142857143,1433.7,86.22232142857143,70.12857142857143,1551.5,86.22232142857143,70.12857142857143,1657.5,86.22232142857143,70.12857142857143,1776.3,86.22232142857143,70.12857142857143,1881.5,86.22232142857143,70.12857142857143,1984.3,86.22232142857143,70.12857142857143,2102.7,86.22232142857143,70.12857142857143,2212.8,86.22232142857143,70.12857142857143,2329.2,86.22232142857143,70.12857142857143,2444.8,86.22232142857143,70.12857142857143,2554.6,86.22232142857143,70.12857142857143,2670.8,86.22232142857143,70.12857142857143,2783.6,86.22232142857143,70.12857142857143,2897.2,86.22232142857143,70.12857142857143,2998.4,86.22232142857143,70.12857142857143,3115.6,86.22232142857143,70.12857142857143,3230.8,86.22232142857143,70.12857142857143,3349,86.22232142857143,70.12857142857143,3458.1,86.22232142857143,70.12857142857143,3576.1,86.22232142857143,70.12857142857143,3692.6,86.22232142857143,70.12857142857143,3804.5,86.22232142857143,70.12857142857143,3923.1,86.22232142857143,70.12857142857143,4037.5,86.22232142857143,70.12857142857143,4155.5,86.22232142857143,70.12857142857143,4274.3,86.22232142857143,70.12857142857143,4385.4,86.22232142857143,70.12857142857143,4504.7,86.22232142857143,70.12857142857143,4606.3,86.22232142857143,70.12857142857143,4720,86.22232142857143,70.12857142857143,4839.8,86.22232142857143,70.12857142857143,4957.3]","[1449,1449,1000,0,449,""smooth"",""left"",""left"",""good_move"",9654.2,8204.2,2791.4,6418.3,444.5,""smooth"",""left"",""left"",""good_move"",13759.1,4104.4,2692.1,9654.8,1412.3,""oops"",""left"",""left"",""good_move"",17000.8,3241,2818.5,13759.9,422.4,""oops"",""up"",""down"",""bad_move"",23133.3,6130.9,2377,20321.7,434.6,""oops"",""up"",""down"",""bad_move"",25701.2,2567.3,1907.6,23133.9,659.7,""oops"",""up"",""right"",""bad_move"",32100.7,6398.4,2543.3,29139.7,417.7,""smooth"",""up"",""up"",""good_move"",39264.5,7162.8,2285.1,36477.5,501.9,""smooth"",""up"",""up"",""good_move"",43700.4,4435.3,1743.4,39265.1,2691.9,""oops"",""up"",""right"",""bad_move"",47397.7,3696.6,3178.3,43701.2,518.2,""oops"",""up"",""down"",""bad_move"",49754.7,2356.4,1802.2,47398.4,554.2,""smooth"",""up"",""up"",""good_move"",52838,3082.5,2661.7,49755.5,420.8,""oops"",""up"",""up"",""good_move"",55815,2974.5,2363.4,52840.5,611.1,""oops"",""up"",""right"",""bad_move"",58828.2,3012.5,2550.1,55815.7,462.4,""smooth"",""up"",""up"",""good_move"",61763.9,2934.6,2147.3,58829.4,787.3,""oops"",""up"",""right"",""bad_move"",68459.2,6694.5,2557.3,65397.4,504.5,""smooth"",""up"",""up"",""good_move"",75068.4,6608.7,2260.5,72412.4,395.5,""oops"",""left"",""left"",""good_move"",78140.4,3071.2,2179.6,75069.3,891.5,""smooth"",""left"",""left"",""good_move"",85019.3,6878.1,2825.8,81803.5,390,""oops"",""left"",""right"",""bad_move"",90782.5,5762.5,2018.8,88325,438.7,""oops"",""left"",""left"",""good_move"",93805.3,3022.3,2647.8,90783.1,374.4,""smooth"",""left"",""left"",""good_move"",96782.9,2977,2127.7,93806,849.3,""oops"",""left"",""right"",""bad_move"",99733.9,2950.3,2581.1,96783.7,369.2,""smooth"",""left"",""left"",""good_move"",103112.6,3377.9,3035.5,99734.7,342.5,""oops"",""left"",""right"",""bad_move""]"
"6760","","<div style=""width:500px;"">
  <p>What determined the result of this run?</p>
  </div>","38","html-slider-response","44","747716","0.0-7.0-1.6","87","1","2025-07-30 10:16:35","36c45c0696341be0efffe67d72a12abb","216.205.162.102","Mozilla/5.0 (X11; CrOS x86_64 14541.0.0) AppleWebKit/537.36 (KHTML, like Gecko) Chrome/138.0.0.0 Safari/537.36","WebKit","Chrome","138.0.0.0","ChromeOS","14541.0.0","https://app.prolific.com/","en-GB,en-US;q=0.9,en;q=0.8","5a1dda5480acd8000104a12b","683dba9a53627eb9ab41b36a","6889f0983a98f4b8f39a9202","0","5a1dda5480acd8000104a12b","0","2025-07-30T10:29:12.449Z","","","","AttribQ","","","","","","","","","","","50","","","","","","","","","","","","","","","","","","","","","","","","","","",""
"2381","","<div style=""width:500px;"">
  <p>How much control did you have over the ball?</p>
  </div>","29","html-slider-response","45","750101","0.0-7.0-2.6","87","1","2025-07-30 10:16:35","36c45c0696341be0efffe67d72a12abb","216.205.162.102","Mozilla/5.0 (X11; CrOS x86_64 14541.0.0) AppleWebKit/537.36 (KHTML, like Gecko) Chrome/138.0.0.0 Safari/537.36","WebKit","Chrome","138.0.0.0","ChromeOS","14541.0.0","https://app.prolific.com/","en-GB,en-US;q=0.9,en;q=0.8","5a1dda5480acd8000104a12b","683dba9a53627eb9ab41b36a","6889f0983a98f4b8f39a9202","0","5a1dda5480acd8000104a12b","0","2025-07-30T10:29:14.834Z","","","","ControlQ","","","","","","","","","","","50","","","","","","","","","","","","","","","","","","","","","","","","","","",""
"2711","","<div style=""width:500px;"">
  <p>How would you describe your current emotional state?</p>
  </div>","37","html-slider-response","46","752817","0.0-7.0-3.6","87","1","2025-07-30 10:16:35","36c45c0696341be0efffe67d72a12abb","216.205.162.102","Mozilla/5.0 (X11; CrOS x86_64 14541.0.0) AppleWebKit/537.36 (KHTML, like Gecko) Chrome/138.0.0.0 Safari/537.36","WebKit","Chrome","138.0.0.0","ChromeOS","14541.0.0","https://app.prolific.com/","en-GB,en-US;q=0.9,en;q=0.8","5a1dda5480acd8000104a12b","683dba9a53627eb9ab41b36a","6889f0983a98f4b8f39a9202","0","5a1dda5480acd8000104a12b","0","2025-07-30T10:29:17.550Z","","","","StressQ","","","","","","","","","","","50","","","","","","","","","","","","","","","","","","","","","","","","","","",""
"2201","","<div style=""width:500px;"">
  <p>What best describes how you currently feel?</p>
  </div>","26","html-slider-response","47","755023","0.0-7.0-4.6","87","1","2025-07-30 10:16:35","36c45c0696341be0efffe67d72a12abb","216.205.162.102","Mozilla/5.0 (X11; CrOS x86_64 14541.0.0) AppleWebKit/537.36 (KHTML, like Gecko) Chrome/138.0.0.0 Safari/537.36","WebKit","Chrome","138.0.0.0","ChromeOS","14541.0.0","https://app.prolific.com/","en-GB,en-US;q=0.9,en;q=0.8","5a1dda5480acd8000104a12b","683dba9a53627eb9ab41b36a","6889f0983a98f4b8f39a9202","0","5a1dda5480acd8000104a12b","0","2025-07-30T10:29:19.757Z","","","","MotivationQ","","","","","","","","","","","50","","","","","","","","","","","","","","","","","","","","","","","","","","",""
"","","","","ctl-task-cpt","48","775719","0.0-7.0-0.7","87","1","2025-07-30 10:16:35","36c45c0696341be0efffe67d72a12abb","216.205.162.102","Mozilla/5.0 (X11; CrOS x86_64 14541.0.0) AppleWebKit/537.36 (KHTML, like Gecko) Chrome/138.0.0.0 Safari/537.36","WebKit","Chrome","138.0.0.0","ChromeOS","14541.0.0","https://app.prolific.com/","en-GB,en-US;q=0.9,en;q=0.8","5a1dda5480acd8000104a12b","683dba9a53627eb9ab41b36a","6889f0983a98f4b8f39a9202","0","5a1dda5480acd8000104a12b","0","2025-07-30T10:29:40.453Z","","","","","","","","","","","","","","","","win-only","1","g1:NE,g2:SW","0.3","8","0","776100.5","1333.1","6344.9","17661.7","1","4","8","6","1","1","1","32","31","0.24242424242424243","2466.7","3000","2450","[""up"",""right""]","{""num_key_presses"":4,""num_perfect"":2,""num_errors"":0,""num_randdir"":2,""num_randdir_good_moves"":2,""num_whilered"":0,""num_whileblue"":0,""num_blue"":0,""num_good_moves"":4}","[298.22232142857143,300.12857142857143,0.5,298.22232142857143,300.12857142857143,106.2,298.22232142857143,300.12857142857143,210.2,298.22232142857143,300.12857142857143,318.1,298.22232142857143,300.12857142857143,421.5,298.22232142857143,300.12857142857143,528.3,298.22232142857143,300.12857142857143,639.5,298.22232142857143,300.12857142857143,741.8,298.22232142857143,300.12857142857143,845,298.22232142857143,300.12857142857143,952.2,298.22232142857143,300.12857142857143,1056.4,298.22232142857143,300.12857142857143,1159,405.22232142857143,247.12857142857143,1272.2,504.22232142857143,163.12857142857143,1380,504.22232142857143,163.12857142857143,1487.1,504.22232142857143,163.12857142857143,1597.3,516.2223214285714,116.12857142857143,1701.3,519.2223214285714,98.12857142857143,1811.4,524.2223214285714,91.12857142857143,1913.8,528.2223214285714,85.12857142857143,2031.2,529.2223214285714,76.12857142857143,2149.6,529.2223214285714,76.12857142857143,2250.1,529.2223214285714,76.12857142857143,2364.1,529.2223214285714,76.12857142857143,2478.7,529.2223214285714,76.12857142857143,2582.8,529.2223214285714,76.12857142857143,2715.2,529.2223214285714,76.12857142857143,2818.2,529.2223214285714,76.12857142857143,2925.1,529.2223214285714,76.12857142857143,3033.3,529.2223214285714,76.12857142857143,3141.6,529.2223214285714,76.12857142857143,3250.6,529.2223214285714,76.12857142857143,3364.7,529.2223214285714,76.12857142857143,3474.9,529.2223214285714,76.12857142857143,3578.3,529.2223214285714,76.12857142857143,3683.3,529.2223214285714,76.12857142857143,3787.6,529.2223214285714,76.12857142857143,3893.1,529.2223214285714,76.12857142857143,4000.8,529.2223214285714,76.12857142857143,4114.5,529.2223214285714,76.12857142857143,4231.7,529.2223214285714,76.12857142857143,4338.7,529.2223214285714,76.12857142857143,4439,529.2223214285714,76.12857142857143,4544.6,529.2223214285714,76.12857142857143,4659.1,529.2223214285714,76.12857142857143,4766.1,529.2223214285714,76.12857142857143,4877,529.2223214285714,76.12857142857143,4979.1]","[1462.4,1462.4,1000,0,462.4,""smooth"",""right"",""right"",""good_move"",4909.7,3446.3,3001.8,1463.4,444.6,""oops"",""right"",""up"",""good_move"",7911.2,3000.4,2524.1,4910.8,476.3,""oops"",""right"",""right"",""good_move"",11012.5,3100.5,2718.8,7912,381.7,""smooth"",""up"",""up"",""good_move""]"
"2888","","<div style=""width:500px;"">
  <p>What determined the result of this run?</p>
  </div>","87","html-slider-response","49","778611","0.0-7.0-1.7","87","1","2025-07-30 10:16:35","36c45c0696341be0efffe67d72a12abb","216.205.162.102","Mozilla/5.0 (X11; CrOS x86_64 14541.0.0) AppleWebKit/537.36 (KHTML, like Gecko) Chrome/138.0.0.0 Safari/537.36","WebKit","Chrome","138.0.0.0","ChromeOS","14541.0.0","https://app.prolific.com/","en-GB,en-US;q=0.9,en;q=0.8","5a1dda5480acd8000104a12b","683dba9a53627eb9ab41b36a","6889f0983a98f4b8f39a9202","0","5a1dda5480acd8000104a12b","0","2025-07-30T10:29:43.344Z","","","","AttribQ","","","","","","","","","","","50","","","","","","","","","","","","","","","","","","","","","","","","","","",""
"2225","","<div style=""width:500px;"">
  <p>How much control did you have over the ball?</p>
  </div>","86","html-slider-response","50","780840","0.0-7.0-2.7","87","1","2025-07-30 10:16:35","36c45c0696341be0efffe67d72a12abb","216.205.162.102","Mozilla/5.0 (X11; CrOS x86_64 14541.0.0) AppleWebKit/537.36 (KHTML, like Gecko) Chrome/138.0.0.0 Safari/537.36","WebKit","Chrome","138.0.0.0","ChromeOS","14541.0.0","https://app.prolific.com/","en-GB,en-US;q=0.9,en;q=0.8","5a1dda5480acd8000104a12b","683dba9a53627eb9ab41b36a","6889f0983a98f4b8f39a9202","0","5a1dda5480acd8000104a12b","0","2025-07-30T10:29:45.573Z","","","","ControlQ","","","","","","","","","","","50","","","","","","","","","","","","","","","","","","","","","","","","","","",""
"3314","","<div style=""width:500px;"">
  <p>How would you describe your current emotional state?</p>
  </div>","38","html-slider-response","51","784159","0.0-7.0-3.7","87","1","2025-07-30 10:16:35","36c45c0696341be0efffe67d72a12abb","216.205.162.102","Mozilla/5.0 (X11; CrOS x86_64 14541.0.0) AppleWebKit/537.36 (KHTML, like Gecko) Chrome/138.0.0.0 Safari/537.36","WebKit","Chrome","138.0.0.0","ChromeOS","14541.0.0","https://app.prolific.com/","en-GB,en-US;q=0.9,en;q=0.8","5a1dda5480acd8000104a12b","683dba9a53627eb9ab41b36a","6889f0983a98f4b8f39a9202","0","5a1dda5480acd8000104a12b","0","2025-07-30T10:29:48.892Z","","","","StressQ","","","","","","","","","","","50","","","","","","","","","","","","","","","","","","","","","","","","","","",""
"3200","","<div style=""width:500px;"">
  <p>What best describes how you currently feel?</p>
  </div>","42","html-slider-response","52","787363","0.0-7.0-4.7","87","1","2025-07-30 10:16:35","36c45c0696341be0efffe67d72a12abb","216.205.162.102","Mozilla/5.0 (X11; CrOS x86_64 14541.0.0) AppleWebKit/537.36 (KHTML, like Gecko) Chrome/138.0.0.0 Safari/537.36","WebKit","Chrome","138.0.0.0","ChromeOS","14541.0.0","https://app.prolific.com/","en-GB,en-US;q=0.9,en;q=0.8","5a1dda5480acd8000104a12b","683dba9a53627eb9ab41b36a","6889f0983a98f4b8f39a9202","0","5a1dda5480acd8000104a12b","0","2025-07-30T10:29:52.096Z","","","","MotivationQ","","","","","","","","","","","50","","","","","","","","","","","","","","","","","","","","","","","","","","",""
"","","","","ctl-task-cpt","53","848764","0.0-7.0-0.8","87","1","2025-07-30 10:16:35","36c45c0696341be0efffe67d72a12abb","216.205.162.102","Mozilla/5.0 (X11; CrOS x86_64 14541.0.0) AppleWebKit/537.36 (KHTML, like Gecko) Chrome/138.0.0.0 Safari/537.36","WebKit","Chrome","138.0.0.0","ChromeOS","14541.0.0","https://app.prolific.com/","en-GB,en-US;q=0.9,en;q=0.8","5a1dda5480acd8000104a12b","683dba9a53627eb9ab41b36a","6889f0983a98f4b8f39a9202","0","5a1dda5480acd8000104a12b","0","2025-07-30T10:30:53.498Z","","","","","","","","","","","","","","","","win-only","2","g1:SE,g2:NW","0.4","9","0","808439.5","1601.3","6607.2","58366","1","4","8","6","2","8","8","40","32","0.30303030303030304","3016.2","3000","1345","[""left"",""up""]","{""num_key_presses"":14,""num_perfect"":6,""num_errors"":0,""num_randdir"":8,""num_randdir_good_moves"":4,""num_whilered"":0,""num_whileblue"":0,""num_blue"":1,""num_good_moves"":10}","[300.22232142857143,301.12857142857143,0.8,300.22232142857143,301.12857142857143,111.7,300.22232142857143,301.12857142857143,228.1,300.22232142857143,301.12857142857143,339.6,300.22232142857143,301.12857142857143,443,300.22232142857143,301.12857142857143,567.5,300.22232142857143,301.12857142857143,681.5,158.22232142857143,142.12857142857143,793.9,45.222321428571426,23.128571428571426,898.3,48.222321428571426,36.128571428571426,1003.7,76.22232142857143,80.12857142857143,1109.6,267.22232142857143,277.12857142857143,1219.3,448.22232142857143,433.12857142857143,1325.5,464.22232142857143,452.12857142857143,1437.5,466.22232142857143,455.12857142857143,1541.6,466.22232142857143,455.12857142857143,1651.1,466.22232142857143,455.12857142857143,1752,484.22232142857143,471.12857142857143,1859.9,558.2223214285714,541.1285714285714,1970.7,560.2223214285714,543.1285714285714,2074.5,558.2223214285714,538.1285714285714,2174.5,551.2223214285714,531.1285714285714,2290.6,533.2223214285714,510.12857142857143,2393,229.22232142857143,233.12857142857143,2500.3,90.22232142857143,52.128571428571426,2617.9,96.22232142857143,64.12857142857143,2725.7,96.22232142857143,67.12857142857143,2842,96.22232142857143,67.12857142857143,2955.2,96.22232142857143,67.12857142857143,3063.9,96.22232142857143,67.12857142857143,3177.7,96.22232142857143,67.12857142857143,3289.2,96.22232142857143,67.12857142857143,3392.3,96.22232142857143,67.12857142857143,3509.2,101.22232142857143,171.12857142857143,3613.4,102.22232142857143,626.1285714285714,3731.8,102.22232142857143,626.1285714285714,3839.3,102.22232142857143,626.1285714285714,3939.7,102.22232142857143,626.1285714285714,4051.9,102.22232142857143,626.1285714285714,4168.8,102.22232142857143,626.1285714285714,4274.4,102.22232142857143,626.1285714285714,4393.4,102.22232142857143,626.1285714285714,4501.3,102.22232142857143,626.1285714285714,4608.5,102.22232142857143,626.1285714285714,4710.2,102.22232142857143,626.1285714285714,4814.6,102.22232142857143,626.1285714285714,4914.7]","[1463.3,1463.3,1000,0,463.3,""smooth"",""left"",""left"",""good_move"",4637,3172.6,2332.2,1464.4,840.4,""smooth"",""left"",""left"",""good_move"",8215.4,3577.7,2233.7,4637.8,1344,""smooth"",""left"",""left"",""good_move"",12294.8,4078.8,2492.6,8216.2,1586.1,""oops"",""up"",""up"",""good_move"",16665,4369.2,2501.8,12295.9,1867.3,""oops"",""up"",""down"",""bad_move"",20058.5,3392.5,2941.6,16666.1,450.9,""oops"",""up"",""right"",""bad_move"",23056.4,2996.5,2519.3,20059.9,477.2,""oops"",""up"",""down"",""bad_move"",29480.3,6423.3,1787.4,27244.8,448.1,""oops"",""up"",""up"",""good_move"",32765.8,3284.7,2334.3,29481.1,950.4,""oops"",""up"",""right"",""bad_move"",35679.2,2912.7,2411.2,32766.6,501.4,""smooth"",""up"",""up"",""good_move"",39451.1,3771,2155.5,35680.1,1615.5,""oops"",""up"",""left"",""good_move"",43757.8,4305.6,2305.7,39452.3,1999.8,""oops"",""up"",""left"",""good_move"",48104.5,4346.2,1781.6,43758.4,2564.6,""smooth"",""up"",""up"",""good_move"",51399.6,3294.5,2751.4,48105.2,543.1,""smooth"",""up"",""up"",""good_move""]"
"5087","","<div style=""width:500px;"">
  <p>What determined the result of this run?</p>
  </div>","42","html-slider-response","54","853856","0.0-7.0-1.8","87","1","2025-07-30 10:16:35","36c45c0696341be0efffe67d72a12abb","216.205.162.102","Mozilla/5.0 (X11; CrOS x86_64 14541.0.0) AppleWebKit/537.36 (KHTML, like Gecko) Chrome/138.0.0.0 Safari/537.36","WebKit","Chrome","138.0.0.0","ChromeOS","14541.0.0","https://app.prolific.com/","en-GB,en-US;q=0.9,en;q=0.8","5a1dda5480acd8000104a12b","683dba9a53627eb9ab41b36a","6889f0983a98f4b8f39a9202","0","5a1dda5480acd8000104a12b","0","2025-07-30T10:30:58.589Z","","","","AttribQ","","","","","","","","","","","50","","","","","","","","","","","","","","","","","","","","","","","","","","",""
"5306","","<div style=""width:500px;"">
  <p>How much control did you have over the ball?</p>
  </div>","59","html-slider-response","55","859166","0.0-7.0-2.8","87","1","2025-07-30 10:16:35","36c45c0696341be0efffe67d72a12abb","216.205.162.102","Mozilla/5.0 (X11; CrOS x86_64 14541.0.0) AppleWebKit/537.36 (KHTML, like Gecko) Chrome/138.0.0.0 Safari/537.36","WebKit","Chrome","138.0.0.0","ChromeOS","14541.0.0","https://app.prolific.com/","en-GB,en-US;q=0.9,en;q=0.8","5a1dda5480acd8000104a12b","683dba9a53627eb9ab41b36a","6889f0983a98f4b8f39a9202","0","5a1dda5480acd8000104a12b","0","2025-07-30T10:31:03.899Z","","","","ControlQ","","","","","","","","","","","50","","","","","","","","","","","","","","","","","","","","","","","","","","",""
"2230","","<div style=""width:500px;"">
  <p>How would you describe your current emotional state?</p>
  </div>","25","html-slider-response","56","861401","0.0-7.0-3.8","87","1","2025-07-30 10:16:35","36c45c0696341be0efffe67d72a12abb","216.205.162.102","Mozilla/5.0 (X11; CrOS x86_64 14541.0.0) AppleWebKit/537.36 (KHTML, like Gecko) Chrome/138.0.0.0 Safari/537.36","WebKit","Chrome","138.0.0.0","ChromeOS","14541.0.0","https://app.prolific.com/","en-GB,en-US;q=0.9,en;q=0.8","5a1dda5480acd8000104a12b","683dba9a53627eb9ab41b36a","6889f0983a98f4b8f39a9202","0","5a1dda5480acd8000104a12b","0","2025-07-30T10:31:06.134Z","","","","StressQ","","","","","","","","","","","50","","","","","","","","","","","","","","","","","","","","","","","","","","",""
"2159","","<div style=""width:500px;"">
  <p>What best describes how you currently feel?</p>
  </div>","30","html-slider-response","57","863565","0.0-7.0-4.8","87","1","2025-07-30 10:16:35","36c45c0696341be0efffe67d72a12abb","216.205.162.102","Mozilla/5.0 (X11; CrOS x86_64 14541.0.0) AppleWebKit/537.36 (KHTML, like Gecko) Chrome/138.0.0.0 Safari/537.36","WebKit","Chrome","138.0.0.0","ChromeOS","14541.0.0","https://app.prolific.com/","en-GB,en-US;q=0.9,en;q=0.8","5a1dda5480acd8000104a12b","683dba9a53627eb9ab41b36a","6889f0983a98f4b8f39a9202","0","5a1dda5480acd8000104a12b","0","2025-07-30T10:31:08.298Z","","","","MotivationQ","","","","","","","","","","","50","","","","","","","","","","","","","","","","","","","","","","","","","","",""
"","","","","ctl-task-cpt","58","946136","0.0-7.0-0.9","87","1","2025-07-30 10:16:35","36c45c0696341be0efffe67d72a12abb","216.205.162.102","Mozilla/5.0 (X11; CrOS x86_64 14541.0.0) AppleWebKit/537.36 (KHTML, like Gecko) Chrome/138.0.0.0 Safari/537.36","WebKit","Chrome","138.0.0.0","ChromeOS","14541.0.0","https://app.prolific.com/","en-GB,en-US;q=0.9,en;q=0.8","5a1dda5480acd8000104a12b","683dba9a53627eb9ab41b36a","6889f0983a98f4b8f39a9202","0","5a1dda5480acd8000104a12b","0","2025-07-30T10:32:30.869Z","","","","","","","","","","","","","","","","win-only","2","g1:SE,g2:NW","0.5","10","0","884642.1","2352.6","7364.1","79538.5","1","4","4","6","2","4","4","44","40","0.3333333333333333","1793.8","3000","1680","[""left"",""up""]","{""num_key_presses"":14,""num_perfect"":7,""num_errors"":0,""num_randdir"":7,""num_randdir_good_moves"":3,""num_whilered"":0,""num_whileblue"":0,""num_blue"":4,""num_good_moves"":10}","[299.22232142857143,296.12857142857143,0.6,299.22232142857143,296.12857142857143,118.1,299.22232142857143,296.12857142857143,221.3,299.22232142857143,296.12857142857143,333.3,299.22232142857143,296.12857142857143,447.3,299.22232142857143,296.12857142857143,552.5,299.22232142857143,296.12857142857143,668.6,153.22232142857143,140.12857142857143,784.5,150.22232142857143,137.12857142857143,897,150.22232142857143,137.12857142857143,1009.9,107.22232142857143,109.12857142857143,1121.5,1.2223214285714263,76.12857142857143,1231,1.2223214285714263,76.12857142857143,1350.4,1.2223214285714263,76.12857142857143,1460.6,5.222321428571426,72.12857142857143,1574.5,11.222321428571426,63.128571428571426,1691.1,11.222321428571426,63.128571428571426,1801.7,11.222321428571426,63.128571428571426,1917.7,11.222321428571426,63.128571428571426,2033,11.222321428571426,63.128571428571426,2140.1,11.222321428571426,63.128571428571426,2257.1,11.222321428571426,63.128571428571426,2370.8,11.222321428571426,63.128571428571426,2483.1,11.222321428571426,63.128571428571426,2600.7,11.222321428571426,63.128571428571426,2710.4,11.222321428571426,63.128571428571426,2822.8,11.222321428571426,63.128571428571426,2939.8,11.222321428571426,63.128571428571426,3053.6,11.222321428571426,63.128571428571426,3173.2,11.222321428571426,63.128571428571426,3288,11.222321428571426,63.128571428571426,3395.5,11.222321428571426,63.128571428571426,3514.2,11.222321428571426,63.128571428571426,3629.7,11.222321428571426,63.128571428571426,3742.5,11.222321428571426,63.128571428571426,3858.2,11.222321428571426,63.128571428571426,3967.2,11.222321428571426,63.128571428571426,4081.5,11.222321428571426,63.128571428571426,4200.1,11.222321428571426,63.128571428571426,4308.2,11.222321428571426,63.128571428571426,4424.2,11.222321428571426,63.128571428571426,4542,11.222321428571426,63.128571428571426,4671.8,11.222321428571426,63.128571428571426,4773.1,11.222321428571426,63.128571428571426,4875.4,11.222321428571426,63.128571428571426,4976]","[1554.6,1554.7,1000,0,554.7,""smooth"",""left"",""left"",""good_move"",7830.5,6274.9,2488,1555.6,3786.9,""smooth"",""left"",""left"",""good_move"",13234.4,5403.1,2028.3,7831.3,3374.8,""oops"",""left"",""down"",""bad_move"",15732.1,2496.7,1993.6,13235.4,503.1,""oops"",""left"",""right"",""bad_move"",19094.2,3360.8,2880.4,15733.4,480.4,""oops"",""left"",""left"",""good_move"",30302.4,11207.5,2321.2,27482.6,498.6,""smooth"",""left"",""left"",""good_move"",33857.9,3554.9,2682.6,30303,872.3,""smooth"",""up"",""up"",""good_move"",37718.5,3859.6,2695,33858.9,1164.6,""oops"",""up"",""down"",""bad_move"",40738.9,3019.2,2554.4,37719.9,464.8,""oops"",""up"",""down"",""bad_move"",46729.1,5989.5,2031,44211.8,486.4,""smooth"",""up"",""up"",""good_move"",54491.1,7761.3,2604.6,51452.7,433.9,""smooth"",""up"",""up"",""good_move"",59513.7,5021.8,3039.5,54491.9,1982.3,""oops"",""up"",""up"",""good_move"",65208.6,5694.2,2176.4,59514.5,3517.7,""smooth"",""up"",""up"",""good_move"",71546.9,6337.8,1972.8,65209.1,4365,""oops"",""up"",""up"",""good_move""]"
"2887","","<div style=""width:500px;"">
  <p>What determined the result of this run?</p>
  </div>","66","html-slider-response","59","949026","0.0-7.0-1.9","87","1","2025-07-30 10:16:35","36c45c0696341be0efffe67d72a12abb","216.205.162.102","Mozilla/5.0 (X11; CrOS x86_64 14541.0.0) AppleWebKit/537.36 (KHTML, like Gecko) Chrome/138.0.0.0 Safari/537.36","WebKit","Chrome","138.0.0.0","ChromeOS","14541.0.0","https://app.prolific.com/","en-GB,en-US;q=0.9,en;q=0.8","5a1dda5480acd8000104a12b","683dba9a53627eb9ab41b36a","6889f0983a98f4b8f39a9202","0","5a1dda5480acd8000104a12b","0","2025-07-30T10:32:33.759Z","","","","AttribQ","","","","","","","","","","","50","","","","","","","","","","","","","","","","","","","","","","","","","","",""
"4415","","<div style=""width:500px;"">
  <p>How much control did you have over the ball?</p>
  </div>","74","html-slider-response","60","953445","0.0-7.0-2.9","87","1","2025-07-30 10:16:35","36c45c0696341be0efffe67d72a12abb","216.205.162.102","Mozilla/5.0 (X11; CrOS x86_64 14541.0.0) AppleWebKit/537.36 (KHTML, like Gecko) Chrome/138.0.0.0 Safari/537.36","WebKit","Chrome","138.0.0.0","ChromeOS","14541.0.0","https://app.prolific.com/","en-GB,en-US;q=0.9,en;q=0.8","5a1dda5480acd8000104a12b","683dba9a53627eb9ab41b36a","6889f0983a98f4b8f39a9202","0","5a1dda5480acd8000104a12b","0","2025-07-30T10:32:38.178Z","","","","ControlQ","","","","","","","","","","","50","","","","","","","","","","","","","","","","","","","","","","","","","","",""
"2498","","<div style=""width:500px;"">
  <p>How would you describe your current emotional state?</p>
  </div>","27","html-slider-response","61","955948","0.0-7.0-3.9","87","1","2025-07-30 10:16:35","36c45c0696341be0efffe67d72a12abb","216.205.162.102","Mozilla/5.0 (X11; CrOS x86_64 14541.0.0) AppleWebKit/537.36 (KHTML, like Gecko) Chrome/138.0.0.0 Safari/537.36","WebKit","Chrome","138.0.0.0","ChromeOS","14541.0.0","https://app.prolific.com/","en-GB,en-US;q=0.9,en;q=0.8","5a1dda5480acd8000104a12b","683dba9a53627eb9ab41b36a","6889f0983a98f4b8f39a9202","0","5a1dda5480acd8000104a12b","0","2025-07-30T10:32:40.681Z","","","","StressQ","","","","","","","","","","","50","","","","","","","","","","","","","","","","","","","","","","","","","","",""
"3493","","<div style=""width:500px;"">
  <p>What best describes how you currently feel?</p>
  </div>","11","html-slider-response","62","959445","0.0-7.0-4.9","87","1","2025-07-30 10:16:35","36c45c0696341be0efffe67d72a12abb","216.205.162.102","Mozilla/5.0 (X11; CrOS x86_64 14541.0.0) AppleWebKit/537.36 (KHTML, like Gecko) Chrome/138.0.0.0 Safari/537.36","WebKit","Chrome","138.0.0.0","ChromeOS","14541.0.0","https://app.prolific.com/","en-GB,en-US;q=0.9,en;q=0.8","5a1dda5480acd8000104a12b","683dba9a53627eb9ab41b36a","6889f0983a98f4b8f39a9202","0","5a1dda5480acd8000104a12b","0","2025-07-30T10:32:44.179Z","","","","MotivationQ","","","","","","","","","","","50","","","","","","","","","","","","","","","","","","","","","","","","","","",""
"","","","","ctl-task-cpt","63","1043878","0.0-7.0-0.10","87","1","2025-07-30 10:16:35","36c45c0696341be0efffe67d72a12abb","216.205.162.102","Mozilla/5.0 (X11; CrOS x86_64 14541.0.0) AppleWebKit/537.36 (KHTML, like Gecko) Chrome/138.0.0.0 Safari/537.36","WebKit","Chrome","138.0.0.0","ChromeOS","14541.0.0","https://app.prolific.com/","en-GB,en-US;q=0.9,en;q=0.8","5a1dda5480acd8000104a12b","683dba9a53627eb9ab41b36a","6889f0983a98f4b8f39a9202","0","5a1dda5480acd8000104a12b","0","2025-07-30T10:34:08.611Z","","","","","","","","","","","","","","","","win-only","0","g1:NW,g2:SE","0.6","11","0","980522.9","1270.8","6271.6","81390.4","1","4","4","6","2","4","4","48","44","0.36363636363636365","1367.2","3000","930","[""down"",""right""]","{""num_key_presses"":18,""num_perfect"":11,""num_errors"":0,""num_randdir"":7,""num_randdir_good_moves"":1,""num_whilered"":0,""num_whileblue"":0,""num_blue"":4,""num_good_moves"":12}","[291.22232142857143,304.12857142857143,0.5,291.22232142857143,304.12857142857143,115.1,291.22232142857143,304.12857142857143,219.9,291.22232142857143,304.12857142857143,333.9,291.22232142857143,304.12857142857143,443.2,291.22232142857143,304.12857142857143,554.8,503.22232142857143,511.12857142857143,659.6,603.2223214285714,637.1285714285714,768.7,604.2223214285714,638.1285714285714,883,597.2223214285714,607.1285714285714,983.5,575.2223214285714,553.1285714285714,1103.2,575.2223214285714,553.1285714285714,1221.6,575.2223214285714,553.1285714285714,1345.2,575.2223214285714,553.1285714285714,1447.9,575.2223214285714,553.1285714285714,1561.6,575.2223214285714,553.1285714285714,1675.2,575.2223214285714,553.1285714285714,1796.1,575.2223214285714,553.1285714285714,1905.4,575.2223214285714,553.1285714285714,2028.7,575.2223214285714,553.1285714285714,2136.5,575.2223214285714,553.1285714285714,2257.1,575.2223214285714,553.1285714285714,2379.9,575.2223214285714,553.1285714285714,2483.3,575.2223214285714,553.1285714285714,2604.8,575.2223214285714,553.1285714285714,2727.3,575.2223214285714,553.1285714285714,2835.4,575.2223214285714,553.1285714285714,2953.6,575.2223214285714,553.1285714285714,3056.2,575.2223214285714,553.1285714285714,3162.3,575.2223214285714,553.1285714285714,3264.3,575.2223214285714,553.1285714285714,3364.3,575.2223214285714,553.1285714285714,3485.8,575.2223214285714,553.1285714285714,3610.6,575.2223214285714,553.1285714285714,3720,575.2223214285714,553.1285714285714,3826.6,575.2223214285714,553.1285714285714,3928.4,575.2223214285714,553.1285714285714,4039.6,575.2223214285714,553.1285714285714,4153.7,575.2223214285714,553.1285714285714,4278.7,575.2223214285714,553.1285714285714,4383,575.2223214285714,553.1285714285714,4503.1,575.2223214285714,553.1285714285714,4623.7,575.2223214285714,553.1285714285714,4745.3,575.2223214285714,553.1285714285714,4845.7,575.2223214285714,553.1285714285714,4961.6]","[1539.9,1539.9,1000,0,540,""smooth"",""right"",""right"",""good_move"",4598.3,3057.3,2517.7,1541,539.6,""oops"",""right"",""left"",""bad_move"",8490.4,3891.1,1667.1,4599.3,2224,""smooth"",""right"",""right"",""good_move"",14750.4,6259.4,2109.2,12137,504.3,""oops"",""right"",""down"",""good_move"",17492.3,2740.7,2132.3,14751.6,608.4,""smooth"",""right"",""right"",""good_move"",23856.9,6364,2398.8,20890.8,567.3,""oops"",""right"",""left"",""bad_move"",27956,4098.4,2718.8,23857.6,1379.6,""oops"",""right"",""left"",""bad_move"",36165.9,8209.2,3003.8,32581.2,580.9,""smooth"",""right"",""right"",""good_move"",39048.4,2881.9,2225.7,36166.5,656.2,""smooth"",""right"",""right"",""good_move"",42920.5,3871.3,3317.9,39049.2,553.4,""smooth"",""right"",""right"",""good_move"",45545.5,2624.5,1857.7,42921.1,766.7,""smooth"",""down"",""down"",""good_move"",48841.3,3294.4,2785.9,45546.9,508.5,""oops"",""up"",""up"",""bad_move"",57198,8355.7,2594.4,53979.2,624.4,""oops"",""down"",""up"",""bad_move"",61186.6,3987.9,2457.9,57198.8,1530,""smooth"",""down"",""down"",""good_move"",63879.3,2692,2162.4,61187.3,529.6,""smooth"",""down"",""down"",""good_move"",66690.3,2810.3,2277.1,63880.1,533.1,""oops"",""down"",""up"",""bad_move"",71268.9,4577.9,1674.7,66691.1,2903.1,""smooth"",""down"",""down"",""good_move"",74532.1,3262.5,2642.4,71269.6,620.1,""smooth"",""down"",""down"",""good_move""]"
"2689","","<div style=""width:500px;"">
  <p>What determined the result of this run?</p>
  </div>","57","html-slider-response","64","1046570","0.0-7.0-1.10","87","1","2025-07-30 10:16:35","36c45c0696341be0efffe67d72a12abb","216.205.162.102","Mozilla/5.0 (X11; CrOS x86_64 14541.0.0) AppleWebKit/537.36 (KHTML, like Gecko) Chrome/138.0.0.0 Safari/537.36","WebKit","Chrome","138.0.0.0","ChromeOS","14541.0.0","https://app.prolific.com/","en-GB,en-US;q=0.9,en;q=0.8","5a1dda5480acd8000104a12b","683dba9a53627eb9ab41b36a","6889f0983a98f4b8f39a9202","0","5a1dda5480acd8000104a12b","0","2025-07-30T10:34:11.303Z","","","","AttribQ","","","","","","","","","","","50","","","","","","","","","","","","","","","","","","","","","","","","","","",""
"2839","","<div style=""width:500px;"">
  <p>How much control did you have over the ball?</p>
  </div>","50","html-slider-response","65","1049413","0.0-7.0-2.10","87","1","2025-07-30 10:16:35","36c45c0696341be0efffe67d72a12abb","216.205.162.102","Mozilla/5.0 (X11; CrOS x86_64 14541.0.0) AppleWebKit/537.36 (KHTML, like Gecko) Chrome/138.0.0.0 Safari/537.36","WebKit","Chrome","138.0.0.0","ChromeOS","14541.0.0","https://app.prolific.com/","en-GB,en-US;q=0.9,en;q=0.8","5a1dda5480acd8000104a12b","683dba9a53627eb9ab41b36a","6889f0983a98f4b8f39a9202","0","5a1dda5480acd8000104a12b","0","2025-07-30T10:34:14.146Z","","","","ControlQ","","","","","","","","","","","50","","","","","","","","","","","","","","","","","","","","","","","","","","",""
"2239","","<div style=""width:500px;"">
  <p>How would you describe your current emotional state?</p>
  </div>","31","html-slider-response","66","1051657","0.0-7.0-3.10","87","1","2025-07-30 10:16:35","36c45c0696341be0efffe67d72a12abb","216.205.162.102","Mozilla/5.0 (X11; CrOS x86_64 14541.0.0) AppleWebKit/537.36 (KHTML, like Gecko) Chrome/138.0.0.0 Safari/537.36","WebKit","Chrome","138.0.0.0","ChromeOS","14541.0.0","https://app.prolific.com/","en-GB,en-US;q=0.9,en;q=0.8","5a1dda5480acd8000104a12b","683dba9a53627eb9ab41b36a","6889f0983a98f4b8f39a9202","0","5a1dda5480acd8000104a12b","0","2025-07-30T10:34:16.390Z","","","","StressQ","","","","","","","","","","","50","","","","","","","","","","","","","","","","","","","","","","","","","","",""
"3337","","<div style=""width:500px;"">
  <p>What best describes how you currently feel?</p>
  </div>","27","html-slider-response","67","1054997","0.0-7.0-4.10","87","1","2025-07-30 10:16:35","36c45c0696341be0efffe67d72a12abb","216.205.162.102","Mozilla/5.0 (X11; CrOS x86_64 14541.0.0) AppleWebKit/537.36 (KHTML, like Gecko) Chrome/138.0.0.0 Safari/537.36","WebKit","Chrome","138.0.0.0","ChromeOS","14541.0.0","https://app.prolific.com/","en-GB,en-US;q=0.9,en;q=0.8","5a1dda5480acd8000104a12b","683dba9a53627eb9ab41b36a","6889f0983a98f4b8f39a9202","0","5a1dda5480acd8000104a12b","0","2025-07-30T10:34:19.731Z","","","","MotivationQ","","","","","","","","","","","50","","","","","","","","","","","","","","","","","","","","","","","","","","",""
"","","","","ctl-task-cpt","68","1081125","0.0-7.0-0.11","87","1","2025-07-30 10:16:35","36c45c0696341be0efffe67d72a12abb","216.205.162.102","Mozilla/5.0 (X11; CrOS x86_64 14541.0.0) AppleWebKit/537.36 (KHTML, like Gecko) Chrome/138.0.0.0 Safari/537.36","WebKit","Chrome","138.0.0.0","ChromeOS","14541.0.0","https://app.prolific.com/","en-GB,en-US;q=0.9,en;q=0.8","5a1dda5480acd8000104a12b","683dba9a53627eb9ab41b36a","6889f0983a98f4b8f39a9202","0","5a1dda5480acd8000104a12b","0","2025-07-30T10:34:45.858Z","","","","","","","","","","","","","","","","win-only","2","g1:SE,g2:NW","0.7","12","0","1076073.3","1971.5","6981","23089.5","1","4","8","6","1","1","1","49","48","0.3712121212121212","1587.7","3000","2555","[""down"",""right""]","{""num_key_presses"":4,""num_perfect"":3,""num_errors"":0,""num_randdir"":1,""num_randdir_good_moves"":1,""num_whilered"":0,""num_whileblue"":0,""num_blue"":1,""num_good_moves"":4}","[294.22232142857143,299.12857142857143,0.9,294.22232142857143,299.12857142857143,120.7,294.22232142857143,299.12857142857143,228.5,294.22232142857143,299.12857142857143,349.3,294.22232142857143,299.12857142857143,454.5,294.22232142857143,299.12857142857143,558,294.22232142857143,299.12857142857143,658.1,240.22232142857143,202.12857142857143,765.5,219.22232142857143,172.12857142857143,871.8,483.22232142857143,491.12857142857143,992.4,561.2223214285714,598.1285714285714,1097.5,564.2223214285714,599.1285714285714,1211.4,546.2223214285714,547.1285714285714,1323.9,541.2223214285714,537.1285714285714,1427,541.2223214285714,537.1285714285714,1539.3,541.2223214285714,537.1285714285714,1648.4,541.2223214285714,537.1285714285714,1768.4,541.2223214285714,537.1285714285714,1891.4,541.2223214285714,537.1285714285714,1993.9,541.2223214285714,537.1285714285714,2119.2,541.2223214285714,537.1285714285714,2241.3,541.2223214285714,537.1285714285714,2356.4,541.2223214285714,537.1285714285714,2460.8,541.2223214285714,537.1285714285714,2564.3,541.2223214285714,537.1285714285714,2670.4,541.2223214285714,537.1285714285714,2779.2,541.2223214285714,537.1285714285714,2879.6,541.2223214285714,537.1285714285714,2989.8,541.2223214285714,537.1285714285714,3114.5,541.2223214285714,537.1285714285714,3229.9,541.2223214285714,537.1285714285714,3338.3,541.2223214285714,537.1285714285714,3455.9,541.2223214285714,537.1285714285714,3567.6,541.2223214285714,537.1285714285714,3674.8,541.2223214285714,537.1285714285714,3783.6,541.2223214285714,537.1285714285714,3904.8,541.2223214285714,537.1285714285714,4015.1,541.2223214285714,537.1285714285714,4129.9,541.2223214285714,537.1285714285714,4242.5,541.2223214285714,537.1285714285714,4362.6,541.2223214285714,537.1285714285714,4472.5,541.2223214285714,537.1285714285714,4584.1,541.2223214285714,537.1285714285714,4685.6,541.2223214285714,537.1285714285714,4793,541.2223214285714,537.1285714285714,4906.2]","[1559.9,1559.9,1000,0,559.9,""smooth"",""right"",""right"",""good_move"",5114.2,3553.3,3028.7,1560.9,524.6,""oops"",""right"",""right"",""good_move"",12293.9,7178.7,2570.6,9156.4,566.9,""smooth"",""down"",""down"",""good_move"",15617.3,3322.4,2646.9,12295,675.5,""smooth"",""down"",""down"",""good_move""]"
"4221","","<div style=""width:500px;"">
  <p>What determined the result of this run?</p>
  </div>","88","html-slider-response","69","1085349","0.0-7.0-1.11","87","1","2025-07-30 10:16:35","36c45c0696341be0efffe67d72a12abb","216.205.162.102","Mozilla/5.0 (X11; CrOS x86_64 14541.0.0) AppleWebKit/537.36 (KHTML, like Gecko) Chrome/138.0.0.0 Safari/537.36","WebKit","Chrome","138.0.0.0","ChromeOS","14541.0.0","https://app.prolific.com/","en-GB,en-US;q=0.9,en;q=0.8","5a1dda5480acd8000104a12b","683dba9a53627eb9ab41b36a","6889f0983a98f4b8f39a9202","0","5a1dda5480acd8000104a12b","0","2025-07-30T10:34:50.083Z","","","","AttribQ","","","","","","","","","","","50","","","","","","","","","","","","","","","","","","","","","","","","","","",""
"3449","","<div style=""width:500px;"">
  <p>How much control did you have over the ball?</p>
  </div>","97","html-slider-response","70","1088802","0.0-7.0-2.11","87","1","2025-07-30 10:16:35","36c45c0696341be0efffe67d72a12abb","216.205.162.102","Mozilla/5.0 (X11; CrOS x86_64 14541.0.0) AppleWebKit/537.36 (KHTML, like Gecko) Chrome/138.0.0.0 Safari/537.36","WebKit","Chrome","138.0.0.0","ChromeOS","14541.0.0","https://app.prolific.com/","en-GB,en-US;q=0.9,en;q=0.8","5a1dda5480acd8000104a12b","683dba9a53627eb9ab41b36a","6889f0983a98f4b8f39a9202","0","5a1dda5480acd8000104a12b","0","2025-07-30T10:34:53.535Z","","","","ControlQ","","","","","","","","","","","50","","","","","","","","","","","","","","","","","","","","","","","","","","",""
"2226","","<div style=""width:500px;"">
  <p>How would you describe your current emotional state?</p>
  </div>","18","html-slider-response","71","1091032","0.0-7.0-3.11","87","1","2025-07-30 10:16:35","36c45c0696341be0efffe67d72a12abb","216.205.162.102","Mozilla/5.0 (X11; CrOS x86_64 14541.0.0) AppleWebKit/537.36 (KHTML, like Gecko) Chrome/138.0.0.0 Safari/537.36","WebKit","Chrome","138.0.0.0","ChromeOS","14541.0.0","https://app.prolific.com/","en-GB,en-US;q=0.9,en;q=0.8","5a1dda5480acd8000104a12b","683dba9a53627eb9ab41b36a","6889f0983a98f4b8f39a9202","0","5a1dda5480acd8000104a12b","0","2025-07-30T10:34:55.765Z","","","","StressQ","","","","","","","","","","","50","","","","","","","","","","","","","","","","","","","","","","","","","","",""
"2218","","<div style=""width:500px;"">
  <p>What best describes how you currently feel?</p>
  </div>","46","html-slider-response","72","1093254","0.0-7.0-4.11","87","1","2025-07-30 10:16:35","36c45c0696341be0efffe67d72a12abb","216.205.162.102","Mozilla/5.0 (X11; CrOS x86_64 14541.0.0) AppleWebKit/537.36 (KHTML, like Gecko) Chrome/138.0.0.0 Safari/537.36","WebKit","Chrome","138.0.0.0","ChromeOS","14541.0.0","https://app.prolific.com/","en-GB,en-US;q=0.9,en;q=0.8","5a1dda5480acd8000104a12b","683dba9a53627eb9ab41b36a","6889f0983a98f4b8f39a9202","0","5a1dda5480acd8000104a12b","0","2025-07-30T10:34:57.988Z","","","","MotivationQ","","","","","","","","","","","50","","","","","","","","","","","","","","","","","","","","","","","","","","",""
"","","","","ctl-task-cpt","73","1122165","0.0-7.0-0.12","87","1","2025-07-30 10:16:35","36c45c0696341be0efffe67d72a12abb","216.205.162.102","Mozilla/5.0 (X11; CrOS x86_64 14541.0.0) AppleWebKit/537.36 (KHTML, like Gecko) Chrome/138.0.0.0 Safari/537.36","WebKit","Chrome","138.0.0.0","ChromeOS","14541.0.0","https://app.prolific.com/","en-GB,en-US;q=0.9,en;q=0.8","5a1dda5480acd8000104a12b","683dba9a53627eb9ab41b36a","6889f0983a98f4b8f39a9202","0","5a1dda5480acd8000104a12b","0","2025-07-30T10:35:26.898Z","","","","","","","","","","","","","","","","win-only","3","g1:SW,g2:NE","0.8","13","0","1114330.6","1229.9","6243.8","25869.3","1","4","4","6","2","4","4","53","49","0.4015151515151515","2552.6","3000","2450","[""up"",""right""]","{""num_key_presses"":6,""num_perfect"":5,""num_errors"":0,""num_randdir"":1,""num_randdir_good_moves"":1,""num_whilered"":0,""num_whileblue"":0,""num_blue"":0,""num_good_moves"":6}","[294.22232142857143,300.12857142857143,0.6,294.22232142857143,300.12857142857143,107.8,294.22232142857143,300.12857142857143,239.2,294.22232142857143,300.12857142857143,360.8,294.22232142857143,304.12857142857143,492.8,436.22232142857143,173.12857142857143,599.1,509.22232142857143,110.12857142857143,725.9,466.22232142857143,138.12857142857143,832.1,152.22232142857143,417.12857142857143,932.7,55.222321428571426,510.12857142857143,1064.3,31.222321428571426,551.1285714285714,1177.6,31.222321428571426,555.1285714285714,1306.9,35.222321428571426,548.1285714285714,1411,41.222321428571426,543.1285714285714,1519.5,46.222321428571426,540.1285714285714,1648,46.222321428571426,540.1285714285714,1751.5,46.222321428571426,540.1285714285714,1855.6,338.22232142857143,193.12857142857143,1983.8,507.22232142857143,54.128571428571426,2094.5,511.22232142857143,55.128571428571426,2197.4,540.2223214285714,45.128571428571426,2327,540.2223214285714,45.128571428571426,2433.8,540.2223214285714,45.128571428571426,2565.9,540.2223214285714,45.128571428571426,2672.2,540.2223214285714,45.128571428571426,2774,540.2223214285714,45.128571428571426,2901.4,540.2223214285714,45.128571428571426,3006.6,540.2223214285714,45.128571428571426,3110.6,540.2223214285714,45.128571428571426,3210.9,540.2223214285714,45.128571428571426,3313.7,540.2223214285714,45.128571428571426,3418.5,540.2223214285714,45.128571428571426,3554.6,540.2223214285714,45.128571428571426,3662.1,540.2223214285714,45.128571428571426,3768.5,540.2223214285714,45.128571428571426,3900.1,540.2223214285714,45.128571428571426,4007.9,540.2223214285714,45.128571428571426,4111.7,540.2223214285714,45.128571428571426,4214.1,540.2223214285714,45.128571428571426,4323.2,540.2223214285714,45.128571428571426,4455.5,540.2223214285714,45.128571428571426,4560,540.2223214285714,45.128571428571426,4666,540.2223214285714,45.128571428571426,4767.2,540.2223214285714,45.128571428571426,4870.7,540.2223214285714,45.128571428571426,4976.8]","[1509.7,1509.8,1000,0,509.8,""smooth"",""right"",""right"",""good_move"",4314.9,2804.1,2128.9,1510.8,675.2,""smooth"",""right"",""right"",""good_move"",7143.1,2827.4,2292.1,4315.7,535.3,""smooth"",""right"",""right"",""good_move"",10191.4,3047.7,2592.4,7143.7,455.3,""oops"",""up"",""up"",""good_move"",14493.2,4300.8,2116.8,10192.4,2184,""smooth"",""up"",""up"",""good_move"",19127.7,4632.5,2313.9,14495.2,2318.7,""smooth"",""up"",""up"",""good_move""]"
"4153","","<div style=""width:500px;"">
  <p>What determined the result of this run?</p>
  </div>","97","html-slider-response","74","1126322","0.0-7.0-1.12","87","1","2025-07-30 10:16:35","36c45c0696341be0efffe67d72a12abb","216.205.162.102","Mozilla/5.0 (X11; CrOS x86_64 14541.0.0) AppleWebKit/537.36 (KHTML, like Gecko) Chrome/138.0.0.0 Safari/537.36","WebKit","Chrome","138.0.0.0","ChromeOS","14541.0.0","https://app.prolific.com/","en-GB,en-US;q=0.9,en;q=0.8","5a1dda5480acd8000104a12b","683dba9a53627eb9ab41b36a","6889f0983a98f4b8f39a9202","0","5a1dda5480acd8000104a12b","0","2025-07-30T10:35:31.055Z","","","","AttribQ","","","","","","","","","","","50","","","","","","","","","","","","","","","","","","","","","","","","","","",""
"3149","","<div style=""width:500px;"">
  <p>How much control did you have over the ball?</p>
  </div>","97","html-slider-response","75","1129476","0.0-7.0-2.12","87","1","2025-07-30 10:16:35","36c45c0696341be0efffe67d72a12abb","216.205.162.102","Mozilla/5.0 (X11; CrOS x86_64 14541.0.0) AppleWebKit/537.36 (KHTML, like Gecko) Chrome/138.0.0.0 Safari/537.36","WebKit","Chrome","138.0.0.0","ChromeOS","14541.0.0","https://app.prolific.com/","en-GB,en-US;q=0.9,en;q=0.8","5a1dda5480acd8000104a12b","683dba9a53627eb9ab41b36a","6889f0983a98f4b8f39a9202","0","5a1dda5480acd8000104a12b","0","2025-07-30T10:35:34.209Z","","","","ControlQ","","","","","","","","","","","50","","","","","","","","","","","","","","","","","","","","","","","","","","",""
"2738","","<div style=""width:500px;"">
  <p>How would you describe your current emotional state?</p>
