"rt","response_timestamp","stimulus","response","trial_type","trial_index","time_elapsed","internal_node_id","run_id","condition","recorded_at","source_code_version","ip","user_agent","device","browser","browser_version","platform","platform_version","referer","accept_language","PROLIFIC_PID","STUDY_ID","SESSION_ID","BATCH","prolific_id","batch","realtime","success","question_order","question_id","eventType","responses","item_order","radio_event_ids","radio_event_times","key_event_times","mouse_event_times","straightlining","zigzagging","honeypot","view_history","slider_start","which_type","canvas_config","goals_layout","control_level","trial_number","tutorial_trial_number","trial_start_time","phase1_start_time","phase2_start_time","phase3_start_time","goal_1_value","goal_1_distance","goal_2_value","goal_2_distance","goal_selected","outcome","outcome_total","participant_final_score","participant_initial_score","participant_final_score_prop","goal_choice_rt","allocated_time","allocated_time_remaining","goal_direction","counts","mouse_movements","key_presses"
"3522","1754470660756","<p style='font-size:40px;line-height:1.25'><strong>Welcome to the experiment!</strong></p><p style='font-size:1.1em;line-height:1.25'>Thank you for participanting in our experiment again! You will be asked to play the Dysfunctional Ball Game again. We will briefly recap the rules before we start.</p><p style='font-size:1.1em;line-height:1.25'>Press <strong>Next</strong> to continue.</p>","0","custom-html-button-response","0","3532","0.0-0.0","147","1","2025-08-06 08:57:31","36c45c0696341be0efffe67d72a12abb","41.150.227.132","Mozilla/5.0 (Windows NT 10.0; Win64; x64) AppleWebKit/537.36 (KHTML, like Gecko) Chrome/139.0.0.0 Safari/537.36","WebKit","Chrome","139.0.0.0","Windows","10.0","https://app.prolific.com/","en-GB,en-US;q=0.9,en;q=0.8","5a9aa66a35237b000112937b","6877649eabb845cf142cd221","689318e988339489bc929408","1","5a9aa66a35237b000112937b","1","2025-08-06T08:57:40.757Z","","","","","","","","","","","","","","","","","","","","","","","","","","","","","","","","","","","","","","","","","",""
"4654","","","","fullscreen","1","9198","0.0-1.0","147","1","2025-08-06 08:57:31","36c45c0696341be0efffe67d72a12abb","41.150.227.132","Mozilla/5.0 (Windows NT 10.0; Win64; x64) AppleWebKit/537.36 (KHTML, like Gecko) Chrome/139.0.0.0 Safari/537.36","WebKit","Chrome","139.0.0.0","Windows","10.0","https://app.prolific.com/","en-GB,en-US;q=0.9,en;q=0.8","5a9aa66a35237b000112937b","6877649eabb845cf142cd221","689318e988339489bc929408","1","5a9aa66a35237b000112937b","1","","true","","","","","","","","","","","","","","","","","","","","","","","","","","","","","","","","","","","","","","","","",""
"19014","1754470685436"," <p style='font-size:1.1em;line-height:1.25'>Thank you for closing all other tabs.</p><p style='font-size:1.1em;line-height:1.25'>We will now invite you to fill in some questionnaires, before starting the game.<br>This will take about 5 minutes.<br></p><p style='font-size:1.1em;line-height:1.25'>Press the <strong>Next</strong> button to continue.</p>","0","custom-html-button-response","2","28213","0.0-2.0","147","1","2025-08-06 08:57:31","36c45c0696341be0efffe67d72a12abb","41.150.227.132","Mozilla/5.0 (Windows NT 10.0; Win64; x64) AppleWebKit/537.36 (KHTML, like Gecko) Chrome/139.0.0.0 Safari/537.36","WebKit","Chrome","139.0.0.0","Windows","10.0","https://app.prolific.com/","en-GB,en-US;q=0.9,en;q=0.8","5a9aa66a35237b000112937b","6877649eabb845cf142cd221","689318e988339489bc929408","1","5a9aa66a35237b000112937b","1","2025-08-06T08:58:05.437Z","","","","","","","","","","","","","","","","","","","","","","","","","","","","","","","","","","","","","","","","","",""
"2215","","","{""assigned_sex"":""female""}","survey-multi-choice","3","30432","0.0-3.0-0.0","147","1","2025-08-06 08:57:31","36c45c0696341be0efffe67d72a12abb","41.150.227.132","Mozilla/5.0 (Windows NT 10.0; Win64; x64) AppleWebKit/537.36 (KHTML, like Gecko) Chrome/139.0.0.0 Safari/537.36","WebKit","Chrome","139.0.0.0","Windows","10.0","https://app.prolific.com/","en-GB,en-US;q=0.9,en;q=0.8","5a9aa66a35237b000112937b","6877649eabb845cf142cd221","689318e988339489bc929408","1","5a9aa66a35237b000112937b","1","","","[0]","0","demographics","","","","","","","","","","","","","","","","","","","","","","","","","","","","","","","","","","","","","",""
"5835","1754470693493","<p style='font-size:1.1em;line-height:1.25'>In the following, we will perform a baseline assessment. This means that we will ask you a few questions relating to your experiences over the past month.<br></p><p style='font-size:1.1em;line-height:1.25'>Press the <strong>Next</strong> button to continue.</p>","0","custom-html-button-response","4","36269","0.0-4.0-0.0","147","1","2025-08-06 08:57:31","36c45c0696341be0efffe67d72a12abb","41.150.227.132","Mozilla/5.0 (Windows NT 10.0; Win64; x64) AppleWebKit/537.36 (KHTML, like Gecko) Chrome/139.0.0.0 Safari/537.36","WebKit","Chrome","139.0.0.0","Windows","10.0","https://app.prolific.com/","en-GB,en-US;q=0.9,en;q=0.8","5a9aa66a35237b000112937b","6877649eabb845cf142cd221","689318e988339489bc929408","1","5a9aa66a35237b000112937b","1","2025-08-06T08:58:13.493Z","","","","","","","","","","","","","","","","","","","","","","","","","","","","","","","","","","","","","","","","","",""
"93419.20000001788","","","","survey-template","5","129692","0.0-4.0-1.0","147","1","2025-08-06 08:57:31","36c45c0696341be0efffe67d72a12abb","41.150.227.132","Mozilla/5.0 (Windows NT 10.0; Win64; x64) AppleWebKit/537.36 (KHTML, like Gecko) Chrome/139.0.0.0 Safari/537.36","WebKit","Chrome","139.0.0.0","Windows","10.0","https://app.prolific.com/","en-GB,en-US;q=0.9,en;q=0.8","5a9aa66a35237b000112937b","6877649eabb845cf142cd221","689318e988339489bc929408","1","5a9aa66a35237b000112937b","1","2025-08-06T08:59:46.916Z","","","","pss","{""Q01"":""1"",""Q02"":""1"",""Q03"":""1"",""Q04"":""1"",""Q05"":""2"",""Q06"":""1"",""Q07"":""2"",""Q08"":""2"",""Q09"":""1"",""Q10"":""1""}","[0,1,2,3,4,5,6,7,8,9]","[""Q01"",""Q02"",""Q03"",""Q04"",""Q05"",""Q06"",""Q07"",""Q08"",""Q09"",""Q08"",""Q09"",""Q08"",""Q10"",""Q09""]","[10845.59999999404,19205,26909.20000001788,32117.40000000596,37589.5,43285.70000001788,48870.59999999404,55222.59999999404,69278.5,71583.09999999404,72382.70000001788,81391.40000000596,87623.40000000596,91871.59999999404]","[]","[0.09999999403953552,10845.59999999404,19205,26909.20000001788,32117.40000000596,37589.5,43285.70000001788,48870.59999999404,55222.59999999404,69278.5,70806.59999999404,71583.09999999404,72382.70000001788,81391.40000000596,87623.40000000596,90376.90000000596,91871.59999999404,93415.80000001192]","0.6","0.4444444444444444","0","","","","","","","","","","","","","","","","","","","","","","","","","","","","",""
"3722","1754470790640","<p style='font-size:1.1em;line-height:1.25'>Thank you for your answers! Now we will ask you a few more questions relating to your feelings in the last 24 hours.<br></p><p style='font-size:1.1em;line-height:1.25'>Press the <strong>Next</strong> button to continue.</p>","0","custom-html-button-response","6","133416","0.0-4.0-2.0","147","1","2025-08-06 08:57:31","36c45c0696341be0efffe67d72a12abb","41.150.227.132","Mozilla/5.0 (Windows NT 10.0; Win64; x64) AppleWebKit/537.36 (KHTML, like Gecko) Chrome/139.0.0.0 Safari/537.36","WebKit","Chrome","139.0.0.0","Windows","10.0","https://app.prolific.com/","en-GB,en-US;q=0.9,en;q=0.8","5a9aa66a35237b000112937b","6877649eabb845cf142cd221","689318e988339489bc929408","1","5a9aa66a35237b000112937b","1","2025-08-06T08:59:50.640Z","","","","","","","","","","","","","","","","","","","","","","","","","","","","","","","","","","","","","","","","","",""
"77227.60000002384","","","","survey-template","7","210648","0.0-4.0-3.0","147","1","2025-08-06 08:57:31","36c45c0696341be0efffe67d72a12abb","41.150.227.132","Mozilla/5.0 (Windows NT 10.0; Win64; x64) AppleWebKit/537.36 (KHTML, like Gecko) Chrome/139.0.0.0 Safari/537.36","WebKit","Chrome","139.0.0.0","Windows","10.0","https://app.prolific.com/","en-GB,en-US;q=0.9,en;q=0.8","5a9aa66a35237b000112937b","6877649eabb845cf142cd221","689318e988339489bc929408","1","5a9aa66a35237b000112937b","1","2025-08-06T09:01:07.872Z","","","","drsp","{""Q01"":""2"",""Q02"":""0"",""Q03"":""0"",""Q04"":""1"",""Q05"":""0"",""Q06"":""2"",""Q07"":""2"",""Q08"":""3"",""Q09"":""1"",""Q10"":""1"",""Q11"":""1"",""Q12"":""0"",""Q13"":""5"",""Q14"":""0"",""Q15"":""0"",""Q16"":""2"",""Q17"":""0"",""Q18"":""0"",""Q19"":""0"",""Q20"":""0"",""Q21"":""0"",""Q22"":""0""}","[0,1,2,3,4,5,6,7,8,9,10,11,12,13,14,15,16,17,18,19,20,21]","[""Q01"",""Q02"",""Q03"",""Q04"",""Q05"",""Q06"",""Q07"",""Q08"",""Q09"",""Q09"",""Q10"",""Q11"",""Q12"",""Q13"",""Q14"",""Q15"",""Q16"",""Q17"",""Q19"",""Q20"",""Q21"",""Q22"",""Q18""]","[7348.800000011921,8517.300000011921,10102.600000023842,11877.300000011921,13533.300000011921,19156.90000000596,22445.600000023842,26333.90000000596,31357.70000001788,33285.60000002384,36029.90000000596,41957.60000002384,43005.70000001788,45742.10000002384,47438.10000002384,50934.30000001192,52662.20000001788,57190.30000001192,60718.80000001192,63597.80000001192,69126.10000002384,70702,75750.40000000596]","[]","[0,6580.9000000059605,7348.800000011921,8517.300000011921,10102.600000023842,11877.300000011921,13533.300000011921,19156.90000000596,22445.600000023842,26333.90000000596,31357.70000001788,33285.60000002384,36029.90000000596,41957.60000002384,43005.70000001788,45742.10000002384,47438.10000002384,50934.30000001192,52662.20000001788,55782.40000000596,57190.30000001192,58558.60000002384,60718.80000001192,63597.80000001192,69126.10000002384,70702,72021.90000000596,75750.40000000596,77222.60000002384]","0.5454545454545454","0.2857142857142857","0","","","","","","","","","","","","","","","","","","","","","","","","","","","","",""
"14650.199999988079","","","","survey-template","8","225300","0.0-4.0-4.0","147","1","2025-08-06 08:57:31","36c45c0696341be0efffe67d72a12abb","41.150.227.132","Mozilla/5.0 (Windows NT 10.0; Win64; x64) AppleWebKit/537.36 (KHTML, like Gecko) Chrome/139.0.0.0 Safari/537.36","WebKit","Chrome","139.0.0.0","Windows","10.0","https://app.prolific.com/","en-GB,en-US;q=0.9,en;q=0.8","5a9aa66a35237b000112937b","6877649eabb845cf142cd221","689318e988339489bc929408","1","5a9aa66a35237b000112937b","1","2025-08-06T09:01:22.524Z","","","","stress","{""Q01"":""1"",""Q02"":""3"",""Q03"":""1""}","[0,1,2]","[""Q01"",""Q02"",""Q03""]","[8056.4000000059605,9304.90000000596,13432.800000011921]","[]","[8056.4000000059605,9304.90000000596,12592.800000011921,13432.800000011921,14649.09999999404]","0.6666666666666666","1","0","","","","","","","","","","","","","","","","","","","","","","","","","","","","",""
"20502","","","","instructions","9","245803","0.0-5.0-0.0","147","1","2025-08-06 08:57:31","36c45c0696341be0efffe67d72a12abb","41.150.227.132","Mozilla/5.0 (Windows NT 10.0; Win64; x64) AppleWebKit/537.36 (KHTML, like Gecko) Chrome/139.0.0.0 Safari/537.36","WebKit","Chrome","139.0.0.0","Windows","10.0","https://app.prolific.com/","en-GB,en-US;q=0.9,en;q=0.8","5a9aa66a35237b000112937b","6877649eabb845cf142cd221","689318e988339489bc929408","1","5a9aa66a35237b000112937b","1","","","","","","","","","","","","","","","[{""page_index"":0,""viewing_time"":20502}]","","","","","","","","","","","","","","","","","","","","","","","","","","","",""
"5646","","<p>Before you start with this game please answer the following three questions yourself. </p>
  <p>Through this game, we measure several aspects of your cognitive performance, such as reaction times, multi-tasking capabilities </p>
  <p>and the ability to assess the situation you are in.</p>
  <p></p>
  <p><b>How good do you usually are in such tasks?</b></p>","91","html-slider-response","10","251451","0.0-6.0-0.0","147","1","2025-08-06 08:57:31","36c45c0696341be0efffe67d72a12abb","41.150.227.132","Mozilla/5.0 (Windows NT 10.0; Win64; x64) AppleWebKit/537.36 (KHTML, like Gecko) Chrome/139.0.0.0 Safari/537.36","WebKit","Chrome","139.0.0.0","Windows","10.0","https://app.prolific.com/","en-GB,en-US;q=0.9,en;q=0.8","5a9aa66a35237b000112937b","6877649eabb845cf142cd221","689318e988339489bc929408","1","5a9aa66a35237b000112937b","1","2025-08-06T09:01:48.675Z","","","","PreSkillQ","","","","","","","","","","","50","","","","","","","","","","","","","","","","","","","","","","","","","","",""
"5135","","<div style=""width:500px;"">
  <p>How well do you think you will perform in this task compared to other participants?</p>
  </div>","81","html-slider-response","11","256587","0.0-6.0-1.0","147","1","2025-08-06 08:57:31","36c45c0696341be0efffe67d72a12abb","41.150.227.132","Mozilla/5.0 (Windows NT 10.0; Win64; x64) AppleWebKit/537.36 (KHTML, like Gecko) Chrome/139.0.0.0 Safari/537.36","WebKit","Chrome","139.0.0.0","Windows","10.0","https://app.prolific.com/","en-GB,en-US;q=0.9,en;q=0.8","5a9aa66a35237b000112937b","6877649eabb845cf142cd221","689318e988339489bc929408","1","5a9aa66a35237b000112937b","1","2025-08-06T09:01:53.812Z","","","","PrePerfQ","","","","","","","","","","","50","","","","","","","","","","","","","","","","","","","","","","","","","","",""
"2846","","<div style=""width:500px;"">
  <p>What best describes how you currently feel?</p>
  </div>","100","html-slider-response","12","259435","0.0-6.0-2.0","147","1","2025-08-06 08:57:31","36c45c0696341be0efffe67d72a12abb","41.150.227.132","Mozilla/5.0 (Windows NT 10.0; Win64; x64) AppleWebKit/537.36 (KHTML, like Gecko) Chrome/139.0.0.0 Safari/537.36","WebKit","Chrome","139.0.0.0","Windows","10.0","https://app.prolific.com/","en-GB,en-US;q=0.9,en;q=0.8","5a9aa66a35237b000112937b","6877649eabb845cf142cd221","689318e988339489bc929408","1","5a9aa66a35237b000112937b","1","2025-08-06T09:01:56.660Z","","","","PreMotivationQ","","","","","","","","","","","50","","","","","","","","","","","","","","","","","","","","","","","","","","",""
"","","","","ctl-task-cpt","13","286359","0.0-7.0-0.0","147","1","2025-08-06 08:57:31","36c45c0696341be0efffe67d72a12abb","41.150.227.132","Mozilla/5.0 (Windows NT 10.0; Win64; x64) AppleWebKit/537.36 (KHTML, like Gecko) Chrome/139.0.0.0 Safari/537.36","WebKit","Chrome","139.0.0.0","Windows","10.0","https://app.prolific.com/","en-GB,en-US;q=0.9,en;q=0.8","5a9aa66a35237b000112937b","6877649eabb845cf142cd221","689318e988339489bc929408","1","5a9aa66a35237b000112937b","1","2025-08-06T09:02:23.583Z","","","","","","","","","","","","","","","","win-only","1","g1:NE,g2:SW","1","1","0","269968.2","2727.9","7738.9","23907.6","1","4","8","6","2","8","8","8","0","0.06060606060606061","1101.4","3000","1265","[""down"",""left""]","{""num_key_presses"":6,""num_perfect"":6,""num_errors"":0,""num_randdir"":0,""num_randdir_good_moves"":0,""num_whilered"":0,""num_whileblue"":0,""num_blue"":0,""num_good_moves"":6}","[425.3214133126395,412.82142761775424,0.5,425.3214133126395,412.82142761775424,109.7,425.3214133126395,412.82142761775424,213.7,425.3214133126395,412.82142761775424,314.2,425.3214133126395,411.57142761775424,414.4,264.0714133126395,445.32142761775424,515.7,190.3214133126395,584.0714276177542,627.3,107.8214133126395,654.0714276177542,728.2,84.0714133126395,695.3214276177542,830,44.07141331263951,730.3214276177542,932.1,55.32141331263951,739.0714276177542,1034.9,55.32141331263951,739.0714276177542,1139.5,55.32141331263951,739.0714276177542,1249.1,55.32141331263951,739.0714276177542,1352.7,59.07141331263951,740.3214276177542,1452.9,161.5714133126395,729.0714276177542,1558.4,467.8214133126395,662.8214276177542,1665,476.5714133126395,657.8214276177542,1772,476.5714133126395,657.8214276177542,1877.5,476.5714133126395,657.8214276177542,1984.3,476.5714133126395,657.8214276177542,2088.4,476.5714133126395,657.8214276177542,2191.2,476.5714133126395,657.8214276177542,2297.2,476.5714133126395,657.8214276177542,2397.4,476.5714133126395,657.8214276177542,2497.5,476.5714133126395,657.8214276177542,2600,476.5714133126395,657.8214276177542,2700.3,476.5714133126395,657.8214276177542,2808.6,476.5714133126395,657.8214276177542,2908.9,476.5714133126395,657.8214276177542,3010.4,476.5714133126395,657.8214276177542,3115.1,476.5714133126395,657.8214276177542,3219.1,476.5714133126395,657.8214276177542,3328.9,476.5714133126395,657.8214276177542,3432.9,476.5714133126395,657.8214276177542,3535.1,476.5714133126395,657.8214276177542,3640.4,476.5714133126395,657.8214276177542,3742.5,476.5714133126395,657.8214276177542,3847.9,476.5714133126395,657.8214276177542,3947.9,476.5714133126395,657.8214276177542,4048,476.5714133126395,657.8214276177542,4153.6,476.5714133126395,657.8214276177542,4256,476.5714133126395,657.8214276177542,4363.7,476.5714133126395,657.8214276177542,4464,476.5714133126395,657.8214276177542,4566.9,476.5714133126395,657.8214276177542,4667.7,476.5714133126395,657.8214276177542,4768.5,476.5714133126395,657.8214276177542,4874.4,476.5714133126395,657.8214276177542,4977.7]","[1456,1456,1000,0,456,""smooth"",""left"",""left"",""good_move"",4415,2958.2,2564.1,1456.8,394.1,""smooth"",""left"",""left"",""good_move"",7828.7,3413.5,3021.2,4415.3,392.3,""smooth"",""left"",""left"",""good_move"",10819,2989.8,2597,7829.2,392.8,""smooth"",""down"",""down"",""good_move"",13420,2600.2,2126.7,10819.8,473.5,""smooth"",""down"",""down"",""good_move"",16054.6,2634,2269.1,13420.6,364.9,""smooth"",""down"",""down"",""good_move""]"
"3916","","<div style=""width:500px;"">
  <p>What determined the result of this run?</p>
  </div>","100","html-slider-response","14","290276","0.0-7.0-1.0","147","1","2025-08-06 08:57:31","36c45c0696341be0efffe67d72a12abb","41.150.227.132","Mozilla/5.0 (Windows NT 10.0; Win64; x64) AppleWebKit/537.36 (KHTML, like Gecko) Chrome/139.0.0.0 Safari/537.36","WebKit","Chrome","139.0.0.0","Windows","10.0","https://app.prolific.com/","en-GB,en-US;q=0.9,en;q=0.8","5a9aa66a35237b000112937b","6877649eabb845cf142cd221","689318e988339489bc929408","1","5a9aa66a35237b000112937b","1","2025-08-06T09:02:27.500Z","","","","AttribQ","","","","","","","","","","","50","","","","","","","","","","","","","","","","","","","","","","","","","","",""
"4942","","<div style=""width:500px;"">
  <p>How much control did you have over the ball?</p>
  </div>","100","html-slider-response","15","295220","0.0-7.0-2.0","147","1","2025-08-06 08:57:31","36c45c0696341be0efffe67d72a12abb","41.150.227.132","Mozilla/5.0 (Windows NT 10.0; Win64; x64) AppleWebKit/537.36 (KHTML, like Gecko) Chrome/139.0.0.0 Safari/537.36","WebKit","Chrome","139.0.0.0","Windows","10.0","https://app.prolific.com/","en-GB,en-US;q=0.9,en;q=0.8","5a9aa66a35237b000112937b","6877649eabb845cf142cd221","689318e988339489bc929408","1","5a9aa66a35237b000112937b","1","2025-08-06T09:02:32.445Z","","","","ControlQ","","","","","","","","","","","50","","","","","","","","","","","","","","","","","","","","","","","","","","",""
"2791","","<div style=""width:500px;"">
  <p>How would you describe your current emotional state?</p>
  </div>","0","html-slider-response","16","298012","0.0-7.0-3.0","147","1","2025-08-06 08:57:31","36c45c0696341be0efffe67d72a12abb","41.150.227.132","Mozilla/5.0 (Windows NT 10.0; Win64; x64) AppleWebKit/537.36 (KHTML, like Gecko) Chrome/139.0.0.0 Safari/537.36","WebKit","Chrome","139.0.0.0","Windows","10.0","https://app.prolific.com/","en-GB,en-US;q=0.9,en;q=0.8","5a9aa66a35237b000112937b","6877649eabb845cf142cd221","689318e988339489bc929408","1","5a9aa66a35237b000112937b","1","2025-08-06T09:02:35.237Z","","","","StressQ","","","","","","","","","","","50","","","","","","","","","","","","","","","","","","","","","","","","","","",""
"3367","","<div style=""width:500px;"">
  <p>What best describes how you currently feel?</p>
  </div>","100","html-slider-response","17","301381","0.0-7.0-4.0","147","1","2025-08-06 08:57:31","36c45c0696341be0efffe67d72a12abb","41.150.227.132","Mozilla/5.0 (Windows NT 10.0; Win64; x64) AppleWebKit/537.36 (KHTML, like Gecko) Chrome/139.0.0.0 Safari/537.36","WebKit","Chrome","139.0.0.0","Windows","10.0","https://app.prolific.com/","en-GB,en-US;q=0.9,en;q=0.8","5a9aa66a35237b000112937b","6877649eabb845cf142cd221","689318e988339489bc929408","1","5a9aa66a35237b000112937b","1","2025-08-06T09:02:38.605Z","","","","MotivationQ","","","","","","","","","","","50","","","","","","","","","","","","","","","","","","","","","","","","","","",""
"","","","","ctl-task-cpt","18","337808","0.0-7.0-0.1","147","1","2025-08-06 08:57:31","36c45c0696341be0efffe67d72a12abb","41.150.227.132","Mozilla/5.0 (Windows NT 10.0; Win64; x64) AppleWebKit/537.36 (KHTML, like Gecko) Chrome/139.0.0.0 Safari/537.36","WebKit","Chrome","139.0.0.0","Windows","10.0","https://app.prolific.com/","en-GB,en-US;q=0.9,en;q=0.8","5a9aa66a35237b000112937b","6877649eabb845cf142cd221","689318e988339489bc929408","1","5a9aa66a35237b000112937b","1","2025-08-06T09:03:15.032Z","","","","","","","","","","","","","","","","win-only","0","g1:NW,g2:SE","0.9","2","0","311903.7","1055.4","6057.8","33411.8","1","4","4","6","2","4","3","11","8","0.08333333333333333","1567.4","3000","910","[""down"",""right""]","{""num_key_presses"":8,""num_perfect"":6,""num_errors"":1,""num_randdir"":1,""num_randdir_good_moves"":1,""num_whilered"":0,""num_whileblue"":1,""num_blue"":2,""num_good_moves"":7}","[419.0714133126395,404.07142761775424,0.2,419.0714133126395,404.07142761775424,103,419.0714133126395,404.07142761775424,203.1,419.0714133126395,404.07142761775424,309.6,412.8214133126395,421.57142761775424,416,396.5714133126395,432.82142761775424,516.3,386.5714133126395,432.82142761775424,616.5,386.5714133126395,432.82142761775424,720.7,369.0714133126395,445.32142761775424,830.1,369.0714133126395,455.32142761775424,931,359.0714133126395,492.82142761775424,1037.3,414.0714133126395,551.5714276177542,1143,742.8214133126395,785.3214276177542,1248.3,731.5714133126395,774.0714276177542,1353.8,721.5714133126395,766.5714276177542,1461.5,726.5714133126395,751.5714276177542,1570.6,727.8214133126395,751.5714276177542,1670.7,727.8214133126395,751.5714276177542,1771.8,727.8214133126395,751.5714276177542,1879,727.8214133126395,751.5714276177542,1984.3,727.8214133126395,751.5714276177542,2086.2,727.8214133126395,751.5714276177542,2187.4,727.8214133126395,751.5714276177542,2298.1,727.8214133126395,751.5714276177542,2399.8,727.8214133126395,751.5714276177542,2504.4,727.8214133126395,751.5714276177542,2605.3,727.8214133126395,751.5714276177542,2705.7,727.8214133126395,751.5714276177542,2807.2,727.8214133126395,751.5714276177542,2915.5,727.8214133126395,751.5714276177542,3015.6,727.8214133126395,751.5714276177542,3116.7,727.8214133126395,751.5714276177542,3218.9,727.8214133126395,751.5714276177542,3321,727.8214133126395,751.5714276177542,3426.1,727.8214133126395,751.5714276177542,3535.7,727.8214133126395,751.5714276177542,3641.4,727.8214133126395,751.5714276177542,3749.6,727.8214133126395,751.5714276177542,3853.6,727.8214133126395,751.5714276177542,3963,727.8214133126395,751.5714276177542,4070.4,727.8214133126395,751.5714276177542,4170.8,727.8214133126395,751.5714276177542,4274.9,727.8214133126395,751.5714276177542,4376.3,727.8214133126395,751.5714276177542,4480.9,727.8214133126395,751.5714276177542,4581.8,727.8214133126395,751.5714276177542,4683.3,727.8214133126395,751.5714276177542,4788.3,727.8214133126395,751.5714276177542,4896.7]","[5296.6,5296.6,2915,2004,377.7,""smooth"",""right"",""right"",""good_move"",8407.5,3110.1,2508.2,5297.4,601.9,""smooth"",""right"",""right"",""good_move"",10940.9,2533.2,2174.2,8407.7,359,""smooth"",""right"",""right"",""good_move"",14015.1,3073.8,2691.9,10941.4,381.8,""smooth"",""down"",""down"",""good_move"",17493.7,3477.9,3159,14015.8,318.9,""smooth"",""down"",""down"",""good_move"",20819.2,3325,3037.8,17494.2,287.2,""while_blue"",""down"",""up"",""bad_move"",23438.2,2617.8,2179,20820.4,438.8,""oops"",""down"",""down"",""good_move"",27231.1,3792.5,3364.3,23438.6,428.2,""smooth"",""down"",""down"",""good_move""]"
"3964","","<div style=""width:500px;"">
  <p>What determined the result of this run?</p>
  </div>","100","html-slider-response","19","341774","0.0-7.0-1.1","147","1","2025-08-06 08:57:31","36c45c0696341be0efffe67d72a12abb","41.150.227.132","Mozilla/5.0 (Windows NT 10.0; Win64; x64) AppleWebKit/537.36 (KHTML, like Gecko) Chrome/139.0.0.0 Safari/537.36","WebKit","Chrome","139.0.0.0","Windows","10.0","https://app.prolific.com/","en-GB,en-US;q=0.9,en;q=0.8","5a9aa66a35237b000112937b","6877649eabb845cf142cd221","689318e988339489bc929408","1","5a9aa66a35237b000112937b","1","2025-08-06T09:03:18.998Z","","","","AttribQ","","","","","","","","","","","50","","","","","","","","","","","","","","","","","","","","","","","","","","",""
"2438","","<div style=""width:500px;"">
  <p>How much control did you have over the ball?</p>
  </div>","100","html-slider-response","20","344214","0.0-7.0-2.1","147","1","2025-08-06 08:57:31","36c45c0696341be0efffe67d72a12abb","41.150.227.132","Mozilla/5.0 (Windows NT 10.0; Win64; x64) AppleWebKit/537.36 (KHTML, like Gecko) Chrome/139.0.0.0 Safari/537.36","WebKit","Chrome","139.0.0.0","Windows","10.0","https://app.prolific.com/","en-GB,en-US;q=0.9,en;q=0.8","5a9aa66a35237b000112937b","6877649eabb845cf142cd221","689318e988339489bc929408","1","5a9aa66a35237b000112937b","1","2025-08-06T09:03:21.438Z","","","","ControlQ","","","","","","","","","","","50","","","","","","","","","","","","","","","","","","","","","","","","","","",""
"2726","","<div style=""width:500px;"">
  <p>How would you describe your current emotional state?</p>
  </div>","0","html-slider-response","21","346941","0.0-7.0-3.1","147","1","2025-08-06 08:57:31","36c45c0696341be0efffe67d72a12abb","41.150.227.132","Mozilla/5.0 (Windows NT 10.0; Win64; x64) AppleWebKit/537.36 (KHTML, like Gecko) Chrome/139.0.0.0 Safari/537.36","WebKit","Chrome","139.0.0.0","Windows","10.0","https://app.prolific.com/","en-GB,en-US;q=0.9,en;q=0.8","5a9aa66a35237b000112937b","6877649eabb845cf142cd221","689318e988339489bc929408","1","5a9aa66a35237b000112937b","1","2025-08-06T09:03:24.166Z","","","","StressQ","","","","","","","","","","","50","","","","","","","","","","","","","","","","","","","","","","","","","","",""
"2271","","<div style=""width:500px;"">
  <p>What best describes how you currently feel?</p>
  </div>","100","html-slider-response","22","349214","0.0-7.0-4.1","147","1","2025-08-06 08:57:31","36c45c0696341be0efffe67d72a12abb","41.150.227.132","Mozilla/5.0 (Windows NT 10.0; Win64; x64) AppleWebKit/537.36 (KHTML, like Gecko) Chrome/139.0.0.0 Safari/537.36","WebKit","Chrome","139.0.0.0","Windows","10.0","https://app.prolific.com/","en-GB,en-US;q=0.9,en;q=0.8","5a9aa66a35237b000112937b","6877649eabb845cf142cd221","689318e988339489bc929408","1","5a9aa66a35237b000112937b","1","2025-08-06T09:03:26.438Z","","","","MotivationQ","","","","","","","","","","","50","","","","","","","","","","","","","","","","","","","","","","","","","","",""
"","","","","ctl-task-cpt","23","384634","0.0-7.0-0.2","147","1","2025-08-06 08:57:31","36c45c0696341be0efffe67d72a12abb","41.150.227.132","Mozilla/5.0 (Windows NT 10.0; Win64; x64) AppleWebKit/537.36 (KHTML, like Gecko) Chrome/139.0.0.0 Safari/537.36","WebKit","Chrome","139.0.0.0","Windows","10.0","https://app.prolific.com/","en-GB,en-US;q=0.9,en;q=0.8","5a9aa66a35237b000112937b","6877649eabb845cf142cd221","689318e988339489bc929408","1","5a9aa66a35237b000112937b","1","2025-08-06T09:04:01.858Z","","","","","","","","","","","","","","","","win-only","2","g1:SE,g2:NW","0.8","3","0","359737.9","1086.3","6087","32411.4","1","4","4","6","2","4","4","15","11","0.11363636363636363","1076.8","3000","1120","[""left"",""up""]","{""num_key_presses"":6,""num_perfect"":5,""num_errors"":0,""num_randdir"":1,""num_randdir_good_moves"":1,""num_whilered"":0,""num_whileblue"":0,""num_blue"":3,""num_good_moves"":6}","[409.0714133126395,417.82142761775424,0.2,409.0714133126395,417.82142761775424,101.5,409.0714133126395,417.82142761775424,202.6,409.0714133126395,417.82142761775424,305,410.3214133126395,417.82142761775424,405.4,394.0714133126395,407.82142761775424,511.9,290.3214133126395,297.82142761775424,614.7,151.5714133126395,191.57142761775424,719.5,146.5714133126395,177.82142761775424,826.8,116.5714133126395,137.82142761775424,931.3,96.5714133126395,90.32142761775425,1043.8,96.5714133126395,90.32142761775425,1144.4,96.5714133126395,90.32142761775425,1250,96.5714133126395,90.32142761775425,1350.6,96.5714133126395,90.32142761775425,1453.5,96.5714133126395,90.32142761775425,1558.9,96.5714133126395,90.32142761775425,1663,96.5714133126395,90.32142761775425,1764.4,96.5714133126395,90.32142761775425,1869.9,96.5714133126395,90.32142761775425,1976.3,96.5714133126395,90.32142761775425,2083.4,96.5714133126395,90.32142761775425,2183.6,96.5714133126395,90.32142761775425,2284.7,96.5714133126395,90.32142761775425,2391.7,96.5714133126395,90.32142761775425,2494,96.5714133126395,90.32142761775425,2600.3,96.5714133126395,90.32142761775425,2701.8,96.5714133126395,90.32142761775425,2802.2,96.5714133126395,90.32142761775425,2902.8,96.5714133126395,90.32142761775425,3005.2,96.5714133126395,90.32142761775425,3109,96.5714133126395,90.32142761775425,3217.7,96.5714133126395,90.32142761775425,3325,96.5714133126395,90.32142761775425,3434.9,96.5714133126395,90.32142761775425,3540.4,96.5714133126395,90.32142761775425,3651.8,96.5714133126395,90.32142761775425,3752.2,96.5714133126395,90.32142761775425,3854.7,96.5714133126395,90.32142761775425,3963.2,96.5714133126395,90.32142761775425,4070.2,96.5714133126395,90.32142761775425,4172.1,96.5714133126395,90.32142761775425,4274.6,96.5714133126395,90.32142761775425,4375,96.5714133126395,90.32142761775425,4476.1,96.5714133126395,90.32142761775425,4579,96.5714133126395,90.32142761775425,4684.9,96.5714133126395,90.32142761775425,4791.6,96.5714133126395,90.32142761775425,4891.9,96.5714133126395,90.32142761775425,4992.9]","[4340.4,4340.4,1898.7,2005,436.7,""smooth"",""up"",""up"",""good_move"",7808.7,3467.4,3080.6,4341.3,386.8,""smooth"",""up"",""up"",""good_move"",17080.7,9271.6,2596.7,14111,373,""oops"",""up"",""up"",""good_move"",19948.5,2867.4,2437.9,17081.1,429.5,""smooth"",""left"",""left"",""good_move"",23659.4,3710.3,3257.9,19949.1,452.4,""smooth"",""left"",""left"",""good_move"",26219.4,2559.6,2103.3,23659.8,456.3,""smooth"",""left"",""left"",""good_move""]"
"2531","","<div style=""width:500px;"">
  <p>What determined the result of this run?</p>
  </div>","100","html-slider-response","24","387167","0.0-7.0-1.2","147","1","2025-08-06 08:57:31","36c45c0696341be0efffe67d72a12abb","41.150.227.132","Mozilla/5.0 (Windows NT 10.0; Win64; x64) AppleWebKit/537.36 (KHTML, like Gecko) Chrome/139.0.0.0 Safari/537.36","WebKit","Chrome","139.0.0.0","Windows","10.0","https://app.prolific.com/","en-GB,en-US;q=0.9,en;q=0.8","5a9aa66a35237b000112937b","6877649eabb845cf142cd221","689318e988339489bc929408","1","5a9aa66a35237b000112937b","1","2025-08-06T09:04:04.391Z","","","","AttribQ","","","","","","","","","","","50","","","","","","","","","","","","","","","","","","","","","","","","","","",""
"2486","","<div style=""width:500px;"">
  <p>How much control did you have over the ball?</p>
  </div>","100","html-slider-response","25","389655","0.0-7.0-2.2","147","1","2025-08-06 08:57:31","36c45c0696341be0efffe67d72a12abb","41.150.227.132","Mozilla/5.0 (Windows NT 10.0; Win64; x64) AppleWebKit/537.36 (KHTML, like Gecko) Chrome/139.0.0.0 Safari/537.36","WebKit","Chrome","139.0.0.0","Windows","10.0","https://app.prolific.com/","en-GB,en-US;q=0.9,en;q=0.8","5a9aa66a35237b000112937b","6877649eabb845cf142cd221","689318e988339489bc929408","1","5a9aa66a35237b000112937b","1","2025-08-06T09:04:06.879Z","","","","ControlQ","","","","","","","","","","","50","","","","","","","","","","","","","","","","","","","","","","","","","","",""
"2831","","<div style=""width:500px;"">
  <p>How would you describe your current emotional state?</p>
  </div>","0","html-slider-response","26","392487","0.0-7.0-3.2","147","1","2025-08-06 08:57:31","36c45c0696341be0efffe67d72a12abb","41.150.227.132","Mozilla/5.0 (Windows NT 10.0; Win64; x64) AppleWebKit/537.36 (KHTML, like Gecko) Chrome/139.0.0.0 Safari/537.36","WebKit","Chrome","139.0.0.0","Windows","10.0","https://app.prolific.com/","en-GB,en-US;q=0.9,en;q=0.8","5a9aa66a35237b000112937b","6877649eabb845cf142cd221","689318e988339489bc929408","1","5a9aa66a35237b000112937b","1","2025-08-06T09:04:09.711Z","","","","StressQ","","","","","","","","","","","50","","","","","","","","","","","","","","","","","","","","","","","","","","",""
"2223","","<div style=""width:500px;"">
  <p>What best describes how you currently feel?</p>
  </div>","100","html-slider-response","27","394711","0.0-7.0-4.2","147","1","2025-08-06 08:57:31","36c45c0696341be0efffe67d72a12abb","41.150.227.132","Mozilla/5.0 (Windows NT 10.0; Win64; x64) AppleWebKit/537.36 (KHTML, like Gecko) Chrome/139.0.0.0 Safari/537.36","WebKit","Chrome","139.0.0.0","Windows","10.0","https://app.prolific.com/","en-GB,en-US;q=0.9,en;q=0.8","5a9aa66a35237b000112937b","6877649eabb845cf142cd221","689318e988339489bc929408","1","5a9aa66a35237b000112937b","1","2025-08-06T09:04:11.936Z","","","","MotivationQ","","","","","","","","","","","50","","","","","","","","","","","","","","","","","","","","","","","","","","",""
"","","","","ctl-task-cpt","28","425500","0.0-7.0-0.3","147","1","2025-08-06 08:57:31","36c45c0696341be0efffe67d72a12abb","41.150.227.132","Mozilla/5.0 (Windows NT 10.0; Win64; x64) AppleWebKit/537.36 (KHTML, like Gecko) Chrome/139.0.0.0 Safari/537.36","WebKit","Chrome","139.0.0.0","Windows","10.0","https://app.prolific.com/","en-GB,en-US;q=0.9,en;q=0.8","5a9aa66a35237b000112937b","6877649eabb845cf142cd221","689318e988339489bc929408","1","5a9aa66a35237b000112937b","1","2025-08-06T09:04:42.724Z","","","","","","","","","","","","","","","","win-only","2","g1:SE,g2:NW","0.7","4","0","405236","1198.7","6201","27772.8","1","4","8","6","2","8","8","23","15","0.17424242424242425","1078.1","3000","650","[""left"",""up""]","{""num_key_presses"":8,""num_perfect"":5,""num_errors"":0,""num_randdir"":3,""num_randdir_good_moves"":2,""num_whilered"":0,""num_whileblue"":0,""num_blue"":0,""num_good_moves"":7}","[419.0714133126395,411.57142761775424,0.5,419.0714133126395,411.57142761775424,101.3,417.8214133126395,411.57142761775424,202.6,417.8214133126395,412.82142761775424,303.2,437.8214133126395,426.57142761775424,413.8,497.8214133126395,511.57142761775424,517.3,381.5714133126395,441.57142761775424,618.5,187.8214133126395,137.82142761775424,728.9,184.0714133126395,119.07142761775425,831.9,171.5714133126395,112.82142761775425,932.9,111.5714133126395,76.57142761775425,1034.7,111.5714133126395,76.57142761775425,1136,111.5714133126395,76.57142761775425,1237.3,111.5714133126395,76.57142761775425,1338,111.5714133126395,76.57142761775425,1445.9,111.5714133126395,76.57142761775425,1551.4,111.5714133126395,76.57142761775425,1653.6,111.5714133126395,76.57142761775425,1754.4,111.5714133126395,76.57142761775425,1862.9,111.5714133126395,76.57142761775425,1963.1,111.5714133126395,76.57142761775425,2064,111.5714133126395,76.57142761775425,2169,111.5714133126395,76.57142761775425,2271.9,111.5714133126395,76.57142761775425,2372.7,111.5714133126395,76.57142761775425,2481.3,111.5714133126395,76.57142761775425,2582.1,111.5714133126395,76.57142761775425,2682.1,111.5714133126395,76.57142761775425,2784,111.5714133126395,76.57142761775425,2890.3,111.5714133126395,76.57142761775425,2997.5,111.5714133126395,76.57142761775425,3098,111.5714133126395,76.57142761775425,3201.5,111.5714133126395,76.57142761775425,3305.6,111.5714133126395,76.57142761775425,3406.8,111.5714133126395,76.57142761775425,3513.1,111.5714133126395,76.57142761775425,3623.5,111.5714133126395,76.57142761775425,3727.5,111.5714133126395,76.57142761775425,3827.5,111.5714133126395,76.57142761775425,3930.3,111.5714133126395,76.57142761775425,4041.3,111.5714133126395,76.57142761775425,4144.6,111.5714133126395,76.57142761775425,4247.4,111.5714133126395,76.57142761775425,4352.1,111.5714133126395,76.57142761775425,4458.2,111.5714133126395,76.57142761775425,4559.4,111.5714133126395,76.57142761775425,4660.8,111.5714133126395,76.57142761775425,4762.2,111.5714133126395,76.57142761775425,4863.3,111.5714133126395,76.57142761775425,4963.6]","[1413.5,1413.5,1000,0,413.5,""smooth"",""up"",""up"",""good_move"",4082.3,2667.5,2265.7,1414.8,401.8,""oops"",""up"",""left"",""good_move"",6991.5,2908.7,2483.4,4082.9,425.2,""oops"",""up"",""left"",""good_move"",10322.3,3330.4,2974.3,6991.9,356.1,""oops"",""up"",""down"",""bad_move"",13090.9,2768,2383.5,10322.9,384.5,""smooth"",""up"",""up"",""good_move"",16352.4,3261,2849.4,13091.5,411.5,""smooth"",""up"",""up"",""good_move"",19396.6,3043.9,2691.5,16352.7,352.4,""smooth"",""up"",""up"",""good_move"",21433.9,2036.8,1604.6,19397.1,432.2,""smooth"",""left"",""left"",""good_move""]"
"4179","","<div style=""width:500px;"">
  <p>What determined the result of this run?</p>
  </div>","97","html-slider-response","29","429681","0.0-7.0-1.3","147","1","2025-08-06 08:57:31","36c45c0696341be0efffe67d72a12abb","41.150.227.132","Mozilla/5.0 (Windows NT 10.0; Win64; x64) AppleWebKit/537.36 (KHTML, like Gecko) Chrome/139.0.0.0 Safari/537.36","WebKit","Chrome","139.0.0.0","Windows","10.0","https://app.prolific.com/","en-GB,en-US;q=0.9,en;q=0.8","5a9aa66a35237b000112937b","6877649eabb845cf142cd221","689318e988339489bc929408","1","5a9aa66a35237b000112937b","1","2025-08-06T09:04:46.905Z","","","","AttribQ","","","","","","","","","","","50","","","","","","","","","","","","","","","","","","","","","","","","","","",""
"4078","","<div style=""width:500px;"">
  <p>How much control did you have over the ball?</p>
  </div>","93","html-slider-response","30","433761","0.0-7.0-2.3","147","1","2025-08-06 08:57:31","36c45c0696341be0efffe67d72a12abb","41.150.227.132","Mozilla/5.0 (Windows NT 10.0; Win64; x64) AppleWebKit/537.36 (KHTML, like Gecko) Chrome/139.0.0.0 Safari/537.36","WebKit","Chrome","139.0.0.0","Windows","10.0","https://app.prolific.com/","en-GB,en-US;q=0.9,en;q=0.8","5a9aa66a35237b000112937b","6877649eabb845cf142cd221","689318e988339489bc929408","1","5a9aa66a35237b000112937b","1","2025-08-06T09:04:50.985Z","","","","ControlQ","","","","","","","","","","","50","","","","","","","","","","","","","","","","","","","","","","","","","","",""
"2767","","<div style=""width:500px;"">
  <p>How would you describe your current emotional state?</p>
  </div>","0","html-slider-response","31","436529","0.0-7.0-3.3","147","1","2025-08-06 08:57:31","36c45c0696341be0efffe67d72a12abb","41.150.227.132","Mozilla/5.0 (Windows NT 10.0; Win64; x64) AppleWebKit/537.36 (KHTML, like Gecko) Chrome/139.0.0.0 Safari/537.36","WebKit","Chrome","139.0.0.0","Windows","10.0","https://app.prolific.com/","en-GB,en-US;q=0.9,en;q=0.8","5a9aa66a35237b000112937b","6877649eabb845cf142cd221","689318e988339489bc929408","1","5a9aa66a35237b000112937b","1","2025-08-06T09:04:53.753Z","","","","StressQ","","","","","","","","","","","50","","","","","","","","","","","","","","","","","","","","","","","","","","",""
"2854","","<div style=""width:500px;"">
  <p>What best describes how you currently feel?</p>
  </div>","100","html-slider-response","32","439384","0.0-7.0-4.3","147","1","2025-08-06 08:57:31","36c45c0696341be0efffe67d72a12abb","41.150.227.132","Mozilla/5.0 (Windows NT 10.0; Win64; x64) AppleWebKit/537.36 (KHTML, like Gecko) Chrome/139.0.0.0 Safari/537.36","WebKit","Chrome","139.0.0.0","Windows","10.0","https://app.prolific.com/","en-GB,en-US;q=0.9,en;q=0.8","5a9aa66a35237b000112937b","6877649eabb845cf142cd221","689318e988339489bc929408","1","5a9aa66a35237b000112937b","1","2025-08-06T09:04:56.609Z","","","","MotivationQ","","","","","","","","","","","50","","","","","","","","","","","","","","","","","","","","","","","","","","",""
"","","","","ctl-task-cpt","33","469588","0.0-7.0-0.4","147","1","2025-08-06 08:57:31","36c45c0696341be0efffe67d72a12abb","41.150.227.132","Mozilla/5.0 (Windows NT 10.0; Win64; x64) AppleWebKit/537.36 (KHTML, like Gecko) Chrome/139.0.0.0 Safari/537.36","WebKit","Chrome","139.0.0.0","Windows","10.0","https://app.prolific.com/","en-GB,en-US;q=0.9,en;q=0.8","5a9aa66a35237b000112937b","6877649eabb845cf142cd221","689318e988339489bc929408","1","5a9aa66a35237b000112937b","1","2025-08-06T09:05:26.812Z","","","","","","","","","","","","","","","","win-only","2","g1:SE,g2:NW","0.6","5","0","449908.9","965.1","5966.6","27191.9","1","4","8","6","2","8","8","31","23","0.23484848484848486","752","3000","1340","[""left"",""up""]","{""num_key_presses"":6,""num_perfect"":5,""num_errors"":0,""num_randdir"":1,""num_randdir_good_moves"":1,""num_whilered"":0,""num_whileblue"":0,""num_blue"":2,""num_good_moves"":6}","[421.5714133126395,412.82142761775424,0.2,421.5714133126395,412.82142761775424,101,421.5714133126395,412.82142761775424,209.7,421.5714133126395,412.82142761775424,312.9,329.0714133126395,250.32142761775424,415.9,81.5714133126395,81.57142761775425,519.3,30.321413312639507,59.07142761775425,622.2,30.321413312639507,59.07142761775425,722.9,30.321413312639507,59.07142761775425,832.5,55.32141331263951,71.57142761775425,938.3,56.57141331263951,72.82142761775425,1044.9,57.82141331263951,72.82142761775425,1151.4,59.07141331263951,72.82142761775425,1259,81.5714133126395,80.32142761775425,1359.6,141.5714133126395,92.82142761775425,1462,142.8214133126395,92.82142761775425,1568.3,142.8214133126395,92.82142761775425,1675.7,142.8214133126395,92.82142761775425,1783.7,142.8214133126395,92.82142761775425,1892.9,147.8214133126395,89.07142761775425,2000.7,147.8214133126395,89.07142761775425,2102.2,147.8214133126395,89.07142761775425,2209.2,147.8214133126395,89.07142761775425,2314.6,147.8214133126395,89.07142761775425,2419.2,147.8214133126395,89.07142761775425,2526.6,147.8214133126395,89.07142761775425,2627.2,147.8214133126395,89.07142761775425,2732.1,147.8214133126395,89.07142761775425,2837.3,147.8214133126395,89.07142761775425,2942.9,147.8214133126395,89.07142761775425,3050.6,147.8214133126395,89.07142761775425,3158,147.8214133126395,89.07142761775425,3261.3,147.8214133126395,89.07142761775425,3372.4,147.8214133126395,89.07142761775425,3473,147.8214133126395,89.07142761775425,3577.4,147.8214133126395,89.07142761775425,3681,147.8214133126395,89.07142761775425,3782.3,147.8214133126395,89.07142761775425,3882.8,147.8214133126395,89.07142761775425,3989.8,147.8214133126395,89.07142761775425,4094.2,147.8214133126395,89.07142761775425,4199.7,147.8214133126395,89.07142761775425,4301.4,147.8214133126395,89.07142761775425,4409.4,147.8214133126395,89.07142761775425,4513.2,147.8214133126395,89.07142761775425,4617.7,147.8214133126395,89.07142761775425,4723.4,147.8214133126395,89.07142761775425,4827.4,147.8214133126395,89.07142761775425,4931]","[1435.1,1435.1,1000,0,435.1,""smooth"",""up"",""up"",""good_move"",4347.3,2911.7,2515.3,1435.6,396.4,""smooth"",""up"",""up"",""good_move"",10094.7,5747,2145.2,7585.6,363.9,""smooth"",""up"",""up"",""good_move"",12663.6,2568.6,2145.4,10095,423.2,""oops"",""left"",""left"",""good_move"",18327.7,5663.4,2208.1,15726.3,393.3,""smooth"",""left"",""left"",""good_move"",21100.7,2772.7,2381.4,18328,391.3,""smooth"",""left"",""left"",""good_move""]"
"3692","","<div style=""width:500px;"">
  <p>What determined the result of this run?</p>
  </div>","100","html-slider-response","34","473282","0.0-7.0-1.4","147","1","2025-08-06 08:57:31","36c45c0696341be0efffe67d72a12abb","41.150.227.132","Mozilla/5.0 (Windows NT 10.0; Win64; x64) AppleWebKit/537.36 (KHTML, like Gecko) Chrome/139.0.0.0 Safari/537.36","WebKit","Chrome","139.0.0.0","Windows","10.0","https://app.prolific.com/","en-GB,en-US;q=0.9,en;q=0.8","5a9aa66a35237b000112937b","6877649eabb845cf142cd221","689318e988339489bc929408","1","5a9aa66a35237b000112937b","1","2025-08-06T09:05:30.506Z","","","","AttribQ","","","","","","","","","","","50","","","","","","","","","","","","","","","","","","","","","","","","","","",""
"2910","","<div style=""width:500px;"">
  <p>How much control did you have over the ball?</p>
  </div>","100","html-slider-response","35","476194","0.0-7.0-2.4","147","1","2025-08-06 08:57:31","36c45c0696341be0efffe67d72a12abb","41.150.227.132","Mozilla/5.0 (Windows NT 10.0; Win64; x64) AppleWebKit/537.36 (KHTML, like Gecko) Chrome/139.0.0.0 Safari/537.36","WebKit","Chrome","139.0.0.0","Windows","10.0","https://app.prolific.com/","en-GB,en-US;q=0.9,en;q=0.8","5a9aa66a35237b000112937b","6877649eabb845cf142cd221","689318e988339489bc929408","1","5a9aa66a35237b000112937b","1","2025-08-06T09:05:33.418Z","","","","ControlQ","","","","","","","","","","","50","","","","","","","","","","","","","","","","","","","","","","","","","","",""
"2198","","<div style=""width:500px;"">
  <p>How would you describe your current emotional state?</p>
  </div>","0","html-slider-response","36","478393","0.0-7.0-3.4","147","1","2025-08-06 08:57:31","36c45c0696341be0efffe67d72a12abb","41.150.227.132","Mozilla/5.0 (Windows NT 10.0; Win64; x64) AppleWebKit/537.36 (KHTML, like Gecko) Chrome/139.0.0.0 Safari/537.36","WebKit","Chrome","139.0.0.0","Windows","10.0","https://app.prolific.com/","en-GB,en-US;q=0.9,en;q=0.8","5a9aa66a35237b000112937b","6877649eabb845cf142cd221","689318e988339489bc929408","1","5a9aa66a35237b000112937b","1","2025-08-06T09:05:35.617Z","","","","StressQ","","","","","","","","","","","50","","","","","","","","","","","","","","","","","","","","","","","","","","",""
"2343","","<div style=""width:500px;"">
  <p>What best describes how you currently feel?</p>
  </div>","100","html-slider-response","37","480738","0.0-7.0-4.4","147","1","2025-08-06 08:57:31","36c45c0696341be0efffe67d72a12abb","41.150.227.132","Mozilla/5.0 (Windows NT 10.0; Win64; x64) AppleWebKit/537.36 (KHTML, like Gecko) Chrome/139.0.0.0 Safari/537.36","WebKit","Chrome","139.0.0.0","Windows","10.0","https://app.prolific.com/","en-GB,en-US;q=0.9,en;q=0.8","5a9aa66a35237b000112937b","6877649eabb845cf142cd221","689318e988339489bc929408","1","5a9aa66a35237b000112937b","1","2025-08-06T09:05:37.962Z","","","","MotivationQ","","","","","","","","","","","50","","","","","","","","","","","","","","","","","","","","","","","","","","",""
"","","","","ctl-task-cpt","38","525837","0.0-7.0-0.5","147","1","2025-08-06 08:57:31","36c45c0696341be0efffe67d72a12abb","41.150.227.132","Mozilla/5.0 (Windows NT 10.0; Win64; x64) AppleWebKit/537.36 (KHTML, like Gecko) Chrome/139.0.0.0 Safari/537.36","WebKit","Chrome","139.0.0.0","Windows","10.0","https://app.prolific.com/","en-GB,en-US;q=0.9,en;q=0.8","5a9aa66a35237b000112937b","6877649eabb845cf142cd221","689318e988339489bc929408","1","5a9aa66a35237b000112937b","1","2025-08-06T09:06:23.061Z","","","","","","","","","","","","","","","","win-only","2","g1:SE,g2:NW","0.5","6","0","491262.1","901.5","5904.5","42090.9","1","4","4","6","2","4","3","34","31","0.25757575757575757","792.6","3000","135","[""left"",""up""]","{""num_key_presses"":11,""num_perfect"":5,""num_errors"":1,""num_randdir"":5,""num_randdir_good_moves"":3,""num_whilered"":0,""num_whileblue"":0,""num_blue"":2,""num_good_moves"":8}","[414.0714133126395,410.32142761775424,0.4,414.0714133126395,410.32142761775424,108.9,414.0714133126395,410.32142761775424,209.3,415.3214133126395,410.32142761775424,312.9,280.3214133126395,197.82142761775424,415.3,174.0714133126395,117.82142761775425,518.5,154.0714133126395,111.57142761775425,619.7,66.5714133126395,75.32142761775425,726.6,66.5714133126395,75.32142761775425,833.3,66.5714133126395,75.32142761775425,933.6,66.5714133126395,75.32142761775425,1033.9,66.5714133126395,75.32142761775425,1136.9,66.5714133126395,75.32142761775425,1237.2,66.5714133126395,75.32142761775425,1337.9,66.5714133126395,75.32142761775425,1444.5,66.5714133126395,75.32142761775425,1545.7,66.5714133126395,75.32142761775425,1646.2,66.5714133126395,75.32142761775425,1753.4,66.5714133126395,75.32142761775425,1859.6,66.5714133126395,75.32142761775425,1960.7,66.5714133126395,75.32142761775425,2061.7,66.5714133126395,75.32142761775425,2163.3,66.5714133126395,75.32142761775425,2263.9,66.5714133126395,75.32142761775425,2375.4,66.5714133126395,75.32142761775425,2479.7,66.5714133126395,75.32142761775425,2592.8,66.5714133126395,75.32142761775425,2694.8,66.5714133126395,75.32142761775425,2810.2,66.5714133126395,75.32142761775425,2921.9,66.5714133126395,75.32142761775425,3027.9,66.5714133126395,75.32142761775425,3132,66.5714133126395,75.32142761775425,3236.2,66.5714133126395,75.32142761775425,3337,66.5714133126395,75.32142761775425,3438.4,66.5714133126395,75.32142761775425,3546,66.5714133126395,75.32142761775425,3651.6,66.5714133126395,75.32142761775425,3753.3,66.5714133126395,75.32142761775425,3856,66.5714133126395,75.32142761775425,3961.9,66.5714133126395,75.32142761775425,4065.5,66.5714133126395,75.32142761775425,4171.1,66.5714133126395,75.32142761775425,4277.7,66.5714133126395,75.32142761775425,4377.8,66.5714133126395,75.32142761775425,4485.2,66.5714133126395,75.32142761775425,4589.6,66.5714133126395,75.32142761775425,4690.9,66.5714133126395,75.32142761775425,4796.7,66.5714133126395,75.32142761775425,4909]","[1434.7,1434.7,1000,0,434.8,""smooth"",""up"",""up"",""good_move"",4742.6,3307.2,2896.4,1435.4,410.8,""smooth"",""up"",""up"",""good_move"",7641.6,2898.7,2486.8,4742.9,411.9,""oops"",""up"",""up"",""good_move"",10060.6,2418.7,2059.3,7641.9,359.4,""oops"",""left"",""left"",""good_move"",13454.4,3393.2,3006.5,10061.2,386.7,""oops"",""left"",""right"",""bad_move"",16358.1,2903.2,2515.8,13454.9,387.4,""oops"",""left"",""right"",""bad_move"",16526.7,168.2,2621.7,16358.5,-2453.5,""error"",""-"",""-"",""no_move"",21012.3,4485.2,3053.5,17534.1,424.7,""smooth"",""left"",""left"",""good_move"",23322.2,2309.4,1896.2,21012.8,413.2,""smooth"",""left"",""left"",""good_move"",25630.3,2307.7,1888.4,23322.6,419.3,""smooth"",""left"",""left"",""good_move"",36036.5,10405.9,2547.9,33050.5,438.1,""oops"",""left"",""left"",""good_move""]"
"2588","","<div style=""width:500px;"">
  <p>What determined the result of this run?</p>
  </div>","100","html-slider-response","39","528427","0.0-7.0-1.5","147","1","2025-08-06 08:57:31","36c45c0696341be0efffe67d72a12abb","41.150.227.132","Mozilla/5.0 (Windows NT 10.0; Win64; x64) AppleWebKit/537.36 (KHTML, like Gecko) Chrome/139.0.0.0 Safari/537.36","WebKit","Chrome","139.0.0.0","Windows","10.0","https://app.prolific.com/","en-GB,en-US;q=0.9,en;q=0.8","5a9aa66a35237b000112937b","6877649eabb845cf142cd221","689318e988339489bc929408","1","5a9aa66a35237b000112937b","1","2025-08-06T09:06:25.651Z","","","","AttribQ","","","","","","","","","","","50","","","","","","","","","","","","","","","","","","","","","","","","","","",""
"3311","","<div style=""width:500px;"">
  <p>How much control did you have over the ball?</p>
  </div>","94","html-slider-response","40","531739","0.0-7.0-2.5","147","1","2025-08-06 08:57:31","36c45c0696341be0efffe67d72a12abb","41.150.227.132","Mozilla/5.0 (Windows NT 10.0; Win64; x64) AppleWebKit/537.36 (KHTML, like Gecko) Chrome/139.0.0.0 Safari/537.36","WebKit","Chrome","139.0.0.0","Windows","10.0","https://app.prolific.com/","en-GB,en-US;q=0.9,en;q=0.8","5a9aa66a35237b000112937b","6877649eabb845cf142cd221","689318e988339489bc929408","1","5a9aa66a35237b000112937b","1","2025-08-06T09:06:28.964Z","","","","ControlQ","","","","","","","","","","","50","","","","","","","","","","","","","","","","","","","","","","","","","","",""
"2238","","<div style=""width:500px;"">
  <p>How would you describe your current emotional state?</p>
  </div>","0","html-slider-response","41","533979","0.0-7.0-3.5","147","1","2025-08-06 08:57:31","36c45c0696341be0efffe67d72a12abb","41.150.227.132","Mozilla/5.0 (Windows NT 10.0; Win64; x64) AppleWebKit/537.36 (KHTML, like Gecko) Chrome/139.0.0.0 Safari/537.36","WebKit","Chrome","139.0.0.0","Windows","10.0","https://app.prolific.com/","en-GB,en-US;q=0.9,en;q=0.8","5a9aa66a35237b000112937b","6877649eabb845cf142cd221","689318e988339489bc929408","1","5a9aa66a35237b000112937b","1","2025-08-06T09:06:31.203Z","","","","StressQ","","","","","","","","","","","50","","","","","","","","","","","","","","","","","","","","","","","","","","",""
"2702","","<div style=""width:500px;"">
  <p>What best describes how you currently feel?</p>
  </div>","100","html-slider-response","42","536683","0.0-7.0-4.5","147","1","2025-08-06 08:57:31","36c45c0696341be0efffe67d72a12abb","41.150.227.132","Mozilla/5.0 (Windows NT 10.0; Win64; x64) AppleWebKit/537.36 (KHTML, like Gecko) Chrome/139.0.0.0 Safari/537.36","WebKit","Chrome","139.0.0.0","Windows","10.0","https://app.prolific.com/","en-GB,en-US;q=0.9,en;q=0.8","5a9aa66a35237b000112937b","6877649eabb845cf142cd221","689318e988339489bc929408","1","5a9aa66a35237b000112937b","1","2025-08-06T09:06:33.907Z","","","","MotivationQ","","","","","","","","","","","50","","","","","","","","","","","","","","","","","","","","","","","","","","",""
"","","","","ctl-task-cpt","43","576438","0.0-7.0-0.6","147","1","2025-08-06 08:57:31","36c45c0696341be0efffe67d72a12abb","41.150.227.132","Mozilla/5.0 (Windows NT 10.0; Win64; x64) AppleWebKit/537.36 (KHTML, like Gecko) Chrome/139.0.0.0 Safari/537.36","WebKit","Chrome","139.0.0.0","Windows","10.0","https://app.prolific.com/","en-GB,en-US;q=0.9,en;q=0.8","5a9aa66a35237b000112937b","6877649eabb845cf142cd221","689318e988339489bc929408","1","5a9aa66a35237b000112937b","1","2025-08-06T09:07:13.662Z","","","","","","","","","","","","","","","","win-only","0","g1:NW,g2:SE","0.4","7","0","547207.9","853.5","5859.7","36734.3","1","4","4","6","2","4","4","38","34","0.2878787878787879","1095.7","3000","205","[""down"",""right""]","{""num_key_presses"":10,""num_perfect"":4,""num_errors"":0,""num_randdir"":6,""num_randdir_good_moves"":4,""num_whilered"":0,""num_whileblue"":0,""num_blue"":1,""num_good_moves"":8}","[422.8214133126395,414.07142761775424,0.4,422.8214133126395,414.07142761775424,108.7,422.8214133126395,414.07142761775424,208.7,421.5714133126395,405.32142761775424,309.3,226.5714133126395,240.32142761775424,416,181.5714133126395,206.57142761775424,520.3,522.8214133126395,575.3214276177542,624.8,586.5714133126395,676.5714276177542,733.4,600.3214133126395,701.5714276177542,839,676.5714133126395,769.0714276177542,940.8,726.5714133126395,744.0714276177542,1043.1,726.5714133126395,741.5714276177542,1148.1,726.5714133126395,741.5714276177542,1249.8,726.5714133126395,741.5714276177542,1354.9,726.5714133126395,741.5714276177542,1457.1,726.5714133126395,741.5714276177542,1557.1,726.5714133126395,741.5714276177542,1666.7,726.5714133126395,741.5714276177542,1770.7,726.5714133126395,741.5714276177542,1881.2,726.5714133126395,741.5714276177542,1984.4,726.5714133126395,741.5714276177542,2084.5,726.5714133126395,741.5714276177542,2191.4,726.5714133126395,741.5714276177542,2293.4,726.5714133126395,741.5714276177542,2397.7,726.5714133126395,741.5714276177542,2503.2,726.5714133126395,741.5714276177542,2605,726.5714133126395,741.5714276177542,2714.9,726.5714133126395,741.5714276177542,2822.8,726.5714133126395,741.5714276177542,2927.9,726.5714133126395,741.5714276177542,3030.4,726.5714133126395,741.5714276177542,3133.8,726.5714133126395,741.5714276177542,3234.9,726.5714133126395,741.5714276177542,3347.7,726.5714133126395,741.5714276177542,3448.6,726.5714133126395,741.5714276177542,3563.9,726.5714133126395,741.5714276177542,3664.8,726.5714133126395,741.5714276177542,3767.8,726.5714133126395,741.5714276177542,3874.4,726.5714133126395,741.5714276177542,3975.9,726.5714133126395,741.5714276177542,4077.9,726.5714133126395,741.5714276177542,4183.7,726.5714133126395,741.5714276177542,4288.3,726.5714133126395,741.5714276177542,4392.8,726.5714133126395,741.5714276177542,4494.5,726.5714133126395,741.5714276177542,4598.7,726.5714133126395,741.5714276177542,4699.6,726.5714133126395,741.5714276177542,4805.6,726.5714133126395,741.5714276177542,4906.4]","[1458.2,1458.2,1000,0,458.2,""oops"",""right"",""up"",""bad_move"",4557.1,3097.9,2654,1459.2,443.9,""smooth"",""right"",""right"",""good_move"",8136.5,3579,3210,4557.6,369,""oops"",""right"",""down"",""good_move"",10635.9,2498.6,2107.6,8137.3,391,""oops"",""right"",""up"",""bad_move"",13078.2,2442,2069.6,10636.2,372.4,""smooth"",""right"",""right"",""good_move"",14989.7,1911.2,1538.4,13078.5,372.8,""smooth"",""right"",""right"",""good_move"",17623,2632.9,2203.5,14990.1,429.4,""oops"",""down"",""down"",""good_move"",21240.9,3617.4,3258.8,17623.5,358.6,""oops"",""down"",""down"",""good_move"",27423,6181.7,1865.1,25056.3,501.6,""smooth"",""down"",""down"",""good_move"",30747.4,3323.9,2894,27423.5,429.9,""oops"",""down"",""down"",""good_move""]"
"3661","","<div style=""width:500px;"">
  <p>What determined the result of this run?</p>
  </div>","98","html-slider-response","44","580100","0.0-7.0-1.6","147","1","2025-08-06 08:57:31","36c45c0696341be0efffe67d72a12abb","41.150.227.132","Mozilla/5.0 (Windows NT 10.0; Win64; x64) AppleWebKit/537.36 (KHTML, like Gecko) Chrome/139.0.0.0 Safari/537.36","WebKit","Chrome","139.0.0.0","Windows","10.0","https://app.prolific.com/","en-GB,en-US;q=0.9,en;q=0.8","5a9aa66a35237b000112937b","6877649eabb845cf142cd221","689318e988339489bc929408","1","5a9aa66a35237b000112937b","1","2025-08-06T09:07:17.325Z","","","","AttribQ","","","","","","","","","","","50","","","","","","","","","","","","","","","","","","","","","","","","","","",""
"3910","","<div style=""width:500px;"">
  <p>How much control did you have over the ball?</p>
  </div>","90","html-slider-response","45","584012","0.0-7.0-2.6","147","1","2025-08-06 08:57:31","36c45c0696341be0efffe67d72a12abb","41.150.227.132","Mozilla/5.0 (Windows NT 10.0; Win64; x64) AppleWebKit/537.36 (KHTML, like Gecko) Chrome/139.0.0.0 Safari/537.36","WebKit","Chrome","139.0.0.0","Windows","10.0","https://app.prolific.com/","en-GB,en-US;q=0.9,en;q=0.8","5a9aa66a35237b000112937b","6877649eabb845cf142cd221","689318e988339489bc929408","1","5a9aa66a35237b000112937b","1","2025-08-06T09:07:21.237Z","","","","ControlQ","","","","","","","","","","","50","","","","","","","","","","","","","","","","","","","","","","","","","","",""
"2870","","<div style=""width:500px;"">
  <p>How would you describe your current emotional state?</p>
  </div>","0","html-slider-response","46","586884","0.0-7.0-3.6","147","1","2025-08-06 08:57:31","36c45c0696341be0efffe67d72a12abb","41.150.227.132","Mozilla/5.0 (Windows NT 10.0; Win64; x64) AppleWebKit/537.36 (KHTML, like Gecko) Chrome/139.0.0.0 Safari/537.36","WebKit","Chrome","139.0.0.0","Windows","10.0","https://app.prolific.com/","en-GB,en-US;q=0.9,en;q=0.8","5a9aa66a35237b000112937b","6877649eabb845cf142cd221","689318e988339489bc929408","1","5a9aa66a35237b000112937b","1","2025-08-06T09:07:24.109Z","","","","StressQ","","","","","","","","","","","50","","","","","","","","","","","","","","","","","","","","","","","","","","",""
"2398","","<div style=""width:500px;"">
  <p>What best describes how you currently feel?</p>
  </div>","100","html-slider-response","47","589285","0.0-7.0-4.6","147","1","2025-08-06 08:57:31","36c45c0696341be0efffe67d72a12abb","41.150.227.132","Mozilla/5.0 (Windows NT 10.0; Win64; x64) AppleWebKit/537.36 (KHTML, like Gecko) Chrome/139.0.0.0 Safari/537.36","WebKit","Chrome","139.0.0.0","Windows","10.0","https://app.prolific.com/","en-GB,en-US;q=0.9,en;q=0.8","5a9aa66a35237b000112937b","6877649eabb845cf142cd221","689318e988339489bc929408","1","5a9aa66a35237b000112937b","1","2025-08-06T09:07:26.509Z","","","","MotivationQ","","","","","","","","","","","50","","","","","","","","","","","","","","","","","","","","","","","","","","",""
"","","","","ctl-task-cpt","48","651905","0.0-7.0-0.7","147","1","2025-08-06 08:57:31","36c45c0696341be0efffe67d72a12abb","41.150.227.132","Mozilla/5.0 (Windows NT 10.0; Win64; x64) AppleWebKit/537.36 (KHTML, like Gecko) Chrome/139.0.0.0 Safari/537.36","WebKit","Chrome","139.0.0.0","Windows","10.0","https://app.prolific.com/","en-GB,en-US;q=0.9,en;q=0.8","5a9aa66a35237b000112937b","6877649eabb845cf142cd221","689318e988339489bc929408","1","5a9aa66a35237b000112937b","1","2025-08-06T09:08:29.129Z","","","","","","","","","","","","","","","","win-only","0","g1:NW,g2:SE","0.3","8","0","599808.9","950.7","5955.4","59593.7","1","4","8","6","2","-8","-8","30","38","0.22727272727272727","1318.6","3000","-2000","[""down"",""right""]","{""num_key_presses"":10,""num_perfect"":3,""num_errors"":0,""num_randdir"":7,""num_randdir_good_moves"":4,""num_whilered"":0,""num_whileblue"":0,""num_blue"":6,""num_good_moves"":7}","[417.8214133126395,424.07142761775424,0.2,417.8214133126395,424.07142761775424,101.5,417.8214133126395,424.07142761775424,202.6,417.8214133126395,424.07142761775424,311.7,421.5714133126395,425.32142761775424,419.5,429.0714133126395,431.57142761775424,520.4,434.0714133126395,425.32142761775424,629.2,441.5714133126395,469.07142761775424,736.9,566.5714133126395,716.5714276177542,841.8,636.5714133126395,756.5714276177542,946.3,675.3214133126395,806.5714276177542,1053,759.0714133126395,756.5714276177542,1157.6,737.8214133126395,756.5714276177542,1263.3,725.3214133126395,756.5714276177542,1365.2,725.3214133126395,756.5714276177542,1465.5,725.3214133126395,756.5714276177542,1565.8,725.3214133126395,756.5714276177542,1667.7,717.8214133126395,745.3214276177542,1775.6,711.5714133126395,729.0714276177542,1879,711.5714133126395,729.0714276177542,1985.9,754.0714133126395,742.8214276177542,2086.1,757.8214133126395,742.8214276177542,2190.3,757.8214133126395,742.8214276177542,2290.8,757.8214133126395,742.8214276177542,2393.5,757.8214133126395,742.8214276177542,2495.6,757.8214133126395,742.8214276177542,2596.7,757.8214133126395,742.8214276177542,2702.2,757.8214133126395,742.8214276177542,2803.3,757.8214133126395,742.8214276177542,2913,757.8214133126395,742.8214276177542,3019.2,757.8214133126395,742.8214276177542,3124.2,757.8214133126395,742.8214276177542,3229.6,757.8214133126395,742.8214276177542,3334.6,757.8214133126395,742.8214276177542,3436.3,757.8214133126395,742.8214276177542,3539.8,757.8214133126395,742.8214276177542,3645.7,757.8214133126395,742.8214276177542,3752.3,757.8214133126395,742.8214276177542,3857.7,757.8214133126395,742.8214276177542,3961.9,757.8214133126395,742.8214276177542,4069.7,757.8214133126395,742.8214276177542,4171.4,757.8214133126395,742.8214276177542,4279.8,757.8214133126395,742.8214276177542,4384.1,757.8214133126395,742.8214276177542,4486.8,757.8214133126395,742.8214276177542,4589.6,757.8214133126395,742.8214276177542,4693.3,757.8214133126395,742.8214276177542,4796.5,757.8214133126395,742.8214276177542,4901.4]","[1420.8,1420.8,1000,0,420.8,""smooth"",""right"",""right"",""good_move"",3820.7,2399,2014.7,1421.7,384.3,""oops"",""right"",""up"",""bad_move"",10827.7,7006.2,2244.5,8032,551.3,""smooth"",""right"",""right"",""good_move"",14332.4,3503.8,3106.1,10828.6,397.8,""oops"",""right"",""down"",""good_move"",17697.3,3364.3,2943.6,14333,420.7,""oops"",""right"",""down"",""good_move"",21291.5,3593.9,3150.9,17697.7,443,""oops"",""right"",""left"",""bad_move"",24263.3,2970.9,2625.6,21292.4,345.3,""oops"",""right"",""right"",""good_move"",34028.6,9764.8,2673,30968.1,387.5,""smooth"",""right"",""right"",""good_move"",47208.2,13179,2791.8,43966.7,449.7,""oops"",""down"",""down"",""good_move"",50414.7,3205.7,2756.6,47209,449.1,""oops"",""down"",""up"",""bad_move""]"
"4367","","<div style=""width:500px;"">
  <p>What determined the result of this run?</p>
  </div>","36","html-slider-response","49","656273","0.0-7.0-1.7","147","1","2025-08-06 08:57:31","36c45c0696341be0efffe67d72a12abb","41.150.227.132","Mozilla/5.0 (Windows NT 10.0; Win64; x64) AppleWebKit/537.36 (KHTML, like Gecko) Chrome/139.0.0.0 Safari/537.36","WebKit","Chrome","139.0.0.0","Windows","10.0","https://app.prolific.com/","en-GB,en-US;q=0.9,en;q=0.8","5a9aa66a35237b000112937b","6877649eabb845cf142cd221","689318e988339489bc929408","1","5a9aa66a35237b000112937b","1","2025-08-06T09:08:33.497Z","","","","AttribQ","","","","","","","","","","","50","","","","","","","","","","","","","","","","","","","","","","","","","","",""
"3196","","<div style=""width:500px;"">
  <p>How much control did you have over the ball?</p>
  </div>","39","html-slider-response","50","659471","0.0-7.0-2.7","147","1","2025-08-06 08:57:31","36c45c0696341be0efffe67d72a12abb","41.150.227.132","Mozilla/5.0 (Windows NT 10.0; Win64; x64) AppleWebKit/537.36 (KHTML, like Gecko) Chrome/139.0.0.0 Safari/537.36","WebKit","Chrome","139.0.0.0","Windows","10.0","https://app.prolific.com/","en-GB,en-US;q=0.9,en;q=0.8","5a9aa66a35237b000112937b","6877649eabb845cf142cd221","689318e988339489bc929408","1","5a9aa66a35237b000112937b","1","2025-08-06T09:08:36.695Z","","","","ControlQ","","","","","","","","","","","50","","","","","","","","","","","","","","","","","","","","","","","","","","",""
"3647","","<div style=""width:500px;"">
  <p>How would you describe your current emotional state?</p>
  </div>","0","html-slider-response","51","663120","0.0-7.0-3.7","147","1","2025-08-06 08:57:31","36c45c0696341be0efffe67d72a12abb","41.150.227.132","Mozilla/5.0 (Windows NT 10.0; Win64; x64) AppleWebKit/537.36 (KHTML, like Gecko) Chrome/139.0.0.0 Safari/537.36","WebKit","Chrome","139.0.0.0","Windows","10.0","https://app.prolific.com/","en-GB,en-US;q=0.9,en;q=0.8","5a9aa66a35237b000112937b","6877649eabb845cf142cd221","689318e988339489bc929408","1","5a9aa66a35237b000112937b","1","2025-08-06T09:08:40.344Z","","","","StressQ","","","","","","","","","","","50","","","","","","","","","","","","","","","","","","","","","","","","","","",""
"2110","","<div style=""width:500px;"">
  <p>What best describes how you currently feel?</p>
  </div>","100","html-slider-response","52","665231","0.0-7.0-4.7","147","1","2025-08-06 08:57:31","36c45c0696341be0efffe67d72a12abb","41.150.227.132","Mozilla/5.0 (Windows NT 10.0; Win64; x64) AppleWebKit/537.36 (KHTML, like Gecko) Chrome/139.0.0.0 Safari/537.36","WebKit","Chrome","139.0.0.0","Windows","10.0","https://app.prolific.com/","en-GB,en-US;q=0.9,en;q=0.8","5a9aa66a35237b000112937b","6877649eabb845cf142cd221","689318e988339489bc929408","1","5a9aa66a35237b000112937b","1","2025-08-06T09:08:42.455Z","","","","MotivationQ","","","","","","","","","","","50","","","","","","","","","","","","","","","","","","","","","","","","","","",""
"","","","","ctl-task-cpt","53","714818","0.0-7.0-0.8","147","1","2025-08-06 08:57:31","36c45c0696341be0efffe67d72a12abb","41.150.227.132","Mozilla/5.0 (Windows NT 10.0; Win64; x64) AppleWebKit/537.36 (KHTML, like Gecko) Chrome/139.0.0.0 Safari/537.36","WebKit","Chrome","139.0.0.0","Windows","10.0","https://app.prolific.com/","en-GB,en-US;q=0.9,en;q=0.8","5a9aa66a35237b000112937b","6877649eabb845cf142cd221","689318e988339489bc929408","1","5a9aa66a35237b000112937b","1","2025-08-06T09:09:32.042Z","","","","","","","","","","","","","","","","win-only","0","g1:NW,g2:SE","0.4","9","0","675755.6","1318.3","6320.6","46575.2","1","4","8","6","2","-8","-8","22","30","0.16666666666666666","919.1","3000","-2060","[""down"",""right""]","{""num_key_presses"":11,""num_perfect"":5,""num_errors"":0,""num_randdir"":6,""num_randdir_good_moves"":2,""num_whilered"":0,""num_whileblue"":0,""num_blue"":2,""num_good_moves"":7}","[424.0714133126395,412.82142761775424,0.4,424.0714133126395,412.82142761775424,101.8,424.0714133126395,412.82142761775424,207.4,424.0714133126395,412.82142761775424,307.6,419.0714133126395,411.57142761775424,417.8,639.0714133126395,586.5714276177542,522.2,691.5714133126395,671.5714276177542,623.3,702.8214133126395,696.5714276177542,726.3,759.0714133126395,742.8214276177542,829.3,776.5714133126395,752.8214276177542,933.1,776.5714133126395,752.8214276177542,1035,776.5714133126395,752.8214276177542,1136.4,776.5714133126395,752.8214276177542,1244,777.8214133126395,752.8214276177542,1348.2,777.8214133126395,752.8214276177542,1458.3,777.8214133126395,752.8214276177542,1573.1,777.8214133126395,752.8214276177542,1690.8,777.8214133126395,752.8214276177542,1791.4,777.8214133126395,752.8214276177542,1892,777.8214133126395,752.8214276177542,1992.5,777.8214133126395,752.8214276177542,2092.8,777.8214133126395,752.8214276177542,2197.9,777.8214133126395,752.8214276177542,2298.2,777.8214133126395,752.8214276177542,2401.7,777.8214133126395,752.8214276177542,2507.5,777.8214133126395,752.8214276177542,2614.6,777.8214133126395,752.8214276177542,2718,777.8214133126395,752.8214276177542,2819.3,777.8214133126395,752.8214276177542,2922.9,777.8214133126395,752.8214276177542,3026,777.8214133126395,752.8214276177542,3128,777.8214133126395,752.8214276177542,3229.9,777.8214133126395,752.8214276177542,3340.5,777.8214133126395,752.8214276177542,3440.8,777.8214133126395,752.8214276177542,3556.8,777.8214133126395,752.8214276177542,3659.3,777.8214133126395,752.8214276177542,3767.3,777.8214133126395,752.8214276177542,3869.8,777.8214133126395,752.8214276177542,3973.6,777.8214133126395,752.8214276177542,4075.4,777.8214133126395,752.8214276177542,4177.6,777.8214133126395,752.8214276177542,4278.4,777.8214133126395,752.8214276177542,4389.4,777.8214133126395,752.8214276177542,4502.2,777.8214133126395,752.8214276177542,4608.4,777.8214133126395,752.8214276177542,4720,777.8214133126395,752.8214276177542,4830.2,777.8214133126395,752.8214276177542,4935]","[1414.8,1414.8,1000,0,414.9,""oops"",""down"",""left"",""bad_move"",3915.6,2500.1,2106,1415.5,394.1,""smooth"",""down"",""down"",""good_move"",6826.3,2909.6,2520.7,3916.7,388.9,""oops"",""down"",""right"",""good_move"",13622.9,6796,2440.9,10764.4,417.6,""smooth"",""down"",""down"",""good_move"",17197.7,3574,3184.5,13623.7,389.5,""oops"",""down"",""up"",""bad_move"",19919.7,2721.3,2330.9,17198.4,390.4,""oops"",""down"",""left"",""bad_move"",22624.6,2704.4,2381.2,19920.2,323.2,""smooth"",""down"",""down"",""good_move"",25018.2,2393.1,2045.8,22625.1,347.3,""oops"",""down"",""left"",""bad_move"",27285.5,2266.7,1896.9,25018.9,369.7,""oops"",""down"",""down"",""good_move"",30202.9,2917,2521.7,27285.9,395.3,""smooth"",""right"",""right"",""good_move"",36973.3,6769.7,2511.5,34122.2,339.6,""smooth"",""right"",""right"",""good_move""]"
"3397","","<div style=""width:500px;"">
  <p>What determined the result of this run?</p>
  </div>","13","html-slider-response","54","718216","0.0-7.0-1.8","147","1","2025-08-06 08:57:31","36c45c0696341be0efffe67d72a12abb","41.150.227.132","Mozilla/5.0 (Windows NT 10.0; Win64; x64) AppleWebKit/537.36 (KHTML, like Gecko) Chrome/139.0.0.0 Safari/537.36","WebKit","Chrome","139.0.0.0","Windows","10.0","https://app.prolific.com/","en-GB,en-US;q=0.9,en;q=0.8","5a9aa66a35237b000112937b","6877649eabb845cf142cd221","689318e988339489bc929408","1","5a9aa66a35237b000112937b","1","2025-08-06T09:09:35.440Z","","","","AttribQ","","","","","","","","","","","50","","","","","","","","","","","","","","","","","","","","","","","","","","",""
"3528","","<div style=""width:500px;"">
  <p>How much control did you have over the ball?</p>
  </div>","2","html-slider-response","55","721746","0.0-7.0-2.8","147","1","2025-08-06 08:57:31","36c45c0696341be0efffe67d72a12abb","41.150.227.132","Mozilla/5.0 (Windows NT 10.0; Win64; x64) AppleWebKit/537.36 (KHTML, like Gecko) Chrome/139.0.0.0 Safari/537.36","WebKit","Chrome","139.0.0.0","Windows","10.0","https://app.prolific.com/","en-GB,en-US;q=0.9,en;q=0.8","5a9aa66a35237b000112937b","6877649eabb845cf142cd221","689318e988339489bc929408","1","5a9aa66a35237b000112937b","1","2025-08-06T09:09:38.970Z","","","","ControlQ","","","","","","","","","","","50","","","","","","","","","","","","","","","","","","","","","","","","","","",""
"3221","","<div style=""width:500px;"">
  <p>How would you describe your current emotional state?</p>
  </div>","0","html-slider-response","56","724968","0.0-7.0-3.8","147","1","2025-08-06 08:57:31","36c45c0696341be0efffe67d72a12abb","41.150.227.132","Mozilla/5.0 (Windows NT 10.0; Win64; x64) AppleWebKit/537.36 (KHTML, like Gecko) Chrome/139.0.0.0 Safari/537.36","WebKit","Chrome","139.0.0.0","Windows","10.0","https://app.prolific.com/","en-GB,en-US;q=0.9,en;q=0.8","5a9aa66a35237b000112937b","6877649eabb845cf142cd221","689318e988339489bc929408","1","5a9aa66a35237b000112937b","1","2025-08-06T09:09:42.193Z","","","","StressQ","","","","","","","","","","","50","","","","","","","","","","","","","","","","","","","","","","","","","","",""
"1935","","<div style=""width:500px;"">
  <p>What best describes how you currently feel?</p>
  </div>","100","html-slider-response","57","726905","0.0-7.0-4.8","147","1","2025-08-06 08:57:31","36c45c0696341be0efffe67d72a12abb","41.150.227.132","Mozilla/5.0 (Windows NT 10.0; Win64; x64) AppleWebKit/537.36 (KHTML, like Gecko) Chrome/139.0.0.0 Safari/537.36","WebKit","Chrome","139.0.0.0","Windows","10.0","https://app.prolific.com/","en-GB,en-US;q=0.9,en;q=0.8","5a9aa66a35237b000112937b","6877649eabb845cf142cd221","689318e988339489bc929408","1","5a9aa66a35237b000112937b","1","2025-08-06T09:09:44.129Z","","","","MotivationQ","","","","","","","","","","","50","","","","","","","","","","","","","","","","","","","","","","","","","","",""
"","","","","ctl-task-cpt","58","755946","0.0-7.0-0.9","147","1","2025-08-06 08:57:31","36c45c0696341be0efffe67d72a12abb","41.150.227.132","Mozilla/5.0 (Windows NT 10.0; Win64; x64) AppleWebKit/537.36 (KHTML, like Gecko) Chrome/139.0.0.0 Safari/537.36","WebKit","Chrome","139.0.0.0","Windows","10.0","https://app.prolific.com/","en-GB,en-US;q=0.9,en;q=0.8","5a9aa66a35237b000112937b","6877649eabb845cf142cd221","689318e988339489bc929408","1","5a9aa66a35237b000112937b","1","2025-08-06T09:10:13.170Z","","","","","","","","","","","","","","","","win-only","1","g1:NE,g2:SW","0.5","10","0","737437.4","1069.8","6080.3","26011.2","1","4","4","6","2","4","4","26","22","0.19696969696969696","1470.9","3000","1385","[""down"",""left""]","{""num_key_presses"":6,""num_perfect"":1,""num_errors"":0,""num_randdir"":5,""num_randdir_good_moves"":5,""num_whilered"":0,""num_whileblue"":0,""num_blue"":1,""num_good_moves"":6}","[412.8214133126395,421.57142761775424,0.5,412.8214133126395,421.57142761775424,101.7,412.8214133126395,421.57142761775424,202.5,412.8214133126395,421.57142761775424,306.1,412.8214133126395,421.57142761775424,407.3,412.8214133126395,421.57142761775424,508.1,412.8214133126395,421.57142761775424,611.8,411.5714133126395,422.82142761775424,718.3,411.5714133126395,421.57142761775424,820.6,381.5714133126395,435.32142761775424,921.5,152.8214133126395,734.0714276177542,1032.5,141.5714133126395,751.5714276177542,1134.6,104.0714133126395,756.5714276177542,1236.7,94.0714133126395,756.5714276177542,1337.5,90.3214133126395,756.5714276177542,1441.4,90.3214133126395,756.5714276177542,1541.8,90.3214133126395,756.5714276177542,1644,90.3214133126395,756.5714276177542,1745.8,90.3214133126395,756.5714276177542,1852.7,90.3214133126395,756.5714276177542,1953.1,90.3214133126395,756.5714276177542,2058.9,90.3214133126395,756.5714276177542,2167.7,90.3214133126395,756.5714276177542,2273.5,90.3214133126395,756.5714276177542,2373.5,90.3214133126395,756.5714276177542,2484.1,90.3214133126395,756.5714276177542,2584.4,90.3214133126395,756.5714276177542,2684.4,90.3214133126395,756.5714276177542,2784.9,90.3214133126395,756.5714276177542,2888.4,90.3214133126395,756.5714276177542,2998.6,90.3214133126395,756.5714276177542,3101,90.3214133126395,756.5714276177542,3202.2,90.3214133126395,756.5714276177542,3308.5,90.3214133126395,756.5714276177542,3411,90.3214133126395,756.5714276177542,3517.4,90.3214133126395,756.5714276177542,3618.1,90.3214133126395,756.5714276177542,3722.9,90.3214133126395,756.5714276177542,3833.1,90.3214133126395,756.5714276177542,3936.7,90.3214133126395,756.5714276177542,4043.3,90.3214133126395,756.5714276177542,4151.8,90.3214133126395,756.5714276177542,4253.6,90.3214133126395,756.5714276177542,4354.8,90.3214133126395,756.5714276177542,4457,90.3214133126395,756.5714276177542,4558.8,90.3214133126395,756.5714276177542,4660.6,90.3214133126395,756.5714276177542,4761.9,90.3214133126395,756.5714276177542,4861.9,90.3214133126395,756.5714276177542,4971.1]","[5428.6,5428.6,3003.7,2002.3,422.6,""oops"",""left"",""left"",""good_move"",7836.4,2407.1,2014.3,5429.3,392.8,""oops"",""left"",""down"",""good_move"",11291.7,3454.7,3051.6,7837,403.1,""smooth"",""left"",""left"",""good_move"",14876,3584.1,3167.8,11292,416.3,""oops"",""left"",""down"",""good_move"",17361.8,2485.1,2074.9,14876.7,410.2,""oops"",""left"",""down"",""good_move"",19796.1,2434,2030,17362.1,404,""oops"",""left"",""left"",""good_move""]"
"2926","","<div style=""width:500px;"">
  <p>What determined the result of this run?</p>
  </div>","99","html-slider-response","59","758874","0.0-7.0-1.9","147","1","2025-08-06 08:57:31","36c45c0696341be0efffe67d72a12abb","41.150.227.132","Mozilla/5.0 (Windows NT 10.0; Win64; x64) AppleWebKit/537.36 (KHTML, like Gecko) Chrome/139.0.0.0 Safari/537.36","WebKit","Chrome","139.0.0.0","Windows","10.0","https://app.prolific.com/","en-GB,en-US;q=0.9,en;q=0.8","5a9aa66a35237b000112937b","6877649eabb845cf142cd221","689318e988339489bc929408","1","5a9aa66a35237b000112937b","1","2025-08-06T09:10:16.098Z","","","","AttribQ","","","","","","","","","","","50","","","","","","","","","","","","","","","","","","","","","","","","","","",""
"5078","","<div style=""width:500px;"">
  <p>How much control did you have over the ball?</p>
  </div>","97","html-slider-response","60","763954","0.0-7.0-2.9","147","1","2025-08-06 08:57:31","36c45c0696341be0efffe67d72a12abb","41.150.227.132","Mozilla/5.0 (Windows NT 10.0; Win64; x64) AppleWebKit/537.36 (KHTML, like Gecko) Chrome/139.0.0.0 Safari/537.36","WebKit","Chrome","139.0.0.0","Windows","10.0","https://app.prolific.com/","en-GB,en-US;q=0.9,en;q=0.8","5a9aa66a35237b000112937b","6877649eabb845cf142cd221","689318e988339489bc929408","1","5a9aa66a35237b000112937b","1","2025-08-06T09:10:21.178Z","","","","ControlQ","","","","","","","","","","","50","","","","","","","","","","","","","","","","","","","","","","","","","","",""
"1998","","<div style=""width:500px;"">
  <p>How would you describe your current emotional state?</p>
  </div>","0","html-slider-response","61","765954","0.0-7.0-3.9","147","1","2025-08-06 08:57:31","36c45c0696341be0efffe67d72a12abb","41.150.227.132","Mozilla/5.0 (Windows NT 10.0; Win64; x64) AppleWebKit/537.36 (KHTML, like Gecko) Chrome/139.0.0.0 Safari/537.36","WebKit","Chrome","139.0.0.0","Windows","10.0","https://app.prolific.com/","en-GB,en-US;q=0.9,en;q=0.8","5a9aa66a35237b000112937b","6877649eabb845cf142cd221","689318e988339489bc929408","1","5a9aa66a35237b000112937b","1","2025-08-06T09:10:23.178Z","","","","StressQ","","","","","","","","","","","50","","","","","","","","","","","","","","","","","","","","","","","","","","",""
"1846","","<div style=""width:500px;"">
  <p>What best describes how you currently feel?</p>
  </div>","100","html-slider-response","62","767801","0.0-7.0-4.9","147","1","2025-08-06 08:57:31","36c45c0696341be0efffe67d72a12abb","41.150.227.132","Mozilla/5.0 (Windows NT 10.0; Win64; x64) AppleWebKit/537.36 (KHTML, like Gecko) Chrome/139.0.0.0 Safari/537.36","WebKit","Chrome","139.0.0.0","Windows","10.0","https://app.prolific.com/","en-GB,en-US;q=0.9,en;q=0.8","5a9aa66a35237b000112937b","6877649eabb845cf142cd221","689318e988339489bc929408","1","5a9aa66a35237b000112937b","1","2025-08-06T09:10:25.026Z","","","","MotivationQ","","","","","","","","","","","50","","","","","","","","","","","","","","","","","","","","","","","","","","",""
"","","","","ctl-task-cpt","63","812259","0.0-7.0-0.10","147","1","2025-08-06 08:57:31","36c45c0696341be0efffe67d72a12abb","41.150.227.132","Mozilla/5.0 (Windows NT 10.0; Win64; x64) AppleWebKit/537.36 (KHTML, like Gecko) Chrome/139.0.0.0 Safari/537.36","WebKit","Chrome","139.0.0.0","Windows","10.0","https://app.prolific.com/","en-GB,en-US;q=0.9,en;q=0.8","5a9aa66a35237b000112937b","6877649eabb845cf142cd221","689318e988339489bc929408","1","5a9aa66a35237b000112937b","1","2025-08-06T09:11:09.483Z","","","","","","","","","","","","","","","","win-only","3","g1:SW,g2:NE","0.6","11","0","778325.9","934.3","5935.6","41431.3","1","4","4","6","2","-4","-4","22","26","0.16666666666666666","1111.7","3000","-2120","[""up"",""right""]","{""num_key_presses"":11,""num_perfect"":7,""num_errors"":0,""num_randdir"":4,""num_randdir_good_moves"":1,""num_whilered"":0,""num_whileblue"":0,""num_blue"":1,""num_good_moves"":8}","[416.5714133126395,415.32142761775424,0.4,416.5714133126395,415.32142761775424,105,417.8214133126395,415.32142761775424,207,417.8214133126395,415.32142761775424,307.5,417.8214133126395,415.32142761775424,412.6,417.8214133126395,415.32142761775424,523,532.8214133126395,290.32142761775424,627.7,650.3214133126395,160.32142761775424,736,666.5714133126395,111.57142761775425,837.6,674.0714133126395,96.57142761775425,943.3,714.0714133126395,91.57142761775425,1049.7,725.3214133126395,91.57142761775425,1151.6,725.3214133126395,91.57142761775425,1252.5,725.3214133126395,91.57142761775425,1353,725.3214133126395,91.57142761775425,1455.9,737.8214133126395,95.32142761775425,1565.5,737.8214133126395,95.32142761775425,1665.7,737.8214133126395,95.32142761775425,1769.2,737.8214133126395,95.32142761775425,1877.5,737.8214133126395,95.32142761775425,1984.4,737.8214133126395,95.32142761775425,2091.1,737.8214133126395,95.32142761775425,2193,737.8214133126395,95.32142761775425,2299.6,737.8214133126395,95.32142761775425,2409.2,737.8214133126395,95.32142761775425,2515.9,737.8214133126395,95.32142761775425,2616.5,737.8214133126395,95.32142761775425,2717.7,737.8214133126395,95.32142761775425,2826.6,737.8214133126395,95.32142761775425,2926.7,737.8214133126395,95.32142761775425,3026.9,737.8214133126395,95.32142761775425,3127.7,737.8214133126395,95.32142761775425,3234.2,737.8214133126395,95.32142761775425,3337.8,737.8214133126395,95.32142761775425,3439.6,737.8214133126395,95.32142761775425,3549.2,737.8214133126395,95.32142761775425,3658,737.8214133126395,95.32142761775425,3762.9,737.8214133126395,95.32142761775425,3866,737.8214133126395,95.32142761775425,3968,737.8214133126395,95.32142761775425,4075.9,737.8214133126395,95.32142761775425,4183.4,737.8214133126395,95.32142761775425,4294.9,737.8214133126395,95.32142761775425,4407.7,737.8214133126395,95.32142761775425,4508.3,737.8214133126395,95.32142761775425,4615.8,737.8214133126395,95.32142761775425,4719.2,737.8214133126395,95.32142761775425,4823.4,737.8214133126395,95.32142761775425,4926.7]","[1433.8,1433.9,1000,0,433.9,""smooth"",""right"",""right"",""good_move"",4319.1,2884.9,2509.6,1434.2,375.3,""smooth"",""right"",""right"",""good_move"",6726,2406.4,2015.6,4319.6,390.8,""smooth"",""right"",""right"",""good_move"",9124.3,2397.9,2018.7,6726.4,379.2,""oops"",""up"",""left"",""bad_move"",12568.3,3443.3,3075.2,9125,368.1,""smooth"",""up"",""up"",""good_move"",15795.9,3227.1,2884,12568.8,343.1,""oops"",""up"",""down"",""bad_move"",18447.6,2651.2,2270.2,15796.4,381,""oops"",""up"",""up"",""good_move"",25316.1,6867.9,2004.6,22923.1,388.4,""smooth"",""up"",""up"",""good_move"",28089.9,2773.2,2362.1,25316.7,411.1,""oops"",""up"",""left"",""bad_move"",30620.6,2530.2,2109.3,28090.4,420.9,""smooth"",""up"",""up"",""good_move"",33270.2,2649.2,2286.3,30621,362.9,""smooth"",""right"",""right"",""good_move""]"
"2655","","<div style=""width:500px;"">
  <p>What determined the result of this run?</p>
  </div>","14","html-slider-response","64","814914","0.0-7.0-1.10","147","1","2025-08-06 08:57:31","36c45c0696341be0efffe67d72a12abb","41.150.227.132","Mozilla/5.0 (Windows NT 10.0; Win64; x64) AppleWebKit/537.36 (KHTML, like Gecko) Chrome/139.0.0.0 Safari/537.36","WebKit","Chrome","139.0.0.0","Windows","10.0","https://app.prolific.com/","en-GB,en-US;q=0.9,en;q=0.8","5a9aa66a35237b000112937b","6877649eabb845cf142cd221","689318e988339489bc929408","1","5a9aa66a35237b000112937b","1","2025-08-06T09:11:12.138Z","","","","AttribQ","","","","","","","","","","","50","","","","","","","","","","","","","","","","","","","","","","","","","","",""
"2495","","<div style=""width:500px;"">
  <p>How much control did you have over the ball?</p>
  </div>","6","html-slider-response","65","817411","0.0-7.0-2.10","147","1","2025-08-06 08:57:31","36c45c0696341be0efffe67d72a12abb","41.150.227.132","Mozilla/5.0 (Windows NT 10.0; Win64; x64) AppleWebKit/537.36 (KHTML, like Gecko) Chrome/139.0.0.0 Safari/537.36","WebKit","Chrome","139.0.0.0","Windows","10.0","https://app.prolific.com/","en-GB,en-US;q=0.9,en;q=0.8","5a9aa66a35237b000112937b","6877649eabb845cf142cd221","689318e988339489bc929408","1","5a9aa66a35237b000112937b","1","2025-08-06T09:11:14.635Z","","","","ControlQ","","","","","","","","","","","50","","","","","","","","","","","","","","","","","","","","","","","","","","",""
"2886","","<div style=""width:500px;"">
  <p>How would you describe your current emotional state?</p>
  </div>","1","html-slider-response","66","820299","0.0-7.0-3.10","147","1","2025-08-06 08:57:31","36c45c0696341be0efffe67d72a12abb","41.150.227.132","Mozilla/5.0 (Windows NT 10.0; Win64; x64) AppleWebKit/537.36 (KHTML, like Gecko) Chrome/139.0.0.0 Safari/537.36","WebKit","Chrome","139.0.0.0","Windows","10.0","https://app.prolific.com/","en-GB,en-US;q=0.9,en;q=0.8","5a9aa66a35237b000112937b","6877649eabb845cf142cd221","689318e988339489bc929408","1","5a9aa66a35237b000112937b","1","2025-08-06T09:11:17.523Z","","","","StressQ","","","","","","","","","","","50","","","","","","","","","","","","","","","","","","","","","","","","","","",""
"1687","","<div style=""width:500px;"">
  <p>What best describes how you currently feel?</p>
  </div>","100","html-slider-response","67","821987","0.0-7.0-4.10","147","1","2025-08-06 08:57:31","36c45c0696341be0efffe67d72a12abb","41.150.227.132","Mozilla/5.0 (Windows NT 10.0; Win64; x64) AppleWebKit/537.36 (KHTML, like Gecko) Chrome/139.0.0.0 Safari/537.36","WebKit","Chrome","139.0.0.0","Windows","10.0","https://app.prolific.com/","en-GB,en-US;q=0.9,en;q=0.8","5a9aa66a35237b000112937b","6877649eabb845cf142cd221","689318e988339489bc929408","1","5a9aa66a35237b000112937b","1","2025-08-06T09:11:19.212Z","","","","MotivationQ","","","","","","","","","","","50","","","","","","","","","","","","","","","","","","","","","","","","","","",""
"","","","","ctl-task-cpt","68","856184","0.0-7.0-0.11","147","1","2025-08-06 08:57:31","36c45c0696341be0efffe67d72a12abb","41.150.227.132","Mozilla/5.0 (Windows NT 10.0; Win64; x64) AppleWebKit/537.36 (KHTML, like Gecko) Chrome/139.0.0.0 Safari/537.36","WebKit","Chrome","139.0.0.0","Windows","10.0","https://app.prolific.com/","en-GB,en-US;q=0.9,en;q=0.8","5a9aa66a35237b000112937b","6877649eabb845cf142cd221","689318e988339489bc929408","1","5a9aa66a35237b000112937b","1","2025-08-06T09:11:53.408Z","","","","","","","","","","","","","","","","win-only","0","g1:NW,g2:SE","0.7","12","0","832512","796.3","5810","31171.2","1","4","8","6","2","8","8","30","22","0.22727272727272727","888.4","3000","1365","[""down"",""right""]","{""num_key_presses"":6,""num_perfect"":6,""num_errors"":0,""num_randdir"":0,""num_randdir_good_moves"":0,""num_whilered"":0,""num_whileblue"":0,""num_blue"":2,""num_good_moves"":6}","[421.5714133126395,419.07142761775424,0.4,421.5714133126395,419.07142761775424,110.5,421.5714133126395,419.07142761775424,213.1,421.5714133126395,419.07142761775424,322.5,421.5714133126395,419.07142761775424,426.2,671.5714133126395,565.3214276177542,528.6,855.3214133126395,772.8214276177542,631.5,836.5714133126395,776.5714276177542,736.8,810.3214133126395,761.5714276177542,837.7,807.8214133126395,761.5714276177542,940.8,807.8214133126395,761.5714276177542,1046.4,807.8214133126395,761.5714276177542,1162.3,807.8214133126395,761.5714276177542,1264,807.8214133126395,761.5714276177542,1366.7,807.8214133126395,761.5714276177542,1476.8,807.8214133126395,761.5714276177542,1577.4,807.8214133126395,761.5714276177542,1678.1,807.8214133126395,761.5714276177542,1778.2,807.8214133126395,761.5714276177542,1886.1,807.8214133126395,761.5714276177542,1997.5,807.8214133126395,761.5714276177542,2112.9,807.8214133126395,761.5714276177542,2213.5,807.8214133126395,761.5714276177542,2328.9,807.8214133126395,761.5714276177542,2429.4,807.8214133126395,761.5714276177542,2533.5,807.8214133126395,761.5714276177542,2634.1,807.8214133126395,761.5714276177542,2735.8,807.8214133126395,761.5714276177542,2836.2,807.8214133126395,761.5714276177542,2941.5,807.8214133126395,761.5714276177542,3042.1,807.8214133126395,761.5714276177542,3146.8,807.8214133126395,761.5714276177542,3248.9,807.8214133126395,761.5714276177542,3361.4,807.8214133126395,761.5714276177542,3463.6,807.8214133126395,761.5714276177542,3564.6,807.8214133126395,761.5714276177542,3666.9,807.8214133126395,761.5714276177542,3778.7,807.8214133126395,761.5714276177542,3884.8,807.8214133126395,761.5714276177542,3994.8,807.8214133126395,761.5714276177542,4095,807.8214133126395,761.5714276177542,4195.1,807.8214133126395,761.5714276177542,4299.5,807.8214133126395,761.5714276177542,4405.3,807.8214133126395,761.5714276177542,4512,807.8214133126395,761.5714276177542,4620.1,807.8214133126395,761.5714276177542,4729.8,807.8214133126395,761.5714276177542,4833.8,807.8214133126395,761.5714276177542,4935.8]","[1407.7,1407.7,1000,0,407.7,""smooth"",""down"",""down"",""good_move"",4928.7,3520.3,3144.1,1408.4,376.2,""smooth"",""down"",""down"",""good_move"",8311.8,3382.7,2975.9,4929.1,406.8,""smooth"",""down"",""down"",""good_move"",14410,6098,2539.6,11478,392.4,""smooth"",""right"",""right"",""good_move"",22063.3,7652.9,2788,18753.6,521.8,""smooth"",""right"",""right"",""good_move"",25244.3,3180.5,2796,22063.8,384.5,""smooth"",""right"",""right"",""good_move""]"
"2259","","<div style=""width:500px;"">
  <p>What determined the result of this run?</p>
  </div>","100","html-slider-response","69","858444","0.0-7.0-1.11","147","1","2025-08-06 08:57:31","36c45c0696341be0efffe67d72a12abb","41.150.227.132","Mozilla/5.0 (Windows NT 10.0; Win64; x64) AppleWebKit/537.36 (KHTML, like Gecko) Chrome/139.0.0.0 Safari/537.36","WebKit","Chrome","139.0.0.0","Windows","10.0","https://app.prolific.com/","en-GB,en-US;q=0.9,en;q=0.8","5a9aa66a35237b000112937b","6877649eabb845cf142cd221","689318e988339489bc929408","1","5a9aa66a35237b000112937b","1","2025-08-06T09:11:55.668Z","","","","AttribQ","","","","","","","","","","","50","","","","","","","","","","","","","","","","","","","","","","","","","","",""
"1903","","<div style=""width:500px;"">
  <p>How much control did you have over the ball?</p>
  </div>","100","html-slider-response","70","860349","0.0-7.0-2.11","147","1","2025-08-06 08:57:31","36c45c0696341be0efffe67d72a12abb","41.150.227.132","Mozilla/5.0 (Windows NT 10.0; Win64; x64) AppleWebKit/537.36 (KHTML, like Gecko) Chrome/139.0.0.0 Safari/537.36","WebKit","Chrome","139.0.0.0","Windows","10.0","https://app.prolific.com/","en-GB,en-US;q=0.9,en;q=0.8","5a9aa66a35237b000112937b","6877649eabb845cf142cd221","689318e988339489bc929408","1","5a9aa66a35237b000112937b","1","2025-08-06T09:11:57.573Z","","","","ControlQ","","","","","","","","","","","50","","","","","","","","","","","","","","","","","","","","","","","","","","",""
"2533","","<div style=""width:500px;"">
  <p>How would you describe your current emotional state?</p>
  </div>","0","html-slider-response","71","862884","0.0-7.0-3.11","147","1","2025-08-06 08:57:31","36c45c0696341be0efffe67d72a12abb","41.150.227.132","Mozilla/5.0 (Windows NT 10.0; Win64; x64) AppleWebKit/537.36 (KHTML, like Gecko) Chrome/139.0.0.0 Safari/537.36","WebKit","Chrome","139.0.0.0","Windows","10.0","https://app.prolific.com/","en-GB,en-US;q=0.9,en;q=0.8","5a9aa66a35237b000112937b","6877649eabb845cf142cd221","689318e988339489bc929408","1","5a9aa66a35237b000112937b","1","2025-08-06T09:12:00.108Z","","","","StressQ","","","","","","","","","","","50","","","","","","","","","","","","","","","","","","","","","","","","","","",""
"2023","","<div style=""width:500px;"">
  <p>What best describes how you currently feel?</p>
  </div>","100","html-slider-response","72","864909","0.0-7.0-4.11","147","1","2025-08-06 08:57:31","36c45c0696341be0efffe67d72a12abb","41.150.227.132","Mozilla/5.0 (Windows NT 10.0; Win64; x64) AppleWebKit/537.36 (KHTML, like Gecko) Chrome/139.0.0.0 Safari/537.36","WebKit","Chrome","139.0.0.0","Windows","10.0","https://app.prolific.com/","en-GB,en-US;q=0.9,en;q=0.8","5a9aa66a35237b000112937b","6877649eabb845cf142cd221","689318e988339489bc929408","1","5a9aa66a35237b000112937b","1","2025-08-06T09:12:02.133Z","","","","MotivationQ","","","","","","","","","","","50","","","","","","","","","","","","","","","","","","","","","","","","","","",""
"","","","","ctl-task-cpt","73","908254","0.0-7.0-0.12","147","1","2025-08-06 08:57:31","36c45c0696341be0efffe67d72a12abb","41.150.227.132","Mozilla/5.0 (Windows NT 10.0; Win64; x64) AppleWebKit/537.36 (KHTML, like Gecko) Chrome/139.0.0.0 Safari/537.36","WebKit","Chrome","139.0.0.0","Windows","10.0","https://app.prolific.com/","en-GB,en-US;q=0.9,en;q=0.8","5a9aa66a35237b000112937b","6877649eabb845cf142cd221","689318e988339489bc929408","1","5a9aa66a35237b000112937b","1","2025-08-06T09:12:45.478Z","","","","","","","","","","","","","","","","win-only","2","g1:SE,g2:NW","0.8","13","0","875433.8","817.8","5820.3","40323.6","1","4","8","6","2","8","8","38","30","0.2878787878787879","916.5","3000","1525","[""left"",""up""]","{""num_key_presses"":6,""num_perfect"":6,""num_errors"":0,""num_randdir"":0,""num_randdir_good_moves"":0,""num_whilered"":0,""num_whileblue"":0,""num_blue"":5,""num_good_moves"":6}","[426.5714133126395,419.07142761775424,0.4,426.5714133126395,419.07142761775424,111.4,426.5714133126395,419.07142761775424,211.5,426.5714133126395,419.07142761775424,312,415.3214133126395,376.57142761775424,412.8,334.0714133126395,314.07142761775424,515.4,124.0714133126395,161.57142761775424,619,110.3214133126395,141.57142761775424,720.9,99.0714133126395,116.57142761775425,821,99.0714133126395,106.57142761775425,926.5,99.0714133126395,106.57142761775425,1028.5,99.0714133126395,106.57142761775425,1138.3,99.0714133126395,106.57142761775425,1254.9,99.0714133126395,106.57142761775425,1371.4,99.0714133126395,106.57142761775425,1485.2,99.0714133126395,106.57142761775425,1587.9,99.0714133126395,106.57142761775425,1690.9,99.0714133126395,106.57142761775425,1794.4,99.0714133126395,106.57142761775425,1899.7,99.0714133126395,106.57142761775425,1999.7,99.0714133126395,106.57142761775425,2106,99.0714133126395,106.57142761775425,2221.4,99.0714133126395,106.57142761775425,2325.5,99.0714133126395,106.57142761775425,2436.2,99.0714133126395,106.57142761775425,2553.9,99.0714133126395,106.57142761775425,2671.1,99.0714133126395,106.57142761775425,2776.8,99.0714133126395,106.57142761775425,2880.2,99.0714133126395,106.57142761775425,2981.3,99.0714133126395,106.57142761775425,3088.2,99.0714133126395,106.57142761775425,3189.4,99.0714133126395,106.57142761775425,3304.9,99.0714133126395,106.57142761775425,3411,99.0714133126395,106.57142761775425,3516,99.0714133126395,106.57142761775425,3618.3,99.0714133126395,106.57142761775425,3718.9,99.0714133126395,106.57142761775425,3819.5,99.0714133126395,106.57142761775425,3919.8,99.0714133126395,106.57142761775425,4020.8,99.0714133126395,106.57142761775425,4135.9,99.0714133126395,106.57142761775425,4236.7,99.0714133126395,106.57142761775425,4342.4,99.0714133126395,106.57142761775425,4446.2,99.0714133126395,106.57142761775425,4550.6,99.0714133126395,106.57142761775425,4654.5,99.0714133126395,106.57142761775425,4757.3,99.0714133126395,106.57142761775425,4871.3,99.0714133126395,106.57142761775425,4985.9]","[1362.2,1362.2,1000,0,362.2,""smooth"",""up"",""up"",""good_move"",4663.9,3300.8,2926.7,1363.1,374.1,""smooth"",""up"",""up"",""good_move"",11398.9,6734.4,2332.5,8686.3,380.1,""smooth"",""up"",""up"",""good_move"",17666.9,6267.5,2796.8,14452.8,417.3,""smooth"",""left"",""left"",""good_move"",28166.6,10499.2,2459.2,25283.1,424.3,""smooth"",""left"",""left"",""good_move"",34366.2,6199.2,1894.2,32095.4,376.6,""smooth"",""left"",""left"",""good_move""]"
"3639","","<div style=""width:500px;"">
  <p>What determined the result of this run?</p>
  </div>","100","html-slider-response","74","911894","0.0-7.0-1.12","147","1","2025-08-06 08:57:31","36c45c0696341be0efffe67d72a12abb","41.150.227.132","Mozilla/5.0 (Windows NT 10.0; Win64; x64) AppleWebKit/537.36 (KHTML, like Gecko) Chrome/139.0.0.0 Safari/537.36","WebKit","Chrome","139.0.0.0","Windows","10.0","https://app.prolific.com/","en-GB,en-US;q=0.9,en;q=0.8","5a9aa66a35237b000112937b","6877649eabb845cf142cd221","689318e988339489bc929408","1","5a9aa66a35237b000112937b","1","2025-08-06T09:12:49.119Z","","","","AttribQ","","","","","","","","","","","50","","","","","","","","","","","","","","","","","","","","","","","","","","",""
"2437","","<div style=""width:500px;"">
  <p>How much control did you have over the ball?</p>
  </div>","100","html-slider-response","75","914333","0.0-7.0-2.12","147","1","2025-08-06 08:57:31","36c45c0696341be0efffe67d72a12abb","41.150.227.132","Mozilla/5.0 (Windows NT 10.0; Win64; x64) AppleWebKit/537.36 (KHTML, like Gecko) Chrome/139.0.0.0 Safari/537.36","WebKit","Chrome","139.0.0.0","Windows","10.0","https://app.prolific.com/","en-GB,en-US;q=0.9,en;q=0.8","5a9aa66a35237b000112937b","6877649eabb845cf142cd221","689318e988339489bc929408","1","5a9aa66a35237b000112937b","1","2025-08-06T09:12:51.557Z","","","","ControlQ","","","","","","","","","","","50","","","","","","","","","","","","","","","","","","","","","","","","","","",""
"2208","","<div style=""width:500px;"">
  <p>How would you describe your current emotional state?</p>
  </div>","0","html-slider-response","76","916542","0.0-7.0-3.12","147","1","2025-08-06 08:57:31","36c45c0696341be0efffe67d72a12abb","41.150.227.132","Mozilla/5.0 (Windows NT 10.0; Win64; x64) AppleWebKit/537.36 (KHTML, like Gecko) Chrome/139.0.0.0 Safari/537.36","WebKit","Chrome","139.0.0.0","Windows","10.0","https://app.prolific.com/","en-GB,en-US;q=0.9,en;q=0.8","5a9aa66a35237b000112937b","6877649eabb845cf142cd221","689318e988339489bc929408","1","5a9aa66a35237b000112937b","1","2025-08-06T09:12:53.766Z","","","","StressQ","","","","","","","","","","","50","","","","","","","","","","","","","","","","","","","","","","","","","","",""
"2358","","<div style=""width:500px;"">
  <p>What best describes how you currently feel?</p>
  </div>","100","html-slider-response","77","918901","0.0-7.0-4.12","147","1","2025-08-06 08:57:31","36c45c0696341be0efffe67d72a12abb","41.150.227.132","Mozilla/5.0 (Windows NT 10.0; Win64; x64) AppleWebKit/537.36 (KHTML, like Gecko) Chrome/139.0.0.0 Safari/537.36","WebKit","Chrome","139.0.0.0","Windows","10.0","https://app.prolific.com/","en-GB,en-US;q=0.9,en;q=0.8","5a9aa66a35237b000112937b","6877649eabb845cf142cd221","689318e988339489bc929408","1","5a9aa66a35237b000112937b","1","2025-08-06T09:12:56.125Z","","","","MotivationQ","","","","","","","","","","","50","","","","","","","","","","","","","","","","","","","","","","","","","","",""
