"rt","response_timestamp","stimulus","response","trial_type","trial_index","time_elapsed","internal_node_id","run_id","condition","recorded_at","source_code_version","ip","user_agent","device","browser","browser_version","platform","platform_version","referer","accept_language","PROLIFIC_PID","STUDY_ID","SESSION_ID","BATCH","prolific_id","batch","realtime","success","question_order","question_id","eventType","responses","item_order","radio_event_ids","radio_event_times","key_event_times","mouse_event_times","straightlining","zigzagging","honeypot","view_history","slider_start","which_type","canvas_config","goals_layout","control_level","trial_number","tutorial_trial_number","trial_start_time","phase1_start_time","phase2_start_time","phase3_start_time","goal_1_value","goal_1_distance","goal_2_value","goal_2_distance","goal_selected","outcome","outcome_total","participant_final_score","participant_initial_score","participant_final_score_prop","goal_choice_rt","allocated_time","allocated_time_remaining","goal_direction","counts","mouse_movements","key_presses"
"3024","1754471373077","<p style='font-size:40px;line-height:1.25'><strong>Welcome to the experiment!</strong></p><p style='font-size:1.1em;line-height:1.25'>Thank you for participanting in our experiment again! You will be asked to play the Dysfunctional Ball Game again. We will briefly recap the rules before we start.</p><p style='font-size:1.1em;line-height:1.25'>Press <strong>Next</strong> to continue.</p>","0","custom-html-button-response","0","3030","0.0-0.0","159","1","2025-08-06 09:09:22","36c45c0696341be0efffe67d72a12abb","81.79.173.9","Mozilla/5.0 (Windows NT 10.0; Win64; x64) AppleWebKit/537.36 (KHTML, like Gecko) Chrome/109.0.0.0 Safari/537.36","WebKit","Chrome","109.0.0.0","Windows","10.0","https://app.prolific.com/","en-GB,en-US;q=0.9,en;q=0.8","5aea25acd9f2be0001933493","687a1a965b9f5b85a264363e","68931b397d56f8296907180c","1","5aea25acd9f2be0001933493","1","2025-08-06T09:09:33.080Z","","","","","","","","","","","","","","","","","","","","","","","","","","","","","","","","","","","","","","","","","",""
"7621","","","","fullscreen","1","11660","0.0-1.0","159","1","2025-08-06 09:09:22","36c45c0696341be0efffe67d72a12abb","81.79.173.9","Mozilla/5.0 (Windows NT 10.0; Win64; x64) AppleWebKit/537.36 (KHTML, like Gecko) Chrome/109.0.0.0 Safari/537.36","WebKit","Chrome","109.0.0.0","Windows","10.0","https://app.prolific.com/","en-GB,en-US;q=0.9,en;q=0.8","5aea25acd9f2be0001933493","687a1a965b9f5b85a264363e","68931b397d56f8296907180c","1","5aea25acd9f2be0001933493","1","","true","","","","","","","","","","","","","","","","","","","","","","","","","","","","","","","","","","","","","","","","",""
"1736","1754471383447"," <p style='font-size:1.1em;line-height:1.25'>Thank you for closing all other tabs.</p><p style='font-size:1.1em;line-height:1.25'>We will now invite you to fill in some questionnaires, before starting the game.<br>This will take about 5 minutes.<br></p><p style='font-size:1.1em;line-height:1.25'>Press the <strong>Next</strong> button to continue.</p>","0","custom-html-button-response","2","13399","0.0-2.0","159","1","2025-08-06 09:09:22","36c45c0696341be0efffe67d72a12abb","81.79.173.9","Mozilla/5.0 (Windows NT 10.0; Win64; x64) AppleWebKit/537.36 (KHTML, like Gecko) Chrome/109.0.0.0 Safari/537.36","WebKit","Chrome","109.0.0.0","Windows","10.0","https://app.prolific.com/","en-GB,en-US;q=0.9,en;q=0.8","5aea25acd9f2be0001933493","687a1a965b9f5b85a264363e","68931b397d56f8296907180c","1","5aea25acd9f2be0001933493","1","2025-08-06T09:09:43.448Z","","","","","","","","","","","","","","","","","","","","","","","","","","","","","","","","","","","","","","","","","",""
"2302","","","{""assigned_sex"":""female""}","survey-multi-choice","3","15705","0.0-3.0-0.0","159","1","2025-08-06 09:09:22","36c45c0696341be0efffe67d72a12abb","81.79.173.9","Mozilla/5.0 (Windows NT 10.0; Win64; x64) AppleWebKit/537.36 (KHTML, like Gecko) Chrome/109.0.0.0 Safari/537.36","WebKit","Chrome","109.0.0.0","Windows","10.0","https://app.prolific.com/","en-GB,en-US;q=0.9,en;q=0.8","5aea25acd9f2be0001933493","687a1a965b9f5b85a264363e","68931b397d56f8296907180c","1","5aea25acd9f2be0001933493","1","","","[0]","0","demographics","","","","","","","","","","","","","","","","","","","","","","","","","","","","","","","","","","","","","",""
"1752","1754471387513","<p style='font-size:1.1em;line-height:1.25'>In the following, we will perform a baseline assessment. This means that we will ask you a few questions relating to your experiences over the past month.<br></p><p style='font-size:1.1em;line-height:1.25'>Press the <strong>Next</strong> button to continue.</p>","0","custom-html-button-response","4","17464","0.0-4.0-0.0","159","1","2025-08-06 09:09:22","36c45c0696341be0efffe67d72a12abb","81.79.173.9","Mozilla/5.0 (Windows NT 10.0; Win64; x64) AppleWebKit/537.36 (KHTML, like Gecko) Chrome/109.0.0.0 Safari/537.36","WebKit","Chrome","109.0.0.0","Windows","10.0","https://app.prolific.com/","en-GB,en-US;q=0.9,en;q=0.8","5aea25acd9f2be0001933493","687a1a965b9f5b85a264363e","68931b397d56f8296907180c","1","5aea25acd9f2be0001933493","1","2025-08-06T09:09:47.514Z","","","","","","","","","","","","","","","","","","","","","","","","","","","","","","","","","","","","","","","","","",""
"29497.5","","","","survey-template","5","46970","0.0-4.0-1.0","159","1","2025-08-06 09:09:22","36c45c0696341be0efffe67d72a12abb","81.79.173.9","Mozilla/5.0 (Windows NT 10.0; Win64; x64) AppleWebKit/537.36 (KHTML, like Gecko) Chrome/109.0.0.0 Safari/537.36","WebKit","Chrome","109.0.0.0","Windows","10.0","https://app.prolific.com/","en-GB,en-US;q=0.9,en;q=0.8","5aea25acd9f2be0001933493","687a1a965b9f5b85a264363e","68931b397d56f8296907180c","1","5aea25acd9f2be0001933493","1","2025-08-06T09:10:17.020Z","","","","pss","{""Q01"":""2"",""Q02"":""2"",""Q03"":""3"",""Q04"":""2"",""Q05"":""2"",""Q06"":""2"",""Q07"":""2"",""Q08"":""2"",""Q09"":""3"",""Q10"":""2""}","[0,1,2,3,4,5,6,7,8,9]","[""Q01"",""Q02"",""Q03"",""Q04"",""Q05"",""Q06"",""Q07"",""Q08"",""Q09"",""Q10""]","[3732.8999999910593,5203.79999999702,7169.899999991059,10571.5,13201.70000000298,15216.29999999702,17412.29999999702,23654.59999999404,26223.09999999404,28224.59999999404]","[]","[0.20000000298023224,3732.8999999910593,5203.79999999702,7169.899999991059,9147.70000000298,10571.5,13201.70000000298,15216.29999999702,17412.29999999702,23654.59999999404,26223.09999999404,28224.59999999404,29491.79999999702]","0.8","0.4444444444444444","0","","","","","","","","","","","","","","","","","","","","","","","","","","","","",""
"1832","1754471418866","<p style='font-size:1.1em;line-height:1.25'>Thank you for your answers! Now we will ask you a few more questions relating to your feelings in the last 24 hours.<br></p><p style='font-size:1.1em;line-height:1.25'>Press the <strong>Next</strong> button to continue.</p>","0","custom-html-button-response","6","48818","0.0-4.0-2.0","159","1","2025-08-06 09:09:22","36c45c0696341be0efffe67d72a12abb","81.79.173.9","Mozilla/5.0 (Windows NT 10.0; Win64; x64) AppleWebKit/537.36 (KHTML, like Gecko) Chrome/109.0.0.0 Safari/537.36","WebKit","Chrome","109.0.0.0","Windows","10.0","https://app.prolific.com/","en-GB,en-US;q=0.9,en;q=0.8","5aea25acd9f2be0001933493","687a1a965b9f5b85a264363e","68931b397d56f8296907180c","1","5aea25acd9f2be0001933493","1","2025-08-06T09:10:18.867Z","","","","","","","","","","","","","","","","","","","","","","","","","","","","","","","","","","","","","","","","","",""
"51789.60000000894","","","","survey-template","7","100625","0.0-4.0-3.0","159","1","2025-08-06 09:09:22","36c45c0696341be0efffe67d72a12abb","81.79.173.9","Mozilla/5.0 (Windows NT 10.0; Win64; x64) AppleWebKit/537.36 (KHTML, like Gecko) Chrome/109.0.0.0 Safari/537.36","WebKit","Chrome","109.0.0.0","Windows","10.0","https://app.prolific.com/","en-GB,en-US;q=0.9,en;q=0.8","5aea25acd9f2be0001933493","687a1a965b9f5b85a264363e","68931b397d56f8296907180c","1","5aea25acd9f2be0001933493","1","2025-08-06T09:11:10.675Z","","","","drsp","{""Q01"":""1"",""Q02"":""1"",""Q03"":""1"",""Q04"":""1"",""Q05"":""1"",""Q06"":""1"",""Q07"":""1"",""Q08"":""1"",""Q09"":""2"",""Q10"":""3"",""Q11"":""3"",""Q12"":""2"",""Q13"":""5"",""Q14"":""2"",""Q15"":""3"",""Q16"":""4"",""Q17"":""2"",""Q18"":""2"",""Q19"":""4"",""Q20"":""2"",""Q21"":""2"",""Q22"":""1""}","[0,1,2,3,4,5,6,7,8,9,10,11,12,13,14,15,16,17,18,19,20,21]","[""Q01"",""Q02"",""Q03"",""Q04"",""Q05"",""Q06"",""Q07"",""Q08"",""Q09"",""Q10"",""Q11"",""Q12"",""Q13"",""Q14"",""Q15"",""Q16"",""Q17"",""Q18"",""Q19"",""Q20"",""Q21"",""Q22""]","[2774.7999999970198,3862.5,4995.79999999702,6177,7420.4000000059605,8590.10000000894,9652,10677.29999999702,17191.60000000894,19737.40000000596,21691.29999999702,23972.60000000894,25575.70000000298,27747,29653.20000000298,35962.5,38013.60000000894,39701.70000000298,41667.90000000596,45176,47106.90000000596,49990.79999999702]","[]","[0.10000000894069672,2774.7999999970198,3862.5,4995.79999999702,6177,7420.4000000059605,8590.10000000894,9652,10677.29999999702,17191.60000000894,18700.40000000596,19737.40000000596,21304.5,21691.29999999702,23972.60000000894,25575.70000000298,27747,29653.20000000298,35962.5,38013.60000000894,39701.70000000298,41667.90000000596,45176,47106.90000000596,49990.79999999702,51777]","0.4090909090909091","0.2857142857142857","0","","","","","","","","","","","","","","","","","","","","","","","","","","","","",""
"12258.90000000596","","","","survey-template","8","112894","0.0-4.0-4.0","159","1","2025-08-06 09:09:22","36c45c0696341be0efffe67d72a12abb","81.79.173.9","Mozilla/5.0 (Windows NT 10.0; Win64; x64) AppleWebKit/537.36 (KHTML, like Gecko) Chrome/109.0.0.0 Safari/537.36","WebKit","Chrome","109.0.0.0","Windows","10.0","https://app.prolific.com/","en-GB,en-US;q=0.9,en;q=0.8","5aea25acd9f2be0001933493","687a1a965b9f5b85a264363e","68931b397d56f8296907180c","1","5aea25acd9f2be0001933493","1","2025-08-06T09:11:22.944Z","","","","stress","{""Q01"":""1"",""Q02"":""3"",""Q03"":""1""}","[0,1,2]","[""Q01"",""Q02"",""Q03""]","[5403.79999999702,9591.10000000894,11051]","[]","[5403.79999999702,9591.10000000894,11051,12256.90000000596]","0.6666666666666666","1","0","","","","","","","","","","","","","","","","","","","","","","","","","","","","",""
"11362","","","","instructions","9","124270","0.0-5.0-0.0","159","1","2025-08-06 09:09:22","36c45c0696341be0efffe67d72a12abb","81.79.173.9","Mozilla/5.0 (Windows NT 10.0; Win64; x64) AppleWebKit/537.36 (KHTML, like Gecko) Chrome/109.0.0.0 Safari/537.36","WebKit","Chrome","109.0.0.0","Windows","10.0","https://app.prolific.com/","en-GB,en-US;q=0.9,en;q=0.8","5aea25acd9f2be0001933493","687a1a965b9f5b85a264363e","68931b397d56f8296907180c","1","5aea25acd9f2be0001933493","1","","","","","","","","","","","","","","","[{""page_index"":0,""viewing_time"":11357}]","","","","","","","","","","","","","","","","","","","","","","","","","","","",""
"4645","","<p>Before you start with this game please answer the following three questions yourself. </p>
  <p>Through this game, we measure several aspects of your cognitive performance, such as reaction times, multi-tasking capabilities </p>
  <p>and the ability to assess the situation you are in.</p>
  <p></p>
  <p><b>How good do you usually are in such tasks?</b></p>","86","html-slider-response","10","128921","0.0-6.0-0.0","159","1","2025-08-06 09:09:22","36c45c0696341be0efffe67d72a12abb","81.79.173.9","Mozilla/5.0 (Windows NT 10.0; Win64; x64) AppleWebKit/537.36 (KHTML, like Gecko) Chrome/109.0.0.0 Safari/537.36","WebKit","Chrome","109.0.0.0","Windows","10.0","https://app.prolific.com/","en-GB,en-US;q=0.9,en;q=0.8","5aea25acd9f2be0001933493","687a1a965b9f5b85a264363e","68931b397d56f8296907180c","1","5aea25acd9f2be0001933493","1","2025-08-06T09:11:38.970Z","","","","PreSkillQ","","","","","","","","","","","50","","","","","","","","","","","","","","","","","","","","","","","","","","",""
"3304","","<div style=""width:500px;"">
  <p>How well do you think you will perform in this task compared to other participants?</p>
  </div>","67","html-slider-response","11","132227","0.0-6.0-1.0","159","1","2025-08-06 09:09:22","36c45c0696341be0efffe67d72a12abb","81.79.173.9","Mozilla/5.0 (Windows NT 10.0; Win64; x64) AppleWebKit/537.36 (KHTML, like Gecko) Chrome/109.0.0.0 Safari/537.36","WebKit","Chrome","109.0.0.0","Windows","10.0","https://app.prolific.com/","en-GB,en-US;q=0.9,en;q=0.8","5aea25acd9f2be0001933493","687a1a965b9f5b85a264363e","68931b397d56f8296907180c","1","5aea25acd9f2be0001933493","1","2025-08-06T09:11:42.277Z","","","","PrePerfQ","","","","","","","","","","","50","","","","","","","","","","","","","","","","","","","","","","","","","","",""
"3966","","<div style=""width:500px;"">
  <p>What best describes how you currently feel?</p>
  </div>","100","html-slider-response","12","136196","0.0-6.0-2.0","159","1","2025-08-06 09:09:22","36c45c0696341be0efffe67d72a12abb","81.79.173.9","Mozilla/5.0 (Windows NT 10.0; Win64; x64) AppleWebKit/537.36 (KHTML, like Gecko) Chrome/109.0.0.0 Safari/537.36","WebKit","Chrome","109.0.0.0","Windows","10.0","https://app.prolific.com/","en-GB,en-US;q=0.9,en;q=0.8","5aea25acd9f2be0001933493","687a1a965b9f5b85a264363e","68931b397d56f8296907180c","1","5aea25acd9f2be0001933493","1","2025-08-06T09:11:46.246Z","","","","PreMotivationQ","","","","","","","","","","","50","","","","","","","","","","","","","","","","","","","","","","","","","","",""
"","","","","ctl-task-cpt","13","176389","0.0-7.0-0.0","159","1","2025-08-06 09:09:22","36c45c0696341be0efffe67d72a12abb","81.79.173.9","Mozilla/5.0 (Windows NT 10.0; Win64; x64) AppleWebKit/537.36 (KHTML, like Gecko) Chrome/109.0.0.0 Safari/537.36","WebKit","Chrome","109.0.0.0","Windows","10.0","https://app.prolific.com/","en-GB,en-US;q=0.9,en;q=0.8","5aea25acd9f2be0001933493","687a1a965b9f5b85a264363e","68931b397d56f8296907180c","1","5aea25acd9f2be0001933493","1","2025-08-06T09:12:26.439Z","","","","","","","","","","","","","","","","win-only","1","g1:NE,g2:SW","1","1","0","143085.4","2513.7","7517","37183.2","1","4","8","6","2","-8","-11","0","0","0","1114.6","3000","-2625","[""down"",""left""]","{""num_key_presses"":10,""num_perfect"":7,""num_errors"":3,""num_randdir"":0,""num_randdir_good_moves"":0,""num_whilered"":0,""num_whileblue"":3,""num_blue"":3,""num_good_moves"":7}","[298.22232142857143,299.12857142857143,0.8,298.22232142857143,299.12857142857143,102.4,298.22232142857143,299.12857142857143,210.7,298.22232142857143,299.12857142857143,315.6,298.22232142857143,299.12857142857143,418.3,298.22232142857143,299.12857142857143,521.3,298.22232142857143,297.12857142857143,630.7,145.22232142857143,461.12857142857143,731.8,75.22232142857143,536.1285714285714,843.2,62.222321428571426,544.1285714285714,947,51.222321428571426,554.1285714285714,1047.8,51.222321428571426,554.1285714285714,1148.6,51.222321428571426,554.1285714285714,1249,51.222321428571426,554.1285714285714,1349.8,51.222321428571426,554.1285714285714,1455.6,51.222321428571426,554.1285714285714,1558.7,51.222321428571426,554.1285714285714,1658.9,51.222321428571426,554.1285714285714,1762.7,51.222321428571426,554.1285714285714,1866.9,51.222321428571426,554.1285714285714,1971.2,51.222321428571426,554.1285714285714,2072.5,51.222321428571426,554.1285714285714,2176,51.222321428571426,554.1285714285714,2278.2,51.222321428571426,554.1285714285714,2379.4,51.222321428571426,554.1285714285714,2480,51.222321428571426,554.1285714285714,2580,51.222321428571426,554.1285714285714,2680.5,51.222321428571426,554.1285714285714,2786.9,51.222321428571426,554.1285714285714,2889.3,51.222321428571426,554.1285714285714,2989.5,51.222321428571426,554.1285714285714,3089.6,51.222321428571426,554.1285714285714,3194.9,51.222321428571426,554.1285714285714,3301.1,51.222321428571426,554.1285714285714,3403,51.222321428571426,554.1285714285714,3503.9,51.222321428571426,554.1285714285714,3608,51.222321428571426,554.1285714285714,3710.5,51.222321428571426,554.1285714285714,3813,51.222321428571426,554.1285714285714,3914.7,51.222321428571426,554.1285714285714,4019,51.222321428571426,554.1285714285714,4119.3,51.222321428571426,554.1285714285714,4223.4,51.222321428571426,554.1285714285714,4327.2,51.222321428571426,554.1285714285714,4435,51.222321428571426,554.1285714285714,4538.9,51.222321428571426,554.1285714285714,4641.5,51.222321428571426,554.1285714285714,4742.7,51.222321428571426,554.1285714285714,4842.7,51.222321428571426,554.1285714285714,4948.8]","[1346.1,1346,1003.7,0.1,342.3,""while_blue"",""down"",""right"",""bad_move"",3896.1,2549.4,2056.8,1346.8,492.5,""smooth"",""down"",""down"",""good_move"",6632.5,2735.8,2256,3896.8,479.8,""smooth"",""down"",""down"",""good_move"",9127.6,2494.4,2172.9,6633.2,321.5,""smooth"",""down"",""down"",""good_move"",12074.3,2946.4,2386.2,9127.9,560.2,""smooth"",""left"",""left"",""good_move"",14806.3,2730,2286.4,12076.3,443.6,""smooth"",""left"",""left"",""good_move"",18285.3,3477.9,3072,14807.4,405.9,""while_blue"",""left"",""up"",""bad_move"",21714.2,3428,2896.3,18286.3,531.7,""smooth"",""left"",""left"",""good_move"",24209,2494.3,2134.1,21714.7,360.2,""while_blue"",""left"",""right"",""bad_move"",26842.2,2633,2259,24209.3,374,""smooth"",""left"",""left"",""good_move""]"
"5150","","<div style=""width:500px;"">
  <p>What determined the result of this run?</p>
  </div>","90","html-slider-response","14","181543","0.0-7.0-1.0","159","1","2025-08-06 09:09:22","36c45c0696341be0efffe67d72a12abb","81.79.173.9","Mozilla/5.0 (Windows NT 10.0; Win64; x64) AppleWebKit/537.36 (KHTML, like Gecko) Chrome/109.0.0.0 Safari/537.36","WebKit","Chrome","109.0.0.0","Windows","10.0","https://app.prolific.com/","en-GB,en-US;q=0.9,en;q=0.8","5aea25acd9f2be0001933493","687a1a965b9f5b85a264363e","68931b397d56f8296907180c","1","5aea25acd9f2be0001933493","1","2025-08-06T09:12:31.593Z","","","","AttribQ","","","","","","","","","","","50","","","","","","","","","","","","","","","","","","","","","","","","","","",""
"3301","","<div style=""width:500px;"">
  <p>How much control did you have over the ball?</p>
  </div>","74","html-slider-response","15","184847","0.0-7.0-2.0","159","1","2025-08-06 09:09:22","36c45c0696341be0efffe67d72a12abb","81.79.173.9","Mozilla/5.0 (Windows NT 10.0; Win64; x64) AppleWebKit/537.36 (KHTML, like Gecko) Chrome/109.0.0.0 Safari/537.36","WebKit","Chrome","109.0.0.0","Windows","10.0","https://app.prolific.com/","en-GB,en-US;q=0.9,en;q=0.8","5aea25acd9f2be0001933493","687a1a965b9f5b85a264363e","68931b397d56f8296907180c","1","5aea25acd9f2be0001933493","1","2025-08-06T09:12:34.896Z","","","","ControlQ","","","","","","","","","","","50","","","","","","","","","","","","","","","","","","","","","","","","","","",""
"3498","","<div style=""width:500px;"">
  <p>How would you describe your current emotional state?</p>
  </div>","57","html-slider-response","16","188348","0.0-7.0-3.0","159","1","2025-08-06 09:09:22","36c45c0696341be0efffe67d72a12abb","81.79.173.9","Mozilla/5.0 (Windows NT 10.0; Win64; x64) AppleWebKit/537.36 (KHTML, like Gecko) Chrome/109.0.0.0 Safari/537.36","WebKit","Chrome","109.0.0.0","Windows","10.0","https://app.prolific.com/","en-GB,en-US;q=0.9,en;q=0.8","5aea25acd9f2be0001933493","687a1a965b9f5b85a264363e","68931b397d56f8296907180c","1","5aea25acd9f2be0001933493","1","2025-08-06T09:12:38.398Z","","","","StressQ","","","","","","","","","","","50","","","","","","","","","","","","","","","","","","","","","","","","","","",""
"2937","","<div style=""width:500px;"">
  <p>What best describes how you currently feel?</p>
  </div>","59","html-slider-response","17","191289","0.0-7.0-4.0","159","1","2025-08-06 09:09:22","36c45c0696341be0efffe67d72a12abb","81.79.173.9","Mozilla/5.0 (Windows NT 10.0; Win64; x64) AppleWebKit/537.36 (KHTML, like Gecko) Chrome/109.0.0.0 Safari/537.36","WebKit","Chrome","109.0.0.0","Windows","10.0","https://app.prolific.com/","en-GB,en-US;q=0.9,en;q=0.8","5aea25acd9f2be0001933493","687a1a965b9f5b85a264363e","68931b397d56f8296907180c","1","5aea25acd9f2be0001933493","1","2025-08-06T09:12:41.338Z","","","","MotivationQ","","","","","","","","","","","50","","","","","","","","","","","","","","","","","","","","","","","","","","",""
"","","","","ctl-task-cpt","18","225730","0.0-7.0-0.1","159","1","2025-08-06 09:09:22","36c45c0696341be0efffe67d72a12abb","81.79.173.9","Mozilla/5.0 (Windows NT 10.0; Win64; x64) AppleWebKit/537.36 (KHTML, like Gecko) Chrome/109.0.0.0 Safari/537.36","WebKit","Chrome","109.0.0.0","Windows","10.0","https://app.prolific.com/","en-GB,en-US;q=0.9,en;q=0.8","5aea25acd9f2be0001933493","687a1a965b9f5b85a264363e","68931b397d56f8296907180c","1","5aea25acd9f2be0001933493","1","2025-08-06T09:13:15.779Z","","","","","","","","","","","","","","","","win-only","3","g1:SW,g2:NE","0.9","2","0","198175.5","1686.9","6688.1","31433.5","1","4","4","6","2","4","4","4","0","0.030303030303030304","1652.8","3000","735","[""up"",""right""]","{""num_key_presses"":6,""num_perfect"":5,""num_errors"":0,""num_randdir"":1,""num_randdir_good_moves"":1,""num_whilered"":0,""num_whileblue"":0,""num_blue"":2,""num_good_moves"":6}","[300.22232142857143,302.12857142857143,0.6,300.22232142857143,302.12857142857143,101.1,300.22232142857143,302.12857142857143,203.8,300.22232142857143,302.12857142857143,304.6,300.22232142857143,302.12857142857143,406.9,300.22232142857143,302.12857142857143,511.5,264.22232142857143,335.12857142857143,617.9,255.22232142857143,349.12857142857143,723.5,445.22232142857143,196.12857142857143,828.3,494.22232142857143,164.12857142857143,931.9,494.22232142857143,164.12857142857143,1038,494.22232142857143,164.12857142857143,1139.1,546.2223214285714,66.12857142857143,1241.4,555.2223214285714,36.128571428571426,1348.7,556.2223214285714,32.128571428571426,1449.3,556.2223214285714,32.128571428571426,1554.1,556.2223214285714,32.128571428571426,1656.8,556.2223214285714,32.128571428571426,1761.2,556.2223214285714,32.128571428571426,1866.6,556.2223214285714,32.128571428571426,1968.1,556.2223214285714,32.128571428571426,2068.3,556.2223214285714,32.128571428571426,2174.6,556.2223214285714,32.128571428571426,2281.6,556.2223214285714,32.128571428571426,2382.1,556.2223214285714,32.128571428571426,2482.9,556.2223214285714,32.128571428571426,2583,556.2223214285714,32.128571428571426,2685.7,556.2223214285714,32.128571428571426,2788.3,556.2223214285714,32.128571428571426,2889.4,556.2223214285714,32.128571428571426,2997.2,556.2223214285714,32.128571428571426,3101,556.2223214285714,32.128571428571426,3202,556.2223214285714,32.128571428571426,3307.5,556.2223214285714,32.128571428571426,3407.5,556.2223214285714,32.128571428571426,3509.9,556.2223214285714,32.128571428571426,3618,556.2223214285714,32.128571428571426,3722.3,556.2223214285714,32.128571428571426,3825.1,556.2223214285714,32.128571428571426,3932.8,556.2223214285714,32.128571428571426,4033.5,556.2223214285714,32.128571428571426,4137.7,556.2223214285714,32.128571428571426,4237.8,556.2223214285714,32.128571428571426,4341.7,556.2223214285714,32.128571428571426,4442.4,556.2223214285714,32.128571428571426,4544.5,556.2223214285714,32.128571428571426,4644.7,556.2223214285714,32.128571428571426,4751.1,556.2223214285714,32.128571428571426,4853,556.2223214285714,32.128571428571426,4958.3]","[1460.7,1460.7,1000,0,460.7,""smooth"",""up"",""up"",""good_move"",4388.8,2927.7,2485.1,1461.3,442.5,""oops"",""up"",""up"",""good_move"",11207.6,6818.2,2827.8,7943.6,436.2,""smooth"",""right"",""right"",""good_move"",18716.8,7508.7,2756.6,15440.1,520.2,""smooth"",""right"",""right"",""good_move"",21631.6,2914.6,2515.7,18717.2,398.8,""smooth"",""right"",""right"",""good_move"",24627.9,2995.9,2650.9,21632,345.1,""smooth"",""up"",""up"",""good_move""]"
"3961","","<div style=""width:500px;"">
  <p>What determined the result of this run?</p>
  </div>","93","html-slider-response","19","229694","0.0-7.0-1.1","159","1","2025-08-06 09:09:22","36c45c0696341be0efffe67d72a12abb","81.79.173.9","Mozilla/5.0 (Windows NT 10.0; Win64; x64) AppleWebKit/537.36 (KHTML, like Gecko) Chrome/109.0.0.0 Safari/537.36","WebKit","Chrome","109.0.0.0","Windows","10.0","https://app.prolific.com/","en-GB,en-US;q=0.9,en;q=0.8","5aea25acd9f2be0001933493","687a1a965b9f5b85a264363e","68931b397d56f8296907180c","1","5aea25acd9f2be0001933493","1","2025-08-06T09:13:19.743Z","","","","AttribQ","","","","","","","","","","","50","","","","","","","","","","","","","","","","","","","","","","","","","","",""
"2606","","<div style=""width:500px;"">
  <p>How much control did you have over the ball?</p>
  </div>","87","html-slider-response","20","232302","0.0-7.0-2.1","159","1","2025-08-06 09:09:22","36c45c0696341be0efffe67d72a12abb","81.79.173.9","Mozilla/5.0 (Windows NT 10.0; Win64; x64) AppleWebKit/537.36 (KHTML, like Gecko) Chrome/109.0.0.0 Safari/537.36","WebKit","Chrome","109.0.0.0","Windows","10.0","https://app.prolific.com/","en-GB,en-US;q=0.9,en;q=0.8","5aea25acd9f2be0001933493","687a1a965b9f5b85a264363e","68931b397d56f8296907180c","1","5aea25acd9f2be0001933493","1","2025-08-06T09:13:22.351Z","","","","ControlQ","","","","","","","","","","","50","","","","","","","","","","","","","","","","","","","","","","","","","","",""
"4014","","<div style=""width:500px;"">
  <p>How would you describe your current emotional state?</p>
  </div>","2","html-slider-response","21","236318","0.0-7.0-3.1","159","1","2025-08-06 09:09:22","36c45c0696341be0efffe67d72a12abb","81.79.173.9","Mozilla/5.0 (Windows NT 10.0; Win64; x64) AppleWebKit/537.36 (KHTML, like Gecko) Chrome/109.0.0.0 Safari/537.36","WebKit","Chrome","109.0.0.0","Windows","10.0","https://app.prolific.com/","en-GB,en-US;q=0.9,en;q=0.8","5aea25acd9f2be0001933493","687a1a965b9f5b85a264363e","68931b397d56f8296907180c","1","5aea25acd9f2be0001933493","1","2025-08-06T09:13:26.367Z","","","","StressQ","","","","","","","","","","","50","","","","","","","","","","","","","","","","","","","","","","","","","","",""
"2677","","<div style=""width:500px;"">
  <p>What best describes how you currently feel?</p>
  </div>","93","html-slider-response","22","238997","0.0-7.0-4.1","159","1","2025-08-06 09:09:22","36c45c0696341be0efffe67d72a12abb","81.79.173.9","Mozilla/5.0 (Windows NT 10.0; Win64; x64) AppleWebKit/537.36 (KHTML, like Gecko) Chrome/109.0.0.0 Safari/537.36","WebKit","Chrome","109.0.0.0","Windows","10.0","https://app.prolific.com/","en-GB,en-US;q=0.9,en;q=0.8","5aea25acd9f2be0001933493","687a1a965b9f5b85a264363e","68931b397d56f8296907180c","1","5aea25acd9f2be0001933493","1","2025-08-06T09:13:29.046Z","","","","MotivationQ","","","","","","","","","","","50","","","","","","","","","","","","","","","","","","","","","","","","","","",""
"","","","","ctl-task-cpt","23","267817","0.0-7.0-0.2","159","1","2025-08-06 09:09:22","36c45c0696341be0efffe67d72a12abb","81.79.173.9","Mozilla/5.0 (Windows NT 10.0; Win64; x64) AppleWebKit/537.36 (KHTML, like Gecko) Chrome/109.0.0.0 Safari/537.36","WebKit","Chrome","109.0.0.0","Windows","10.0","https://app.prolific.com/","en-GB,en-US;q=0.9,en;q=0.8","5aea25acd9f2be0001933493","687a1a965b9f5b85a264363e","68931b397d56f8296907180c","1","5aea25acd9f2be0001933493","1","2025-08-06T09:13:57.866Z","","","","","","","","","","","","","","","","win-only","1","g1:NE,g2:SW","0.8","3","0","245880.5","1422.1","6426.5","25812.9","1","4","8","6","2","8","8","12","4","0.09090909090909091","1087.2","3000","1380","[""down"",""left""]","{""num_key_presses"":6,""num_perfect"":4,""num_errors"":0,""num_randdir"":2,""num_randdir_good_moves"":2,""num_whilered"":0,""num_whileblue"":0,""num_blue"":1,""num_good_moves"":6}","[294.22232142857143,295.12857142857143,0.6,294.22232142857143,295.12857142857143,104.4,294.22232142857143,295.12857142857143,207.8,294.22232142857143,295.12857142857143,310,294.22232142857143,295.12857142857143,418.5,218.22232142857143,369.12857142857143,527.6,97.22232142857143,487.12857142857143,641.3,58.222321428571426,530.1285714285714,749.4,63.222321428571426,532.1285714285714,855.7,63.222321428571426,532.1285714285714,970.9,63.222321428571426,532.1285714285714,1072.7,63.222321428571426,532.1285714285714,1176,63.222321428571426,532.1285714285714,1278.4,63.222321428571426,532.1285714285714,1382.1,63.222321428571426,532.1285714285714,1493,63.222321428571426,532.1285714285714,1605.4,63.222321428571426,532.1285714285714,1707.5,63.222321428571426,532.1285714285714,1808.8,63.222321428571426,532.1285714285714,1912.9,63.222321428571426,532.1285714285714,2019.1,63.222321428571426,532.1285714285714,2123.3,63.222321428571426,532.1285714285714,2229.4,63.222321428571426,532.1285714285714,2339,63.222321428571426,532.1285714285714,2445,63.222321428571426,532.1285714285714,2547.8,63.222321428571426,532.1285714285714,2650.1,63.222321428571426,532.1285714285714,2759.1,63.222321428571426,532.1285714285714,2863.8,63.222321428571426,532.1285714285714,2969.2,63.222321428571426,532.1285714285714,3077.7,63.222321428571426,532.1285714285714,3180.6,63.222321428571426,532.1285714285714,3285.9,63.222321428571426,532.1285714285714,3391.6,63.222321428571426,532.1285714285714,3496.5,63.222321428571426,532.1285714285714,3597.1,63.222321428571426,532.1285714285714,3697.2,63.222321428571426,532.1285714285714,3800.8,63.222321428571426,532.1285714285714,3902.3,63.222321428571426,532.1285714285714,4008.2,63.222321428571426,532.1285714285714,4108.6,63.222321428571426,532.1285714285714,4213.1,63.222321428571426,532.1285714285714,4319.6,63.222321428571426,532.1285714285714,4426.9,63.222321428571426,532.1285714285714,4531.4,63.222321428571426,532.1285714285714,4631.8,63.222321428571426,532.1285714285714,4732.8,63.222321428571426,532.1285714285714,4840.7,63.222321428571426,532.1285714285714,4944.4]","[1371.4,1371.5,1000,0,371.5,""smooth"",""left"",""left"",""good_move"",4017.6,2645.7,2259.1,1372,386.5,""smooth"",""left"",""left"",""good_move"",6118.8,2100.7,1685.3,4018.1,415.4,""smooth"",""left"",""left"",""good_move"",12671.2,6551.9,2619.4,9656.4,395.4,""oops"",""down"",""down"",""good_move"",16545.8,3874.1,3409.2,12671.7,464.9,""oops"",""down"",""down"",""good_move"",19253.4,2707.1,2254.3,16546.4,452.8,""smooth"",""down"",""down"",""good_move""]"
"3598","","<div style=""width:500px;"">
  <p>What determined the result of this run?</p>
  </div>","99","html-slider-response","24","271418","0.0-7.0-1.2","159","1","2025-08-06 09:09:22","36c45c0696341be0efffe67d72a12abb","81.79.173.9","Mozilla/5.0 (Windows NT 10.0; Win64; x64) AppleWebKit/537.36 (KHTML, like Gecko) Chrome/109.0.0.0 Safari/537.36","WebKit","Chrome","109.0.0.0","Windows","10.0","https://app.prolific.com/","en-GB,en-US;q=0.9,en;q=0.8","5aea25acd9f2be0001933493","687a1a965b9f5b85a264363e","68931b397d56f8296907180c","1","5aea25acd9f2be0001933493","1","2025-08-06T09:14:01.467Z","","","","AttribQ","","","","","","","","","","","50","","","","","","","","","","","","","","","","","","","","","","","","","","",""
"2952","","<div style=""width:500px;"">
  <p>How much control did you have over the ball?</p>
  </div>","97","html-slider-response","25","274373","0.0-7.0-2.2","159","1","2025-08-06 09:09:22","36c45c0696341be0efffe67d72a12abb","81.79.173.9","Mozilla/5.0 (Windows NT 10.0; Win64; x64) AppleWebKit/537.36 (KHTML, like Gecko) Chrome/109.0.0.0 Safari/537.36","WebKit","Chrome","109.0.0.0","Windows","10.0","https://app.prolific.com/","en-GB,en-US;q=0.9,en;q=0.8","5aea25acd9f2be0001933493","687a1a965b9f5b85a264363e","68931b397d56f8296907180c","1","5aea25acd9f2be0001933493","1","2025-08-06T09:14:04.422Z","","","","ControlQ","","","","","","","","","","","50","","","","","","","","","","","","","","","","","","","","","","","","","","",""
"2182","","<div style=""width:500px;"">
  <p>How would you describe your current emotional state?</p>
  </div>","4","html-slider-response","26","276556","0.0-7.0-3.2","159","1","2025-08-06 09:09:22","36c45c0696341be0efffe67d72a12abb","81.79.173.9","Mozilla/5.0 (Windows NT 10.0; Win64; x64) AppleWebKit/537.36 (KHTML, like Gecko) Chrome/109.0.0.0 Safari/537.36","WebKit","Chrome","109.0.0.0","Windows","10.0","https://app.prolific.com/","en-GB,en-US;q=0.9,en;q=0.8","5aea25acd9f2be0001933493","687a1a965b9f5b85a264363e","68931b397d56f8296907180c","1","5aea25acd9f2be0001933493","1","2025-08-06T09:14:06.606Z","","","","StressQ","","","","","","","","","","","50","","","","","","","","","","","","","","","","","","","","","","","","","","",""
"2712","","<div style=""width:500px;"">
  <p>What best describes how you currently feel?</p>
  </div>","100","html-slider-response","27","279270","0.0-7.0-4.2","159","1","2025-08-06 09:09:22","36c45c0696341be0efffe67d72a12abb","81.79.173.9","Mozilla/5.0 (Windows NT 10.0; Win64; x64) AppleWebKit/537.36 (KHTML, like Gecko) Chrome/109.0.0.0 Safari/537.36","WebKit","Chrome","109.0.0.0","Windows","10.0","https://app.prolific.com/","en-GB,en-US;q=0.9,en;q=0.8","5aea25acd9f2be0001933493","687a1a965b9f5b85a264363e","68931b397d56f8296907180c","1","5aea25acd9f2be0001933493","1","2025-08-06T09:14:09.319Z","","","","MotivationQ","","","","","","","","","","","50","","","","","","","","","","","","","","","","","","","","","","","","","","",""
"","","","","ctl-task-cpt","28","309871","0.0-7.0-0.3","159","1","2025-08-06 09:09:22","36c45c0696341be0efffe67d72a12abb","81.79.173.9","Mozilla/5.0 (Windows NT 10.0; Win64; x64) AppleWebKit/537.36 (KHTML, like Gecko) Chrome/109.0.0.0 Safari/537.36","WebKit","Chrome","109.0.0.0","Windows","10.0","https://app.prolific.com/","en-GB,en-US;q=0.9,en;q=0.8","5aea25acd9f2be0001933493","687a1a965b9f5b85a264363e","68931b397d56f8296907180c","1","5aea25acd9f2be0001933493","1","2025-08-06T09:14:39.921Z","","","","","","","","","","","","","","","","win-only","0","g1:NW,g2:SE","0.7","4","0","286154.2","1471.3","6472.9","27588.2","1","4","4","6","2","4","4","16","12","0.12121212121212122","1100.3","3000","1330","[""down"",""right""]","{""num_key_presses"":8,""num_perfect"":5,""num_errors"":0,""num_randdir"":3,""num_randdir_good_moves"":2,""num_whilered"":0,""num_whileblue"":0,""num_blue"":0,""num_good_moves"":7}","[297.22232142857143,303.12857142857143,0.3,297.22232142857143,303.12857142857143,104.9,297.22232142857143,303.12857142857143,217.1,297.22232142857143,303.12857142857143,335.6,297.22232142857143,303.12857142857143,445.2,383.22232142857143,397.12857142857143,562.7,479.22232142857143,474.12857142857143,671,497.22232142857143,505.12857142857143,783.1,506.22232142857143,511.12857142857143,894.9,513.2223214285714,515.1285714285714,1010.4,513.2223214285714,515.1285714285714,1118.8,513.2223214285714,515.1285714285714,1227.2,513.2223214285714,515.1285714285714,1333.1,513.2223214285714,515.1285714285714,1435.9,513.2223214285714,515.1285714285714,1537.8,513.2223214285714,515.1285714285714,1640.6,513.2223214285714,515.1285714285714,1772.1,513.2223214285714,515.1285714285714,1875,513.2223214285714,515.1285714285714,1975,513.2223214285714,515.1285714285714,2081.4,513.2223214285714,515.1285714285714,2189.4,513.2223214285714,515.1285714285714,2289.9,513.2223214285714,515.1285714285714,2395.3,513.2223214285714,515.1285714285714,2504.4,513.2223214285714,515.1285714285714,2609.6,513.2223214285714,515.1285714285714,2710,513.2223214285714,515.1285714285714,2813.9,513.2223214285714,515.1285714285714,2919.7,513.2223214285714,515.1285714285714,3020.4,513.2223214285714,515.1285714285714,3126.9,513.2223214285714,515.1285714285714,3236.5,513.2223214285714,515.1285714285714,3341.1,513.2223214285714,515.1285714285714,3444.3,513.2223214285714,515.1285714285714,3545.1,513.2223214285714,515.1285714285714,3652.5,513.2223214285714,515.1285714285714,3759.2,513.2223214285714,515.1285714285714,3867.6,513.2223214285714,515.1285714285714,3971.8,513.2223214285714,515.1285714285714,4076.5,513.2223214285714,515.1285714285714,4185.6,513.2223214285714,515.1285714285714,4292.9,513.2223214285714,515.1285714285714,4402.3,513.2223214285714,515.1285714285714,4505,513.2223214285714,515.1285714285714,4606.1,513.2223214285714,515.1285714285714,4715.5,513.2223214285714,515.1285714285714,4817.9,513.2223214285714,515.1285714285714,4920]","[1482.8,1482.8,1000,0,482.8,""smooth"",""right"",""right"",""good_move"",3955.7,2472,2091,1483.7,381,""smooth"",""right"",""right"",""good_move"",6042.3,2085.9,1690.2,3956.4,395.7,""oops"",""right"",""right"",""good_move"",9153.2,3110.4,2648.1,6042.8,462.3,""smooth"",""down"",""down"",""good_move"",12123.7,2970.2,2577.4,9153.5,392.8,""smooth"",""down"",""down"",""good_move"",15302.3,3178.4,2799.4,12124,379,""oops"",""down"",""left"",""bad_move"",17626.8,2323.7,1938.7,15303.2,385,""oops"",""right"",""down"",""good_move"",20940.5,3312.6,2934.2,17627.9,378.4,""smooth"",""right"",""right"",""good_move""]"
"2740","","<div style=""width:500px;"">
  <p>What determined the result of this run?</p>
  </div>","89","html-slider-response","29","312615","0.0-7.0-1.3","159","1","2025-08-06 09:09:22","36c45c0696341be0efffe67d72a12abb","81.79.173.9","Mozilla/5.0 (Windows NT 10.0; Win64; x64) AppleWebKit/537.36 (KHTML, like Gecko) Chrome/109.0.0.0 Safari/537.36","WebKit","Chrome","109.0.0.0","Windows","10.0","https://app.prolific.com/","en-GB,en-US;q=0.9,en;q=0.8","5aea25acd9f2be0001933493","687a1a965b9f5b85a264363e","68931b397d56f8296907180c","1","5aea25acd9f2be0001933493","1","2025-08-06T09:14:42.664Z","","","","AttribQ","","","","","","","","","","","50","","","","","","","","","","","","","","","","","","","","","","","","","","",""
"2833","","<div style=""width:500px;"">
  <p>How much control did you have over the ball?</p>
  </div>","73","html-slider-response","30","315450","0.0-7.0-2.3","159","1","2025-08-06 09:09:22","36c45c0696341be0efffe67d72a12abb","81.79.173.9","Mozilla/5.0 (Windows NT 10.0; Win64; x64) AppleWebKit/537.36 (KHTML, like Gecko) Chrome/109.0.0.0 Safari/537.36","WebKit","Chrome","109.0.0.0","Windows","10.0","https://app.prolific.com/","en-GB,en-US;q=0.9,en;q=0.8","5aea25acd9f2be0001933493","687a1a965b9f5b85a264363e","68931b397d56f8296907180c","1","5aea25acd9f2be0001933493","1","2025-08-06T09:14:45.499Z","","","","ControlQ","","","","","","","","","","","50","","","","","","","","","","","","","","","","","","","","","","","","","","",""
"3183","","<div style=""width:500px;"">
  <p>How would you describe your current emotional state?</p>
  </div>","5","html-slider-response","31","318635","0.0-7.0-3.3","159","1","2025-08-06 09:09:22","36c45c0696341be0efffe67d72a12abb","81.79.173.9","Mozilla/5.0 (Windows NT 10.0; Win64; x64) AppleWebKit/537.36 (KHTML, like Gecko) Chrome/109.0.0.0 Safari/537.36","WebKit","Chrome","109.0.0.0","Windows","10.0","https://app.prolific.com/","en-GB,en-US;q=0.9,en;q=0.8","5aea25acd9f2be0001933493","687a1a965b9f5b85a264363e","68931b397d56f8296907180c","1","5aea25acd9f2be0001933493","1","2025-08-06T09:14:48.685Z","","","","StressQ","","","","","","","","","","","50","","","","","","","","","","","","","","","","","","","","","","","","","","",""
"2639","","<div style=""width:500px;"">
  <p>What best describes how you currently feel?</p>
  </div>","97","html-slider-response","32","321277","0.0-7.0-4.3","159","1","2025-08-06 09:09:22","36c45c0696341be0efffe67d72a12abb","81.79.173.9","Mozilla/5.0 (Windows NT 10.0; Win64; x64) AppleWebKit/537.36 (KHTML, like Gecko) Chrome/109.0.0.0 Safari/537.36","WebKit","Chrome","109.0.0.0","Windows","10.0","https://app.prolific.com/","en-GB,en-US;q=0.9,en;q=0.8","5aea25acd9f2be0001933493","687a1a965b9f5b85a264363e","68931b397d56f8296907180c","1","5aea25acd9f2be0001933493","1","2025-08-06T09:14:51.326Z","","","","MotivationQ","","","","","","","","","","","50","","","","","","","","","","","","","","","","","","","","","","","","","","",""
"","","","","ctl-task-cpt","33","371935","0.0-7.0-0.4","159","1","2025-08-06 09:09:22","36c45c0696341be0efffe67d72a12abb","81.79.173.9","Mozilla/5.0 (Windows NT 10.0; Win64; x64) AppleWebKit/537.36 (KHTML, like Gecko) Chrome/109.0.0.0 Safari/537.36","WebKit","Chrome","109.0.0.0","Windows","10.0","https://app.prolific.com/","en-GB,en-US;q=0.9,en;q=0.8","5aea25acd9f2be0001933493","687a1a965b9f5b85a264363e","68931b397d56f8296907180c","1","5aea25acd9f2be0001933493","1","2025-08-06T09:15:41.984Z","","","","","","","","","","","","","","","","win-only","1","g1:NE,g2:SW","0.6","5","0","328159.7","2098.6","7104.4","47648.5","1","4","8","6","2","8","8","24","16","0.18181818181818182","1197.2","3000","820","[""down"",""left""]","{""num_key_presses"":14,""num_perfect"":9,""num_errors"":0,""num_randdir"":5,""num_randdir_good_moves"":1,""num_whilered"":0,""num_whileblue"":0,""num_blue"":0,""num_good_moves"":10}","[292.22232142857143,300.12857142857143,0.5,292.22232142857143,300.12857142857143,106.3,292.22232142857143,300.12857142857143,208.1,292.22232142857143,300.12857142857143,316.2,292.22232142857143,300.12857142857143,420.5,292.22232142857143,300.12857142857143,525.5,292.22232142857143,300.12857142857143,627.5,82.22232142857143,507.12857142857143,745.1,68.22232142857143,517.1285714285714,860.1,66.22232142857143,518.1285714285714,962.6,66.22232142857143,518.1285714285714,1071.2,66.22232142857143,518.1285714285714,1191.1,66.22232142857143,518.1285714285714,1296.9,66.22232142857143,518.1285714285714,1402,66.22232142857143,518.1285714285714,1518,66.22232142857143,518.1285714285714,1633,66.22232142857143,518.1285714285714,1745.3,66.22232142857143,518.1285714285714,1847.7,66.22232142857143,518.1285714285714,1951.5,66.22232142857143,518.1285714285714,2057.8,66.22232142857143,518.1285714285714,2164.8,66.22232142857143,518.1285714285714,2271,66.22232142857143,518.1285714285714,2377.6,66.22232142857143,518.1285714285714,2489.9,66.22232142857143,518.1285714285714,2592.3,66.22232142857143,518.1285714285714,2698.9,66.22232142857143,518.1285714285714,2810.6,66.22232142857143,518.1285714285714,2911.4,66.22232142857143,518.1285714285714,3015.1,66.22232142857143,518.1285714285714,3125.9,66.22232142857143,518.1285714285714,3226.5,66.22232142857143,518.1285714285714,3335.5,66.22232142857143,518.1285714285714,3442.9,66.22232142857143,518.1285714285714,3552.6,66.22232142857143,518.1285714285714,3656.2,66.22232142857143,518.1285714285714,3764.4,66.22232142857143,518.1285714285714,3871.3,66.22232142857143,518.1285714285714,3981.4,66.22232142857143,518.1285714285714,4093.8,66.22232142857143,518.1285714285714,4204.2,66.22232142857143,518.1285714285714,4305.3,66.22232142857143,518.1285714285714,4410.5,66.22232142857143,518.1285714285714,4518.5,66.22232142857143,518.1285714285714,4619.7,66.22232142857143,518.1285714285714,4731.6,66.22232142857143,518.1285714285714,4833.9,66.22232142857143,518.1285714285714,4946.3]","[1384.6,1384.7,1000,0,384.7,""smooth"",""left"",""left"",""good_move"",4946.3,3561.3,3083.5,1385.1,477.8,""oops"",""left"",""up"",""bad_move"",8171.6,3223.8,2811.5,4947.8,412.3,""oops"",""left"",""left"",""good_move"",11326,3153.6,2827.6,8172.4,326,""smooth"",""left"",""left"",""good_move"",14079.7,2753.2,2420.2,11326.5,333.1,""smooth"",""down"",""down"",""good_move"",17299.6,3219.4,2810.5,14080.2,408.9,""smooth"",""down"",""down"",""good_move"",20477.1,3177.1,2784.7,17300,392.4,""smooth"",""down"",""down"",""good_move"",23400.9,2923.3,2506.4,20477.6,416.9,""oops"",""down"",""up"",""bad_move"",25725.7,2323.9,1744,23401.8,579.9,""oops"",""down"",""up"",""bad_move"",28957,3230.9,2865.4,25726.1,365.5,""smooth"",""down"",""down"",""good_move"",31401.9,2444.4,2064.4,28957.5,380,""oops"",""down"",""up"",""bad_move"",34577,3174.8,2851.5,31402.3,323.3,""smooth"",""down"",""down"",""good_move"",37483.3,2905.7,2596.7,34577.7,308.9,""smooth"",""down"",""down"",""good_move"",40339.4,2855.6,2507.9,37483.8,347.7,""smooth"",""down"",""down"",""good_move""]"
"3444","","<div style=""width:500px;"">
  <p>What determined the result of this run?</p>
  </div>","68","html-slider-response","34","375383","0.0-7.0-1.4","159","1","2025-08-06 09:09:22","36c45c0696341be0efffe67d72a12abb","81.79.173.9","Mozilla/5.0 (Windows NT 10.0; Win64; x64) AppleWebKit/537.36 (KHTML, like Gecko) Chrome/109.0.0.0 Safari/537.36","WebKit","Chrome","109.0.0.0","Windows","10.0","https://app.prolific.com/","en-GB,en-US;q=0.9,en;q=0.8","5aea25acd9f2be0001933493","687a1a965b9f5b85a264363e","68931b397d56f8296907180c","1","5aea25acd9f2be0001933493","1","2025-08-06T09:15:45.432Z","","","","AttribQ","","","","","","","","","","","50","","","","","","","","","","","","","","","","","","","","","","","","","","",""
"3040","","<div style=""width:500px;"">
  <p>How much control did you have over the ball?</p>
  </div>","50","html-slider-response","35","378424","0.0-7.0-2.4","159","1","2025-08-06 09:09:22","36c45c0696341be0efffe67d72a12abb","81.79.173.9","Mozilla/5.0 (Windows NT 10.0; Win64; x64) AppleWebKit/537.36 (KHTML, like Gecko) Chrome/109.0.0.0 Safari/537.36","WebKit","Chrome","109.0.0.0","Windows","10.0","https://app.prolific.com/","en-GB,en-US;q=0.9,en;q=0.8","5aea25acd9f2be0001933493","687a1a965b9f5b85a264363e","68931b397d56f8296907180c","1","5aea25acd9f2be0001933493","1","2025-08-06T09:15:48.473Z","","","","ControlQ","","","","","","","","","","","50","","","","","","","","","","","","","","","","","","","","","","","","","","",""
"2787","","<div style=""width:500px;"">
  <p>How would you describe your current emotional state?</p>
  </div>","11","html-slider-response","36","381213","0.0-7.0-3.4","159","1","2025-08-06 09:09:22","36c45c0696341be0efffe67d72a12abb","81.79.173.9","Mozilla/5.0 (Windows NT 10.0; Win64; x64) AppleWebKit/537.36 (KHTML, like Gecko) Chrome/109.0.0.0 Safari/537.36","WebKit","Chrome","109.0.0.0","Windows","10.0","https://app.prolific.com/","en-GB,en-US;q=0.9,en;q=0.8","5aea25acd9f2be0001933493","687a1a965b9f5b85a264363e","68931b397d56f8296907180c","1","5aea25acd9f2be0001933493","1","2025-08-06T09:15:51.263Z","","","","StressQ","","","","","","","","","","","50","","","","","","","","","","","","","","","","","","","","","","","","","","",""
"2847","","<div style=""width:500px;"">
  <p>What best describes how you currently feel?</p>
  </div>","96","html-slider-response","37","384062","0.0-7.0-4.4","159","1","2025-08-06 09:09:22","36c45c0696341be0efffe67d72a12abb","81.79.173.9","Mozilla/5.0 (Windows NT 10.0; Win64; x64) AppleWebKit/537.36 (KHTML, like Gecko) Chrome/109.0.0.0 Safari/537.36","WebKit","Chrome","109.0.0.0","Windows","10.0","https://app.prolific.com/","en-GB,en-US;q=0.9,en;q=0.8","5aea25acd9f2be0001933493","687a1a965b9f5b85a264363e","68931b397d56f8296907180c","1","5aea25acd9f2be0001933493","1","2025-08-06T09:15:54.111Z","","","","MotivationQ","","","","","","","","","","","50","","","","","","","","","","","","","","","","","","","","","","","","","","",""
"","","","","ctl-task-cpt","38","458362","0.0-7.0-0.5","159","1","2025-08-06 09:09:22","36c45c0696341be0efffe67d72a12abb","81.79.173.9","Mozilla/5.0 (Windows NT 10.0; Win64; x64) AppleWebKit/537.36 (KHTML, like Gecko) Chrome/109.0.0.0 Safari/537.36","WebKit","Chrome","109.0.0.0","Windows","10.0","https://app.prolific.com/","en-GB,en-US;q=0.9,en;q=0.8","5aea25acd9f2be0001933493","687a1a965b9f5b85a264363e","68931b397d56f8296907180c","1","5aea25acd9f2be0001933493","1","2025-08-06T09:17:08.411Z","","","","","","","","","","","","","","","","win-only","2","g1:SE,g2:NW","0.5","6","0","390945.2","1796.8","6801.4","71284.4","1","4","4","6","2","4","4","28","24","0.21212121212121213","1267.9","3000","820","[""left"",""up""]","{""num_key_presses"":16,""num_perfect"":9,""num_errors"":0,""num_randdir"":7,""num_randdir_good_moves"":2,""num_whilered"":0,""num_whileblue"":0,""num_blue"":5,""num_good_moves"":11}","[299.22232142857143,298.12857142857143,0.3,299.22232142857143,298.12857142857143,112.5,299.22232142857143,298.12857142857143,218.8,299.22232142857143,298.12857142857143,327.8,299.22232142857143,298.12857142857143,428.5,299.22232142857143,298.12857142857143,535,299.22232142857143,298.12857142857143,636.6,96.22232142857143,207.12857142857143,746,66.22232142857143,106.12857142857143,853.1,66.22232142857143,103.12857142857143,964.7,73.22232142857143,55.128571428571426,1076,73.22232142857143,55.128571428571426,1185.2,73.22232142857143,55.128571428571426,1294,73.22232142857143,55.128571428571426,1405,73.22232142857143,55.128571428571426,1506,73.22232142857143,55.128571428571426,1606.7,73.22232142857143,55.128571428571426,1711.2,73.22232142857143,55.128571428571426,1818.3,73.22232142857143,55.128571428571426,1923.3,73.22232142857143,55.128571428571426,2028.2,73.22232142857143,55.128571428571426,2138,73.22232142857143,55.128571428571426,2246.7,73.22232142857143,55.128571428571426,2346.9,73.22232142857143,55.128571428571426,2456.6,73.22232142857143,55.128571428571426,2570.8,73.22232142857143,55.128571428571426,2678.7,73.22232142857143,55.128571428571426,2789.1,73.22232142857143,55.128571428571426,2891.6,73.22232142857143,55.128571428571426,3003,73.22232142857143,55.128571428571426,3109.9,73.22232142857143,55.128571428571426,3217.1,73.22232142857143,55.128571428571426,3323.5,73.22232142857143,55.128571428571426,3435.3,73.22232142857143,55.128571428571426,3539.1,73.22232142857143,55.128571428571426,3646.5,73.22232142857143,55.128571428571426,3754.8,73.22232142857143,55.128571428571426,3861.5,73.22232142857143,55.128571428571426,3962.1,73.22232142857143,55.128571428571426,4070.1,73.22232142857143,55.128571428571426,4179.7,73.22232142857143,55.128571428571426,4292,73.22232142857143,55.128571428571426,4396.8,73.22232142857143,55.128571428571426,4509,73.22232142857143,55.128571428571426,4620.4,73.22232142857143,55.128571428571426,4731.5,73.22232142857143,55.128571428571426,4834.7,73.22232142857143,55.128571428571426,4941.8]","[1402,1402,1000,0,402,""oops"",""left"",""down"",""bad_move"",8864.3,7461.9,3002.4,5371,490.9,""smooth"",""left"",""left"",""good_move"",11562.2,2697.7,2104.8,8864.6,592.9,""oops"",""left"",""up"",""good_move"",14221.9,2659.2,1972.5,11562.7,686.7,""smooth"",""left"",""left"",""good_move"",17162.7,2940.5,2571.6,14222.3,368.9,""oops"",""left"",""right"",""bad_move"",20654.2,3490.4,3031.8,17163.9,458.6,""smooth"",""left"",""left"",""good_move"",26959.7,6305,2093.6,24451.7,414.5,""smooth"",""left"",""left"",""good_move"",30287,3326.9,2941.9,26960.1,385,""oops"",""up"",""right"",""bad_move"",33857.9,3570.3,3223.6,30287.6,346.7,""oops"",""left"",""left"",""good_move"",36973.7,3115.1,2746.4,33858.6,368.7,""smooth"",""up"",""up"",""good_move"",40113.7,3139.6,2204.5,36974.1,935.1,""oops"",""up"",""down"",""bad_move"",46185.5,6071.2,2534.7,43342.1,308.8,""smooth"",""up"",""up"",""good_move"",56843.5,10657.6,3230.2,53259.2,354.1,""smooth"",""up"",""up"",""good_move"",59492.9,2649.1,2183.9,56843.8,465.2,""oops"",""up"",""right"",""bad_move"",61763.1,2269.4,1893.5,59493.7,375.9,""smooth"",""up"",""up"",""good_move"",64261.9,2497.9,1870.1,61764,627.8,""smooth"",""left"",""left"",""good_move""]"
"3784","","<div style=""width:500px;"">
  <p>What determined the result of this run?</p>
  </div>","92","html-slider-response","39","462148","0.0-7.0-1.5","159","1","2025-08-06 09:09:22","36c45c0696341be0efffe67d72a12abb","81.79.173.9","Mozilla/5.0 (Windows NT 10.0; Win64; x64) AppleWebKit/537.36 (KHTML, like Gecko) Chrome/109.0.0.0 Safari/537.36","WebKit","Chrome","109.0.0.0","Windows","10.0","https://app.prolific.com/","en-GB,en-US;q=0.9,en;q=0.8","5aea25acd9f2be0001933493","687a1a965b9f5b85a264363e","68931b397d56f8296907180c","1","5aea25acd9f2be0001933493","1","2025-08-06T09:17:12.198Z","","","","AttribQ","","","","","","","","","","","50","","","","","","","","","","","","","","","","","","","","","","","","","","",""
"2316","","<div style=""width:500px;"">
  <p>How much control did you have over the ball?</p>
  </div>","74","html-slider-response","40","464466","0.0-7.0-2.5","159","1","2025-08-06 09:09:22","36c45c0696341be0efffe67d72a12abb","81.79.173.9","Mozilla/5.0 (Windows NT 10.0; Win64; x64) AppleWebKit/537.36 (KHTML, like Gecko) Chrome/109.0.0.0 Safari/537.36","WebKit","Chrome","109.0.0.0","Windows","10.0","https://app.prolific.com/","en-GB,en-US;q=0.9,en;q=0.8","5aea25acd9f2be0001933493","687a1a965b9f5b85a264363e","68931b397d56f8296907180c","1","5aea25acd9f2be0001933493","1","2025-08-06T09:17:14.515Z","","","","ControlQ","","","","","","","","","","","50","","","","","","","","","","","","","","","","","","","","","","","","","","",""
"2254","","<div style=""width:500px;"">
  <p>How would you describe your current emotional state?</p>
  </div>","12","html-slider-response","41","466723","0.0-7.0-3.5","159","1","2025-08-06 09:09:22","36c45c0696341be0efffe67d72a12abb","81.79.173.9","Mozilla/5.0 (Windows NT 10.0; Win64; x64) AppleWebKit/537.36 (KHTML, like Gecko) Chrome/109.0.0.0 Safari/537.36","WebKit","Chrome","109.0.0.0","Windows","10.0","https://app.prolific.com/","en-GB,en-US;q=0.9,en;q=0.8","5aea25acd9f2be0001933493","687a1a965b9f5b85a264363e","68931b397d56f8296907180c","1","5aea25acd9f2be0001933493","1","2025-08-06T09:17:16.772Z","","","","StressQ","","","","","","","","","","","50","","","","","","","","","","","","","","","","","","","","","","","","","","",""
"2002","","<div style=""width:500px;"">
  <p>What best describes how you currently feel?</p>
  </div>","94","html-slider-response","42","468727","0.0-7.0-4.5","159","1","2025-08-06 09:09:22","36c45c0696341be0efffe67d72a12abb","81.79.173.9","Mozilla/5.0 (Windows NT 10.0; Win64; x64) AppleWebKit/537.36 (KHTML, like Gecko) Chrome/109.0.0.0 Safari/537.36","WebKit","Chrome","109.0.0.0","Windows","10.0","https://app.prolific.com/","en-GB,en-US;q=0.9,en;q=0.8","5aea25acd9f2be0001933493","687a1a965b9f5b85a264363e","68931b397d56f8296907180c","1","5aea25acd9f2be0001933493","1","2025-08-06T09:17:18.776Z","","","","MotivationQ","","","","","","","","","","","50","","","","","","","","","","","","","","","","","","","","","","","","","","",""
"","","","","ctl-task-cpt","43","587946","0.0-7.0-0.6","159","1","2025-08-06 09:09:22","36c45c0696341be0efffe67d72a12abb","81.79.173.9","Mozilla/5.0 (Windows NT 10.0; Win64; x64) AppleWebKit/537.36 (KHTML, like Gecko) Chrome/109.0.0.0 Safari/537.36","WebKit","Chrome","109.0.0.0","Windows","10.0","https://app.prolific.com/","en-GB,en-US;q=0.9,en;q=0.8","5aea25acd9f2be0001933493","687a1a965b9f5b85a264363e","68931b397d56f8296907180c","1","5aea25acd9f2be0001933493","1","2025-08-06T09:19:17.995Z","","","","","","","","","","","","","","","","win-only","1","g1:NE,g2:SW","0.4","7","0","475607.6","999.1","6004.6","116199.6","1","4","8","6","2","-8","-12","16","28","0.12121212121212122","1063.7","3000","-970","[""down"",""left""]","{""num_key_presses"":31,""num_perfect"":12,""num_errors"":4,""num_randdir"":15,""num_randdir_good_moves"":4,""num_whilered"":0,""num_whileblue"":2,""num_blue"":7,""num_good_moves"":17}","[295.22232142857143,293.12857142857143,0.4,295.22232142857143,292.12857142857143,115.5,295.22232142857143,292.12857142857143,220.9,295.22232142857143,292.12857142857143,333.3,295.22232142857143,292.12857142857143,456.8,295.22232142857143,292.12857142857143,560.5,280.22232142857143,309.12857142857143,681,144.22232142857143,447.12857142857143,791.1,95.22232142857143,511.12857142857143,900.1,79.22232142857143,528.1285714285714,1010.9,52.222321428571426,558.1285714285714,1115.6,52.222321428571426,558.1285714285714,1230.1,52.222321428571426,558.1285714285714,1353,52.222321428571426,558.1285714285714,1456.3,52.222321428571426,558.1285714285714,1561.9,52.222321428571426,558.1285714285714,1670.6,52.222321428571426,558.1285714285714,1776,52.222321428571426,558.1285714285714,1888.8,52.222321428571426,558.1285714285714,2008.5,52.222321428571426,558.1285714285714,2122.8,52.222321428571426,558.1285714285714,2223.6,52.222321428571426,558.1285714285714,2327.8,52.222321428571426,558.1285714285714,2434.6,52.222321428571426,558.1285714285714,2539.1,52.222321428571426,558.1285714285714,2639.8,52.222321428571426,558.1285714285714,2740.8,52.222321428571426,558.1285714285714,2845.9,52.222321428571426,558.1285714285714,2954.3,52.222321428571426,558.1285714285714,3070.2,52.222321428571426,558.1285714285714,3170.7,52.222321428571426,558.1285714285714,3276.7,52.222321428571426,558.1285714285714,3391.4,52.222321428571426,558.1285714285714,3493.6,52.222321428571426,558.1285714285714,3610,52.222321428571426,558.1285714285714,3720.7,52.222321428571426,558.1285714285714,3826.4,52.222321428571426,558.1285714285714,3928.3,52.222321428571426,558.1285714285714,4043.3,52.222321428571426,558.1285714285714,4160.3,52.222321428571426,558.1285714285714,4260.8,52.222321428571426,558.1285714285714,4370.4,52.222321428571426,558.1285714285714,4475.7,52.222321428571426,558.1285714285714,4591,52.222321428571426,558.1285714285714,4706.7,52.222321428571426,558.1285714285714,4806.8,52.222321428571426,558.1285714285714,4922.6]","[1400.2,1400.2,1000,0,400.2,""oops"",""left"",""down"",""good_move"",4718,3317.5,2934.9,1400.6,382.6,""smooth"",""left"",""left"",""good_move"",7879,3160.6,2686.8,4719.1,473.1,""oops"",""left"",""down"",""good_move"",10997.5,3118,2650.6,7879.5,467.4,""oops"",""left"",""up"",""bad_move"",14132,3134,2665.4,10998,468.6,""oops"",""left"",""up"",""bad_move"",17237.5,3105.1,2221,14132.4,884.1,""oops"",""left"",""right"",""bad_move"",20494.3,3256.4,2935.7,17238.1,320.5,""oops"",""left"",""right"",""bad_move"",26518,6023.2,2411.9,23754.9,351.2,""smooth"",""down"",""down"",""good_move"",29694.8,3176.5,2843.4,26518.3,333.1,""smooth"",""down"",""down"",""good_move"",35258.3,5562.9,1997.7,32931.6,329,""smooth"",""down"",""down"",""good_move"",38299.1,3040.4,2661.5,35258.7,378.9,""oops"",""left"",""right"",""bad_move"",43456.6,5157.3,1923.4,41142.5,390.8,""oops"",""left"",""up"",""bad_move"",47133.6,3676.4,3287.4,43457.2,389,""oops"",""left"",""left"",""good_move"",50264.6,3130.3,2736.7,47134.3,393.6,""smooth"",""left"",""left"",""good_move"",57262,6996.8,2744.4,54023.7,493.9,""smooth"",""left"",""left"",""good_move"",60999.5,3737.2,2053.7,57262.3,1683.5,""oops"",""left"",""down"",""good_move"",63619.7,2619.6,2184.9,61000.1,434.7,""oops"",""left"",""right"",""bad_move"",66658.6,3038.4,2633,63620.2,405.4,""oops"",""left"",""right"",""bad_move"",69409.8,2750.9,2384.9,66658.9,366,""smooth"",""left"",""left"",""good_move"",75190.3,5779.9,1651.9,73150.6,387.8,""smooth"",""left"",""left"",""good_move"",78298.4,3107.8,2608,75190.6,499.8,""oops"",""left"",""up"",""bad_move"",81666.9,3368.2,3002.3,78298.8,365.8,""smooth"",""left"",""left"",""good_move"",84748.4,3081.3,2358.4,81667.1,722.9,""smooth"",""left"",""left"",""good_move"",88610.1,3861.4,3403.2,84748.7,458.2,""oops"",""down"",""right"",""bad_move"",91944,3333.4,2938.3,88610.6,395.1,""oops"",""left"",""right"",""bad_move"",95021.2,3076.9,2651.2,91944.5,425.6,""smooth"",""left"",""left"",""good_move"",98165.1,3143.4,2544.9,95021.7,598.5,""smooth"",""left"",""left"",""good_move"",101048.3,2882.6,2724.6,98165.7,158,""while_blue"",""down"",""up"",""bad_move"",101941.3,892.6,2207.6,101048.7,-1315,""error"",""-"",""-"",""no_move"",103255.2,1313.8,2788.8,102954.7,-2488.3,""error"",""-"",""-"",""no_move"",107412.7,4156.8,2866.4,104271.4,275,""while_blue"",""down"",""down"",""good_move""]"
"3105","","<div style=""width:500px;"">
  <p>What determined the result of this run?</p>
  </div>","9","html-slider-response","44","591053","0.0-7.0-1.6","159","1","2025-08-06 09:09:22","36c45c0696341be0efffe67d72a12abb","81.79.173.9","Mozilla/5.0 (Windows NT 10.0; Win64; x64) AppleWebKit/537.36 (KHTML, like Gecko) Chrome/109.0.0.0 Safari/537.36","WebKit","Chrome","109.0.0.0","Windows","10.0","https://app.prolific.com/","en-GB,en-US;q=0.9,en;q=0.8","5aea25acd9f2be0001933493","687a1a965b9f5b85a264363e","68931b397d56f8296907180c","1","5aea25acd9f2be0001933493","1","2025-08-06T09:19:21.102Z","","","","AttribQ","","","","","","","","","","","50","","","","","","","","","","","","","","","","","","","","","","","","","","",""
"2748","","<div style=""width:500px;"">
  <p>How much control did you have over the ball?</p>
  </div>","7","html-slider-response","45","593803","0.0-7.0-2.6","159","1","2025-08-06 09:09:22","36c45c0696341be0efffe67d72a12abb","81.79.173.9","Mozilla/5.0 (Windows NT 10.0; Win64; x64) AppleWebKit/537.36 (KHTML, like Gecko) Chrome/109.0.0.0 Safari/537.36","WebKit","Chrome","109.0.0.0","Windows","10.0","https://app.prolific.com/","en-GB,en-US;q=0.9,en;q=0.8","5aea25acd9f2be0001933493","687a1a965b9f5b85a264363e","68931b397d56f8296907180c","1","5aea25acd9f2be0001933493","1","2025-08-06T09:19:23.852Z","","","","ControlQ","","","","","","","","","","","50","","","","","","","","","","","","","","","","","","","","","","","","","","",""
"2317","","<div style=""width:500px;"">
  <p>How would you describe your current emotional state?</p>
  </div>","72","html-slider-response","46","596122","0.0-7.0-3.6","159","1","2025-08-06 09:09:22","36c45c0696341be0efffe67d72a12abb","81.79.173.9","Mozilla/5.0 (Windows NT 10.0; Win64; x64) AppleWebKit/537.36 (KHTML, like Gecko) Chrome/109.0.0.0 Safari/537.36","WebKit","Chrome","109.0.0.0","Windows","10.0","https://app.prolific.com/","en-GB,en-US;q=0.9,en;q=0.8","5aea25acd9f2be0001933493","687a1a965b9f5b85a264363e","68931b397d56f8296907180c","1","5aea25acd9f2be0001933493","1","2025-08-06T09:19:26.171Z","","","","StressQ","","","","","","","","","","","50","","","","","","","","","","","","","","","","","","","","","","","","","","",""
"1567","","<div style=""width:500px;"">
  <p>What best describes how you currently feel?</p>
  </div>","70","html-slider-response","47","597691","0.0-7.0-4.6","159","1","2025-08-06 09:09:22","36c45c0696341be0efffe67d72a12abb","81.79.173.9","Mozilla/5.0 (Windows NT 10.0; Win64; x64) AppleWebKit/537.36 (KHTML, like Gecko) Chrome/109.0.0.0 Safari/537.36","WebKit","Chrome","109.0.0.0","Windows","10.0","https://app.prolific.com/","en-GB,en-US;q=0.9,en;q=0.8","5aea25acd9f2be0001933493","687a1a965b9f5b85a264363e","68931b397d56f8296907180c","1","5aea25acd9f2be0001933493","1","2025-08-06T09:19:27.740Z","","","","MotivationQ","","","","","","","","","","","50","","","","","","","","","","","","","","","","","","","","","","","","","","",""
"","","","","ctl-task-cpt","48","640159","0.0-7.0-0.7","159","1","2025-08-06 09:09:22","36c45c0696341be0efffe67d72a12abb","81.79.173.9","Mozilla/5.0 (Windows NT 10.0; Win64; x64) AppleWebKit/537.36 (KHTML, like Gecko) Chrome/109.0.0.0 Safari/537.36","WebKit","Chrome","109.0.0.0","Windows","10.0","https://app.prolific.com/","en-GB,en-US;q=0.9,en;q=0.8","5aea25acd9f2be0001933493","687a1a965b9f5b85a264363e","68931b397d56f8296907180c","1","5aea25acd9f2be0001933493","1","2025-08-06T09:20:10.208Z","","","","","","","","","","","","","","","","win-only","2","g1:SE,g2:NW","0.3","8","0","604575.1","1418","6422","39444.2","1","4","4","6","2","4","4","20","16","0.15151515151515152","1161.3","3000","2160","[""left"",""up""]","{""num_key_presses"":8,""num_perfect"":3,""num_errors"":0,""num_randdir"":5,""num_randdir_good_moves"":4,""num_whilered"":0,""num_whileblue"":0,""num_blue"":2,""num_good_moves"":7}","[296.22232142857143,296.12857142857143,0.7,296.22232142857143,296.12857142857143,101.2,296.22232142857143,296.12857142857143,206.7,296.22232142857143,296.12857142857143,327,296.22232142857143,296.12857142857143,437,324.22232142857143,340.12857142857143,544.8,244.22232142857143,239.12857142857143,665.4,99.22232142857143,105.12857142857143,779.7,99.22232142857143,105.12857142857143,890.3,99.22232142857143,105.12857142857143,996.5,66.22232142857143,66.12857142857143,1106.7,65.22232142857143,63.128571428571426,1234.4,65.22232142857143,63.128571428571426,1496.4,65.22232142857143,63.128571428571426,1616.5,65.22232142857143,63.128571428571426,1741.3,65.22232142857143,63.128571428571426,1860.6,65.22232142857143,63.128571428571426,1979.4,65.22232142857143,63.128571428571426,2091.5,65.22232142857143,63.128571428571426,2210.6,65.22232142857143,63.128571428571426,2314.7,65.22232142857143,63.128571428571426,2427,65.22232142857143,63.128571428571426,2528.8,65.22232142857143,63.128571428571426,2643.1,65.22232142857143,63.128571428571426,2755.5,65.22232142857143,63.128571428571426,2862.2,65.22232142857143,63.128571428571426,2980.7,65.22232142857143,63.128571428571426,3089.3,65.22232142857143,63.128571428571426,3190.6,65.22232142857143,63.128571428571426,3299.3,65.22232142857143,63.128571428571426,3411.3,65.22232142857143,63.128571428571426,3520.6,65.22232142857143,63.128571428571426,3626.5,65.22232142857143,63.128571428571426,3733,65.22232142857143,63.128571428571426,3842.2,65.22232142857143,63.128571428571426,3948.9,65.22232142857143,63.128571428571426,4065.4,65.22232142857143,63.128571428571426,4172.4,65.22232142857143,63.128571428571426,4273.9,65.22232142857143,63.128571428571426,4379.1,65.22232142857143,63.128571428571426,4483.7,65.22232142857143,63.128571428571426,4592.4,65.22232142857143,63.128571428571426,4702,65.22232142857143,63.128571428571426,4810.8,65.22232142857143,63.128571428571426,4927.6]","[1406,1406,1000,0,406,""oops"",""up"",""left"",""good_move"",4834.3,3427.7,2218.4,1406.6,1209.3,""oops"",""up"",""down"",""bad_move"",10861.5,6026.7,2410.4,8035.1,416,""oops"",""left"",""left"",""good_move"",14322.8,3460.8,2647.3,10862.1,813.5,""oops"",""left"",""up"",""good_move"",17681.3,3357.9,2789.8,14323.5,568.1,""oops"",""left"",""left"",""good_move"",21052.9,3371.1,2488.2,17681.8,882.9,""smooth"",""up"",""up"",""good_move"",28488,7434.7,2933.7,25116.5,437.9,""smooth"",""up"",""up"",""good_move"",32674.1,4185,2982.9,28489.1,1202.1,""smooth"",""up"",""up"",""good_move""]"
"3500","","<div style=""width:500px;"">
  <p>What determined the result of this run?</p>
  </div>","84","html-slider-response","49","643660","0.0-7.0-1.7","159","1","2025-08-06 09:09:22","36c45c0696341be0efffe67d72a12abb","81.79.173.9","Mozilla/5.0 (Windows NT 10.0; Win64; x64) AppleWebKit/537.36 (KHTML, like Gecko) Chrome/109.0.0.0 Safari/537.36","WebKit","Chrome","109.0.0.0","Windows","10.0","https://app.prolific.com/","en-GB,en-US;q=0.9,en;q=0.8","5aea25acd9f2be0001933493","687a1a965b9f5b85a264363e","68931b397d56f8296907180c","1","5aea25acd9f2be0001933493","1","2025-08-06T09:20:13.710Z","","","","AttribQ","","","","","","","","","","","50","","","","","","","","","","","","","","","","","","","","","","","","","","",""
"3742","","<div style=""width:500px;"">
  <p>How much control did you have over the ball?</p>
  </div>","62","html-slider-response","50","647406","0.0-7.0-2.7","159","1","2025-08-06 09:09:22","36c45c0696341be0efffe67d72a12abb","81.79.173.9","Mozilla/5.0 (Windows NT 10.0; Win64; x64) AppleWebKit/537.36 (KHTML, like Gecko) Chrome/109.0.0.0 Safari/537.36","WebKit","Chrome","109.0.0.0","Windows","10.0","https://app.prolific.com/","en-GB,en-US;q=0.9,en;q=0.8","5aea25acd9f2be0001933493","687a1a965b9f5b85a264363e","68931b397d56f8296907180c","1","5aea25acd9f2be0001933493","1","2025-08-06T09:20:17.455Z","","","","ControlQ","","","","","","","","","","","50","","","","","","","","","","","","","","","","","","","","","","","","","","",""
"2545","","<div style=""width:500px;"">
  <p>How would you describe your current emotional state?</p>
  </div>","27","html-slider-response","51","649952","0.0-7.0-3.7","159","1","2025-08-06 09:09:22","36c45c0696341be0efffe67d72a12abb","81.79.173.9","Mozilla/5.0 (Windows NT 10.0; Win64; x64) AppleWebKit/537.36 (KHTML, like Gecko) Chrome/109.0.0.0 Safari/537.36","WebKit","Chrome","109.0.0.0","Windows","10.0","https://app.prolific.com/","en-GB,en-US;q=0.9,en;q=0.8","5aea25acd9f2be0001933493","687a1a965b9f5b85a264363e","68931b397d56f8296907180c","1","5aea25acd9f2be0001933493","1","2025-08-06T09:20:20.002Z","","","","StressQ","","","","","","","","","","","50","","","","","","","","","","","","","","","","","","","","","","","","","","",""
"2738","","<div style=""width:500px;"">
  <p>What best describes how you currently feel?</p>
  </div>","69","html-slider-response","52","652693","0.0-7.0-4.7","159","1","2025-08-06 09:09:22","36c45c0696341be0efffe67d72a12abb","81.79.173.9","Mozilla/5.0 (Windows NT 10.0; Win64; x64) AppleWebKit/537.36 (KHTML, like Gecko) Chrome/109.0.0.0 Safari/537.36","WebKit","Chrome","109.0.0.0","Windows","10.0","https://app.prolific.com/","en-GB,en-US;q=0.9,en;q=0.8","5aea25acd9f2be0001933493","687a1a965b9f5b85a264363e","68931b397d56f8296907180c","1","5aea25acd9f2be0001933493","1","2025-08-06T09:20:22.742Z","","","","MotivationQ","","","","","","","","","","","50","","","","","","","","","","","","","","","","","","","","","","","","","","",""
"","","","","ctl-task-cpt","53","702034","0.0-7.0-0.8","159","1","2025-08-06 09:09:22","36c45c0696341be0efffe67d72a12abb","81.79.173.9","Mozilla/5.0 (Windows NT 10.0; Win64; x64) AppleWebKit/537.36 (KHTML, like Gecko) Chrome/109.0.0.0 Safari/537.36","WebKit","Chrome","109.0.0.0","Windows","10.0","https://app.prolific.com/","en-GB,en-US;q=0.9,en;q=0.8","5aea25acd9f2be0001933493","687a1a965b9f5b85a264363e","68931b397d56f8296907180c","1","5aea25acd9f2be0001933493","1","2025-08-06T09:21:12.083Z","","","","","","","","","","","","","","","","win-only","0","g1:NW,g2:SE","0.4","9","0","659570.3","1364.4","6369.6","46322.4","1","4","4","6","2","4","3","23","20","0.17424242424242425","1205.9","3000","1665","[""down"",""right""]","{""num_key_presses"":10,""num_perfect"":4,""num_errors"":1,""num_randdir"":5,""num_randdir_good_moves"":4,""num_whilered"":0,""num_whileblue"":1,""num_blue"":4,""num_good_moves"":8}","[290.22232142857143,297.12857142857143,0.3,290.22232142857143,297.12857142857143,113.9,290.22232142857143,297.12857142857143,230.7,290.22232142857143,297.12857142857143,332.3,290.22232142857143,297.12857142857143,451.9,290.22232142857143,297.12857142857143,567.9,330.22232142857143,349.12857142857143,682.1,509.22232142857143,536.1285714285714,799.9,511.22232142857143,546.1285714285714,907.9,525.2223214285714,548.1285714285714,1026,525.2223214285714,548.1285714285714,1135.6,525.2223214285714,548.1285714285714,1250.3,525.2223214285714,548.1285714285714,1353,525.2223214285714,548.1285714285714,1459.3,525.2223214285714,548.1285714285714,1577.3,525.2223214285714,548.1285714285714,1684.1,525.2223214285714,548.1285714285714,1788.7,525.2223214285714,548.1285714285714,1894.7,525.2223214285714,548.1285714285714,2011.7,525.2223214285714,548.1285714285714,2125.8,525.2223214285714,548.1285714285714,2240.7,525.2223214285714,548.1285714285714,2354.4,525.2223214285714,548.1285714285714,2469.4,525.2223214285714,548.1285714285714,2573.3,525.2223214285714,548.1285714285714,2682.9,525.2223214285714,548.1285714285714,2789.9,525.2223214285714,548.1285714285714,2890.6,525.2223214285714,548.1285714285714,3006.5,525.2223214285714,548.1285714285714,3108,525.2223214285714,548.1285714285714,3218.8,525.2223214285714,548.1285714285714,3327,525.2223214285714,548.1285714285714,3445,525.2223214285714,548.1285714285714,3550.6,525.2223214285714,548.1285714285714,3666.5,525.2223214285714,548.1285714285714,3783.9,525.2223214285714,548.1285714285714,3896.4,525.2223214285714,548.1285714285714,4012.9,525.2223214285714,548.1285714285714,4114.2,525.2223214285714,548.1285714285714,4230.8,525.2223214285714,548.1285714285714,4343.1,525.2223214285714,548.1285714285714,4454.8,525.2223214285714,548.1285714285714,4556.5,525.2223214285714,548.1285714285714,4657,525.2223214285714,548.1285714285714,4770.2,525.2223214285714,548.1285714285714,4886.5]","[1391.3,1391.3,1000,0,391.3,""oops"",""right"",""down"",""good_move"",4629.3,3237.6,2869.8,1391.7,367.8,""oops"",""right"",""right"",""good_move"",14151.8,9521.2,2646.9,11181.2,323.7,""while_blue"",""right"",""up"",""bad_move"",17788.1,3635.8,2534.1,14152.3,1101.7,""smooth"",""right"",""right"",""good_move"",20390.2,2601.8,1353.6,17788.4,1248.2,""smooth"",""right"",""right"",""good_move"",23070.2,2679.6,2323.8,20390.6,355.8,""oops"",""down"",""up"",""bad_move"",26754.6,3683.8,3250.8,23070.8,433,""smooth"",""down"",""down"",""good_move"",32765,6010,2340.4,30010.4,414.2,""oops"",""down"",""down"",""good_move"",36454.6,3689.2,2350.4,32765.4,1338.8,""oops"",""down"",""down"",""good_move"",39464,3008.8,2544.4,36455.2,464.4,""smooth"",""down"",""down"",""good_move""]"
"3977","","<div style=""width:500px;"">
  <p>What determined the result of this run?</p>
  </div>","87","html-slider-response","54","706013","0.0-7.0-1.8","159","1","2025-08-06 09:09:22","36c45c0696341be0efffe67d72a12abb","81.79.173.9","Mozilla/5.0 (Windows NT 10.0; Win64; x64) AppleWebKit/537.36 (KHTML, like Gecko) Chrome/109.0.0.0 Safari/537.36","WebKit","Chrome","109.0.0.0","Windows","10.0","https://app.prolific.com/","en-GB,en-US;q=0.9,en;q=0.8","5aea25acd9f2be0001933493","687a1a965b9f5b85a264363e","68931b397d56f8296907180c","1","5aea25acd9f2be0001933493","1","2025-08-06T09:21:16.062Z","","","","AttribQ","","","","","","","","","","","50","","","","","","","","","","","","","","","","","","","","","","","","","","",""
"2644","","<div style=""width:500px;"">
  <p>How much control did you have over the ball?</p>
  </div>","76","html-slider-response","55","708659","0.0-7.0-2.8","159","1","2025-08-06 09:09:22","36c45c0696341be0efffe67d72a12abb","81.79.173.9","Mozilla/5.0 (Windows NT 10.0; Win64; x64) AppleWebKit/537.36 (KHTML, like Gecko) Chrome/109.0.0.0 Safari/537.36","WebKit","Chrome","109.0.0.0","Windows","10.0","https://app.prolific.com/","en-GB,en-US;q=0.9,en;q=0.8","5aea25acd9f2be0001933493","687a1a965b9f5b85a264363e","68931b397d56f8296907180c","1","5aea25acd9f2be0001933493","1","2025-08-06T09:21:18.709Z","","","","ControlQ","","","","","","","","","","","50","","","","","","","","","","","","","","","","","","","","","","","","","","",""
"2604","","<div style=""width:500px;"">
  <p>How would you describe your current emotional state?</p>
  </div>","38","html-slider-response","56","711266","0.0-7.0-3.8","159","1","2025-08-06 09:09:22","36c45c0696341be0efffe67d72a12abb","81.79.173.9","Mozilla/5.0 (Windows NT 10.0; Win64; x64) AppleWebKit/537.36 (KHTML, like Gecko) Chrome/109.0.0.0 Safari/537.36","WebKit","Chrome","109.0.0.0","Windows","10.0","https://app.prolific.com/","en-GB,en-US;q=0.9,en;q=0.8","5aea25acd9f2be0001933493","687a1a965b9f5b85a264363e","68931b397d56f8296907180c","1","5aea25acd9f2be0001933493","1","2025-08-06T09:21:21.315Z","","","","StressQ","","","","","","","","","","","50","","","","","","","","","","","","","","","","","","","","","","","","","","",""
"1943","","<div style=""width:500px;"">
  <p>What best describes how you currently feel?</p>
  </div>","77","html-slider-response","57","713211","0.0-7.0-4.8","159","1","2025-08-06 09:09:22","36c45c0696341be0efffe67d72a12abb","81.79.173.9","Mozilla/5.0 (Windows NT 10.0; Win64; x64) AppleWebKit/537.36 (KHTML, like Gecko) Chrome/109.0.0.0 Safari/537.36","WebKit","Chrome","109.0.0.0","Windows","10.0","https://app.prolific.com/","en-GB,en-US;q=0.9,en;q=0.8","5aea25acd9f2be0001933493","687a1a965b9f5b85a264363e","68931b397d56f8296907180c","1","5aea25acd9f2be0001933493","1","2025-08-06T09:21:23.260Z","","","","MotivationQ","","","","","","","","","","","50","","","","","","","","","","","","","","","","","","","","","","","","","","",""
"","","","","ctl-task-cpt","58","784316","0.0-7.0-0.9","159","1","2025-08-06 09:09:22","36c45c0696341be0efffe67d72a12abb","81.79.173.9","Mozilla/5.0 (Windows NT 10.0; Win64; x64) AppleWebKit/537.36 (KHTML, like Gecko) Chrome/109.0.0.0 Safari/537.36","WebKit","Chrome","109.0.0.0","Windows","10.0","https://app.prolific.com/","en-GB,en-US;q=0.9,en;q=0.8","5aea25acd9f2be0001933493","687a1a965b9f5b85a264363e","68931b397d56f8296907180c","1","5aea25acd9f2be0001933493","1","2025-08-06T09:22:34.365Z","","","","","","","","","","","","","","","","win-only","1","g1:NE,g2:SW","0.5","10","0","720087.8","1376.6","6401.6","68086.5","1","4","8","6","2","8","6","29","23","0.2196969696969697","1000.6","3000","1645","[""down"",""left""]","{""num_key_presses"":16,""num_perfect"":7,""num_errors"":2,""num_randdir"":7,""num_randdir_good_moves"":3,""num_whilered"":0,""num_whileblue"":2,""num_blue"":4,""num_good_moves"":11}","[302.22232142857143,297.12857142857143,0.3,302.22232142857143,297.12857142857143,107,302.22232142857143,297.12857142857143,228.2,302.22232142857143,297.12857142857143,340.7,302.22232142857143,297.12857142857143,449.7,302.22232142857143,295.12857142857143,549.8,104.22232142857143,501.12857142857143,655.6,96.22232142857143,508.12857142857143,768,69.22232142857143,520.1285714285714,872.1,64.22232142857143,522.1285714285714,973.8,64.22232142857143,522.1285714285714,1085.7,64.22232142857143,522.1285714285714,1186.1,64.22232142857143,522.1285714285714,1292.2,64.22232142857143,522.1285714285714,1396.6,64.22232142857143,522.1285714285714,1504.3,64.22232142857143,522.1285714285714,1623.4,64.22232142857143,522.1285714285714,1723.7,64.22232142857143,522.1285714285714,1833.8,64.22232142857143,522.1285714285714,1934.3,64.22232142857143,522.1285714285714,2053.1,64.22232142857143,522.1285714285714,2155.4,64.22232142857143,522.1285714285714,2265.1,64.22232142857143,522.1285714285714,2368.1,64.22232142857143,522.1285714285714,2486.1,64.22232142857143,522.1285714285714,2588.6,64.22232142857143,522.1285714285714,2705,64.22232142857143,522.1285714285714,2823.9,64.22232142857143,522.1285714285714,2926.4,64.22232142857143,522.1285714285714,3041.3,64.22232142857143,522.1285714285714,3152.1,64.22232142857143,522.1285714285714,3254.3,64.22232142857143,522.1285714285714,3369.9,64.22232142857143,522.1285714285714,3490.5,64.22232142857143,522.1285714285714,3591,64.22232142857143,522.1285714285714,3706.4,64.22232142857143,522.1285714285714,3823.2,64.22232142857143,522.1285714285714,3938.4,64.22232142857143,522.1285714285714,4038.7,64.22232142857143,522.1285714285714,4139.3,64.22232142857143,522.1285714285714,4245.1,64.22232142857143,522.1285714285714,4364.2,64.22232142857143,522.1285714285714,4466.2,64.22232142857143,522.1285714285714,4569.9,64.22232142857143,522.1285714285714,4672.7,64.22232142857143,522.1285714285714,4773.3,64.22232142857143,522.1285714285714,4889.5,64.22232142857143,522.1285714285714,4990.9]","[1399.8,1399.9,1000,0,399.9,""smooth"",""down"",""down"",""good_move"",4574.5,3174.4,2771.6,1400.2,402.7,""oops"",""left"",""up"",""bad_move"",8512.9,3937.8,1840.8,4575.1,2097,""oops"",""down"",""right"",""bad_move"",11203.9,2690.6,2230.3,8513.3,460.3,""oops"",""down"",""left"",""good_move"",15377.1,4171.3,3779.3,11205.8,392,""while_blue"",""down"",""up"",""bad_move"",19165.4,3787.8,3465.9,15377.6,321.9,""while_blue"",""down"",""left"",""good_move"",23077.4,3911.4,2541.4,19166,1370,""oops"",""down"",""up"",""bad_move"",26880.3,3802.5,1515.4,23077.8,2287.1,""smooth"",""left"",""left"",""good_move"",34338.1,7457.5,2705.4,31267.3,365.4,""smooth"",""left"",""left"",""good_move"",38181.2,3842.7,2313.9,34338.5,1528.8,""oops"",""down"",""left"",""good_move"",42213.5,4031.8,1763.5,38181.7,2268.3,""smooth"",""down"",""down"",""good_move"",45623.9,3410,3026.1,42213.9,383.9,""smooth"",""down"",""down"",""good_move"",48680,3055.5,2693.6,45624.6,361.9,""smooth"",""down"",""down"",""good_move"",51615.9,2935.6,2566.3,48680.3,369.4,""smooth"",""down"",""down"",""good_move"",58234.9,6618.4,2407.1,55319.4,508.4,""oops"",""down"",""right"",""bad_move"",61305.7,3070.5,2615.3,58235.3,455.1,""oops"",""down"",""down"",""good_move""]"
"3109","","<div style=""width:500px;"">
  <p>What determined the result of this run?</p>
  </div>","66","html-slider-response","59","787427","0.0-7.0-1.9","159","1","2025-08-06 09:09:22","36c45c0696341be0efffe67d72a12abb","81.79.173.9","Mozilla/5.0 (Windows NT 10.0; Win64; x64) AppleWebKit/537.36 (KHTML, like Gecko) Chrome/109.0.0.0 Safari/537.36","WebKit","Chrome","109.0.0.0","Windows","10.0","https://app.prolific.com/","en-GB,en-US;q=0.9,en;q=0.8","5aea25acd9f2be0001933493","687a1a965b9f5b85a264363e","68931b397d56f8296907180c","1","5aea25acd9f2be0001933493","1","2025-08-06T09:22:37.476Z","","","","AttribQ","","","","","","","","","","","50","","","","","","","","","","","","","","","","","","","","","","","","","","",""
"3126","","<div style=""width:500px;"">
  <p>How much control did you have over the ball?</p>
  </div>","64","html-slider-response","60","790555","0.0-7.0-2.9","159","1","2025-08-06 09:09:22","36c45c0696341be0efffe67d72a12abb","81.79.173.9","Mozilla/5.0 (Windows NT 10.0; Win64; x64) AppleWebKit/537.36 (KHTML, like Gecko) Chrome/109.0.0.0 Safari/537.36","WebKit","Chrome","109.0.0.0","Windows","10.0","https://app.prolific.com/","en-GB,en-US;q=0.9,en;q=0.8","5aea25acd9f2be0001933493","687a1a965b9f5b85a264363e","68931b397d56f8296907180c","1","5aea25acd9f2be0001933493","1","2025-08-06T09:22:40.604Z","","","","ControlQ","","","","","","","","","","","50","","","","","","","","","","","","","","","","","","","","","","","","","","",""
"2474","","<div style=""width:500px;"">
  <p>How would you describe your current emotional state?</p>
  </div>","44","html-slider-response","61","793031","0.0-7.0-3.9","159","1","2025-08-06 09:09:22","36c45c0696341be0efffe67d72a12abb","81.79.173.9","Mozilla/5.0 (Windows NT 10.0; Win64; x64) AppleWebKit/537.36 (KHTML, like Gecko) Chrome/109.0.0.0 Safari/537.36","WebKit","Chrome","109.0.0.0","Windows","10.0","https://app.prolific.com/","en-GB,en-US;q=0.9,en;q=0.8","5aea25acd9f2be0001933493","687a1a965b9f5b85a264363e","68931b397d56f8296907180c","1","5aea25acd9f2be0001933493","1","2025-08-06T09:22:43.080Z","","","","StressQ","","","","","","","","","","","50","","","","","","","","","","","","","","","","","","","","","","","","","","",""
"2220","","<div style=""width:500px;"">
  <p>What best describes how you currently feel?</p>
  </div>","77","html-slider-response","62","795253","0.0-7.0-4.9","159","1","2025-08-06 09:09:22","36c45c0696341be0efffe67d72a12abb","81.79.173.9","Mozilla/5.0 (Windows NT 10.0; Win64; x64) AppleWebKit/537.36 (KHTML, like Gecko) Chrome/109.0.0.0 Safari/537.36","WebKit","Chrome","109.0.0.0","Windows","10.0","https://app.prolific.com/","en-GB,en-US;q=0.9,en;q=0.8","5aea25acd9f2be0001933493","687a1a965b9f5b85a264363e","68931b397d56f8296907180c","1","5aea25acd9f2be0001933493","1","2025-08-06T09:22:45.302Z","","","","MotivationQ","","","","","","","","","","","50","","","","","","","","","","","","","","","","","","","","","","","","","","",""
"","","","","ctl-task-cpt","63","843145","0.0-7.0-0.10","159","1","2025-08-06 09:09:22","36c45c0696341be0efffe67d72a12abb","81.79.173.9","Mozilla/5.0 (Windows NT 10.0; Win64; x64) AppleWebKit/537.36 (KHTML, like Gecko) Chrome/109.0.0.0 Safari/537.36","WebKit","Chrome","109.0.0.0","Windows","10.0","https://app.prolific.com/","en-GB,en-US;q=0.9,en;q=0.8","5aea25acd9f2be0001933493","687a1a965b9f5b85a264363e","68931b397d56f8296907180c","1","5aea25acd9f2be0001933493","1","2025-08-06T09:23:33.195Z","","","","","","","","","","","","","","","","win-only","1","g1:NE,g2:SW","0.6","11","0","802129","2956.2","7962","44867.9","1","4","8","6","2","8","8","37","29","0.2803030303030303","1243.4","3000","2375","[""down"",""left""]","{""num_key_presses"":6,""num_perfect"":5,""num_errors"":0,""num_randdir"":1,""num_randdir_good_moves"":1,""num_whilered"":0,""num_whileblue"":0,""num_blue"":5,""num_good_moves"":6}","[293.22232142857143,293.12857142857143,0.5,293.22232142857143,293.12857142857143,101.5,293.22232142857143,293.12857142857143,208.5,293.22232142857143,293.12857142857143,329.4,293.22232142857143,293.12857142857143,451.6,293.22232142857143,293.12857142857143,570.3,280.22232142857143,304.12857142857143,687.8,96.22232142857143,473.12857142857143,792.8,59.222321428571426,513.1285714285714,909.6,33.222321428571426,549.1285714285714,1025.8,33.222321428571426,549.1285714285714,1140.1,33.222321428571426,549.1285714285714,1255.1,33.222321428571426,549.1285714285714,1355.9,33.222321428571426,549.1285714285714,1457.3,33.222321428571426,549.1285714285714,1589.8,33.222321428571426,549.1285714285714,1704.2,33.222321428571426,549.1285714285714,1818.3,33.222321428571426,549.1285714285714,1924.8,33.222321428571426,549.1285714285714,2034.2,33.222321428571426,549.1285714285714,2150.2,33.222321428571426,549.1285714285714,2263,33.222321428571426,549.1285714285714,2404.7,33.222321428571426,549.1285714285714,2517.4,33.222321428571426,549.1285714285714,2627.4,33.222321428571426,549.1285714285714,2737.9,33.222321428571426,549.1285714285714,2855.6,33.222321428571426,549.1285714285714,2976.6,33.222321428571426,549.1285714285714,3095.4,33.222321428571426,549.1285714285714,3209.9,33.222321428571426,549.1285714285714,3319.5,33.222321428571426,549.1285714285714,3430.7,33.222321428571426,549.1285714285714,3553.6,33.222321428571426,549.1285714285714,3669.7,33.222321428571426,549.1285714285714,3777.6,33.222321428571426,549.1285714285714,3882.8,33.222321428571426,549.1285714285714,3993.4,33.222321428571426,549.1285714285714,4102.6,33.222321428571426,549.1285714285714,4212.3,33.222321428571426,549.1285714285714,4322.4,33.222321428571426,549.1285714285714,4432.9,33.222321428571426,549.1285714285714,4537.7,33.222321428571426,549.1285714285714,4642,33.222321428571426,549.1285714285714,4749.1,33.222321428571426,549.1285714285714,4859,33.222321428571426,549.1285714285714,4962.7]","[6860.6,6860.6,1824,4528.6,508,""smooth"",""left"",""left"",""good_move"",11020.4,4159.5,2349.1,6860.9,1810.5,""smooth"",""left"",""left"",""good_move"",19241.6,8220.8,3077.2,15737.2,427.2,""smooth"",""left"",""left"",""good_move"",30478,11236.1,2777.1,27260.7,440.2,""smooth"",""down"",""down"",""good_move"",32869.8,2391.4,1767.9,30478.4,623.5,""oops"",""down"",""down"",""good_move"",36437.1,3566.6,3126,32870.5,440.6,""smooth"",""down"",""down"",""good_move""]"
"3806","","<div style=""width:500px;"">
  <p>What determined the result of this run?</p>
  </div>","90","html-slider-response","64","846954","0.0-7.0-1.10","159","1","2025-08-06 09:09:22","36c45c0696341be0efffe67d72a12abb","81.79.173.9","Mozilla/5.0 (Windows NT 10.0; Win64; x64) AppleWebKit/537.36 (KHTML, like Gecko) Chrome/109.0.0.0 Safari/537.36","WebKit","Chrome","109.0.0.0","Windows","10.0","https://app.prolific.com/","en-GB,en-US;q=0.9,en;q=0.8","5aea25acd9f2be0001933493","687a1a965b9f5b85a264363e","68931b397d56f8296907180c","1","5aea25acd9f2be0001933493","1","2025-08-06T09:23:37.003Z","","","","AttribQ","","","","","","","","","","","50","","","","","","","","","","","","","","","","","","","","","","","","","","",""
"2413","","<div style=""width:500px;"">
  <p>How much control did you have over the ball?</p>
  </div>","77","html-slider-response","65","849369","0.0-7.0-2.10","159","1","2025-08-06 09:09:22","36c45c0696341be0efffe67d72a12abb","81.79.173.9","Mozilla/5.0 (Windows NT 10.0; Win64; x64) AppleWebKit/537.36 (KHTML, like Gecko) Chrome/109.0.0.0 Safari/537.36","WebKit","Chrome","109.0.0.0","Windows","10.0","https://app.prolific.com/","en-GB,en-US;q=0.9,en;q=0.8","5aea25acd9f2be0001933493","687a1a965b9f5b85a264363e","68931b397d56f8296907180c","1","5aea25acd9f2be0001933493","1","2025-08-06T09:23:39.418Z","","","","ControlQ","","","","","","","","","","","50","","","","","","","","","","","","","","","","","","","","","","","","","","",""
"3464","","<div style=""width:500px;"">
  <p>How would you describe your current emotional state?</p>
  </div>","9","html-slider-response","66","852835","0.0-7.0-3.10","159","1","2025-08-06 09:09:22","36c45c0696341be0efffe67d72a12abb","81.79.173.9","Mozilla/5.0 (Windows NT 10.0; Win64; x64) AppleWebKit/537.36 (KHTML, like Gecko) Chrome/109.0.0.0 Safari/537.36","WebKit","Chrome","109.0.0.0","Windows","10.0","https://app.prolific.com/","en-GB,en-US;q=0.9,en;q=0.8","5aea25acd9f2be0001933493","687a1a965b9f5b85a264363e","68931b397d56f8296907180c","1","5aea25acd9f2be0001933493","1","2025-08-06T09:23:42.885Z","","","","StressQ","","","","","","","","","","","50","","","","","","","","","","","","","","","","","","","","","","","","","","",""
"2305","","<div style=""width:500px;"">
  <p>What best describes how you currently feel?</p>
  </div>","82","html-slider-response","67","855142","0.0-7.0-4.10","159","1","2025-08-06 09:09:22","36c45c0696341be0efffe67d72a12abb","81.79.173.9","Mozilla/5.0 (Windows NT 10.0; Win64; x64) AppleWebKit/537.36 (KHTML, like Gecko) Chrome/109.0.0.0 Safari/537.36","WebKit","Chrome","109.0.0.0","Windows","10.0","https://app.prolific.com/","en-GB,en-US;q=0.9,en;q=0.8","5aea25acd9f2be0001933493","687a1a965b9f5b85a264363e","68931b397d56f8296907180c","1","5aea25acd9f2be0001933493","1","2025-08-06T09:23:45.191Z","","","","MotivationQ","","","","","","","","","","","50","","","","","","","","","","","","","","","","","","","","","","","","","","",""
"","","","","ctl-task-cpt","68","897122","0.0-7.0-0.11","159","1","2025-08-06 09:09:22","36c45c0696341be0efffe67d72a12abb","81.79.173.9","Mozilla/5.0 (Windows NT 10.0; Win64; x64) AppleWebKit/537.36 (KHTML, like Gecko) Chrome/109.0.0.0 Safari/537.36","WebKit","Chrome","109.0.0.0","Windows","10.0","https://app.prolific.com/","en-GB,en-US;q=0.9,en;q=0.8","5aea25acd9f2be0001933493","687a1a965b9f5b85a264363e","68931b397d56f8296907180c","1","5aea25acd9f2be0001933493","1","2025-08-06T09:24:27.171Z","","","","","","","","","","","","","","","","win-only","2","g1:SE,g2:NW","0.7","12","0","862017.5","2925.3","7932.2","38951.9","1","4","4","6","2","4","4","41","37","0.3106060606060606","1351.8","3000","2465","[""left"",""up""]","{""num_key_presses"":6,""num_perfect"":5,""num_errors"":0,""num_randdir"":1,""num_randdir_good_moves"":1,""num_whilered"":0,""num_whileblue"":0,""num_blue"":2,""num_good_moves"":6}","[297.22232142857143,290.12857142857143,0.4,297.22232142857143,290.12857142857143,107.4,297.22232142857143,290.12857142857143,229.5,297.22232142857143,290.12857142857143,351,297.22232142857143,290.12857142857143,467.8,297.22232142857143,290.12857142857143,577.3,151.22232142857143,127.12857142857143,698.3,98.22232142857143,83.12857142857143,820.6,98.22232142857143,82.12857142857143,943.4,98.22232142857143,82.12857142857143,1057.2,98.22232142857143,82.12857142857143,1174.5,98.22232142857143,82.12857142857143,1290.6,98.22232142857143,82.12857142857143,1393.1,98.22232142857143,82.12857142857143,1514.8,98.22232142857143,82.12857142857143,1632,98.22232142857143,82.12857142857143,1746.8,98.22232142857143,82.12857142857143,1861.9,98.22232142857143,82.12857142857143,1974.1,98.22232142857143,82.12857142857143,2078,98.22232142857143,82.12857142857143,2197.2,98.22232142857143,82.12857142857143,2318.7,98.22232142857143,82.12857142857143,2435.4,98.22232142857143,82.12857142857143,2549.7,98.22232142857143,82.12857142857143,2666.8,98.22232142857143,82.12857142857143,2784.4,98.22232142857143,82.12857142857143,2907.2,98.22232142857143,82.12857142857143,3025.7,98.22232142857143,82.12857142857143,3150,98.22232142857143,82.12857142857143,3268.6,98.22232142857143,82.12857142857143,3381.7,98.22232142857143,82.12857142857143,3501.3,98.22232142857143,82.12857142857143,3617.4,98.22232142857143,82.12857142857143,3733.6,98.22232142857143,82.12857142857143,3849.6,98.22232142857143,82.12857142857143,3966,98.22232142857143,82.12857142857143,4088.1,98.22232142857143,82.12857142857143,4188.8,98.22232142857143,82.12857142857143,4309.7,98.22232142857143,82.12857142857143,4428.4,98.22232142857143,82.12857142857143,4541.5,98.22232142857143,82.12857142857143,4661.4,98.22232142857143,82.12857142857143,4777.4,98.22232142857143,82.12857142857143,4891.6]","[1489.2,1489.1,1000,0.1,489.1,""smooth"",""up"",""up"",""good_move"",6579.4,5089,2548.1,1490.4,2540.9,""smooth"",""up"",""up"",""good_move"",11079.9,4499.9,2839.7,6580,1660.2,""oops"",""left"",""up"",""good_move"",18514.1,7433.5,2032.2,16061,420.9,""smooth"",""left"",""left"",""good_move"",26135.9,7621.5,2255.3,23451.5,429.1,""smooth"",""left"",""left"",""good_move"",30460,4323.8,1614.9,26136.2,2708.9,""smooth"",""left"",""left"",""good_move""]"
"3067","","<div style=""width:500px;"">
  <p>What determined the result of this run?</p>
  </div>","93","html-slider-response","69","900191","0.0-7.0-1.11","159","1","2025-08-06 09:09:22","36c45c0696341be0efffe67d72a12abb","81.79.173.9","Mozilla/5.0 (Windows NT 10.0; Win64; x64) AppleWebKit/537.36 (KHTML, like Gecko) Chrome/109.0.0.0 Safari/537.36","WebKit","Chrome","109.0.0.0","Windows","10.0","https://app.prolific.com/","en-GB,en-US;q=0.9,en;q=0.8","5aea25acd9f2be0001933493","687a1a965b9f5b85a264363e","68931b397d56f8296907180c","1","5aea25acd9f2be0001933493","1","2025-08-06T09:24:30.240Z","","","","AttribQ","","","","","","","","","","","50","","","","","","","","","","","","","","","","","","","","","","","","","","",""
"2545","","<div style=""width:500px;"">
  <p>How much control did you have over the ball?</p>
  </div>","93","html-slider-response","70","902738","0.0-7.0-2.11","159","1","2025-08-06 09:09:22","36c45c0696341be0efffe67d72a12abb","81.79.173.9","Mozilla/5.0 (Windows NT 10.0; Win64; x64) AppleWebKit/537.36 (KHTML, like Gecko) Chrome/109.0.0.0 Safari/537.36","WebKit","Chrome","109.0.0.0","Windows","10.0","https://app.prolific.com/","en-GB,en-US;q=0.9,en;q=0.8","5aea25acd9f2be0001933493","687a1a965b9f5b85a264363e","68931b397d56f8296907180c","1","5aea25acd9f2be0001933493","1","2025-08-06T09:24:32.787Z","","","","ControlQ","","","","","","","","","","","50","","","","","","","","","","","","","","","","","","","","","","","","","","",""
"3123","","<div style=""width:500px;"">
  <p>How would you describe your current emotional state?</p>
  </div>","10","html-slider-response","71","905863","0.0-7.0-3.11","159","1","2025-08-06 09:09:22","36c45c0696341be0efffe67d72a12abb","81.79.173.9","Mozilla/5.0 (Windows NT 10.0; Win64; x64) AppleWebKit/537.36 (KHTML, like Gecko) Chrome/109.0.0.0 Safari/537.36","WebKit","Chrome","109.0.0.0","Windows","10.0","https://app.prolific.com/","en-GB,en-US;q=0.9,en;q=0.8","5aea25acd9f2be0001933493","687a1a965b9f5b85a264363e","68931b397d56f8296907180c","1","5aea25acd9f2be0001933493","1","2025-08-06T09:24:35.912Z","","","","StressQ","","","","","","","","","","","50","","","","","","","","","","","","","","","","","","","","","","","","","","",""
"2261","","<div style=""width:500px;"">
  <p>What best describes how you currently feel?</p>
  </div>","97","html-slider-response","72","908127","0.0-7.0-4.11","159","1","2025-08-06 09:09:22","36c45c0696341be0efffe67d72a12abb","81.79.173.9","Mozilla/5.0 (Windows NT 10.0; Win64; x64) AppleWebKit/537.36 (KHTML, like Gecko) Chrome/109.0.0.0 Safari/537.36","WebKit","Chrome","109.0.0.0","Windows","10.0","https://app.prolific.com/","en-GB,en-US;q=0.9,en;q=0.8","5aea25acd9f2be0001933493","687a1a965b9f5b85a264363e","68931b397d56f8296907180c","1","5aea25acd9f2be0001933493","1","2025-08-06T09:24:38.176Z","","","","MotivationQ","","","","","","","","","","","50","","","","","","","","","","","","","","","","","","","","","","","","","","",""
"","","","","ctl-task-cpt","73","952155","0.0-7.0-0.12","159","1","2025-08-06 09:09:22","36c45c0696341be0efffe67d72a12abb","81.79.173.9","Mozilla/5.0 (Windows NT 10.0; Win64; x64) AppleWebKit/537.36 (KHTML, like Gecko) Chrome/109.0.0.0 Safari/537.36","WebKit","Chrome","109.0.0.0","Windows","10.0","https://app.prolific.com/","en-GB,en-US;q=0.9,en;q=0.8","5aea25acd9f2be0001933493","687a1a965b9f5b85a264363e","68931b397d56f8296907180c","1","5aea25acd9f2be0001933493","1","2025-08-06T09:25:22.204Z","","","","","","","","","","","","","","","","win-only","2","g1:SE,g2:NW","0.8","13","0","915001","1904.5","6925.6","41002.5","1","4","8","6","2","8","8","49","41","0.3712121212121212","1207.9","3000","2345","[""left"",""up""]","{""num_key_presses"":8,""num_perfect"":6,""num_errors"":0,""num_randdir"":2,""num_randdir_good_moves"":1,""num_whilered"":0,""num_whileblue"":0,""num_blue"":0,""num_good_moves"":7}","[294.22232142857143,296.12857142857143,0.3,294.22232142857143,296.12857142857143,124.8,294.22232142857143,296.12857142857143,247.3,294.22232142857143,296.12857142857143,377.8,294.22232142857143,296.12857142857143,495.9,294.22232142857143,296.12857142857143,627.2,140.22232142857143,171.12857142857143,760.9,92.22232142857143,106.12857142857143,895.2,67.22232142857143,75.12857142857143,1028.3,67.22232142857143,75.12857142857143,1131.3,67.22232142857143,75.12857142857143,1236,67.22232142857143,75.12857142857143,1359.9,67.22232142857143,75.12857142857143,1478.5,67.22232142857143,75.12857142857143,1605.7,67.22232142857143,75.12857142857143,1729.4,70.22232142857143,81.12857142857143,1849.7,160.22232142857143,252.12857142857143,1968.7,170.22232142857143,280.12857142857143,2081.1,170.22232142857143,280.12857142857143,2185.2,170.22232142857143,280.12857142857143,2292.5,170.22232142857143,280.12857142857143,2395.3,170.22232142857143,280.12857142857143,2502,170.22232142857143,280.12857142857143,2603.3,170.22232142857143,280.12857142857143,2703.7,170.22232142857143,280.12857142857143,2811.1,170.22232142857143,280.12857142857143,2916.1,170.22232142857143,280.12857142857143,3042.8,170.22232142857143,280.12857142857143,3151,170.22232142857143,280.12857142857143,3252,170.22232142857143,280.12857142857143,3377.1,170.22232142857143,280.12857142857143,3480.5,170.22232142857143,280.12857142857143,3584.1,170.22232142857143,280.12857142857143,3689.3,170.22232142857143,280.12857142857143,3791.9,170.22232142857143,280.12857142857143,3893.7,170.22232142857143,280.12857142857143,3995.1,170.22232142857143,280.12857142857143,4100.9,170.22232142857143,280.12857142857143,4204.4,170.22232142857143,280.12857142857143,4307.5,170.22232142857143,280.12857142857143,4410.2,170.22232142857143,280.12857142857143,4512.9,170.22232142857143,280.12857142857143,4635.3,170.22232142857143,280.12857142857143,4759,170.22232142857143,280.12857142857143,4860.7,170.22232142857143,280.12857142857143,4968]","[1447.1,1447.1,1000,0,447.1,""oops"",""up"",""left"",""good_move"",6241.6,4794,1709.1,1447.6,3084.9,""smooth"",""up"",""up"",""good_move"",10997.4,4755.2,1800,6242.2,2955.3,""smooth"",""up"",""up"",""good_move"",15812.9,4814.9,1809.5,10998,3005.4,""smooth"",""up"",""up"",""good_move"",20568.7,4755.2,1967.8,15813.5,2787.4,""smooth"",""left"",""left"",""good_move"",25435.1,4866,2963.5,20569.1,1902.5,""oops"",""left"",""right"",""bad_move"",28769.3,3333.5,2613,25435.9,720.4,""smooth"",""left"",""left"",""good_move"",33608.6,4838.8,2855.5,28769.8,1983.3,""smooth"",""left"",""left"",""good_move""]"
"3022","","<div style=""width:500px;"">
  <p>What determined the result of this run?</p>
  </div>","94","html-slider-response","74","955179","0.0-7.0-1.12","159","1","2025-08-06 09:09:22","36c45c0696341be0efffe67d72a12abb","81.79.173.9","Mozilla/5.0 (Windows NT 10.0; Win64; x64) AppleWebKit/537.36 (KHTML, like Gecko) Chrome/109.0.0.0 Safari/537.36","WebKit","Chrome","109.0.0.0","Windows","10.0","https://app.prolific.com/","en-GB,en-US;q=0.9,en;q=0.8","5aea25acd9f2be0001933493","687a1a965b9f5b85a264363e","68931b397d56f8296907180c","1","5aea25acd9f2be0001933493","1","2025-08-06T09:25:25.228Z","","","","AttribQ","","","","","","","","","","","50","","","","","","","","","","","","","","","","","","","","","","","","","","",""
"1981","","<div style=""width:500px;"">
  <p>How much control did you have over the ball?</p>
  </div>","82","html-slider-response","75","957162","0.0-7.0-2.12","159","1","2025-08-06 09:09:22","36c45c0696341be0efffe67d72a12abb","81.79.173.9","Mozilla/5.0 (Windows NT 10.0; Win64; x64) AppleWebKit/537.36 (KHTML, like Gecko) Chrome/109.0.0.0 Safari/537.36","WebKit","Chrome","109.0.0.0","Windows","10.0","https://app.prolific.com/","en-GB,en-US;q=0.9,en;q=0.8","5aea25acd9f2be0001933493","687a1a965b9f5b85a264363e","68931b397d56f8296907180c","1","5aea25acd9f2be0001933493","1","2025-08-06T09:25:27.211Z","","","","ControlQ","","","","","","","","","","","50","","","","","","","","","","","","","","","","","","","","","","","","","","",""
"2425","","<div style=""width:500px;"">
  <p>How would you describe your current emotional state?</p>
