"rt","response_timestamp","stimulus","response","trial_type","trial_index","time_elapsed","internal_node_id","run_id","condition","recorded_at","source_code_version","ip","user_agent","device","browser","browser_version","platform","platform_version","referer","accept_language","PROLIFIC_PID","STUDY_ID","SESSION_ID","BATCH","prolific_id","batch","realtime","success","question_order","question_id","eventType","responses","item_order","radio_event_ids","radio_event_times","key_event_times","mouse_event_times","straightlining","zigzagging","honeypot","view_history","slider_start","which_type","canvas_config","goals_layout","control_level","trial_number","tutorial_trial_number","trial_start_time","phase1_start_time","phase2_start_time","phase3_start_time","goal_1_value","goal_1_distance","goal_2_value","goal_2_distance","goal_selected","outcome","outcome_total","participant_final_score","participant_initial_score","participant_final_score_prop","goal_choice_rt","allocated_time","allocated_time_remaining","goal_direction","counts","mouse_movements","key_presses"
"4203","1753990092473","<p style='font-size:40px;line-height:1.25'><strong>Welcome to the experiment!</strong></p><p style='font-size:1.1em;line-height:1.25'>Thank you for participanting in our experiment again! You will be asked to play the Dysfunctional Ball Game again. We will briefly recap the rules before we start.</p><p style='font-size:1.1em;line-height:1.25'>Press <strong>Next</strong> to continue.</p>","0","custom-html-button-response","0","4206","0.0-0.0","115","1","2025-07-31 19:28:07","36c45c0696341be0efffe67d72a12abb","94.3.17.192","Mozilla/5.0 (X11; CrOS x86_64 14541.0.0) AppleWebKit/537.36 (KHTML, like Gecko) Chrome/137.0.0.0 Safari/537.36","WebKit","Chrome","137.0.0.0","ChromeOS","14541.0.0","https://app.prolific.com/","en-GB,en-US;q=0.9,en;q=0.8","5b5f23420085cb0001872849","683dba9a53627eb9ab41b36a","688bc3b96bfabc24df9fe250","0","5b5f23420085cb0001872849","0","2025-07-31T19:28:12.474Z","","","","","","","","","","","","","","","","","","","","","","","","","","","","","","","","","","","","","","","","","",""
"1237","","","","fullscreen","1","6448","0.0-1.0","115","1","2025-07-31 19:28:07","36c45c0696341be0efffe67d72a12abb","94.3.17.192","Mozilla/5.0 (X11; CrOS x86_64 14541.0.0) AppleWebKit/537.36 (KHTML, like Gecko) Chrome/137.0.0.0 Safari/537.36","WebKit","Chrome","137.0.0.0","ChromeOS","14541.0.0","https://app.prolific.com/","en-GB,en-US;q=0.9,en;q=0.8","5b5f23420085cb0001872849","683dba9a53627eb9ab41b36a","688bc3b96bfabc24df9fe250","0","5b5f23420085cb0001872849","0","","true","","","","","","","","","","","","","","","","","","","","","","","","","","","","","","","","","","","","","","","","",""
"3096","1753990097813"," <p style='font-size:1.1em;line-height:1.25'>Thank you for closing all other tabs.</p><p style='font-size:1.1em;line-height:1.25'>We will now invite you to fill in some questionnaires, before starting the game.<br>This will take about 5 minutes.<br></p><p style='font-size:1.1em;line-height:1.25'>Press the <strong>Next</strong> button to continue.</p>","0","custom-html-button-response","2","9546","0.0-2.0","115","1","2025-07-31 19:28:07","36c45c0696341be0efffe67d72a12abb","94.3.17.192","Mozilla/5.0 (X11; CrOS x86_64 14541.0.0) AppleWebKit/537.36 (KHTML, like Gecko) Chrome/137.0.0.0 Safari/537.36","WebKit","Chrome","137.0.0.0","ChromeOS","14541.0.0","https://app.prolific.com/","en-GB,en-US;q=0.9,en;q=0.8","5b5f23420085cb0001872849","683dba9a53627eb9ab41b36a","688bc3b96bfabc24df9fe250","0","5b5f23420085cb0001872849","0","2025-07-31T19:28:17.814Z","","","","","","","","","","","","","","","","","","","","","","","","","","","","","","","","","","","","","","","","","",""
"2878","","","{""assigned_sex"":""female""}","survey-multi-choice","3","12428","0.0-3.0-0.0","115","1","2025-07-31 19:28:07","36c45c0696341be0efffe67d72a12abb","94.3.17.192","Mozilla/5.0 (X11; CrOS x86_64 14541.0.0) AppleWebKit/537.36 (KHTML, like Gecko) Chrome/137.0.0.0 Safari/537.36","WebKit","Chrome","137.0.0.0","ChromeOS","14541.0.0","https://app.prolific.com/","en-GB,en-US;q=0.9,en;q=0.8","5b5f23420085cb0001872849","683dba9a53627eb9ab41b36a","688bc3b96bfabc24df9fe250","0","5b5f23420085cb0001872849","0","","","[0]","0","demographics","","","","","","","","","","","","","","","","","","","","","","","","","","","","","","","","","","","","","",""
"4001","1753990104700","<p style='font-size:1.1em;line-height:1.25'>In the following, we will perform a baseline assessment. This means that we will ask you a few questions relating to your experiences over the past month.<br></p><p style='font-size:1.1em;line-height:1.25'>Press the <strong>Next</strong> button to continue.</p>","0","custom-html-button-response","4","16433","0.0-4.0-0.0","115","1","2025-07-31 19:28:07","36c45c0696341be0efffe67d72a12abb","94.3.17.192","Mozilla/5.0 (X11; CrOS x86_64 14541.0.0) AppleWebKit/537.36 (KHTML, like Gecko) Chrome/137.0.0.0 Safari/537.36","WebKit","Chrome","137.0.0.0","ChromeOS","14541.0.0","https://app.prolific.com/","en-GB,en-US;q=0.9,en;q=0.8","5b5f23420085cb0001872849","683dba9a53627eb9ab41b36a","688bc3b96bfabc24df9fe250","0","5b5f23420085cb0001872849","0","2025-07-31T19:28:24.701Z","","","","","","","","","","","","","","","","","","","","","","","","","","","","","","","","","","","","","","","","","",""
"32764.40000000001","","","","survey-template","5","49225","0.0-4.0-1.0","115","1","2025-07-31 19:28:07","36c45c0696341be0efffe67d72a12abb","94.3.17.192","Mozilla/5.0 (X11; CrOS x86_64 14541.0.0) AppleWebKit/537.36 (KHTML, like Gecko) Chrome/137.0.0.0 Safari/537.36","WebKit","Chrome","137.0.0.0","ChromeOS","14541.0.0","https://app.prolific.com/","en-GB,en-US;q=0.9,en;q=0.8","5b5f23420085cb0001872849","683dba9a53627eb9ab41b36a","688bc3b96bfabc24df9fe250","0","5b5f23420085cb0001872849","0","2025-07-31T19:28:57.495Z","","","","pss","{""Q01"":""2"",""Q02"":""3"",""Q03"":""3"",""Q04"":""2"",""Q05"":""3"",""Q06"":""2"",""Q07"":""2"",""Q08"":""2"",""Q09"":""2"",""Q10"":""3""}","[0,1,2,3,4,5,6,7,8,9]","[""Q01"",""Q02"",""Q03"",""Q04"",""Q05"",""Q06"",""Q07"",""Q08"",""Q09"",""Q10""]","[3496.800000000003,6404.5,8393.5,10919,13681.800000000003,18335.600000000006,20475.90000000001,22938.300000000003,28009.40000000001,30997.100000000006]","[]","[0.19999999999708962,3496.800000000003,6404.5,8393.5,10919,12790.100000000006,13681.800000000003,18335.600000000006,20475.90000000001,22938.300000000003,23528.300000000003,28009.40000000001,30997.100000000006,32746]","0.6","0.5555555555555556","0","","","","","","","","","","","","","","","","","","","","","","","","","","","","",""
"2292","1753990139827","<p style='font-size:1.1em;line-height:1.25'>Thank you for your answers! Now we will ask you a few more questions relating to your feelings in the last 24 hours.<br></p><p style='font-size:1.1em;line-height:1.25'>Press the <strong>Next</strong> button to continue.</p>","0","custom-html-button-response","6","51562","0.0-4.0-2.0","115","1","2025-07-31 19:28:07","36c45c0696341be0efffe67d72a12abb","94.3.17.192","Mozilla/5.0 (X11; CrOS x86_64 14541.0.0) AppleWebKit/537.36 (KHTML, like Gecko) Chrome/137.0.0.0 Safari/537.36","WebKit","Chrome","137.0.0.0","ChromeOS","14541.0.0","https://app.prolific.com/","en-GB,en-US;q=0.9,en;q=0.8","5b5f23420085cb0001872849","683dba9a53627eb9ab41b36a","688bc3b96bfabc24df9fe250","0","5b5f23420085cb0001872849","0","2025-07-31T19:28:59.830Z","","","","","","","","","","","","","","","","","","","","","","","","","","","","","","","","","","","","","","","","","",""
"69363.1","","","","survey-template","7","120944","0.0-4.0-3.0","115","1","2025-07-31 19:28:07","36c45c0696341be0efffe67d72a12abb","94.3.17.192","Mozilla/5.0 (X11; CrOS x86_64 14541.0.0) AppleWebKit/537.36 (KHTML, like Gecko) Chrome/137.0.0.0 Safari/537.36","WebKit","Chrome","137.0.0.0","ChromeOS","14541.0.0","https://app.prolific.com/","en-GB,en-US;q=0.9,en;q=0.8","5b5f23420085cb0001872849","683dba9a53627eb9ab41b36a","688bc3b96bfabc24df9fe250","0","5b5f23420085cb0001872849","0","2025-07-31T19:30:09.212Z","","","","drsp","{""Q01"":""1"",""Q02"":""1"",""Q03"":""1"",""Q04"":""3"",""Q05"":""1"",""Q06"":""2"",""Q07"":""2"",""Q08"":""1"",""Q09"":""2"",""Q10"":""1"",""Q11"":""1"",""Q12"":""0"",""Q13"":""5"",""Q14"":""0"",""Q15"":""0"",""Q16"":""3"",""Q17"":""3"",""Q18"":""0"",""Q19"":""3"",""Q20"":""0"",""Q21"":""2"",""Q22"":""1""}","[0,1,2,3,4,5,6,7,8,9,10,11,12,13,14,15,16,17,18,19,20,21]","[""Q01"",""Q02"",""Q03"",""Q04"",""Q04"",""Q04"",""Q05"",""Q06"",""Q07"",""Q08"",""Q09"",""Q10"",""Q11"",""Q12"",""Q13"",""Q14"",""Q15"",""Q16"",""Q17"",""Q17"",""Q18"",""Q19"",""Q20"",""Q21"",""Q22""]","[3266.199999999997,5074.899999999994,6206.899999999994,7742.299999999988,8384.699999999997,9072.199999999997,11175.299999999988,14905.899999999994,16459.600000000006,28199.600000000006,31007.29999999999,35538.600000000006,38099.100000000006,39317.600000000006,41006.899999999994,43832.899999999994,48655.79999999999,51090.79999999999,53288.600000000006,54378.899999999994,55796.29999999999,60866.19999999998,65499.399999999994,66562.9,68425.19999999998]","[]","[0.09999999999126885,3266.199999999997,5074.899999999994,6206.899999999994,7742.299999999988,8384.699999999997,9072.199999999997,11175.299999999988,14905.899999999994,16459.600000000006,28199.600000000006,31007.29999999999,31691.79999999999,35538.600000000006,37134.69999999998,38099.100000000006,39317.600000000006,41006.899999999994,43832.899999999994,48655.79999999999,51090.79999999999,53288.600000000006,54378.899999999994,55796.29999999999,56635,60866.19999999998,64887.19999999998,65499.399999999994,66562.9,68425.19999999998,69351.6]","0.36363636363636365","0.38095238095238093","0","","","","","","","","","","","","","","","","","","","","","","","","","","","","",""
"9513.100000000006","","","","survey-template","8","130460","0.0-4.0-4.0","115","1","2025-07-31 19:28:07","36c45c0696341be0efffe67d72a12abb","94.3.17.192","Mozilla/5.0 (X11; CrOS x86_64 14541.0.0) AppleWebKit/537.36 (KHTML, like Gecko) Chrome/137.0.0.0 Safari/537.36","WebKit","Chrome","137.0.0.0","ChromeOS","14541.0.0","https://app.prolific.com/","en-GB,en-US;q=0.9,en;q=0.8","5b5f23420085cb0001872849","683dba9a53627eb9ab41b36a","688bc3b96bfabc24df9fe250","0","5b5f23420085cb0001872849","0","2025-07-31T19:30:18.728Z","","","","stress","{""Q01"":""3"",""Q02"":""3"",""Q03"":""1""}","[0,1,2]","[""Q01"",""Q02"",""Q03""]","[3225.7000000000116,5369.900000000023,8585.300000000017]","[]","[3225.7000000000116,5369.900000000023,8585.300000000017,9511.900000000023]","0.3333333333333333","1","0","","","","","","","","","","","","","","","","","","","","","","","","","","","","",""
"2733","","","","instructions","9","133194","0.0-5.0-0.0","115","1","2025-07-31 19:28:07","36c45c0696341be0efffe67d72a12abb","94.3.17.192","Mozilla/5.0 (X11; CrOS x86_64 14541.0.0) AppleWebKit/537.36 (KHTML, like Gecko) Chrome/137.0.0.0 Safari/537.36","WebKit","Chrome","137.0.0.0","ChromeOS","14541.0.0","https://app.prolific.com/","en-GB,en-US;q=0.9,en;q=0.8","5b5f23420085cb0001872849","683dba9a53627eb9ab41b36a","688bc3b96bfabc24df9fe250","0","5b5f23420085cb0001872849","0","","","","","","","","","","","","","","","[{""page_index"":0,""viewing_time"":2732}]","","","","","","","","","","","","","","","","","","","","","","","","","","","",""
"2258","","<p>Before you start with this game please answer the following three questions yourself. </p>
  <p>Through this game, we measure several aspects of your cognitive performance, such as reaction times, multi-tasking capabilities </p>
  <p>and the ability to assess the situation you are in.</p>
  <p></p>
  <p><b>How good do you usually are in such tasks?</b></p>","56","html-slider-response","10","135456","0.0-6.0-0.0","115","1","2025-07-31 19:28:07","36c45c0696341be0efffe67d72a12abb","94.3.17.192","Mozilla/5.0 (X11; CrOS x86_64 14541.0.0) AppleWebKit/537.36 (KHTML, like Gecko) Chrome/137.0.0.0 Safari/537.36","WebKit","Chrome","137.0.0.0","ChromeOS","14541.0.0","https://app.prolific.com/","en-GB,en-US;q=0.9,en;q=0.8","5b5f23420085cb0001872849","683dba9a53627eb9ab41b36a","688bc3b96bfabc24df9fe250","0","5b5f23420085cb0001872849","0","2025-07-31T19:30:23.724Z","","","","PreSkillQ","","","","","","","","","","","50","","","","","","","","","","","","","","","","","","","","","","","","","","",""
"2069","","<div style=""width:500px;"">
  <p>How well do you think you will perform in this task compared to other participants?</p>
  </div>","35","html-slider-response","11","137527","0.0-6.0-1.0","115","1","2025-07-31 19:28:07","36c45c0696341be0efffe67d72a12abb","94.3.17.192","Mozilla/5.0 (X11; CrOS x86_64 14541.0.0) AppleWebKit/537.36 (KHTML, like Gecko) Chrome/137.0.0.0 Safari/537.36","WebKit","Chrome","137.0.0.0","ChromeOS","14541.0.0","https://app.prolific.com/","en-GB,en-US;q=0.9,en;q=0.8","5b5f23420085cb0001872849","683dba9a53627eb9ab41b36a","688bc3b96bfabc24df9fe250","0","5b5f23420085cb0001872849","0","2025-07-31T19:30:25.795Z","","","","PrePerfQ","","","","","","","","","","","50","","","","","","","","","","","","","","","","","","","","","","","","","","",""
"3068","","<div style=""width:500px;"">
  <p>What best describes how you currently feel?</p>
  </div>","31","html-slider-response","12","140597","0.0-6.0-2.0","115","1","2025-07-31 19:28:07","36c45c0696341be0efffe67d72a12abb","94.3.17.192","Mozilla/5.0 (X11; CrOS x86_64 14541.0.0) AppleWebKit/537.36 (KHTML, like Gecko) Chrome/137.0.0.0 Safari/537.36","WebKit","Chrome","137.0.0.0","ChromeOS","14541.0.0","https://app.prolific.com/","en-GB,en-US;q=0.9,en;q=0.8","5b5f23420085cb0001872849","683dba9a53627eb9ab41b36a","688bc3b96bfabc24df9fe250","0","5b5f23420085cb0001872849","0","2025-07-31T19:30:28.865Z","","","","PreMotivationQ","","","","","","","","","","","50","","","","","","","","","","","","","","","","","","","","","","","","","","",""
"","","","","ctl-task-cpt","13","178009","0.0-7.0-0.0","115","1","2025-07-31 19:28:07","36c45c0696341be0efffe67d72a12abb","94.3.17.192","Mozilla/5.0 (X11; CrOS x86_64 14541.0.0) AppleWebKit/537.36 (KHTML, like Gecko) Chrome/137.0.0.0 Safari/537.36","WebKit","Chrome","137.0.0.0","ChromeOS","14541.0.0","https://app.prolific.com/","en-GB,en-US;q=0.9,en;q=0.8","5b5f23420085cb0001872849","683dba9a53627eb9ab41b36a","688bc3b96bfabc24df9fe250","0","5b5f23420085cb0001872849","0","2025-07-31T19:31:06.277Z","","","","","","","","","","","","","","","","win-only","0","g1:NW,g2:SE","1","1","0","142272.5","1366.9","6370.8","34388.9","1","4","8","6","2","8","8","8","0","0.06060606060606061","1207","3000","945","[""down"",""right""]","{""num_key_presses"":6,""num_perfect"":6,""num_errors"":0,""num_randdir"":0,""num_randdir_good_moves"":0,""num_whilered"":0,""num_whileblue"":0,""num_blue"":4,""num_good_moves"":6}","[410.3214133126395,415.32142761775424,1.7,410.3214133126395,415.32142761775424,103.6,410.3214133126395,415.32142761775424,208.6,410.3214133126395,415.32142761775424,308.6,410.3214133126395,415.32142761775424,413.5,410.3214133126395,415.32142761775424,513.6,410.3214133126395,415.32142761775424,613.6,692.8214133126395,664.0714276177542,713.7,796.5714133126395,725.3214276177542,814.3,815.3214133126395,745.3214276177542,914.4,827.8214133126395,766.5714276177542,1014.4,822.8214133126395,767.8214276177542,1114.9,822.8214133126395,767.8214276177542,1228.8,822.8214133126395,767.8214276177542,1333.5,822.8214133126395,767.8214276177542,1433.8,822.8214133126395,767.8214276177542,1534.1,1107.8214133126396,701.5714276177542,1634.4,1225.3214133126396,729.0714276177542,1738.9,1225.3214133126396,729.0714276177542,1839.2,1225.3214133126396,729.0714276177542,1939.2,1225.3214133126396,729.0714276177542,2048.3,1225.3214133126396,729.0714276177542,2150.3,1225.3214133126396,729.0714276177542,2253.7,1225.3214133126396,729.0714276177542,2358.7,1225.3214133126396,729.0714276177542,2466.6,1225.3214133126396,729.0714276177542,2566.8,1225.3214133126396,729.0714276177542,2668.7,1225.3214133126396,729.0714276177542,2768.8,1225.3214133126396,729.0714276177542,2873.5,1225.3214133126396,729.0714276177542,2973.6,1225.3214133126396,729.0714276177542,3083.5,1225.3214133126396,729.0714276177542,3183.6,1225.3214133126396,729.0714276177542,3288.4,1225.3214133126396,729.0714276177542,3388.5,1225.3214133126396,729.0714276177542,3488.6,1225.3214133126396,729.0714276177542,3599.7,1225.3214133126396,729.0714276177542,3700,1225.3214133126396,729.0714276177542,3803.5,1225.3214133126396,729.0714276177542,3903.7,1225.3214133126396,729.0714276177542,4008.4,1225.3214133126396,729.0714276177542,4108.4,1225.3214133126396,729.0714276177542,4208.6,1225.3214133126396,729.0714276177542,4308.6,1225.3214133126396,729.0714276177542,4416.2,1225.3214133126396,729.0714276177542,4516.2,1225.3214133126396,729.0714276177542,4616.7,1225.3214133126396,729.0714276177542,4718.5,1225.3214133126396,729.0714276177542,4818.5,1225.3214133126396,729.0714276177542,4923.5]","[5268,5267.9,2886.5,2012,369.5,""smooth"",""down"",""down"",""good_move"",7450.4,2181.7,1783.2,5268.7,398.5,""smooth"",""right"",""right"",""good_move"",13810.1,6359.3,2915.8,10534.5,359.8,""smooth"",""down"",""down"",""good_move"",16409.7,2599.5,2194.4,13810.3,405.1,""smooth"",""down"",""down"",""good_move"",22044.4,5634.3,2271.1,19264.5,508.9,""smooth"",""right"",""right"",""good_move"",27913.3,5868.5,2226.7,25329.5,357.1,""smooth"",""right"",""right"",""good_move""]"
"3601","","<div style=""width:500px;"">
  <p>What determined the result of this run?</p>
  </div>","78","html-slider-response","14","181612","0.0-7.0-1.0","115","1","2025-07-31 19:28:07","36c45c0696341be0efffe67d72a12abb","94.3.17.192","Mozilla/5.0 (X11; CrOS x86_64 14541.0.0) AppleWebKit/537.36 (KHTML, like Gecko) Chrome/137.0.0.0 Safari/537.36","WebKit","Chrome","137.0.0.0","ChromeOS","14541.0.0","https://app.prolific.com/","en-GB,en-US;q=0.9,en;q=0.8","5b5f23420085cb0001872849","683dba9a53627eb9ab41b36a","688bc3b96bfabc24df9fe250","0","5b5f23420085cb0001872849","0","2025-07-31T19:31:09.880Z","","","","AttribQ","","","","","","","","","","","50","","","","","","","","","","","","","","","","","","","","","","","","","","",""
"4128","","<div style=""width:500px;"">
  <p>How much control did you have over the ball?</p>
  </div>","95","html-slider-response","15","185743","0.0-7.0-2.0","115","1","2025-07-31 19:28:07","36c45c0696341be0efffe67d72a12abb","94.3.17.192","Mozilla/5.0 (X11; CrOS x86_64 14541.0.0) AppleWebKit/537.36 (KHTML, like Gecko) Chrome/137.0.0.0 Safari/537.36","WebKit","Chrome","137.0.0.0","ChromeOS","14541.0.0","https://app.prolific.com/","en-GB,en-US;q=0.9,en;q=0.8","5b5f23420085cb0001872849","683dba9a53627eb9ab41b36a","688bc3b96bfabc24df9fe250","0","5b5f23420085cb0001872849","0","2025-07-31T19:31:14.012Z","","","","ControlQ","","","","","","","","","","","50","","","","","","","","","","","","","","","","","","","","","","","","","","",""
"3014","","<div style=""width:500px;"">
  <p>How would you describe your current emotional state?</p>
  </div>","59","html-slider-response","16","188760","0.0-7.0-3.0","115","1","2025-07-31 19:28:07","36c45c0696341be0efffe67d72a12abb","94.3.17.192","Mozilla/5.0 (X11; CrOS x86_64 14541.0.0) AppleWebKit/537.36 (KHTML, like Gecko) Chrome/137.0.0.0 Safari/537.36","WebKit","Chrome","137.0.0.0","ChromeOS","14541.0.0","https://app.prolific.com/","en-GB,en-US;q=0.9,en;q=0.8","5b5f23420085cb0001872849","683dba9a53627eb9ab41b36a","688bc3b96bfabc24df9fe250","0","5b5f23420085cb0001872849","0","2025-07-31T19:31:17.028Z","","","","StressQ","","","","","","","","","","","50","","","","","","","","","","","","","","","","","","","","","","","","","","",""
"2324","","<div style=""width:500px;"">
  <p>What best describes how you currently feel?</p>
  </div>","29","html-slider-response","17","191087","0.0-7.0-4.0","115","1","2025-07-31 19:28:07","36c45c0696341be0efffe67d72a12abb","94.3.17.192","Mozilla/5.0 (X11; CrOS x86_64 14541.0.0) AppleWebKit/537.36 (KHTML, like Gecko) Chrome/137.0.0.0 Safari/537.36","WebKit","Chrome","137.0.0.0","ChromeOS","14541.0.0","https://app.prolific.com/","en-GB,en-US;q=0.9,en;q=0.8","5b5f23420085cb0001872849","683dba9a53627eb9ab41b36a","688bc3b96bfabc24df9fe250","0","5b5f23420085cb0001872849","0","2025-07-31T19:31:19.356Z","","","","MotivationQ","","","","","","","","","","","50","","","","","","","","","","","","","","","","","","","","","","","","","","",""
"","","","","ctl-task-cpt","18","217796","0.0-7.0-0.1","115","1","2025-07-31 19:28:07","36c45c0696341be0efffe67d72a12abb","94.3.17.192","Mozilla/5.0 (X11; CrOS x86_64 14541.0.0) AppleWebKit/537.36 (KHTML, like Gecko) Chrome/137.0.0.0 Safari/537.36","WebKit","Chrome","137.0.0.0","ChromeOS","14541.0.0","https://app.prolific.com/","en-GB,en-US;q=0.9,en;q=0.8","5b5f23420085cb0001872849","683dba9a53627eb9ab41b36a","688bc3b96bfabc24df9fe250","0","5b5f23420085cb0001872849","0","2025-07-31T19:31:46.064Z","","","","","","","","","","","","","","","","win-only","3","g1:SW,g2:NE","0.9","2","0","192751.1","1191.3","6195.9","23696.9","1","4","4","6","2","4","4","12","8","0.09090909090909091","1292","3000","1045","[""up"",""right""]","{""num_key_presses"":6,""num_perfect"":6,""num_errors"":0,""num_randdir"":0,""num_randdir_good_moves"":0,""num_whilered"":0,""num_whileblue"":0,""num_blue"":1,""num_good_moves"":6}","[416.5714133126395,420.32142761775424,0.4,416.5714133126395,420.32142761775424,104.3,416.5714133126395,420.32142761775424,205,416.5714133126395,420.32142761775424,309.6,416.5714133126395,420.32142761775424,414.3,416.5714133126395,420.32142761775424,514.4,416.5714133126395,420.32142761775424,619.3,416.5714133126395,420.32142761775424,719.4,662.8214133126395,22.821427617754253,824.2,710.3214133126395,4.071427617754253,924.7,719.0714133126395,10.321427617754253,1024.8,734.0714133126395,49.07142761775425,1124.8,734.0714133126395,49.07142761775425,1229.6,734.0714133126395,49.07142761775425,1329.7,734.0714133126395,49.07142761775425,1434.5,734.0714133126395,49.07142761775425,1539.6,851.5714133126395,41.57142761775425,1640,1184.0714133126396,260.32142761775424,1740.3,1184.0714133126396,260.32142761775424,1844.9,1184.0714133126396,260.32142761775424,1949.8,1184.0714133126396,260.32142761775424,2054.8,1184.0714133126396,260.32142761775424,2159.4,1184.0714133126396,260.32142761775424,2264.3,1184.0714133126396,260.32142761775424,2369.9,1184.0714133126396,260.32142761775424,2476.6,1184.0714133126396,260.32142761775424,2579.5,1184.0714133126396,260.32142761775424,2679.6,1184.0714133126396,260.32142761775424,2784.3,1184.0714133126396,260.32142761775424,2884.5,1184.0714133126396,260.32142761775424,2989.4,1184.0714133126396,260.32142761775424,3089.4,1184.0714133126396,260.32142761775424,3189.4,1184.0714133126396,260.32142761775424,3289.4,1184.0714133126396,260.32142761775424,3389.8,1184.0714133126396,260.32142761775424,3494.4,1184.0714133126396,260.32142761775424,3594.4,1184.0714133126396,260.32142761775424,3694.4,1184.0714133126396,260.32142761775424,3799.2,1184.0714133126396,260.32142761775424,3899.2,1184.0714133126396,260.32142761775424,4001.6,1184.0714133126396,260.32142761775424,4113.5,1184.0714133126396,260.32142761775424,4214.3,1184.0714133126396,260.32142761775424,4314.4,1184.0714133126396,260.32142761775424,4414.4,1184.0714133126396,260.32142761775424,4519.4,1184.0714133126396,260.32142761775424,4619.5,1184.0714133126396,260.32142761775424,4724.4,1184.0714133126396,260.32142761775424,4829.2,1184.0714133126396,260.32142761775424,4929.4]","[1398,1398,1000,0,398,""smooth"",""up"",""up"",""good_move"",7071.4,5673.1,1700.2,5009.7,361.5,""smooth"",""right"",""right"",""good_move"",9615.8,2543.7,2206.8,7072.1,336.9,""smooth"",""up"",""up"",""good_move"",12756.1,3140,2821.6,9616.1,318.4,""smooth"",""right"",""right"",""good_move"",14861.8,2105,1783,12756.9,322,""smooth"",""up"",""up"",""good_move"",17415.2,2552.8,2274.3,14862.4,278.5,""smooth"",""right"",""right"",""good_move""]"
"4048","","<div style=""width:500px;"">
  <p>What determined the result of this run?</p>
  </div>","84","html-slider-response","19","221847","0.0-7.0-1.1","115","1","2025-07-31 19:28:07","36c45c0696341be0efffe67d72a12abb","94.3.17.192","Mozilla/5.0 (X11; CrOS x86_64 14541.0.0) AppleWebKit/537.36 (KHTML, like Gecko) Chrome/137.0.0.0 Safari/537.36","WebKit","Chrome","137.0.0.0","ChromeOS","14541.0.0","https://app.prolific.com/","en-GB,en-US;q=0.9,en;q=0.8","5b5f23420085cb0001872849","683dba9a53627eb9ab41b36a","688bc3b96bfabc24df9fe250","0","5b5f23420085cb0001872849","0","2025-07-31T19:31:50.115Z","","","","AttribQ","","","","","","","","","","","50","","","","","","","","","","","","","","","","","","","","","","","","","","",""
"3210","","<div style=""width:500px;"">
  <p>How much control did you have over the ball?</p>
  </div>","91","html-slider-response","20","225060","0.0-7.0-2.1","115","1","2025-07-31 19:28:07","36c45c0696341be0efffe67d72a12abb","94.3.17.192","Mozilla/5.0 (X11; CrOS x86_64 14541.0.0) AppleWebKit/537.36 (KHTML, like Gecko) Chrome/137.0.0.0 Safari/537.36","WebKit","Chrome","137.0.0.0","ChromeOS","14541.0.0","https://app.prolific.com/","en-GB,en-US;q=0.9,en;q=0.8","5b5f23420085cb0001872849","683dba9a53627eb9ab41b36a","688bc3b96bfabc24df9fe250","0","5b5f23420085cb0001872849","0","2025-07-31T19:31:53.329Z","","","","ControlQ","","","","","","","","","","","50","","","","","","","","","","","","","","","","","","","","","","","","","","",""
"2222","","<div style=""width:500px;"">
  <p>How would you describe your current emotional state?</p>
  </div>","61","html-slider-response","21","227285","0.0-7.0-3.1","115","1","2025-07-31 19:28:07","36c45c0696341be0efffe67d72a12abb","94.3.17.192","Mozilla/5.0 (X11; CrOS x86_64 14541.0.0) AppleWebKit/537.36 (KHTML, like Gecko) Chrome/137.0.0.0 Safari/537.36","WebKit","Chrome","137.0.0.0","ChromeOS","14541.0.0","https://app.prolific.com/","en-GB,en-US;q=0.9,en;q=0.8","5b5f23420085cb0001872849","683dba9a53627eb9ab41b36a","688bc3b96bfabc24df9fe250","0","5b5f23420085cb0001872849","0","2025-07-31T19:31:55.553Z","","","","StressQ","","","","","","","","","","","50","","","","","","","","","","","","","","","","","","","","","","","","","","",""
"2178","","<div style=""width:500px;"">
  <p>What best describes how you currently feel?</p>
  </div>","33","html-slider-response","22","229464","0.0-7.0-4.1","115","1","2025-07-31 19:28:07","36c45c0696341be0efffe67d72a12abb","94.3.17.192","Mozilla/5.0 (X11; CrOS x86_64 14541.0.0) AppleWebKit/537.36 (KHTML, like Gecko) Chrome/137.0.0.0 Safari/537.36","WebKit","Chrome","137.0.0.0","ChromeOS","14541.0.0","https://app.prolific.com/","en-GB,en-US;q=0.9,en;q=0.8","5b5f23420085cb0001872849","683dba9a53627eb9ab41b36a","688bc3b96bfabc24df9fe250","0","5b5f23420085cb0001872849","0","2025-07-31T19:31:57.733Z","","","","MotivationQ","","","","","","","","","","","50","","","","","","","","","","","","","","","","","","","","","","","","","","",""
"","","","","ctl-task-cpt","23","263022","0.0-7.0-0.2","115","1","2025-07-31 19:28:07","36c45c0696341be0efffe67d72a12abb","94.3.17.192","Mozilla/5.0 (X11; CrOS x86_64 14541.0.0) AppleWebKit/537.36 (KHTML, like Gecko) Chrome/137.0.0.0 Safari/537.36","WebKit","Chrome","137.0.0.0","ChromeOS","14541.0.0","https://app.prolific.com/","en-GB,en-US;q=0.9,en;q=0.8","5b5f23420085cb0001872849","683dba9a53627eb9ab41b36a","688bc3b96bfabc24df9fe250","0","5b5f23420085cb0001872849","0","2025-07-31T19:32:31.291Z","","","","","","","","","","","","","","","","win-only","0","g1:NW,g2:SE","0.8","3","0","231130.1","1020.9","6026.4","30540.7","1","4","4","6","2","4","3","15","12","0.11363636363636363","1183.1","3000","945","[""down"",""right""]","{""num_key_presses"":8,""num_perfect"":5,""num_errors"":1,""num_randdir"":2,""num_randdir_good_moves"":1,""num_whilered"":0,""num_whileblue"":1,""num_blue"":2,""num_good_moves"":7}","[409.0714133126395,409.07142761775424,0.5,409.0714133126395,409.07142761775424,102.2,409.0714133126395,409.07142761775424,204.6,409.0714133126395,409.07142761775424,304.9,409.0714133126395,409.07142761775424,405.4,409.0714133126395,409.07142761775424,505.8,644.0714133126395,662.8214276177542,611.9,681.5714133126395,709.0714276177542,714.5,697.8214133126395,729.0714276177542,820.3,755.3214133126395,781.5714276177542,924.5,755.3214133126395,781.5714276177542,1027.2,755.3214133126395,781.5714276177542,1131.6,755.3214133126395,781.5714276177542,1234.7,755.3214133126395,781.5714276177542,1334.8,755.3214133126395,781.5714276177542,1437.4,755.3214133126395,781.5714276177542,1539.9,1000.3214133126395,822.8214276177542,1645.9,1174.0714133126396,870.3214276177542,1750.1,1174.0714133126396,870.3214276177542,1854.2,1174.0714133126396,870.3214276177542,1954.6,1174.0714133126396,870.3214276177542,2058.6,1174.0714133126396,870.3214276177542,2165.2,1174.0714133126396,870.3214276177542,2272.9,1174.0714133126396,870.3214276177542,2382.7,1174.0714133126396,870.3214276177542,2483.6,1174.0714133126396,870.3214276177542,2585.4,1174.0714133126396,870.3214276177542,2689.8,1174.0714133126396,870.3214276177542,2790,1174.0714133126396,870.3214276177542,2895.9,1174.0714133126396,870.3214276177542,2999.5,1174.0714133126396,870.3214276177542,3099.8,1174.0714133126396,870.3214276177542,3200.3,1174.0714133126396,870.3214276177542,3303.2,1174.0714133126396,870.3214276177542,3404.9,1174.0714133126396,870.3214276177542,3509.8,1174.0714133126396,870.3214276177542,3611.5,1174.0714133126396,870.3214276177542,3714.5,1174.0714133126396,870.3214276177542,3814.8,1174.0714133126396,870.3214276177542,3919.8,1174.0714133126396,870.3214276177542,4026.6,1174.0714133126396,870.3214276177542,4127.4,1174.0714133126396,870.3214276177542,4229.8,1174.0714133126396,870.3214276177542,4334.5,1174.0714133126396,870.3214276177542,4435.1,1174.0714133126396,870.3214276177542,4541.5,1174.0714133126396,870.3214276177542,4648,1174.0714133126396,870.3214276177542,4749.5,1174.0714133126396,870.3214276177542,4849.5,1174.0714133126396,870.3214276177542,4949.6]","[1337.5,1337.5,1000,0,337.5,""smooth"",""right"",""right"",""good_move"",4171.4,2832.8,2534.1,1338.7,298.6,""smooth"",""down"",""down"",""good_move"",7134,2961,2652.7,4173.1,308.2,""smooth"",""right"",""right"",""good_move"",9189.4,2054,1713.6,7135.4,340.4,""while_blue"",""down"",""down"",""good_move"",15548.1,6357.7,2337.2,12874.4,336.5,""oops"",""right"",""down"",""good_move"",18479.6,2931.3,2584.6,15548.3,346.8,""oops"",""right"",""left"",""bad_move"",21978.8,3498.1,3159.4,18480.8,338.6,""smooth"",""right"",""right"",""good_move"",24417.9,2438.5,2073.1,21979.4,365.4,""smooth"",""right"",""right"",""good_move""]"
"3466","","<div style=""width:500px;"">
  <p>What determined the result of this run?</p>
  </div>","79","html-slider-response","24","266491","0.0-7.0-1.2","115","1","2025-07-31 19:28:07","36c45c0696341be0efffe67d72a12abb","94.3.17.192","Mozilla/5.0 (X11; CrOS x86_64 14541.0.0) AppleWebKit/537.36 (KHTML, like Gecko) Chrome/137.0.0.0 Safari/537.36","WebKit","Chrome","137.0.0.0","ChromeOS","14541.0.0","https://app.prolific.com/","en-GB,en-US;q=0.9,en;q=0.8","5b5f23420085cb0001872849","683dba9a53627eb9ab41b36a","688bc3b96bfabc24df9fe250","0","5b5f23420085cb0001872849","0","2025-07-31T19:32:34.760Z","","","","AttribQ","","","","","","","","","","","50","","","","","","","","","","","","","","","","","","","","","","","","","","",""
"2569","","<div style=""width:500px;"">
  <p>How much control did you have over the ball?</p>
  </div>","59","html-slider-response","25","269062","0.0-7.0-2.2","115","1","2025-07-31 19:28:07","36c45c0696341be0efffe67d72a12abb","94.3.17.192","Mozilla/5.0 (X11; CrOS x86_64 14541.0.0) AppleWebKit/537.36 (KHTML, like Gecko) Chrome/137.0.0.0 Safari/537.36","WebKit","Chrome","137.0.0.0","ChromeOS","14541.0.0","https://app.prolific.com/","en-GB,en-US;q=0.9,en;q=0.8","5b5f23420085cb0001872849","683dba9a53627eb9ab41b36a","688bc3b96bfabc24df9fe250","0","5b5f23420085cb0001872849","0","2025-07-31T19:32:37.330Z","","","","ControlQ","","","","","","","","","","","50","","","","","","","","","","","","","","","","","","","","","","","","","","",""
"2261","","<div style=""width:500px;"">
  <p>How would you describe your current emotional state?</p>
  </div>","75","html-slider-response","26","271324","0.0-7.0-3.2","115","1","2025-07-31 19:28:07","36c45c0696341be0efffe67d72a12abb","94.3.17.192","Mozilla/5.0 (X11; CrOS x86_64 14541.0.0) AppleWebKit/537.36 (KHTML, like Gecko) Chrome/137.0.0.0 Safari/537.36","WebKit","Chrome","137.0.0.0","ChromeOS","14541.0.0","https://app.prolific.com/","en-GB,en-US;q=0.9,en;q=0.8","5b5f23420085cb0001872849","683dba9a53627eb9ab41b36a","688bc3b96bfabc24df9fe250","0","5b5f23420085cb0001872849","0","2025-07-31T19:32:39.592Z","","","","StressQ","","","","","","","","","","","50","","","","","","","","","","","","","","","","","","","","","","","","","","",""
"2297","","<div style=""width:500px;"">
  <p>What best describes how you currently feel?</p>
  </div>","38","html-slider-response","27","273623","0.0-7.0-4.2","115","1","2025-07-31 19:28:07","36c45c0696341be0efffe67d72a12abb","94.3.17.192","Mozilla/5.0 (X11; CrOS x86_64 14541.0.0) AppleWebKit/537.36 (KHTML, like Gecko) Chrome/137.0.0.0 Safari/537.36","WebKit","Chrome","137.0.0.0","ChromeOS","14541.0.0","https://app.prolific.com/","en-GB,en-US;q=0.9,en;q=0.8","5b5f23420085cb0001872849","683dba9a53627eb9ab41b36a","688bc3b96bfabc24df9fe250","0","5b5f23420085cb0001872849","0","2025-07-31T19:32:41.891Z","","","","MotivationQ","","","","","","","","","","","50","","","","","","","","","","","","","","","","","","","","","","","","","","",""
"","","","","ctl-task-cpt","28","317280","0.0-7.0-0.3","115","1","2025-07-31 19:28:07","36c45c0696341be0efffe67d72a12abb","94.3.17.192","Mozilla/5.0 (X11; CrOS x86_64 14541.0.0) AppleWebKit/537.36 (KHTML, like Gecko) Chrome/137.0.0.0 Safari/537.36","WebKit","Chrome","137.0.0.0","ChromeOS","14541.0.0","https://app.prolific.com/","en-GB,en-US;q=0.9,en;q=0.8","5b5f23420085cb0001872849","683dba9a53627eb9ab41b36a","688bc3b96bfabc24df9fe250","0","5b5f23420085cb0001872849","0","2025-07-31T19:33:25.548Z","","","","","","","","","","","","","","","","win-only","0","g1:NW,g2:SE","0.7","4","0","275286.7","3167.4","8171.9","40646.3","1","4","8","6","2","8","8","23","15","0.17424242424242425","1234.9","3000","585","[""down"",""right""]","{""num_key_presses"":8,""num_perfect"":5,""num_errors"":0,""num_randdir"":3,""num_randdir_good_moves"":2,""num_whilered"":0,""num_whileblue"":0,""num_blue"":3,""num_good_moves"":7}","[421.5714133126395,406.57142761775424,0.5,421.5714133126395,406.57142761775424,103,421.5714133126395,406.57142761775424,203,421.5714133126395,406.57142761775424,307.8,421.5714133126395,406.57142761775424,407.8,421.5714133126395,406.57142761775424,507.9,421.5714133126395,406.57142761775424,608.5,622.8214133126395,624.0714276177542,712.9,640.3214133126395,660.3214276177542,812.9,731.5714133126395,705.3214276177542,913.3,810.3214133126395,742.8214276177542,1018.9,810.3214133126395,744.0714276177542,1123.3,810.3214133126395,744.0714276177542,1223.8,810.3214133126395,744.0714276177542,1330.8,810.3214133126395,744.0714276177542,1434,810.3214133126395,744.0714276177542,1535.8,810.3214133126395,744.0714276177542,1638.1,810.3214133126395,744.0714276177542,1742.9,810.3214133126395,744.0714276177542,1842.9,810.3214133126395,744.0714276177542,1943.1,810.3214133126395,744.0714276177542,2043.2,810.3214133126395,744.0714276177542,2143.2,810.3214133126395,744.0714276177542,2248.1,810.3214133126395,744.0714276177542,2348.2,810.3214133126395,744.0714276177542,2448.2,810.3214133126395,744.0714276177542,2552.9,810.3214133126395,744.0714276177542,2654.6,810.3214133126395,744.0714276177542,2757.9,810.3214133126395,744.0714276177542,2857.9,810.3214133126395,744.0714276177542,2958.2,810.3214133126395,744.0714276177542,3063,810.3214133126395,744.0714276177542,3163.9,810.3214133126395,744.0714276177542,3269.2,810.3214133126395,744.0714276177542,3372.9,810.3214133126395,744.0714276177542,3472.9,810.3214133126395,744.0714276177542,3572.9,810.3214133126395,744.0714276177542,3673.2,810.3214133126395,744.0714276177542,3773.2,810.3214133126395,744.0714276177542,3877.9,810.3214133126395,744.0714276177542,3977.9,810.3214133126395,744.0714276177542,4078.3,810.3214133126395,744.0714276177542,4183.1,810.3214133126395,744.0714276177542,4283.1,810.3214133126395,744.0714276177542,4385.4,810.3214133126395,744.0714276177542,4487.8,810.3214133126395,744.0714276177542,4588,810.3214133126395,744.0714276177542,4688.1,810.3214133126395,744.0714276177542,4793.9,810.3214133126395,744.0714276177542,4898,810.3214133126395,744.0714276177542,5000]","[1379.5,1379.5,1000,0,379.5,""oops"",""right"",""up"",""bad_move"",3914.3,2533.7,2241.9,1380.6,291.8,""smooth"",""right"",""right"",""good_move"",10882.8,6967.7,2383.6,8188.9,310.3,""oops"",""down"",""right"",""good_move"",14086,3202.9,2873.7,10883.1,329.2,""smooth"",""down"",""down"",""good_move"",17319,3232.3,2914.6,14086.7,317.7,""smooth"",""down"",""down"",""good_move"",23253.9,5934.5,2368.7,20538.7,346.6,""oops"",""down"",""down"",""good_move"",26699.9,3445.7,3113.3,23254.3,332.4,""smooth"",""down"",""down"",""good_move"",32387.9,5687.6,2309.5,29688.2,390.2,""smooth"",""right"",""right"",""good_move""]"
"2545","","<div style=""width:500px;"">
  <p>What determined the result of this run?</p>
  </div>","81","html-slider-response","29","319826","0.0-7.0-1.3","115","1","2025-07-31 19:28:07","36c45c0696341be0efffe67d72a12abb","94.3.17.192","Mozilla/5.0 (X11; CrOS x86_64 14541.0.0) AppleWebKit/537.36 (KHTML, like Gecko) Chrome/137.0.0.0 Safari/537.36","WebKit","Chrome","137.0.0.0","ChromeOS","14541.0.0","https://app.prolific.com/","en-GB,en-US;q=0.9,en;q=0.8","5b5f23420085cb0001872849","683dba9a53627eb9ab41b36a","688bc3b96bfabc24df9fe250","0","5b5f23420085cb0001872849","0","2025-07-31T19:33:28.095Z","","","","AttribQ","","","","","","","","","","","50","","","","","","","","","","","","","","","","","","","","","","","","","","",""
"1907","","<div style=""width:500px;"">
  <p>How much control did you have over the ball?</p>
  </div>","76","html-slider-response","30","321734","0.0-7.0-2.3","115","1","2025-07-31 19:28:07","36c45c0696341be0efffe67d72a12abb","94.3.17.192","Mozilla/5.0 (X11; CrOS x86_64 14541.0.0) AppleWebKit/537.36 (KHTML, like Gecko) Chrome/137.0.0.0 Safari/537.36","WebKit","Chrome","137.0.0.0","ChromeOS","14541.0.0","https://app.prolific.com/","en-GB,en-US;q=0.9,en;q=0.8","5b5f23420085cb0001872849","683dba9a53627eb9ab41b36a","688bc3b96bfabc24df9fe250","0","5b5f23420085cb0001872849","0","2025-07-31T19:33:30.003Z","","","","ControlQ","","","","","","","","","","","50","","","","","","","","","","","","","","","","","","","","","","","","","","",""
"2170","","<div style=""width:500px;"">
  <p>How would you describe your current emotional state?</p>
  </div>","66","html-slider-response","31","323906","0.0-7.0-3.3","115","1","2025-07-31 19:28:07","36c45c0696341be0efffe67d72a12abb","94.3.17.192","Mozilla/5.0 (X11; CrOS x86_64 14541.0.0) AppleWebKit/537.36 (KHTML, like Gecko) Chrome/137.0.0.0 Safari/537.36","WebKit","Chrome","137.0.0.0","ChromeOS","14541.0.0","https://app.prolific.com/","en-GB,en-US;q=0.9,en;q=0.8","5b5f23420085cb0001872849","683dba9a53627eb9ab41b36a","688bc3b96bfabc24df9fe250","0","5b5f23420085cb0001872849","0","2025-07-31T19:33:32.174Z","","","","StressQ","","","","","","","","","","","50","","","","","","","","","","","","","","","","","","","","","","","","","","",""
"1834","","<div style=""width:500px;"">
  <p>What best describes how you currently feel?</p>
  </div>","37","html-slider-response","32","325742","0.0-7.0-4.3","115","1","2025-07-31 19:28:07","36c45c0696341be0efffe67d72a12abb","94.3.17.192","Mozilla/5.0 (X11; CrOS x86_64 14541.0.0) AppleWebKit/537.36 (KHTML, like Gecko) Chrome/137.0.0.0 Safari/537.36","WebKit","Chrome","137.0.0.0","ChromeOS","14541.0.0","https://app.prolific.com/","en-GB,en-US;q=0.9,en;q=0.8","5b5f23420085cb0001872849","683dba9a53627eb9ab41b36a","688bc3b96bfabc24df9fe250","0","5b5f23420085cb0001872849","0","2025-07-31T19:33:34.010Z","","","","MotivationQ","","","","","","","","","","","50","","","","","","","","","","","","","","","","","","","","","","","","","","",""
"","","","","ctl-task-cpt","33","369038","0.0-7.0-0.4","115","1","2025-07-31 19:28:07","36c45c0696341be0efffe67d72a12abb","94.3.17.192","Mozilla/5.0 (X11; CrOS x86_64 14541.0.0) AppleWebKit/537.36 (KHTML, like Gecko) Chrome/137.0.0.0 Safari/537.36","WebKit","Chrome","137.0.0.0","ChromeOS","14541.0.0","https://app.prolific.com/","en-GB,en-US;q=0.9,en;q=0.8","5b5f23420085cb0001872849","683dba9a53627eb9ab41b36a","688bc3b96bfabc24df9fe250","0","5b5f23420085cb0001872849","0","2025-07-31T19:34:17.306Z","","","","","","","","","","","","","","","","win-only","1","g1:NE,g2:SW","0.6","5","0","327405.6","5283.7","10285.9","40286.2","1","4","4","6","2","-4","-4","19","23","0.14393939393939395","1299.2","3000","-2980","[""down"",""left""]","{""num_key_presses"":9,""num_perfect"":5,""num_errors"":0,""num_randdir"":4,""num_randdir_good_moves"":1,""num_whilered"":0,""num_whileblue"":0,""num_blue"":2,""num_good_moves"":6}","[416.5714133126395,425.32142761775424,0.3,416.5714133126395,425.32142761775424,101.8,416.5714133126395,425.32142761775424,201.9,416.5714133126395,425.32142761775424,308,416.5714133126395,425.32142761775424,411.8,416.5714133126395,425.32142761775424,512.5,416.5714133126395,425.32142761775424,613.9,112.8214133126395,819.0714276177542,717,94.0714133126395,847.8214276177542,817.1,42.82141331263951,870.3214276177542,917.2,21.571413312639507,819.0714276177542,1023.5,36.57141331263951,795.3214276177542,1128.8,36.57141331263951,795.3214276177542,1232,36.57141331263951,795.3214276177542,1332,36.57141331263951,795.3214276177542,1437.2,36.57141331263951,795.3214276177542,1542.1,36.57141331263951,795.3214276177542,1647.3,36.57141331263951,795.3214276177542,1751.9,36.57141331263951,795.3214276177542,1858.3,36.57141331263951,795.3214276177542,1971.2,36.57141331263951,795.3214276177542,2071.9,36.57141331263951,795.3214276177542,2172,36.57141331263951,795.3214276177542,2279.9,36.57141331263951,795.3214276177542,2382.2,36.57141331263951,795.3214276177542,2482.3,36.57141331263951,795.3214276177542,2583.1,36.57141331263951,795.3214276177542,2687.3,36.57141331263951,795.3214276177542,2791.9,36.57141331263951,795.3214276177542,2892.3,36.57141331263951,795.3214276177542,2993.2,36.57141331263951,795.3214276177542,3096.7,36.57141331263951,795.3214276177542,3197,36.57141331263951,795.3214276177542,3297,36.57141331263951,795.3214276177542,3401.8,36.57141331263951,795.3214276177542,3502.1,36.57141331263951,795.3214276177542,3608.1,36.57141331263951,795.3214276177542,3708.8,36.57141331263951,795.3214276177542,3811.8,36.57141331263951,795.3214276177542,3919.1,36.57141331263951,795.3214276177542,4022.5,36.57141331263951,795.3214276177542,4122.8,36.57141331263951,795.3214276177542,4227.6,36.57141331263951,795.3214276177542,4332,36.57141331263951,795.3214276177542,4437.1,36.57141331263951,795.3214276177542,4541.9,36.57141331263951,795.3214276177542,4642,36.57141331263951,795.3214276177542,4742.2,36.57141331263951,795.3214276177542,4842.6,36.57141331263951,795.3214276177542,4943.4]","[1394.1,1394.1,1000,0,394.1,""smooth"",""left"",""left"",""good_move"",3817.3,2422.8,2104.2,1394.5,318.6,""smooth"",""down"",""down"",""good_move"",6617.4,2799.5,2473.9,3817.9,325.6,""oops"",""left"",""down"",""good_move"",9016.3,2398.6,2061.7,6617.7,336.9,""oops"",""left"",""up"",""bad_move"",11931.5,2914.6,2575.3,9016.9,339.3,""oops"",""left"",""right"",""bad_move"",18054.1,6122.1,2880.8,14844.4,328.9,""oops"",""left"",""right"",""bad_move"",23048.9,4994.4,1349.5,21349.6,349.8,""smooth"",""left"",""left"",""good_move"",25644.4,2595,2277.6,23049.4,317.4,""smooth"",""left"",""left"",""good_move"",28189.7,2545.1,2264.9,25644.6,280.2,""smooth"",""left"",""left"",""good_move""]"
"1721","","<div style=""width:500px;"">
  <p>What determined the result of this run?</p>
  </div>","12","html-slider-response","34","370760","0.0-7.0-1.4","115","1","2025-07-31 19:28:07","36c45c0696341be0efffe67d72a12abb","94.3.17.192","Mozilla/5.0 (X11; CrOS x86_64 14541.0.0) AppleWebKit/537.36 (KHTML, like Gecko) Chrome/137.0.0.0 Safari/537.36","WebKit","Chrome","137.0.0.0","ChromeOS","14541.0.0","https://app.prolific.com/","en-GB,en-US;q=0.9,en;q=0.8","5b5f23420085cb0001872849","683dba9a53627eb9ab41b36a","688bc3b96bfabc24df9fe250","0","5b5f23420085cb0001872849","0","2025-07-31T19:34:19.028Z","","","","AttribQ","","","","","","","","","","","50","","","","","","","","","","","","","","","","","","","","","","","","","","",""
"2157","","<div style=""width:500px;"">
  <p>How much control did you have over the ball?</p>
  </div>","32","html-slider-response","35","372919","0.0-7.0-2.4","115","1","2025-07-31 19:28:07","36c45c0696341be0efffe67d72a12abb","94.3.17.192","Mozilla/5.0 (X11; CrOS x86_64 14541.0.0) AppleWebKit/537.36 (KHTML, like Gecko) Chrome/137.0.0.0 Safari/537.36","WebKit","Chrome","137.0.0.0","ChromeOS","14541.0.0","https://app.prolific.com/","en-GB,en-US;q=0.9,en;q=0.8","5b5f23420085cb0001872849","683dba9a53627eb9ab41b36a","688bc3b96bfabc24df9fe250","0","5b5f23420085cb0001872849","0","2025-07-31T19:34:21.187Z","","","","ControlQ","","","","","","","","","","","50","","","","","","","","","","","","","","","","","","","","","","","","","","",""
"3379","","<div style=""width:500px;"">
  <p>How would you describe your current emotional state?</p>
  </div>","74","html-slider-response","36","376301","0.0-7.0-3.4","115","1","2025-07-31 19:28:07","36c45c0696341be0efffe67d72a12abb","94.3.17.192","Mozilla/5.0 (X11; CrOS x86_64 14541.0.0) AppleWebKit/537.36 (KHTML, like Gecko) Chrome/137.0.0.0 Safari/537.36","WebKit","Chrome","137.0.0.0","ChromeOS","14541.0.0","https://app.prolific.com/","en-GB,en-US;q=0.9,en;q=0.8","5b5f23420085cb0001872849","683dba9a53627eb9ab41b36a","688bc3b96bfabc24df9fe250","0","5b5f23420085cb0001872849","0","2025-07-31T19:34:24.570Z","","","","StressQ","","","","","","","","","","","50","","","","","","","","","","","","","","","","","","","","","","","","","","",""
"3968","","<div style=""width:500px;"">
  <p>What best describes how you currently feel?</p>
  </div>","25","html-slider-response","37","380271","0.0-7.0-4.4","115","1","2025-07-31 19:28:07","36c45c0696341be0efffe67d72a12abb","94.3.17.192","Mozilla/5.0 (X11; CrOS x86_64 14541.0.0) AppleWebKit/537.36 (KHTML, like Gecko) Chrome/137.0.0.0 Safari/537.36","WebKit","Chrome","137.0.0.0","ChromeOS","14541.0.0","https://app.prolific.com/","en-GB,en-US;q=0.9,en;q=0.8","5b5f23420085cb0001872849","683dba9a53627eb9ab41b36a","688bc3b96bfabc24df9fe250","0","5b5f23420085cb0001872849","0","2025-07-31T19:34:28.539Z","","","","MotivationQ","","","","","","","","","","","50","","","","","","","","","","","","","","","","","","","","","","","","","","",""
"","","","","ctl-task-cpt","38","411533","0.0-7.0-0.5","115","1","2025-07-31 19:28:07","36c45c0696341be0efffe67d72a12abb","94.3.17.192","Mozilla/5.0 (X11; CrOS x86_64 14541.0.0) AppleWebKit/537.36 (KHTML, like Gecko) Chrome/137.0.0.0 Safari/537.36","WebKit","Chrome","137.0.0.0","ChromeOS","14541.0.0","https://app.prolific.com/","en-GB,en-US;q=0.9,en;q=0.8","5b5f23420085cb0001872849","683dba9a53627eb9ab41b36a","688bc3b96bfabc24df9fe250","0","5b5f23420085cb0001872849","0","2025-07-31T19:34:59.801Z","","","","","","","","","","","","","","","","win-only","3","g1:SW,g2:NE","0.5","6","0","381934.8","3411.4","8416.7","28252.6","1","4","8","6","2","8","8","27","19","0.20454545454545456","1000.1","3000","1245","[""up"",""right""]","{""num_key_presses"":6,""num_perfect"":4,""num_errors"":0,""num_randdir"":2,""num_randdir_good_moves"":2,""num_whilered"":0,""num_whileblue"":0,""num_blue"":1,""num_good_moves"":6}","[412.8214133126395,425.32142761775424,0.4,412.8214133126395,425.32142761775424,104,412.8214133126395,425.32142761775424,204,412.8214133126395,425.32142761775424,304,412.8214133126395,425.32142761775424,404.1,519.0714133126395,319.07142761775424,504.1,800.3214133126395,121.57142761775425,609.4,815.3214133126395,117.82142761775425,714.7,741.5714133126395,47.82142761775425,818.7,741.5714133126395,47.82142761775425,919.2,741.5714133126395,47.82142761775425,1019.7,741.5714133126395,47.82142761775425,1126.6,741.5714133126395,47.82142761775425,1232,741.5714133126395,47.82142761775425,1334.1,741.5714133126395,47.82142761775425,1434.1,741.5714133126395,47.82142761775425,1534.6,741.5714133126395,47.82142761775425,1639.3,741.5714133126395,47.82142761775425,1744.3,741.5714133126395,47.82142761775425,1846.2,741.5714133126395,47.82142761775425,1946.6,741.5714133126395,47.82142761775425,2054,741.5714133126395,47.82142761775425,2154.2,741.5714133126395,47.82142761775425,2260.9,741.5714133126395,47.82142761775425,2364.5,741.5714133126395,47.82142761775425,2467.3,741.5714133126395,47.82142761775425,2569.3,741.5714133126395,47.82142761775425,2674.1,741.5714133126395,47.82142761775425,2781.6,741.5714133126395,47.82142761775425,2884.6,741.5714133126395,47.82142761775425,2989.1,741.5714133126395,47.82142761775425,3091.9,741.5714133126395,47.82142761775425,3194.9,741.5714133126395,47.82142761775425,3299.1,741.5714133126395,47.82142761775425,3399.9,741.5714133126395,47.82142761775425,3504.3,741.5714133126395,47.82142761775425,3609.2,741.5714133126395,47.82142761775425,3714.7,741.5714133126395,47.82142761775425,3817.1,741.5714133126395,47.82142761775425,3919,741.5714133126395,47.82142761775425,4019.9,741.5714133126395,47.82142761775425,4120.3,741.5714133126395,47.82142761775425,4224,741.5714133126395,47.82142761775425,4326.8,741.5714133126395,47.82142761775425,4431,741.5714133126395,47.82142761775425,4534.1,741.5714133126395,47.82142761775425,4635.7,741.5714133126395,47.82142761775425,4736.7,741.5714133126395,47.82142761775425,4839.1,741.5714133126395,47.82142761775425,4943.4]","[1359.2,1359.2,1000,0,359.2,""smooth"",""right"",""right"",""good_move"",4964.9,3605.1,3297.7,1359.8,307.4,""smooth"",""up"",""up"",""good_move"",7837.9,2872.3,2606.8,4965.6,265.5,""smooth"",""right"",""right"",""good_move"",10145.9,2307.5,1999.5,7838.4,308,""oops"",""up"",""right"",""good_move"",13237.6,3091.3,2787.2,10146.3,304.1,""oops"",""up"",""up"",""good_move"",19729.5,6491.3,2485.4,16893.6,350.5,""smooth"",""up"",""up"",""good_move""]"
"2699","","<div style=""width:500px;"">
  <p>What determined the result of this run?</p>
  </div>","82","html-slider-response","39","414233","0.0-7.0-1.5","115","1","2025-07-31 19:28:07","36c45c0696341be0efffe67d72a12abb","94.3.17.192","Mozilla/5.0 (X11; CrOS x86_64 14541.0.0) AppleWebKit/537.36 (KHTML, like Gecko) Chrome/137.0.0.0 Safari/537.36","WebKit","Chrome","137.0.0.0","ChromeOS","14541.0.0","https://app.prolific.com/","en-GB,en-US;q=0.9,en;q=0.8","5b5f23420085cb0001872849","683dba9a53627eb9ab41b36a","688bc3b96bfabc24df9fe250","0","5b5f23420085cb0001872849","0","2025-07-31T19:35:02.502Z","","","","AttribQ","","","","","","","","","","","50","","","","","","","","","","","","","","","","","","","","","","","","","","",""
"2133","","<div style=""width:500px;"">
  <p>How much control did you have over the ball?</p>
  </div>","80","html-slider-response","40","416368","0.0-7.0-2.5","115","1","2025-07-31 19:28:07","36c45c0696341be0efffe67d72a12abb","94.3.17.192","Mozilla/5.0 (X11; CrOS x86_64 14541.0.0) AppleWebKit/537.36 (KHTML, like Gecko) Chrome/137.0.0.0 Safari/537.36","WebKit","Chrome","137.0.0.0","ChromeOS","14541.0.0","https://app.prolific.com/","en-GB,en-US;q=0.9,en;q=0.8","5b5f23420085cb0001872849","683dba9a53627eb9ab41b36a","688bc3b96bfabc24df9fe250","0","5b5f23420085cb0001872849","0","2025-07-31T19:35:04.636Z","","","","ControlQ","","","","","","","","","","","50","","","","","","","","","","","","","","","","","","","","","","","","","","",""
"2814","","<div style=""width:500px;"">
  <p>How would you describe your current emotional state?</p>
  </div>","57","html-slider-response","41","419183","0.0-7.0-3.5","115","1","2025-07-31 19:28:07","36c45c0696341be0efffe67d72a12abb","94.3.17.192","Mozilla/5.0 (X11; CrOS x86_64 14541.0.0) AppleWebKit/537.36 (KHTML, like Gecko) Chrome/137.0.0.0 Safari/537.36","WebKit","Chrome","137.0.0.0","ChromeOS","14541.0.0","https://app.prolific.com/","en-GB,en-US;q=0.9,en;q=0.8","5b5f23420085cb0001872849","683dba9a53627eb9ab41b36a","688bc3b96bfabc24df9fe250","0","5b5f23420085cb0001872849","0","2025-07-31T19:35:07.451Z","","","","StressQ","","","","","","","","","","","50","","","","","","","","","","","","","","","","","","","","","","","","","","",""
"3060","","<div style=""width:500px;"">
  <p>What best describes how you currently feel?</p>
  </div>","53","html-slider-response","42","422245","0.0-7.0-4.5","115","1","2025-07-31 19:28:07","36c45c0696341be0efffe67d72a12abb","94.3.17.192","Mozilla/5.0 (X11; CrOS x86_64 14541.0.0) AppleWebKit/537.36 (KHTML, like Gecko) Chrome/137.0.0.0 Safari/537.36","WebKit","Chrome","137.0.0.0","ChromeOS","14541.0.0","https://app.prolific.com/","en-GB,en-US;q=0.9,en;q=0.8","5b5f23420085cb0001872849","683dba9a53627eb9ab41b36a","688bc3b96bfabc24df9fe250","0","5b5f23420085cb0001872849","0","2025-07-31T19:35:10.513Z","","","","MotivationQ","","","","","","","","","","","50","","","","","","","","","","","","","","","","","","","","","","","","","","",""
"","","","","ctl-task-cpt","43","462860","0.0-7.0-0.6","115","1","2025-07-31 19:28:07","36c45c0696341be0efffe67d72a12abb","94.3.17.192","Mozilla/5.0 (X11; CrOS x86_64 14541.0.0) AppleWebKit/537.36 (KHTML, like Gecko) Chrome/137.0.0.0 Safari/537.36","WebKit","Chrome","137.0.0.0","ChromeOS","14541.0.0","https://app.prolific.com/","en-GB,en-US;q=0.9,en;q=0.8","5b5f23420085cb0001872849","683dba9a53627eb9ab41b36a","688bc3b96bfabc24df9fe250","0","5b5f23420085cb0001872849","0","2025-07-31T19:35:51.128Z","","","","","","","","","","","","","","","","win-only","0","g1:NW,g2:SE","0.4","7","0","423908.6","1186","6190.9","37601.3","1","4","8","6","2","-8","-8","19","27","0.14393939393939395","1262.2","3000","-2605","[""down"",""right""]","{""num_key_presses"":10,""num_perfect"":4,""num_errors"":0,""num_randdir"":6,""num_randdir_good_moves"":3,""num_whilered"":0,""num_whileblue"":0,""num_blue"":1,""num_good_moves"":7}","[421.5714133126395,419.07142761775424,0.3,421.5714133126395,419.07142761775424,100.1,421.5714133126395,419.07142761775424,202.8,421.5714133126395,419.07142761775424,304.3,421.5714133126395,419.07142761775424,404.3,421.5714133126395,419.07142761775424,508.7,509.0714133126395,487.82142761775424,609.4,659.0714133126395,629.0714276177542,713.3,659.0714133126395,631.5714276177542,816,735.3214133126395,759.0714276177542,919.6,777.8214133126395,814.0714276177542,1023.3,777.8214133126395,814.0714276177542,1126.2,777.8214133126395,814.0714276177542,1226.4,777.8214133126395,814.0714276177542,1329.5,777.8214133126395,814.0714276177542,1432,777.8214133126395,814.0714276177542,1534.7,777.8214133126395,814.0714276177542,1635.3,777.8214133126395,814.0714276177542,1735.8,777.8214133126395,814.0714276177542,1839.5,777.8214133126395,814.0714276177542,1941.3,777.8214133126395,814.0714276177542,2042.2,777.8214133126395,814.0714276177542,2147.6,777.8214133126395,814.0714276177542,2249.4,777.8214133126395,814.0714276177542,2351.7,777.8214133126395,814.0714276177542,2454.4,777.8214133126395,814.0714276177542,2555.2,777.8214133126395,814.0714276177542,2661.1,777.8214133126395,814.0714276177542,2762.5,777.8214133126395,814.0714276177542,2866.3,777.8214133126395,814.0714276177542,2966.5,777.8214133126395,814.0714276177542,3071,777.8214133126395,814.0714276177542,3176.4,777.8214133126395,814.0714276177542,3279.5,777.8214133126395,814.0714276177542,3380.6,777.8214133126395,814.0714276177542,3481.7,777.8214133126395,814.0714276177542,3585.9,777.8214133126395,814.0714276177542,3689.4,777.8214133126395,814.0714276177542,3789.8,777.8214133126395,814.0714276177542,3890.5,777.8214133126395,814.0714276177542,3994.8,777.8214133126395,814.0714276177542,4096.4,777.8214133126395,814.0714276177542,4196.9,777.8214133126395,814.0714276177542,4301.5,777.8214133126395,814.0714276177542,4406.3,777.8214133126395,814.0714276177542,4507.7,777.8214133126395,814.0714276177542,4611.1,777.8214133126395,814.0714276177542,4711.9,777.8214133126395,814.0714276177542,4814.8,777.8214133126395,814.0714276177542,4921.2]","[4661.5,4661.5,2290.5,2007.3,363.7,""oops"",""right"",""left"",""bad_move"",8339.4,3677.4,3349.9,4662,327.5,""oops"",""right"",""right"",""good_move"",11215.7,2875.6,2567,8340.1,308.6,""oops"",""right"",""down"",""good_move"",13404.1,2187.9,1864.3,11216.2,323.6,""oops"",""right"",""down"",""good_move"",16139,2734.2,2412.8,13404.8,321.4,""oops"",""right"",""left"",""bad_move"",18602.2,2462.5,2156.3,16139.7,306.2,""smooth"",""right"",""right"",""good_move"",21548.9,2944.2,2649,18604.7,295.2,""oops"",""right"",""up"",""bad_move"",23889.4,2339.9,2003.3,21549.5,336.6,""smooth"",""right"",""right"",""good_move"",26088.2,2198.5,1825,23889.7,373.5,""smooth"",""right"",""right"",""good_move"",29677.9,3589.5,3263.4,26088.4,326.1,""smooth"",""down"",""down"",""good_move""]"
"2693","","<div style=""width:500px;"">
  <p>What determined the result of this run?</p>
  </div>","17","html-slider-response","44","465554","0.0-7.0-1.6","115","1","2025-07-31 19:28:07","36c45c0696341be0efffe67d72a12abb","94.3.17.192","Mozilla/5.0 (X11; CrOS x86_64 14541.0.0) AppleWebKit/537.36 (KHTML, like Gecko) Chrome/137.0.0.0 Safari/537.36","WebKit","Chrome","137.0.0.0","ChromeOS","14541.0.0","https://app.prolific.com/","en-GB,en-US;q=0.9,en;q=0.8","5b5f23420085cb0001872849","683dba9a53627eb9ab41b36a","688bc3b96bfabc24df9fe250","0","5b5f23420085cb0001872849","0","2025-07-31T19:35:53.822Z","","","","AttribQ","","","","","","","","","","","50","","","","","","","","","","","","","","","","","","","","","","","","","","",""
"6058","","<div style=""width:500px;"">
  <p>How much control did you have over the ball?</p>
  </div>","26","html-slider-response","45","471613","0.0-7.0-2.6","115","1","2025-07-31 19:28:07","36c45c0696341be0efffe67d72a12abb","94.3.17.192","Mozilla/5.0 (X11; CrOS x86_64 14541.0.0) AppleWebKit/537.36 (KHTML, like Gecko) Chrome/137.0.0.0 Safari/537.36","WebKit","Chrome","137.0.0.0","ChromeOS","14541.0.0","https://app.prolific.com/","en-GB,en-US;q=0.9,en;q=0.8","5b5f23420085cb0001872849","683dba9a53627eb9ab41b36a","688bc3b96bfabc24df9fe250","0","5b5f23420085cb0001872849","0","2025-07-31T19:35:59.882Z","","","","ControlQ","","","","","","","","","","","50","","","","","","","","","","","","","","","","","","","","","","","","","","",""
"2404","","<div style=""width:500px;"">
  <p>How would you describe your current emotional state?</p>
  </div>","70","html-slider-response","46","474019","0.0-7.0-3.6","115","1","2025-07-31 19:28:07","36c45c0696341be0efffe67d72a12abb","94.3.17.192","Mozilla/5.0 (X11; CrOS x86_64 14541.0.0) AppleWebKit/537.36 (KHTML, like Gecko) Chrome/137.0.0.0 Safari/537.36","WebKit","Chrome","137.0.0.0","ChromeOS","14541.0.0","https://app.prolific.com/","en-GB,en-US;q=0.9,en;q=0.8","5b5f23420085cb0001872849","683dba9a53627eb9ab41b36a","688bc3b96bfabc24df9fe250","0","5b5f23420085cb0001872849","0","2025-07-31T19:36:02.288Z","","","","StressQ","","","","","","","","","","","50","","","","","","","","","","","","","","","","","","","","","","","","","","",""
"1815","","<div style=""width:500px;"">
  <p>What best describes how you currently feel?</p>
  </div>","44","html-slider-response","47","475836","0.0-7.0-4.6","115","1","2025-07-31 19:28:07","36c45c0696341be0efffe67d72a12abb","94.3.17.192","Mozilla/5.0 (X11; CrOS x86_64 14541.0.0) AppleWebKit/537.36 (KHTML, like Gecko) Chrome/137.0.0.0 Safari/537.36","WebKit","Chrome","137.0.0.0","ChromeOS","14541.0.0","https://app.prolific.com/","en-GB,en-US;q=0.9,en;q=0.8","5b5f23420085cb0001872849","683dba9a53627eb9ab41b36a","688bc3b96bfabc24df9fe250","0","5b5f23420085cb0001872849","0","2025-07-31T19:36:04.104Z","","","","MotivationQ","","","","","","","","","","","50","","","","","","","","","","","","","","","","","","","","","","","","","","",""
"","","","","ctl-task-cpt","48","507535","0.0-7.0-0.7","115","1","2025-07-31 19:28:07","36c45c0696341be0efffe67d72a12abb","94.3.17.192","Mozilla/5.0 (X11; CrOS x86_64 14541.0.0) AppleWebKit/537.36 (KHTML, like Gecko) Chrome/137.0.0.0 Safari/537.36","WebKit","Chrome","137.0.0.0","ChromeOS","14541.0.0","https://app.prolific.com/","en-GB,en-US;q=0.9,en;q=0.8","5b5f23420085cb0001872849","683dba9a53627eb9ab41b36a","688bc3b96bfabc24df9fe250","0","5b5f23420085cb0001872849","0","2025-07-31T19:36:35.803Z","","","","","","","","","","","","","","","","win-only","0","g1:NW,g2:SE","0.3","8","0","477499.8","1332","6332.5","28685.5","1","4","4","6","2","4","4","23","19","0.17424242424242425","1107.9","3000","1595","[""down"",""right""]","{""num_key_presses"":6,""num_perfect"":3,""num_errors"":0,""num_randdir"":3,""num_randdir_good_moves"":3,""num_whilered"":0,""num_whileblue"":0,""num_blue"":2,""num_good_moves"":6}","[417.8214133126395,406.57142761775424,0.7,417.8214133126395,406.57142761775424,103.3,417.8214133126395,406.57142761775424,205,417.8214133126395,406.57142761775424,308.3,417.8214133126395,406.57142761775424,409.4,417.8214133126395,406.57142761775424,509.9,876.5714133126395,737.8214276177542,619.7,885.3214133126395,755.3214276177542,723.3,861.5714133126395,757.8214276177542,823.3,799.0714133126395,745.3214276177542,924.1,799.0714133126395,745.3214276177542,1030.4,799.0714133126395,745.3214276177542,1136.1,799.0714133126395,745.3214276177542,1238.6,799.0714133126395,745.3214276177542,1341.3,1066.5714133126396,709.0714276177542,1446.5,1375.3214133126396,757.8214276177542,1552,1375.3214133126396,757.8214276177542,1655.5,1375.3214133126396,757.8214276177542,1763.3,1375.3214133126396,757.8214276177542,1864.3,1375.3214133126396,757.8214276177542,1966.4,1375.3214133126396,757.8214276177542,2070,1375.3214133126396,757.8214276177542,2173.3,1375.3214133126396,757.8214276177542,2279.1,1375.3214133126396,757.8214276177542,2382.3,1375.3214133126396,757.8214276177542,2483.5,1375.3214133126396,757.8214276177542,2585.4,1375.3214133126396,757.8214276177542,2688,1375.3214133126396,757.8214276177542,2788.3,1375.3214133126396,757.8214276177542,2888.9,1375.3214133126396,757.8214276177542,2989.7,1375.3214133126396,757.8214276177542,3093.5,1375.3214133126396,757.8214276177542,3194,1375.3214133126396,757.8214276177542,3294.6,1375.3214133126396,757.8214276177542,3401.6,1375.3214133126396,757.8214276177542,3501.6,1375.3214133126396,757.8214276177542,3603.8,1375.3214133126396,757.8214276177542,3703.8,1375.3214133126396,757.8214276177542,3807.2,1375.3214133126396,757.8214276177542,3908.5,1375.3214133126396,757.8214276177542,4010.7,1375.3214133126396,757.8214276177542,4116.4,1375.3214133126396,757.8214276177542,4219.1,1375.3214133126396,757.8214276177542,4323.4,1375.3214133126396,757.8214276177542,4429.7,1375.3214133126396,757.8214276177542,4536.2,1375.3214133126396,757.8214276177542,4638.1,1375.3214133126396,757.8214276177542,4738.9,1375.3214133126396,757.8214276177542,4841.2,1375.3214133126396,757.8214276177542,4949.3]","[5501,5501,3184.9,2008.3,307.8,""smooth"",""right"",""right"",""good_move"",8231.3,2729.9,2301,5501.4,428.9,""oops"",""down"",""down"",""good_move"",10385,2153,1842.9,8232,310.1,""oops"",""down"",""right"",""good_move"",12575.2,2189.9,1876.6,10385.3,313.3,""smooth"",""down"",""down"",""good_move"",15449,2873.5,2558.4,12575.5,315.1,""smooth"",""down"",""down"",""good_move"",22252.6,6803.3,2765.7,19122.8,364.1,""oops"",""right"",""right"",""good_move""]"
"2186","","<div style=""width:500px;"">
  <p>What determined the result of this run?</p>
  </div>","67","html-slider-response","49","509723","0.0-7.0-1.7","115","1","2025-07-31 19:28:07","36c45c0696341be0efffe67d72a12abb","94.3.17.192","Mozilla/5.0 (X11; CrOS x86_64 14541.0.0) AppleWebKit/537.36 (KHTML, like Gecko) Chrome/137.0.0.0 Safari/537.36","WebKit","Chrome","137.0.0.0","ChromeOS","14541.0.0","https://app.prolific.com/","en-GB,en-US;q=0.9,en;q=0.8","5b5f23420085cb0001872849","683dba9a53627eb9ab41b36a","688bc3b96bfabc24df9fe250","0","5b5f23420085cb0001872849","0","2025-07-31T19:36:37.991Z","","","","AttribQ","","","","","","","","","","","50","","","","","","","","","","","","","","","","","","","","","","","","","","",""
"3078","","<div style=""width:500px;"">
  <p>How much control did you have over the ball?</p>
  </div>","78","html-slider-response","50","512803","0.0-7.0-2.7","115","1","2025-07-31 19:28:07","36c45c0696341be0efffe67d72a12abb","94.3.17.192","Mozilla/5.0 (X11; CrOS x86_64 14541.0.0) AppleWebKit/537.36 (KHTML, like Gecko) Chrome/137.0.0.0 Safari/537.36","WebKit","Chrome","137.0.0.0","ChromeOS","14541.0.0","https://app.prolific.com/","en-GB,en-US;q=0.9,en;q=0.8","5b5f23420085cb0001872849","683dba9a53627eb9ab41b36a","688bc3b96bfabc24df9fe250","0","5b5f23420085cb0001872849","0","2025-07-31T19:36:41.071Z","","","","ControlQ","","","","","","","","","","","50","","","","","","","","","","","","","","","","","","","","","","","","","","",""
"2606","","<div style=""width:500px;"">
  <p>How would you describe your current emotional state?</p>
  </div>","64","html-slider-response","51","515410","0.0-7.0-3.7","115","1","2025-07-31 19:28:07","36c45c0696341be0efffe67d72a12abb","94.3.17.192","Mozilla/5.0 (X11; CrOS x86_64 14541.0.0) AppleWebKit/537.36 (KHTML, like Gecko) Chrome/137.0.0.0 Safari/537.36","WebKit","Chrome","137.0.0.0","ChromeOS","14541.0.0","https://app.prolific.com/","en-GB,en-US;q=0.9,en;q=0.8","5b5f23420085cb0001872849","683dba9a53627eb9ab41b36a","688bc3b96bfabc24df9fe250","0","5b5f23420085cb0001872849","0","2025-07-31T19:36:43.678Z","","","","StressQ","","","","","","","","","","","50","","","","","","","","","","","","","","","","","","","","","","","","","","",""
"32979","","<div style=""width:500px;"">
  <p>What best describes how you currently feel?</p>
  </div>","41","html-slider-response","52","548391","0.0-7.0-4.7","115","1","2025-07-31 19:28:07","36c45c0696341be0efffe67d72a12abb","94.3.17.192","Mozilla/5.0 (X11; CrOS x86_64 14541.0.0) AppleWebKit/537.36 (KHTML, like Gecko) Chrome/137.0.0.0 Safari/537.36","WebKit","Chrome","137.0.0.0","ChromeOS","14541.0.0","https://app.prolific.com/","en-GB,en-US;q=0.9,en;q=0.8","5b5f23420085cb0001872849","683dba9a53627eb9ab41b36a","688bc3b96bfabc24df9fe250","0","5b5f23420085cb0001872849","0","2025-07-31T19:37:16.659Z","","","","MotivationQ","","","","","","","","","","","50","","","","","","","","","","","","","","","","","","","","","","","","","","",""
"","","","","ctl-task-cpt","53","592263","0.0-7.0-0.8","115","1","2025-07-31 19:28:07","36c45c0696341be0efffe67d72a12abb","94.3.17.192","Mozilla/5.0 (X11; CrOS x86_64 14541.0.0) AppleWebKit/537.36 (KHTML, like Gecko) Chrome/137.0.0.0 Safari/537.36","WebKit","Chrome","137.0.0.0","ChromeOS","14541.0.0","https://app.prolific.com/","en-GB,en-US;q=0.9,en;q=0.8","5b5f23420085cb0001872849","683dba9a53627eb9ab41b36a","688bc3b96bfabc24df9fe250","0","5b5f23420085cb0001872849","0","2025-07-31T19:38:00.531Z","","","","","","","","","","","","","","","","win-only","2","g1:SE,g2:NW","0.4","9","0","550054","1115.7","6125","40860.3","1","4","4","6","2","-4","-5","18","23","0.13636363636363635","1342.3","3000","-2590","[""left"",""up""]","{""num_key_presses"":11,""num_perfect"":4,""num_errors"":1,""num_randdir"":6,""num_randdir_good_moves"":2,""num_whilered"":0,""num_whileblue"":1,""num_blue"":2,""num_good_moves"":7}","[424.0714133126395,416.57142761775424,0.2,424.0714133126395,416.57142761775424,107.8,424.0714133126395,416.57142761775424,214.1,424.0714133126395,416.57142761775424,321.7,424.0714133126395,416.57142761775424,421.9,424.0714133126395,416.57142761775424,525.4,424.0714133126395,416.57142761775424,628.2,190.3214133126395,260.32142761775424,732.7,-57.17858668736049,10.321427617754253,837.2,-57.17858668736049,7.821427617754253,937.6,-53.42858668736049,7.821427617754253,1040.1,57.82141331263951,27.821427617754253,1143.3,57.82141331263951,27.821427617754253,1245.7,57.82141331263951,27.821427617754253,1354.1,57.82141331263951,27.821427617754253,1455.7,57.82141331263951,27.821427617754253,1560.8,57.82141331263951,27.821427617754253,1660.8,-119.6785866873605,159.07142761775424,1765.4,-129.6785866873605,166.57142761775424,1871,-129.6785866873605,166.57142761775424,1974.7,-129.6785866873605,166.57142761775424,2075.4,-129.6785866873605,166.57142761775424,2183.3,-129.6785866873605,166.57142761775424,2284.9,-129.6785866873605,166.57142761775424,2388,-129.6785866873605,166.57142761775424,2491.5,-129.6785866873605,166.57142761775424,2591.6,-129.6785866873605,166.57142761775424,2694.7,-129.6785866873605,166.57142761775424,2796.3,-129.6785866873605,166.57142761775424,2897.1,-129.6785866873605,166.57142761775424,3000,-129.6785866873605,166.57142761775424,3102.2,-129.6785866873605,166.57142761775424,3204.6,-129.6785866873605,166.57142761775424,3309.4,-129.6785866873605,166.57142761775424,3410.2,-129.6785866873605,166.57142761775424,3510.8,-129.6785866873605,166.57142761775424,3612.1,-129.6785866873605,166.57142761775424,3713.3,-129.6785866873605,166.57142761775424,3816.4,-129.6785866873605,166.57142761775424,3919.7,-129.6785866873605,166.57142761775424,4028,-129.6785866873605,166.57142761775424,4133.3,-129.6785866873605,166.57142761775424,4235.7,-129.6785866873605,166.57142761775424,4338.4,-129.6785866873605,166.57142761775424,4440.2,-129.6785866873605,166.57142761775424,4541,-129.6785866873605,166.57142761775424,4641.6,-129.6785866873605,166.57142761775424,4745.2,-129.6785866873605,166.57142761775424,4850,-129.6785866873605,166.57142761775424,4956]","[1333.2,1333.1,1000,0.1,333.1,""smooth"",""left"",""left"",""good_move"",7871.2,6537.6,1861.4,5711.6,298.2,""oops"",""up"",""down"",""bad_move"",10382.2,2510.4,2193.4,7871.8,317,""smooth"",""up"",""up"",""good_move"",12688.4,2305.7,2019.4,10382.7,286.3,""oops"",""up"",""right"",""bad_move"",15993.7,3304.8,2996.9,12688.9,307.9,""smooth"",""up"",""up"",""good_move"",18345.3,2351,2044.1,15994.3,306.9,""while_blue"",""left"",""left"",""good_move"",21026,2680.2,2340.2,18345.8,340,""oops"",""up"",""right"",""bad_move"",23762.4,2736,2388.8,21026.4,347.2,""oops"",""up"",""up"",""good_move"",26305.1,2542.3,2247.1,23762.8,295.2,""smooth"",""left"",""left"",""good_move"",29543.2,3237.6,2953.6,26305.6,284,""oops"",""left"",""up"",""good_move"",32330.8,2787.1,2500,29543.8,287,""oops"",""left"",""down"",""bad_move""]"
"2370","","<div style=""width:500px;"">
  <p>What determined the result of this run?</p>
  </div>","45","html-slider-response","54","594635","0.0-7.0-1.8","115","1","2025-07-31 19:28:07","36c45c0696341be0efffe67d72a12abb","94.3.17.192","Mozilla/5.0 (X11; CrOS x86_64 14541.0.0) AppleWebKit/537.36 (KHTML, like Gecko) Chrome/137.0.0.0 Safari/537.36","WebKit","Chrome","137.0.0.0","ChromeOS","14541.0.0","https://app.prolific.com/","en-GB,en-US;q=0.9,en;q=0.8","5b5f23420085cb0001872849","683dba9a53627eb9ab41b36a","688bc3b96bfabc24df9fe250","0","5b5f23420085cb0001872849","0","2025-07-31T19:38:02.903Z","","","","AttribQ","","","","","","","","","","","50","","","","","","","","","","","","","","","","","","","","","","","","","","",""
"3256","","<div style=""width:500px;"">
  <p>How much control did you have over the ball?</p>
  </div>","32","html-slider-response","55","597892","0.0-7.0-2.8","115","1","2025-07-31 19:28:07","36c45c0696341be0efffe67d72a12abb","94.3.17.192","Mozilla/5.0 (X11; CrOS x86_64 14541.0.0) AppleWebKit/537.36 (KHTML, like Gecko) Chrome/137.0.0.0 Safari/537.36","WebKit","Chrome","137.0.0.0","ChromeOS","14541.0.0","https://app.prolific.com/","en-GB,en-US;q=0.9,en;q=0.8","5b5f23420085cb0001872849","683dba9a53627eb9ab41b36a","688bc3b96bfabc24df9fe250","0","5b5f23420085cb0001872849","0","2025-07-31T19:38:06.160Z","","","","ControlQ","","","","","","","","","","","50","","","","","","","","","","","","","","","","","","","","","","","","","","",""
"6202","","<div style=""width:500px;"">
  <p>How would you describe your current emotional state?</p>
  </div>","75","html-slider-response","56","604095","0.0-7.0-3.8","115","1","2025-07-31 19:28:07","36c45c0696341be0efffe67d72a12abb","94.3.17.192","Mozilla/5.0 (X11; CrOS x86_64 14541.0.0) AppleWebKit/537.36 (KHTML, like Gecko) Chrome/137.0.0.0 Safari/537.36","WebKit","Chrome","137.0.0.0","ChromeOS","14541.0.0","https://app.prolific.com/","en-GB,en-US;q=0.9,en;q=0.8","5b5f23420085cb0001872849","683dba9a53627eb9ab41b36a","688bc3b96bfabc24df9fe250","0","5b5f23420085cb0001872849","0","2025-07-31T19:38:12.363Z","","","","StressQ","","","","","","","","","","","50","","","","","","","","","","","","","","","","","","","","","","","","","","",""
"2560","","<div style=""width:500px;"">
  <p>What best describes how you currently feel?</p>
  </div>","28","html-slider-response","57","606657","0.0-7.0-4.8","115","1","2025-07-31 19:28:07","36c45c0696341be0efffe67d72a12abb","94.3.17.192","Mozilla/5.0 (X11; CrOS x86_64 14541.0.0) AppleWebKit/537.36 (KHTML, like Gecko) Chrome/137.0.0.0 Safari/537.36","WebKit","Chrome","137.0.0.0","ChromeOS","14541.0.0","https://app.prolific.com/","en-GB,en-US;q=0.9,en;q=0.8","5b5f23420085cb0001872849","683dba9a53627eb9ab41b36a","688bc3b96bfabc24df9fe250","0","5b5f23420085cb0001872849","0","2025-07-31T19:38:14.925Z","","","","MotivationQ","","","","","","","","","","","50","","","","","","","","","","","","","","","","","","","","","","","","","","",""
"","","","","ctl-task-cpt","58","661032","0.0-7.0-0.9","115","1","2025-07-31 19:28:07","36c45c0696341be0efffe67d72a12abb","94.3.17.192","Mozilla/5.0 (X11; CrOS x86_64 14541.0.0) AppleWebKit/537.36 (KHTML, like Gecko) Chrome/137.0.0.0 Safari/537.36","WebKit","Chrome","137.0.0.0","ChromeOS","14541.0.0","https://app.prolific.com/","en-GB,en-US;q=0.9,en;q=0.8","5b5f23420085cb0001872849","683dba9a53627eb9ab41b36a","688bc3b96bfabc24df9fe250","0","5b5f23420085cb0001872849","0","2025-07-31T19:39:09.300Z","","","","","","","","","","","","","","","","win-only","2","g1:SE,g2:NW","0.5","10","0","608320","1661.5","6665","51361.1","1","4","8","6","2","-8","-8","10","18","0.07575757575757576","1042.2","3000","-2280","[""left"",""up""]","{""num_key_presses"":9,""num_perfect"":5,""num_errors"":0,""num_randdir"":4,""num_randdir_good_moves"":2,""num_whilered"":0,""num_whileblue"":0,""num_blue"":5,""num_good_moves"":7}","[410.3214133126395,414.07142761775424,0.3,410.3214133126395,414.07142761775424,103.3,410.3214133126395,414.07142761775424,204.3,410.3214133126395,414.07142761775424,309.2,410.3214133126395,414.07142761775424,410.4,410.3214133126395,414.07142761775424,519.9,109.0714133126395,116.57142761775425,621.8,95.3214133126395,91.57142761775425,724.6,87.8214133126395,82.82142761775425,825.6,86.5714133126395,80.32142761775425,926.2,86.5714133126395,80.32142761775425,1031.5,86.5714133126395,80.32142761775425,1135.3,86.5714133126395,80.32142761775425,1239.2,86.5714133126395,80.32142761775425,1341.4,-239.6785866873605,236.57142761775424,1444.5,-260.9285866873605,247.82142761775424,1549.9,-260.9285866873605,247.82142761775424,1654.8,-260.9285866873605,247.82142761775424,1757.1,-260.9285866873605,247.82142761775424,1863.2,-260.9285866873605,247.82142761775424,1964.7,-260.9285866873605,247.82142761775424,2068.4,-260.9285866873605,247.82142761775424,2171.4,-260.9285866873605,247.82142761775424,2274.4,-260.9285866873605,247.82142761775424,2374.7,-260.9285866873605,247.82142761775424,2478.4,-260.9285866873605,247.82142761775424,2579.8,-260.9285866873605,247.82142761775424,2680.2,-260.9285866873605,247.82142761775424,2782.1,-260.9285866873605,247.82142761775424,2886.9,-260.9285866873605,247.82142761775424,2987.1,-260.9285866873605,247.82142761775424,3089.6,-260.9285866873605,247.82142761775424,3196,-260.9285866873605,247.82142761775424,3303.8,-260.9285866873605,247.82142761775424,3407,-260.9285866873605,247.82142761775424,3508.2,-260.9285866873605,247.82142761775424,3609.3,-260.9285866873605,247.82142761775424,3709.4,-260.9285866873605,247.82142761775424,3812,-260.9285866873605,247.82142761775424,3913,-260.9285866873605,247.82142761775424,4020.2,-260.9285866873605,247.82142761775424,4121.2,-260.9285866873605,247.82142761775424,4224.1,-260.9285866873605,247.82142761775424,4327.4,-260.9285866873605,247.82142761775424,4427.7,-260.9285866873605,247.82142761775424,4530.2,-260.9285866873605,247.82142761775424,4635.4,-260.9285866873605,247.82142761775424,4737.8,-260.9285866873605,247.82142761775424,4839,-260.9285866873605,247.82142761775424,4939.9]","[1407.7,1407.8,1000,0,407.8,""oops"",""left"",""left"",""good_move"",3822,2413.7,2109.1,1408.3,304.6,""smooth"",""up"",""up"",""good_move"",9234.4,5412.1,2238.3,6688.2,307.9,""smooth"",""up"",""up"",""good_move"",15994.9,6760.2,2782.4,12897.3,315.2,""oops"",""left"",""right"",""bad_move"",19252,3256.3,2251.6,15995.7,1004.7,""oops"",""left"",""left"",""good_move"",21729.5,2477,2152.7,19252.5,324.3,""oops"",""left"",""down"",""bad_move"",32696.4,10966.5,2577.1,29687.1,432.4,""smooth"",""up"",""up"",""good_move"",39170,6471.3,2531.4,36294.2,344.4,""smooth"",""left"",""left"",""good_move"",41665.3,2494.8,2195.9,39170.5,298.9,""smooth"",""up"",""up"",""good_move""]"
"1914","","<div style=""width:500px;"">
  <p>What determined the result of this run?</p>
  </div>","22","html-slider-response","59","662948","0.0-7.0-1.9","115","1","2025-07-31 19:28:07","36c45c0696341be0efffe67d72a12abb","94.3.17.192","Mozilla/5.0 (X11; CrOS x86_64 14541.0.0) AppleWebKit/537.36 (KHTML, like Gecko) Chrome/137.0.0.0 Safari/537.36","WebKit","Chrome","137.0.0.0","ChromeOS","14541.0.0","https://app.prolific.com/","en-GB,en-US;q=0.9,en;q=0.8","5b5f23420085cb0001872849","683dba9a53627eb9ab41b36a","688bc3b96bfabc24df9fe250","0","5b5f23420085cb0001872849","0","2025-07-31T19:39:11.216Z","","","","AttribQ","","","","","","","","","","","50","","","","","","","","","","","","","","","","","","","","","","","","","","",""
"1716","","<div style=""width:500px;"">
  <p>How much control did you have over the ball?</p>
  </div>","30","html-slider-response","60","664665","0.0-7.0-2.9","115","1","2025-07-31 19:28:07","36c45c0696341be0efffe67d72a12abb","94.3.17.192","Mozilla/5.0 (X11; CrOS x86_64 14541.0.0) AppleWebKit/537.36 (KHTML, like Gecko) Chrome/137.0.0.0 Safari/537.36","WebKit","Chrome","137.0.0.0","ChromeOS","14541.0.0","https://app.prolific.com/","en-GB,en-US;q=0.9,en;q=0.8","5b5f23420085cb0001872849","683dba9a53627eb9ab41b36a","688bc3b96bfabc24df9fe250","0","5b5f23420085cb0001872849","0","2025-07-31T19:39:12.933Z","","","","ControlQ","","","","","","","","","","","50","","","","","","","","","","","","","","","","","","","","","","","","","","",""
"2460","","<div style=""width:500px;"">
  <p>How would you describe your current emotional state?</p>
  </div>","40","html-slider-response","61","667126","0.0-7.0-3.9","115","1","2025-07-31 19:28:07","36c45c0696341be0efffe67d72a12abb","94.3.17.192","Mozilla/5.0 (X11; CrOS x86_64 14541.0.0) AppleWebKit/537.36 (KHTML, like Gecko) Chrome/137.0.0.0 Safari/537.36","WebKit","Chrome","137.0.0.0","ChromeOS","14541.0.0","https://app.prolific.com/","en-GB,en-US;q=0.9,en;q=0.8","5b5f23420085cb0001872849","683dba9a53627eb9ab41b36a","688bc3b96bfabc24df9fe250","0","5b5f23420085cb0001872849","0","2025-07-31T19:39:15.394Z","","","","StressQ","","","","","","","","","","","50","","","","","","","","","","","","","","","","","","","","","","","","","","",""
"2096","","<div style=""width:500px;"">
  <p>What best describes how you currently feel?</p>
  </div>","61","html-slider-response","62","669224","0.0-7.0-4.9","115","1","2025-07-31 19:28:07","36c45c0696341be0efffe67d72a12abb","94.3.17.192","Mozilla/5.0 (X11; CrOS x86_64 14541.0.0) AppleWebKit/537.36 (KHTML, like Gecko) Chrome/137.0.0.0 Safari/537.36","WebKit","Chrome","137.0.0.0","ChromeOS","14541.0.0","https://app.prolific.com/","en-GB,en-US;q=0.9,en;q=0.8","5b5f23420085cb0001872849","683dba9a53627eb9ab41b36a","688bc3b96bfabc24df9fe250","0","5b5f23420085cb0001872849","0","2025-07-31T19:39:17.492Z","","","","MotivationQ","","","","","","","","","","","50","","","","","","","","","","","","","","","","","","","","","","","","","","",""
"","","","","ctl-task-cpt","63","707898","0.0-7.0-0.10","115","1","2025-07-31 19:28:07","36c45c0696341be0efffe67d72a12abb","94.3.17.192","Mozilla/5.0 (X11; CrOS x86_64 14541.0.0) AppleWebKit/537.36 (KHTML, like Gecko) Chrome/137.0.0.0 Safari/537.36","WebKit","Chrome","137.0.0.0","ChromeOS","14541.0.0","https://app.prolific.com/","en-GB,en-US;q=0.9,en;q=0.8","5b5f23420085cb0001872849","683dba9a53627eb9ab41b36a","688bc3b96bfabc24df9fe250","0","5b5f23420085cb0001872849","0","2025-07-31T19:39:56.166Z","","","","","","","","","","","","","","","","win-only","2","g1:SE,g2:NW","0.6","11","0","670887.7","1405.1","6405.6","35658.7","1","4","4","6","2","4","4","14","10","0.10606060606060606","1117.1","3000","1065","[""left"",""up""]","{""num_key_presses"":8,""num_perfect"":5,""num_errors"":0,""num_randdir"":3,""num_randdir_good_moves"":2,""num_whilered"":0,""num_whileblue"":0,""num_blue"":2,""num_good_moves"":7}","[421.5714133126395,409.07142761775424,0.7,421.5714133126395,409.07142761775424,100.3,421.5714133126395,409.07142761775424,200.8,421.5714133126395,409.07142761775424,303.8,421.5714133126395,409.07142761775424,405.9,421.5714133126395,409.07142761775424,508.9,360.3214133126395,364.07142761775424,614.3,115.3214133126395,137.82142761775424,718.4,94.0714133126395,120.32142761775425,821.7,79.0714133126395,96.57142761775425,926.8,79.0714133126395,96.57142761775425,1032.3,79.0714133126395,96.57142761775425,1136.6,79.0714133126395,96.57142761775425,1238.9,79.0714133126395,96.57142761775425,1339.3,-129.6785866873605,212.82142761775424,1442.1,-280.9285866873605,306.57142761775424,1543.6,-280.9285866873605,306.57142761775424,1648.3,-280.9285866873605,306.57142761775424,1749.7,-280.9285866873605,306.57142761775424,1851.1,-280.9285866873605,306.57142761775424,1955.3,-280.9285866873605,306.57142761775424,2055.3,-280.9285866873605,306.57142761775424,2158.7,-280.9285866873605,306.57142761775424,2262.5,-280.9285866873605,306.57142761775424,2368.2,-280.9285866873605,306.57142761775424,2470,-280.9285866873605,306.57142761775424,2571.8,-280.9285866873605,306.57142761775424,2671.8,-280.9285866873605,306.57142761775424,2773.4,-280.9285866873605,306.57142761775424,2878.1,-280.9285866873605,306.57142761775424,2985.2,-280.9285866873605,306.57142761775424,3088,-280.9285866873605,306.57142761775424,3192.2,-280.9285866873605,306.57142761775424,3296.8,-280.9285866873605,306.57142761775424,3403.3,-280.9285866873605,306.57142761775424,3505.6,-280.9285866873605,306.57142761775424,3611,-280.9285866873605,306.57142761775424,3715.8,-280.9285866873605,306.57142761775424,3818,-280.9285866873605,306.57142761775424,3919.8,-280.9285866873605,306.57142761775424,4022.6,-280.9285866873605,306.57142761775424,4128.4,-280.9285866873605,306.57142761775424,4234.8,-280.9285866873605,306.57142761775424,4338.1,-280.9285866873605,306.57142761775424,4441.1,-280.9285866873605,306.57142761775424,4543.7,-280.9285866873605,306.57142761775424,4648.9,-280.9285866873605,306.57142761775424,4750.2,-280.9285866873605,306.57142761775424,4851.2,-280.9285866873605,306.57142761775424,4955]","[1340.5,1340.5,1000,0,340.5,""smooth"",""up"",""up"",""good_move"",4429.8,3088.7,2767.2,1341.1,321.5,""smooth"",""left"",""left"",""good_move"",7475.4,3045.2,2721.8,4430.2,323.4,""smooth"",""up"",""up"",""good_move"",13988.7,6513.1,2599.6,11079.9,309.2,""smooth"",""left"",""left"",""good_move"",19956.6,5967.4,2841.7,16765.8,349.1,""oops"",""up"",""left"",""good_move"",23337.1,3380.2,3073,19956.9,307.2,""oops"",""up"",""down"",""bad_move"",26408,3070.3,2697.4,23337.7,372.9,""smooth"",""up"",""up"",""good_move"",29094.2,2684.9,2370.8,26409.3,314.1,""oops"",""up"",""up"",""good_move""]"
"4488","","<div style=""width:500px;"">
  <p>What determined the result of this run?</p>
  </div>","66","html-slider-response","64","712388","0.0-7.0-1.10","115","1","2025-07-31 19:28:07","36c45c0696341be0efffe67d72a12abb","94.3.17.192","Mozilla/5.0 (X11; CrOS x86_64 14541.0.0) AppleWebKit/537.36 (KHTML, like Gecko) Chrome/137.0.0.0 Safari/537.36","WebKit","Chrome","137.0.0.0","ChromeOS","14541.0.0","https://app.prolific.com/","en-GB,en-US;q=0.9,en;q=0.8","5b5f23420085cb0001872849","683dba9a53627eb9ab41b36a","688bc3b96bfabc24df9fe250","0","5b5f23420085cb0001872849","0","2025-07-31T19:40:00.656Z","","","","AttribQ","","","","","","","","","","","50","","","","","","","","","","","","","","","","","","","","","","","","","","",""
"2787","","<div style=""width:500px;"">
  <p>How much control did you have over the ball?</p>
  </div>","66","html-slider-response","65","715177","0.0-7.0-2.10","115","1","2025-07-31 19:28:07","36c45c0696341be0efffe67d72a12abb","94.3.17.192","Mozilla/5.0 (X11; CrOS x86_64 14541.0.0) AppleWebKit/537.36 (KHTML, like Gecko) Chrome/137.0.0.0 Safari/537.36","WebKit","Chrome","137.0.0.0","ChromeOS","14541.0.0","https://app.prolific.com/","en-GB,en-US;q=0.9,en;q=0.8","5b5f23420085cb0001872849","683dba9a53627eb9ab41b36a","688bc3b96bfabc24df9fe250","0","5b5f23420085cb0001872849","0","2025-07-31T19:40:03.445Z","","","","ControlQ","","","","","","","","","","","50","","","","","","","","","","","","","","","","","","","","","","","","","","",""
"2578","","<div style=""width:500px;"">
  <p>How would you describe your current emotional state?</p>
  </div>","44","html-slider-response","66","717756","0.0-7.0-3.10","115","1","2025-07-31 19:28:07","36c45c0696341be0efffe67d72a12abb","94.3.17.192","Mozilla/5.0 (X11; CrOS x86_64 14541.0.0) AppleWebKit/537.36 (KHTML, like Gecko) Chrome/137.0.0.0 Safari/537.36","WebKit","Chrome","137.0.0.0","ChromeOS","14541.0.0","https://app.prolific.com/","en-GB,en-US;q=0.9,en;q=0.8","5b5f23420085cb0001872849","683dba9a53627eb9ab41b36a","688bc3b96bfabc24df9fe250","0","5b5f23420085cb0001872849","0","2025-07-31T19:40:06.024Z","","","","StressQ","","","","","","","","","","","50","","","","","","","","","","","","","","","","","","","","","","","","","","",""
"2442","","<div style=""width:500px;"">
  <p>What best describes how you currently feel?</p>
  </div>","65","html-slider-response","67","720199","0.0-7.0-4.10","115","1","2025-07-31 19:28:07","36c45c0696341be0efffe67d72a12abb","94.3.17.192","Mozilla/5.0 (X11; CrOS x86_64 14541.0.0) AppleWebKit/537.36 (KHTML, like Gecko) Chrome/137.0.0.0 Safari/537.36","WebKit","Chrome","137.0.0.0","ChromeOS","14541.0.0","https://app.prolific.com/","en-GB,en-US;q=0.9,en;q=0.8","5b5f23420085cb0001872849","683dba9a53627eb9ab41b36a","688bc3b96bfabc24df9fe250","0","5b5f23420085cb0001872849","0","2025-07-31T19:40:08.468Z","","","","MotivationQ","","","","","","","","","","","50","","","","","","","","","","","","","","","","","","","","","","","","","","",""
"","","","","ctl-task-cpt","68","762881","0.0-7.0-0.11","115","1","2025-07-31 19:28:07","36c45c0696341be0efffe67d72a12abb","94.3.17.192","Mozilla/5.0 (X11; CrOS x86_64 14541.0.0) AppleWebKit/537.36 (KHTML, like Gecko) Chrome/137.0.0.0 Safari/537.36","WebKit","Chrome","137.0.0.0","ChromeOS","14541.0.0","https://app.prolific.com/","en-GB,en-US;q=0.9,en;q=0.8","5b5f23420085cb0001872849","683dba9a53627eb9ab41b36a","688bc3b96bfabc24df9fe250","0","5b5f23420085cb0001872849","0","2025-07-31T19:40:51.149Z","","","","","","","","","","","","","","","","win-only","2","g1:SE,g2:NW","0.7","12","0","721863.3","1113.4","6115.4","39666","1","4","8","6","2","8","7","21","14","0.1590909090909091","971.7","3000","840","[""left"",""up""]","{""num_key_presses"":12,""num_perfect"":8,""num_errors"":1,""num_randdir"":3,""num_randdir_good_moves"":1,""num_whilered"":0,""num_whileblue"":1,""num_blue"":1,""num_good_moves"":9}","[416.5714133126395,412.82142761775424,0.6,416.5714133126395,412.82142761775424,101,416.5714133126395,412.82142761775424,208.6,416.5714133126395,412.82142761775424,309.5,416.5714133126395,412.82142761775424,415.9,139.0714133126395,61.57142761775425,517,127.8214133126395,46.57142761775425,618,121.5714133126395,49.07142761775425,726.2,107.8214133126395,51.57142761775425,828.4,107.8214133126395,51.57142761775425,931.3,107.8214133126395,51.57142761775425,1033.9,107.8214133126395,51.57142761775425,1141.5,107.8214133126395,51.57142761775425,1247.8,-338.4285866873605,319.07142761775424,1353.4,-363.4285866873605,334.07142761775424,1458.2,-363.4285866873605,334.07142761775424,1567.2,-363.4285866873605,334.07142761775424,1671.6,-363.4285866873605,334.07142761775424,1776.3,-363.4285866873605,334.07142761775424,1880.2,-363.4285866873605,334.07142761775424,1987.2,-363.4285866873605,334.07142761775424,2096.7,-363.4285866873605,334.07142761775424,2203,-363.4285866873605,334.07142761775424,2309.4,-363.4285866873605,334.07142761775424,2412,-363.4285866873605,334.07142761775424,2529.5,-363.4285866873605,334.07142761775424,2641.7,-363.4285866873605,334.07142761775424,2742,-363.4285866873605,334.07142761775424,2842.3,-363.4285866873605,334.07142761775424,2944.4,-363.4285866873605,334.07142761775424,3047.4,-363.4285866873605,334.07142761775424,3151.6,-363.4285866873605,334.07142761775424,3252.9,-363.4285866873605,334.07142761775424,3357.1,-363.4285866873605,334.07142761775424,3461.9,-363.4285866873605,334.07142761775424,3566.1,-363.4285866873605,334.07142761775424,3667.3,-363.4285866873605,334.07142761775424,3769.9,-363.4285866873605,334.07142761775424,3883.7,-363.4285866873605,334.07142761775424,3993.6,-363.4285866873605,334.07142761775424,4099.4,-363.4285866873605,334.07142761775424,4200,-363.4285866873605,334.07142761775424,4305,-363.4285866873605,334.07142761775424,4411,-363.4285866873605,334.07142761775424,4513,-363.4285866873605,334.07142761775424,4614.3,-363.4285866873605,334.07142761775424,4720.4,-363.4285866873605,334.07142761775424,4826.1,-363.4285866873605,334.07142761775424,4927.3]","[1320.5,1320.5,1000,0,320.6,""smooth"",""up"",""up"",""good_move"",4139.6,2818.5,2500.9,1321.1,317.6,""smooth"",""left"",""left"",""good_move"",7550.4,3410.3,3085.2,4140.1,325.1,""oops"",""up"",""right"",""bad_move"",10799.3,3248.4,2961.5,7550.9,286.9,""oops"",""up"",""up"",""good_move"",12985.4,2185.5,1830.6,10799.9,354.9,""smooth"",""left"",""left"",""good_move"",15959,2973.1,2715.8,12985.9,257.3,""oops"",""left"",""down"",""bad_move"",18657.2,2697.6,2413.4,15959.6,284.2,""smooth"",""left"",""left"",""good_move"",20983.8,2326.3,2041.6,18657.5,284.7,""smooth"",""up"",""up"",""good_move"",24256.8,3272.5,2952.9,20984.3,319.6,""smooth"",""up"",""up"",""good_move"",27450.8,3193.6,2915.5,24257.2,278.1,""while_blue"",""left"",""right"",""bad_move"",30752.3,3301,2906.8,27451.3,394.2,""smooth"",""left"",""left"",""good_move"",33376.8,2624.1,2284.8,30752.7,339.3,""smooth"",""left"",""left"",""good_move""]"
"3180","","<div style=""width:500px;"">
  <p>What determined the result of this run?</p>
  </div>","75","html-slider-response","69","766063","0.0-7.0-1.11","115","1","2025-07-31 19:28:07","36c45c0696341be0efffe67d72a12abb","94.3.17.192","Mozilla/5.0 (X11; CrOS x86_64 14541.0.0) AppleWebKit/537.36 (KHTML, like Gecko) Chrome/137.0.0.0 Safari/537.36","WebKit","Chrome","137.0.0.0","ChromeOS","14541.0.0","https://app.prolific.com/","en-GB,en-US;q=0.9,en;q=0.8","5b5f23420085cb0001872849","683dba9a53627eb9ab41b36a","688bc3b96bfabc24df9fe250","0","5b5f23420085cb0001872849","0","2025-07-31T19:40:54.331Z","","","","AttribQ","","","","","","","","","","","50","","","","","","","","","","","","","","","","","","","","","","","","","","",""
"3141","","<div style=""width:500px;"">
  <p>How much control did you have over the ball?</p>
  </div>","76","html-slider-response","70","769205","0.0-7.0-2.11","115","1","2025-07-31 19:28:07","36c45c0696341be0efffe67d72a12abb","94.3.17.192","Mozilla/5.0 (X11; CrOS x86_64 14541.0.0) AppleWebKit/537.36 (KHTML, like Gecko) Chrome/137.0.0.0 Safari/537.36","WebKit","Chrome","137.0.0.0","ChromeOS","14541.0.0","https://app.prolific.com/","en-GB,en-US;q=0.9,en;q=0.8","5b5f23420085cb0001872849","683dba9a53627eb9ab41b36a","688bc3b96bfabc24df9fe250","0","5b5f23420085cb0001872849","0","2025-07-31T19:40:57.473Z","","","","ControlQ","","","","","","","","","","","50","","","","","","","","","","","","","","","","","","","","","","","","","","",""
"2206","","<div style=""width:500px;"">
  <p>How would you describe your current emotional state?</p>
  </div>","62","html-slider-response","71","771412","0.0-7.0-3.11","115","1","2025-07-31 19:28:07","36c45c0696341be0efffe67d72a12abb","94.3.17.192","Mozilla/5.0 (X11; CrOS x86_64 14541.0.0) AppleWebKit/537.36 (KHTML, like Gecko) Chrome/137.0.0.0 Safari/537.36","WebKit","Chrome","137.0.0.0","ChromeOS","14541.0.0","https://app.prolific.com/","en-GB,en-US;q=0.9,en;q=0.8","5b5f23420085cb0001872849","683dba9a53627eb9ab41b36a","688bc3b96bfabc24df9fe250","0","5b5f23420085cb0001872849","0","2025-07-31T19:40:59.680Z","","","","StressQ","","","","","","","","","","","50","","","","","","","","","","","","","","","","","","","","","","","","","","",""
"2287","","<div style=""width:500px;"">
  <p>What best describes how you currently feel?</p>
  </div>","70","html-slider-response","72","773701","0.0-7.0-4.11","115","1","2025-07-31 19:28:07","36c45c0696341be0efffe67d72a12abb","94.3.17.192","Mozilla/5.0 (X11; CrOS x86_64 14541.0.0) AppleWebKit/537.36 (KHTML, like Gecko) Chrome/137.0.0.0 Safari/537.36","WebKit","Chrome","137.0.0.0","ChromeOS","14541.0.0","https://app.prolific.com/","en-GB,en-US;q=0.9,en;q=0.8","5b5f23420085cb0001872849","683dba9a53627eb9ab41b36a","688bc3b96bfabc24df9fe250","0","5b5f23420085cb0001872849","0","2025-07-31T19:41:01.969Z","","","","MotivationQ","","","","","","","","","","","50","","","","","","","","","","","","","","","","","","","","","","","","","","",""
"","","","","ctl-task-cpt","73","808415","0.0-7.0-0.12","115","1","2025-07-31 19:28:07","36c45c0696341be0efffe67d72a12abb","94.3.17.192","Mozilla/5.0 (X11; CrOS x86_64 14541.0.0) AppleWebKit/537.36 (KHTML, like Gecko) Chrome/137.0.0.0 Safari/537.36","WebKit","Chrome","137.0.0.0","ChromeOS","14541.0.0","https://app.prolific.com/","en-GB,en-US;q=0.9,en;q=0.8","5b5f23420085cb0001872849","683dba9a53627eb9ab41b36a","688bc3b96bfabc24df9fe250","0","5b5f23420085cb0001872849","0","2025-07-31T19:41:36.683Z","","","","","","","","","","","","","","","","win-only","0","g1:NW,g2:SE","0.8","13","0","775364.8","1195.9","6202.2","31697.4","1","4","8","6","2","8","8","29","21","0.2196969696969697","1125.6","3000","1765","[""down"",""right""]","{""num_key_presses"":6,""num_perfect"":5,""num_errors"":0,""num_randdir"":1,""num_randdir_good_moves"":1,""num_whilered"":0,""num_whileblue"":0,""num_blue"":2,""num_good_moves"":6}","[420.3214133126395,416.57142761775424,0.7,420.3214133126395,416.57142761775424,109.6,420.3214133126395,416.57142761775424,212.1,420.3214133126395,416.57142761775424,319.6,420.3214133126395,416.57142761775424,422.1,420.3214133126395,416.57142761775424,522.6,641.5714133126395,589.0714276177542,625.2,706.5714133126395,692.8214276177542,727.5,710.3214133126395,700.3214276177542,834.4,722.8214133126395,741.5714276177542,937.7,722.8214133126395,741.5714276177542,1039.3,722.8214133126395,741.5714276177542,1143.4,722.8214133126395,741.5714276177542,1245.3,722.8214133126395,741.5714276177542,1350.2,849.0714133126395,679.0714276177542,1451.6,1234.0714133126396,799.0714276177542,1555,1234.0714133126396,799.0714276177542,1655.8,1234.0714133126396,799.0714276177542,1759.5,1234.0714133126396,799.0714276177542,1863.1,1234.0714133126396,799.0714276177542,1963.2,1234.0714133126396,799.0714276177542,2063.8,1234.0714133126396,799.0714276177542,2170,1234.0714133126396,799.0714276177542,2275.8,1234.0714133126396,799.0714276177542,2378.6,1234.0714133126396,799.0714276177542,2486.3,1234.0714133126396,799.0714276177542,2591.6,1234.0714133126396,799.0714276177542,2699.4,1234.0714133126396,799.0714276177542,2805,1234.0714133126396,799.0714276177542,2905.4,1234.0714133126396,799.0714276177542,3010.4,1234.0714133126396,799.0714276177542,3111.9,1234.0714133126396,799.0714276177542,3221.3,1234.0714133126396,799.0714276177542,3324.5,1234.0714133126396,799.0714276177542,3425.9,1234.0714133126396,799.0714276177542,3526.8,1234.0714133126396,799.0714276177542,3630.3,1234.0714133126396,799.0714276177542,3739.3,1234.0714133126396,799.0714276177542,3840.5,1234.0714133126396,799.0714276177542,3948.3,1234.0714133126396,799.0714276177542,4049.5,1234.0714133126396,799.0714276177542,4154.6,1234.0714133126396,799.0714276177542,4265,1234.0714133126396,799.0714276177542,4372.7,1234.0714133126396,799.0714276177542,4473.3,1234.0714133126396,799.0714276177542,4573.7,1234.0714133126396,799.0714276177542,4675.6,1234.0714133126396,799.0714276177542,4775.9,1234.0714133126396,799.0714276177542,4876.2,1234.0714133126396,799.0714276177542,4983.5]","[5334.9,5334.9,2932.8,2003.4,398.7,""smooth"",""down"",""down"",""good_move"",8647.9,3312.4,3004.4,5335.5,308,""smooth"",""right"",""right"",""good_move"",11713.5,3065.2,2721.6,8648.4,343.6,""smooth"",""down"",""down"",""good_move"",14608.7,2894.9,2586.7,11713.8,308.2,""oops"",""right"",""right"",""good_move"",17712.5,3103.4,2796.3,14609.1,307.1,""smooth"",""down"",""down"",""good_move"",25394,7681.2,3504.2,21575.8,314,""smooth"",""right"",""right"",""good_move""]"
"2141","","<div style=""width:500px;"">
  <p>What determined the result of this run?</p>
  </div>","25","html-slider-response","74","810558","0.0-7.0-1.12","115","1","2025-07-31 19:28:07","36c45c0696341be0efffe67d72a12abb","94.3.17.192","Mozilla/5.0 (X11; CrOS x86_64 14541.0.0) AppleWebKit/537.36 (KHTML, like Gecko) Chrome/137.0.0.0 Safari/537.36","WebKit","Chrome","137.0.0.0","ChromeOS","14541.0.0","https://app.prolific.com/","en-GB,en-US;q=0.9,en;q=0.8","5b5f23420085cb0001872849","683dba9a53627eb9ab41b36a","688bc3b96bfabc24df9fe250","0","5b5f23420085cb0001872849","0","2025-07-31T19:41:38.826Z","","","","AttribQ","","","","","","","","","","","50","","","","","","","","","","","","","","","","","","","","","","","","","","",""
"2096","","<div style=""width:500px;"">
  <p>How much control did you have over the ball?</p>
  </div>","82","html-slider-response","75","812656","0.0-7.0-2.12","115","1","2025-07-31 19:28:07","36c45c0696341be0efffe67d72a12abb","94.3.17.192","Mozilla/5.0 (X11; CrOS x86_64 14541.0.0) AppleWebKit/537.36 (KHTML, like Gecko) Chrome/137.0.0.0 Safari/537.36","WebKit","Chrome","137.0.0.0","ChromeOS","14541.0.0","https://app.prolific.com/","en-GB,en-US;q=0.9,en;q=0.8","5b5f23420085cb0001872849","683dba9a53627eb9ab41b36a","688bc3b96bfabc24df9fe250","0","5b5f23420085cb0001872849","0","2025-07-31T19:41:40.924Z","","","","ControlQ","","","","","","","","","","","50","","","","","","","","","","","","","","","","","","","","","","","","","","",""
"2260","","<div style=""width:500px;"">
  <p>How would you describe your current emotional state?</p>
  </div>","26","html-slider-response","76","814917","0.0-7.0-3.12","115","1","2025-07-31 19:28:07","36c45c0696341be0efffe67d72a12abb","94.3.17.192","Mozilla/5.0 (X11; CrOS x86_64 14541.0.0) AppleWebKit/537.36 (KHTML, like Gecko) Chrome/137.0.0.0 Safari/537.36","WebKit","Chrome","137.0.0.0","ChromeOS","14541.0.0","https://app.prolific.com/","en-GB,en-US;q=0.9,en;q=0.8","5b5f23420085cb0001872849","683dba9a53627eb9ab41b36a","688bc3b96bfabc24df9fe250","0","5b5f23420085cb0001872849","0","2025-07-31T19:41:43.185Z","","","","StressQ","","","","","","","","","","","50","","","","","","","","","","","","","","","","","","","","","","","","","","",""
"1852","","<div style=""width:500px;"">
  <p>What best describes how you currently feel?</p>
