"rt","response_timestamp","stimulus","response","trial_type","trial_index","time_elapsed","internal_node_id","run_id","condition","recorded_at","source_code_version","ip","user_agent","device","browser","browser_version","platform","platform_version","referer","accept_language","PROLIFIC_PID","STUDY_ID","SESSION_ID","BATCH","prolific_id","batch","realtime","success","question_order","question_id","eventType","responses","item_order","radio_event_ids","radio_event_times","key_event_times","mouse_event_times","straightlining","zigzagging","honeypot","view_history","slider_start","which_type","canvas_config","goals_layout","control_level","trial_number","tutorial_trial_number","trial_start_time","phase1_start_time","phase2_start_time","phase3_start_time","goal_1_value","goal_1_distance","goal_2_value","goal_2_distance","goal_selected","outcome","outcome_total","participant_final_score","participant_initial_score","participant_final_score_prop","goal_choice_rt","allocated_time","allocated_time_remaining","goal_direction","counts","mouse_movements","key_presses"
"4666","1754470253786","<p style='font-size:40px;line-height:1.25'><strong>Welcome to the experiment!</strong></p><p style='font-size:1.1em;line-height:1.25'>Thank you for participanting in our experiment again! You will be asked to play the Dysfunctional Ball Game again. We will briefly recap the rules before we start.</p><p style='font-size:1.1em;line-height:1.25'>Press <strong>Next</strong> to continue.</p>","0","custom-html-button-response","0","4669","0.0-0.0","130","1","2025-08-06 08:50:46","36c45c0696341be0efffe67d72a12abb","92.40.111.60","Mozilla/5.0 (Windows NT 10.0; Win64; x64) AppleWebKit/537.36 (KHTML, like Gecko) Chrome/138.0.0.0 Safari/537.36","WebKit","Chrome","138.0.0.0","Windows","10.0","https://app.prolific.com/","en-GB,en-US;q=0.9,en;q=0.8","5bfd8910eed5280001ead1dd","687a1a965b9f5b85a264363e","6893175e0bf7c1e6d403e8a4","1","5bfd8910eed5280001ead1dd","1","2025-08-06T08:50:53.788Z","","","","","","","","","","","","","","","","","","","","","","","","","","","","","","","","","","","","","","","","","",""
"7388","","","","fullscreen","1","13074","0.0-1.0","130","1","2025-08-06 08:50:46","36c45c0696341be0efffe67d72a12abb","92.40.111.60","Mozilla/5.0 (Windows NT 10.0; Win64; x64) AppleWebKit/537.36 (KHTML, like Gecko) Chrome/138.0.0.0 Safari/537.36","WebKit","Chrome","138.0.0.0","Windows","10.0","https://app.prolific.com/","en-GB,en-US;q=0.9,en;q=0.8","5bfd8910eed5280001ead1dd","687a1a965b9f5b85a264363e","6893175e0bf7c1e6d403e8a4","1","5bfd8910eed5280001ead1dd","1","","true","","","","","","","","","","","","","","","","","","","","","","","","","","","","","","","","","","","","","","","","",""
"4250","1754470266444"," <p style='font-size:1.1em;line-height:1.25'>Thank you for closing all other tabs.</p><p style='font-size:1.1em;line-height:1.25'>We will now invite you to fill in some questionnaires, before starting the game.<br>This will take about 5 minutes.<br></p><p style='font-size:1.1em;line-height:1.25'>Press the <strong>Next</strong> button to continue.</p>","0","custom-html-button-response","2","17325","0.0-2.0","130","1","2025-08-06 08:50:46","36c45c0696341be0efffe67d72a12abb","92.40.111.60","Mozilla/5.0 (Windows NT 10.0; Win64; x64) AppleWebKit/537.36 (KHTML, like Gecko) Chrome/138.0.0.0 Safari/537.36","WebKit","Chrome","138.0.0.0","Windows","10.0","https://app.prolific.com/","en-GB,en-US;q=0.9,en;q=0.8","5bfd8910eed5280001ead1dd","687a1a965b9f5b85a264363e","6893175e0bf7c1e6d403e8a4","1","5bfd8910eed5280001ead1dd","1","2025-08-06T08:51:06.444Z","","","","","","","","","","","","","","","","","","","","","","","","","","","","","","","","","","","","","","","","","",""
"2312","","","{""assigned_sex"":""female""}","survey-multi-choice","3","19642","0.0-3.0-0.0","130","1","2025-08-06 08:50:46","36c45c0696341be0efffe67d72a12abb","92.40.111.60","Mozilla/5.0 (Windows NT 10.0; Win64; x64) AppleWebKit/537.36 (KHTML, like Gecko) Chrome/138.0.0.0 Safari/537.36","WebKit","Chrome","138.0.0.0","Windows","10.0","https://app.prolific.com/","en-GB,en-US;q=0.9,en;q=0.8","5bfd8910eed5280001ead1dd","687a1a965b9f5b85a264363e","6893175e0bf7c1e6d403e8a4","1","5bfd8910eed5280001ead1dd","1","","","[0]","0","demographics","","","","","","","","","","","","","","","","","","","","","","","","","","","","","","","","","","","","","",""
"3964","1754470272726","<p style='font-size:1.1em;line-height:1.25'>In the following, we will perform a baseline assessment. This means that we will ask you a few questions relating to your experiences over the past month.<br></p><p style='font-size:1.1em;line-height:1.25'>Press the <strong>Next</strong> button to continue.</p>","0","custom-html-button-response","4","23608","0.0-4.0-0.0","130","1","2025-08-06 08:50:46","36c45c0696341be0efffe67d72a12abb","92.40.111.60","Mozilla/5.0 (Windows NT 10.0; Win64; x64) AppleWebKit/537.36 (KHTML, like Gecko) Chrome/138.0.0.0 Safari/537.36","WebKit","Chrome","138.0.0.0","Windows","10.0","https://app.prolific.com/","en-GB,en-US;q=0.9,en;q=0.8","5bfd8910eed5280001ead1dd","687a1a965b9f5b85a264363e","6893175e0bf7c1e6d403e8a4","1","5bfd8910eed5280001ead1dd","1","2025-08-06T08:51:12.727Z","","","","","","","","","","","","","","","","","","","","","","","","","","","","","","","","","","","","","","","","","",""
"44416.39999997616","","","","survey-template","5","68028","0.0-4.0-1.0","130","1","2025-08-06 08:50:46","36c45c0696341be0efffe67d72a12abb","92.40.111.60","Mozilla/5.0 (Windows NT 10.0; Win64; x64) AppleWebKit/537.36 (KHTML, like Gecko) Chrome/138.0.0.0 Safari/537.36","WebKit","Chrome","138.0.0.0","Windows","10.0","https://app.prolific.com/","en-GB,en-US;q=0.9,en;q=0.8","5bfd8910eed5280001ead1dd","687a1a965b9f5b85a264363e","6893175e0bf7c1e6d403e8a4","1","5bfd8910eed5280001ead1dd","1","2025-08-06T08:51:57.147Z","","","","pss","{""Q01"":""3"",""Q02"":""2"",""Q03"":""3"",""Q04"":""2"",""Q05"":""2"",""Q06"":""3"",""Q07"":""3"",""Q08"":""3"",""Q09"":""3"",""Q10"":""2""}","[0,1,2,3,4,5,6,7,8,9]","[""Q01"",""Q03"",""Q04"",""Q05"",""Q06"",""Q07"",""Q08"",""Q09"",""Q10"",""Q02""]","[4699.300000071526,11287.600000023842,14268.100000023842,17352.300000071526,20459.200000047684,24055.300000071526,27788,31259.200000047684,34529.5,43341.200000047684]","[0.20000004768371582,4699.300000071526,8281.200000047684,10542.100000023842,11287.600000023842,14268.100000023842,17352.300000071526,20459.200000047684,24055.300000071526,27125.5,27788,31259.200000047684,34529.5,35110.300000071526,43341.200000047684,44414.300000071526]","[]","0.4","0.5555555555555556","0","","","","","","","","","","","","","","","","","","","","","","","","","","","","",""
"2350","1754470319499","<p style='font-size:1.1em;line-height:1.25'>Thank you for your answers! Now we will ask you a few more questions relating to your feelings in the last 24 hours.<br></p><p style='font-size:1.1em;line-height:1.25'>Press the <strong>Next</strong> button to continue.</p>","0","custom-html-button-response","6","70380","0.0-4.0-2.0","130","1","2025-08-06 08:50:46","36c45c0696341be0efffe67d72a12abb","92.40.111.60","Mozilla/5.0 (Windows NT 10.0; Win64; x64) AppleWebKit/537.36 (KHTML, like Gecko) Chrome/138.0.0.0 Safari/537.36","WebKit","Chrome","138.0.0.0","Windows","10.0","https://app.prolific.com/","en-GB,en-US;q=0.9,en;q=0.8","5bfd8910eed5280001ead1dd","687a1a965b9f5b85a264363e","6893175e0bf7c1e6d403e8a4","1","5bfd8910eed5280001ead1dd","1","2025-08-06T08:51:59.499Z","","","","","","","","","","","","","","","","","","","","","","","","","","","","","","","","","","","","","","","","","",""
"152341.10000002384","","","","survey-template","7","222724","0.0-4.0-3.0","130","1","2025-08-06 08:50:46","36c45c0696341be0efffe67d72a12abb","92.40.111.60","Mozilla/5.0 (Windows NT 10.0; Win64; x64) AppleWebKit/537.36 (KHTML, like Gecko) Chrome/138.0.0.0 Safari/537.36","WebKit","Chrome","138.0.0.0","Windows","10.0","https://app.prolific.com/","en-GB,en-US;q=0.9,en;q=0.8","5bfd8910eed5280001ead1dd","687a1a965b9f5b85a264363e","6893175e0bf7c1e6d403e8a4","1","5bfd8910eed5280001ead1dd","1","2025-08-06T08:54:31.843Z","","","","drsp","{""Q01"":""1"",""Q02"":""1"",""Q03"":""3"",""Q04"":""3"",""Q05"":""4"",""Q06"":""4"",""Q07"":""3"",""Q08"":""3"",""Q09"":""1"",""Q10"":""2"",""Q11"":""3"",""Q12"":""3"",""Q13"":""5"",""Q14"":""3"",""Q15"":""3"",""Q16"":""4"",""Q17"":""2"",""Q18"":""4"",""Q19"":""3"",""Q20"":""4"",""Q21"":""3"",""Q22"":""4""}","[0,1,2,3,4,5,6,7,8,9,10,11,12,13,14,15,16,17,18,19,20,21]","[""Q01"",""Q02"",""Q03"",""Q04"",""Q05"",""Q06"",""Q07"",""Q08"",""Q09"",""Q10"",""Q11"",""Q12"",""Q13"",""Q14"",""Q12"",""Q15"",""Q16"",""Q17"",""Q18"",""Q19"",""Q20"",""Q21"",""Q21"",""Q22""]","[2156.399999976158,4302.700000047684,5575.399999976158,7848.800000071526,9994.5,13735.600000023842,15374.100000023842,17665.399999976158,20613.399999976158,25107.5,28029,30030.100000023842,32387.300000071526,34708.5,36176.39999997616,39184.89999997616,41478,43688.300000071526,45747.89999997616,58008.10000002384,71523.70000004768,148166,149313.89999997616,151827]","[0.10000002384185791,2156.399999976158,4302.700000047684,5575.399999976158,7299.600000023842,7848.800000071526,9994.5,13735.600000023842,15374.100000023842,17166.5,17665.399999976158,20077.300000071526,20613.399999976158,25107.5,28029,30030.100000023842,32387.300000071526,34708.5,36176.39999997616,39184.89999997616,41478,43251.300000071526,43688.300000071526,45747.89999997616,58008.10000002384,70740,71523.70000004768,148166,148758,149313.89999997616,151421.80000007153,151827,152338.30000007153]","[]","0.45454545454545453","0.42857142857142855","0","","","","","","","","","","","","","","","","","","","","","","","","","","","","",""
"10528.100000023842","","","","survey-template","8","233254","0.0-4.0-4.0","130","1","2025-08-06 08:50:46","36c45c0696341be0efffe67d72a12abb","92.40.111.60","Mozilla/5.0 (Windows NT 10.0; Win64; x64) AppleWebKit/537.36 (KHTML, like Gecko) Chrome/138.0.0.0 Safari/537.36","WebKit","Chrome","138.0.0.0","Windows","10.0","https://app.prolific.com/","en-GB,en-US;q=0.9,en;q=0.8","5bfd8910eed5280001ead1dd","687a1a965b9f5b85a264363e","6893175e0bf7c1e6d403e8a4","1","5bfd8910eed5280001ead1dd","1","2025-08-06T08:54:42.373Z","","","","stress","{""Q01"":""3"",""Q02"":""3"",""Q03"":""4""}","[0,1,2]","[""Q01"",""Q02"",""Q03""]","[2604.5,6235.299999952316,10087.399999976158]","[2116.2999999523163,2604.5,6235.299999952316,7233.399999976158,7570.5,10087.399999976158,10527.399999976158]","[]","0.3333333333333333","0.5","0","","","","","","","","","","","","","","","","","","","","","","","","","","","","",""
"18760","","","","instructions","9","252016","0.0-5.0-0.0","130","1","2025-08-06 08:50:46","36c45c0696341be0efffe67d72a12abb","92.40.111.60","Mozilla/5.0 (Windows NT 10.0; Win64; x64) AppleWebKit/537.36 (KHTML, like Gecko) Chrome/138.0.0.0 Safari/537.36","WebKit","Chrome","138.0.0.0","Windows","10.0","https://app.prolific.com/","en-GB,en-US;q=0.9,en;q=0.8","5bfd8910eed5280001ead1dd","687a1a965b9f5b85a264363e","6893175e0bf7c1e6d403e8a4","1","5bfd8910eed5280001ead1dd","1","","","","","","","","","","","","","","","[{""page_index"":0,""viewing_time"":18760}]","","","","","","","","","","","","","","","","","","","","","","","","","","","",""
"5536","","<p>Before you start with this game please answer the following three questions yourself. </p>
  <p>Through this game, we measure several aspects of your cognitive performance, such as reaction times, multi-tasking capabilities </p>
  <p>and the ability to assess the situation you are in.</p>
  <p></p>
  <p><b>How good do you usually are in such tasks?</b></p>","77","html-slider-response","10","257554","0.0-6.0-0.0","130","1","2025-08-06 08:50:46","36c45c0696341be0efffe67d72a12abb","92.40.111.60","Mozilla/5.0 (Windows NT 10.0; Win64; x64) AppleWebKit/537.36 (KHTML, like Gecko) Chrome/138.0.0.0 Safari/537.36","WebKit","Chrome","138.0.0.0","Windows","10.0","https://app.prolific.com/","en-GB,en-US;q=0.9,en;q=0.8","5bfd8910eed5280001ead1dd","687a1a965b9f5b85a264363e","6893175e0bf7c1e6d403e8a4","1","5bfd8910eed5280001ead1dd","1","2025-08-06T08:55:06.673Z","","","","PreSkillQ","","","","","","","","","","","50","","","","","","","","","","","","","","","","","","","","","","","","","","",""
"4908","","<div style=""width:500px;"">
  <p>How well do you think you will perform in this task compared to other participants?</p>
  </div>","50","html-slider-response","11","262463","0.0-6.0-1.0","130","1","2025-08-06 08:50:46","36c45c0696341be0efffe67d72a12abb","92.40.111.60","Mozilla/5.0 (Windows NT 10.0; Win64; x64) AppleWebKit/537.36 (KHTML, like Gecko) Chrome/138.0.0.0 Safari/537.36","WebKit","Chrome","138.0.0.0","Windows","10.0","https://app.prolific.com/","en-GB,en-US;q=0.9,en;q=0.8","5bfd8910eed5280001ead1dd","687a1a965b9f5b85a264363e","6893175e0bf7c1e6d403e8a4","1","5bfd8910eed5280001ead1dd","1","2025-08-06T08:55:11.582Z","","","","PrePerfQ","","","","","","","","","","","50","","","","","","","","","","","","","","","","","","","","","","","","","","",""
"3314","","<div style=""width:500px;"">
  <p>What best describes how you currently feel?</p>
  </div>","100","html-slider-response","12","265778","0.0-6.0-2.0","130","1","2025-08-06 08:50:46","36c45c0696341be0efffe67d72a12abb","92.40.111.60","Mozilla/5.0 (Windows NT 10.0; Win64; x64) AppleWebKit/537.36 (KHTML, like Gecko) Chrome/138.0.0.0 Safari/537.36","WebKit","Chrome","138.0.0.0","Windows","10.0","https://app.prolific.com/","en-GB,en-US;q=0.9,en;q=0.8","5bfd8910eed5280001ead1dd","687a1a965b9f5b85a264363e","6893175e0bf7c1e6d403e8a4","1","5bfd8910eed5280001ead1dd","1","2025-08-06T08:55:14.897Z","","","","PreMotivationQ","","","","","","","","","","","50","","","","","","","","","","","","","","","","","","","","","","","","","","",""
"","","","","ctl-task-cpt","13","298871","0.0-7.0-0.0","130","1","2025-08-06 08:50:46","36c45c0696341be0efffe67d72a12abb","92.40.111.60","Mozilla/5.0 (Windows NT 10.0; Win64; x64) AppleWebKit/537.36 (KHTML, like Gecko) Chrome/138.0.0.0 Safari/537.36","WebKit","Chrome","138.0.0.0","Windows","10.0","https://app.prolific.com/","en-GB,en-US;q=0.9,en;q=0.8","5bfd8910eed5280001ead1dd","687a1a965b9f5b85a264363e","6893175e0bf7c1e6d403e8a4","1","5bfd8910eed5280001ead1dd","1","2025-08-06T08:55:47.991Z","","","","","","","","","","","","","","","","win-only","2","g1:SE,g2:NW","1","1","0","268038.3","5369.6","10371.3","30082.6","1","4","8","6","2","8","8","8","0","0.06060606060606061","5001.7","3000","925","[""left"",""up""]","{""num_key_presses"":6,""num_perfect"":6,""num_errors"":0,""num_randdir"":0,""num_randdir_good_moves"":0,""num_whilered"":0,""num_whileblue"":0,""num_blue"":1,""num_good_moves"":6}","[415.57142857142856,419.47767857142856,2,415.57142857142856,419.47767857142856,101.2,415.57142857142856,419.47767857142856,201.6,415.57142857142856,419.47767857142856,302.4,415.57142857142856,419.47767857142856,406.4,415.57142857142856,419.47767857142856,511.7,415.57142857142856,419.47767857142856,616.6,415.57142857142856,419.47767857142856,721.2,415.57142857142856,419.47767857142856,822,415.57142857142856,419.47767857142856,925.9,415.57142857142856,419.47767857142856,1026.7,415.57142857142856,419.47767857142856,1131.4,415.57142857142856,419.47767857142856,1232.8,415.57142857142856,419.47767857142856,1340.1,415.57142857142856,419.47767857142856,1441.4,415.57142857142856,419.47767857142856,1541.4,415.57142857142856,419.47767857142856,1641.5,415.57142857142856,419.47767857142856,1746.3,415.57142857142856,419.47767857142856,1846.4,415.57142857142856,419.47767857142856,1946.7,415.57142857142856,419.47767857142856,2047.8,415.57142857142856,419.47767857142856,2150.8,415.57142857142856,419.47767857142856,2251.7,415.57142857142856,419.47767857142856,2352.4,415.57142857142856,419.47767857142856,2456.2,415.57142857142856,419.47767857142856,2556.2,415.57142857142856,419.47767857142856,2656.3,415.57142857142856,419.47767857142856,2756.4,415.57142857142856,419.47767857142856,2856.4,415.57142857142856,419.47767857142856,2961.5,415.57142857142856,419.47767857142856,3061.5,415.57142857142856,419.47767857142856,3165.8,415.57142857142856,419.47767857142856,3266.6,415.57142857142856,419.47767857142856,3367.3,415.57142857142856,419.47767857142856,3471.8,415.57142857142856,419.47767857142856,3576.4,415.57142857142856,419.47767857142856,3681.4,415.57142857142856,419.47767857142856,3781.5,415.57142857142856,419.47767857142856,3886.3,415.57142857142856,419.47767857142856,3987.4,415.57142857142856,419.47767857142856,4091.4,415.57142857142856,419.47767857142856,4192.2,415.57142857142856,419.47767857142856,4296.1,415.57142857142856,419.47767857142856,4397.2,415.57142857142856,419.47767857142856,4500.9,415.57142857142856,419.47767857142856,4600.9,415.57142857142856,419.47767857142856,4706.2,415.57142857142856,419.47767857142856,4806.7,415.57142857142856,419.47767857142856,4910.9]","[1389.7,1389.7,1000,0,389.7,""smooth"",""left"",""left"",""good_move"",8334.7,6944.6,2844.8,5125.3,364.6,""smooth"",""up"",""up"",""good_move"",11197.5,2862.4,2384.7,8335.1,477.7,""smooth"",""up"",""up"",""good_move"",13531.8,2333.9,1935.1,11197.9,398.8,""smooth"",""up"",""up"",""good_move"",16861.8,3329.8,3032.8,13532,297,""smooth"",""left"",""left"",""good_move"",19611.3,2749.5,2406.8,16861.9,342.7,""smooth"",""left"",""left"",""good_move""]"
"7496","","<div style=""width:500px;"">
  <p>What determined the result of this run?</p>
  </div>","85","html-slider-response","14","306368","0.0-7.0-1.0","130","1","2025-08-06 08:50:46","36c45c0696341be0efffe67d72a12abb","92.40.111.60","Mozilla/5.0 (Windows NT 10.0; Win64; x64) AppleWebKit/537.36 (KHTML, like Gecko) Chrome/138.0.0.0 Safari/537.36","WebKit","Chrome","138.0.0.0","Windows","10.0","https://app.prolific.com/","en-GB,en-US;q=0.9,en;q=0.8","5bfd8910eed5280001ead1dd","687a1a965b9f5b85a264363e","6893175e0bf7c1e6d403e8a4","1","5bfd8910eed5280001ead1dd","1","2025-08-06T08:55:55.487Z","","","","AttribQ","","","","","","","","","","","50","","","","","","","","","","","","","","","","","","","","","","","","","","",""
"2369","","<div style=""width:500px;"">
  <p>How much control did you have over the ball?</p>
  </div>","100","html-slider-response","15","308738","0.0-7.0-2.0","130","1","2025-08-06 08:50:46","36c45c0696341be0efffe67d72a12abb","92.40.111.60","Mozilla/5.0 (Windows NT 10.0; Win64; x64) AppleWebKit/537.36 (KHTML, like Gecko) Chrome/138.0.0.0 Safari/537.36","WebKit","Chrome","138.0.0.0","Windows","10.0","https://app.prolific.com/","en-GB,en-US;q=0.9,en;q=0.8","5bfd8910eed5280001ead1dd","687a1a965b9f5b85a264363e","6893175e0bf7c1e6d403e8a4","1","5bfd8910eed5280001ead1dd","1","2025-08-06T08:55:57.857Z","","","","ControlQ","","","","","","","","","","","50","","","","","","","","","","","","","","","","","","","","","","","","","","",""
"6460","","<div style=""width:500px;"">
  <p>How would you describe your current emotional state?</p>
  </div>","36","html-slider-response","16","315199","0.0-7.0-3.0","130","1","2025-08-06 08:50:46","36c45c0696341be0efffe67d72a12abb","92.40.111.60","Mozilla/5.0 (Windows NT 10.0; Win64; x64) AppleWebKit/537.36 (KHTML, like Gecko) Chrome/138.0.0.0 Safari/537.36","WebKit","Chrome","138.0.0.0","Windows","10.0","https://app.prolific.com/","en-GB,en-US;q=0.9,en;q=0.8","5bfd8910eed5280001ead1dd","687a1a965b9f5b85a264363e","6893175e0bf7c1e6d403e8a4","1","5bfd8910eed5280001ead1dd","1","2025-08-06T08:56:04.318Z","","","","StressQ","","","","","","","","","","","50","","","","","","","","","","","","","","","","","","","","","","","","","","",""
"3027","","<div style=""width:500px;"">
  <p>What best describes how you currently feel?</p>
  </div>","100","html-slider-response","17","318226","0.0-7.0-4.0","130","1","2025-08-06 08:50:46","36c45c0696341be0efffe67d72a12abb","92.40.111.60","Mozilla/5.0 (Windows NT 10.0; Win64; x64) AppleWebKit/537.36 (KHTML, like Gecko) Chrome/138.0.0.0 Safari/537.36","WebKit","Chrome","138.0.0.0","Windows","10.0","https://app.prolific.com/","en-GB,en-US;q=0.9,en;q=0.8","5bfd8910eed5280001ead1dd","687a1a965b9f5b85a264363e","6893175e0bf7c1e6d403e8a4","1","5bfd8910eed5280001ead1dd","1","2025-08-06T08:56:07.345Z","","","","MotivationQ","","","","","","","","","","","50","","","","","","","","","","","","","","","","","","","","","","","","","","",""
"","","","","ctl-task-cpt","18","343650","0.0-7.0-0.1","130","1","2025-08-06 08:50:46","36c45c0696341be0efffe67d72a12abb","92.40.111.60","Mozilla/5.0 (Windows NT 10.0; Win64; x64) AppleWebKit/537.36 (KHTML, like Gecko) Chrome/138.0.0.0 Safari/537.36","WebKit","Chrome","138.0.0.0","Windows","10.0","https://app.prolific.com/","en-GB,en-US;q=0.9,en;q=0.8","5bfd8910eed5280001ead1dd","687a1a965b9f5b85a264363e","6893175e0bf7c1e6d403e8a4","1","5bfd8910eed5280001ead1dd","1","2025-08-06T08:56:32.769Z","","","","","","","","","","","","","","","","win-only","0","g1:NW,g2:SE","0.9","2","0","320481","1180.5","6186.2","22411","1","4","4","6","1","1","1","9","8","0.06818181818181818","5005.7","3000","1010","[""left"",""up""]","{""num_key_presses"":6,""num_perfect"":6,""num_errors"":0,""num_randdir"":0,""num_randdir_good_moves"":0,""num_whilered"":0,""num_whileblue"":0,""num_blue"":0,""num_good_moves"":5}","[414.57142857142856,416.47767857142856,0.1,415.57142857142856,416.47767857142856,101.3,416.57142857142856,415.47767857142856,205.2,416.57142857142856,415.47767857142856,305.3,416.57142857142856,415.47767857142856,405.6,416.57142857142856,415.47767857142856,505.6,416.57142857142856,415.47767857142856,605.6,416.57142857142856,415.47767857142856,709.9,416.57142857142856,415.47767857142856,810.6,416.57142857142856,415.47767857142856,918.3,416.57142857142856,415.47767857142856,1018.7,416.57142857142856,415.47767857142856,1118.7,416.57142857142856,415.47767857142856,1218.9,416.57142857142856,415.47767857142856,1319.5,416.57142857142856,415.47767857142856,1419.6,416.57142857142856,415.47767857142856,1519.9,416.57142857142856,415.47767857142856,1620,416.57142857142856,415.47767857142856,1720.4,416.57142857142856,415.47767857142856,1820.4,416.57142857142856,415.47767857142856,1925.2,416.57142857142856,415.47767857142856,2031.2,416.57142857142856,415.47767857142856,2137.2,416.57142857142856,415.47767857142856,2240,416.57142857142856,415.47767857142856,2340.3,416.57142857142856,415.47767857142856,2453.9,416.57142857142856,415.47767857142856,2554.8,416.57142857142856,415.47767857142856,2660,416.57142857142856,415.47767857142856,2760.5,416.57142857142856,415.47767857142856,2870.8,416.57142857142856,415.47767857142856,2970.9,416.57142857142856,415.47767857142856,3075.9,416.57142857142856,415.47767857142856,3180.1,416.57142857142856,415.47767857142856,3280.9,416.57142857142856,415.47767857142856,3388.3,416.57142857142856,415.47767857142856,3490.7,416.57142857142856,415.47767857142856,3595.7,416.57142857142856,415.47767857142856,3705.2,416.57142857142856,415.47767857142856,3810.4,416.57142857142856,415.47767857142856,3910.9,416.57142857142856,415.47767857142856,4015.6,416.57142857142856,415.47767857142856,4115.6,416.57142857142856,415.47767857142856,4222.3,416.57142857142856,415.47767857142856,4324.8,416.57142857142856,415.47767857142856,4426.2,416.57142857142856,415.47767857142856,4538.9,416.57142857142856,415.47767857142856,4639,416.57142857142856,415.47767857142856,4740,416.57142857142856,415.47767857142856,4841,416.57142857142856,415.47767857142856,4941]","[1367.9,1367.9,1000,0,367.9,""smooth"",""right"",""right"",""bad_move"",3937.6,2569.5,2051.7,1368.1,517.8,""smooth"",""up"",""up"",""good_move"",7154.4,3216.5,2800,3937.9,416.5,""smooth"",""up"",""up"",""good_move"",9748.6,2594,2221,7154.6,373,""smooth"",""left"",""left"",""good_move"",12704.4,2955.5,2647.2,9748.9,308.3,""smooth"",""left"",""left"",""good_move"",16133.9,3429.3,3149.2,12704.6,280.1,""smooth"",""left"",""left"",""good_move""]"
"3169","","<div style=""width:500px;"">
  <p>What determined the result of this run?</p>
  </div>","97","html-slider-response","19","346820","0.0-7.0-1.1","130","1","2025-08-06 08:50:46","36c45c0696341be0efffe67d72a12abb","92.40.111.60","Mozilla/5.0 (Windows NT 10.0; Win64; x64) AppleWebKit/537.36 (KHTML, like Gecko) Chrome/138.0.0.0 Safari/537.36","WebKit","Chrome","138.0.0.0","Windows","10.0","https://app.prolific.com/","en-GB,en-US;q=0.9,en;q=0.8","5bfd8910eed5280001ead1dd","687a1a965b9f5b85a264363e","6893175e0bf7c1e6d403e8a4","1","5bfd8910eed5280001ead1dd","1","2025-08-06T08:56:35.939Z","","","","AttribQ","","","","","","","","","","","50","","","","","","","","","","","","","","","","","","","","","","","","","","",""
"2604","","<div style=""width:500px;"">
  <p>How much control did you have over the ball?</p>
  </div>","100","html-slider-response","20","349425","0.0-7.0-2.1","130","1","2025-08-06 08:50:46","36c45c0696341be0efffe67d72a12abb","92.40.111.60","Mozilla/5.0 (Windows NT 10.0; Win64; x64) AppleWebKit/537.36 (KHTML, like Gecko) Chrome/138.0.0.0 Safari/537.36","WebKit","Chrome","138.0.0.0","Windows","10.0","https://app.prolific.com/","en-GB,en-US;q=0.9,en;q=0.8","5bfd8910eed5280001ead1dd","687a1a965b9f5b85a264363e","6893175e0bf7c1e6d403e8a4","1","5bfd8910eed5280001ead1dd","1","2025-08-06T08:56:38.544Z","","","","ControlQ","","","","","","","","","","","50","","","","","","","","","","","","","","","","","","","","","","","","","","",""
"2390","","<div style=""width:500px;"">
  <p>How would you describe your current emotional state?</p>
  </div>","28","html-slider-response","21","351816","0.0-7.0-3.1","130","1","2025-08-06 08:50:46","36c45c0696341be0efffe67d72a12abb","92.40.111.60","Mozilla/5.0 (Windows NT 10.0; Win64; x64) AppleWebKit/537.36 (KHTML, like Gecko) Chrome/138.0.0.0 Safari/537.36","WebKit","Chrome","138.0.0.0","Windows","10.0","https://app.prolific.com/","en-GB,en-US;q=0.9,en;q=0.8","5bfd8910eed5280001ead1dd","687a1a965b9f5b85a264363e","6893175e0bf7c1e6d403e8a4","1","5bfd8910eed5280001ead1dd","1","2025-08-06T08:56:40.935Z","","","","StressQ","","","","","","","","","","","50","","","","","","","","","","","","","","","","","","","","","","","","","","",""
"1845","","<div style=""width:500px;"">
  <p>What best describes how you currently feel?</p>
  </div>","100","html-slider-response","22","353663","0.0-7.0-4.1","130","1","2025-08-06 08:50:46","36c45c0696341be0efffe67d72a12abb","92.40.111.60","Mozilla/5.0 (Windows NT 10.0; Win64; x64) AppleWebKit/537.36 (KHTML, like Gecko) Chrome/138.0.0.0 Safari/537.36","WebKit","Chrome","138.0.0.0","Windows","10.0","https://app.prolific.com/","en-GB,en-US;q=0.9,en;q=0.8","5bfd8910eed5280001ead1dd","687a1a965b9f5b85a264363e","6893175e0bf7c1e6d403e8a4","1","5bfd8910eed5280001ead1dd","1","2025-08-06T08:56:42.782Z","","","","MotivationQ","","","","","","","","","","","50","","","","","","","","","","","","","","","","","","","","","","","","","","",""
"","","","","ctl-task-cpt","23","386169","0.0-7.0-0.2","130","1","2025-08-06 08:50:46","36c45c0696341be0efffe67d72a12abb","92.40.111.60","Mozilla/5.0 (Windows NT 10.0; Win64; x64) AppleWebKit/537.36 (KHTML, like Gecko) Chrome/138.0.0.0 Safari/537.36","WebKit","Chrome","138.0.0.0","Windows","10.0","https://app.prolific.com/","en-GB,en-US;q=0.9,en;q=0.8","5bfd8910eed5280001ead1dd","687a1a965b9f5b85a264363e","6893175e0bf7c1e6d403e8a4","1","5bfd8910eed5280001ead1dd","1","2025-08-06T08:57:15.288Z","","","","","","","","","","","","","","","","win-only","0","g1:NW,g2:SE","0.8","3","0","355919.3","1201.1","6205.7","29486.3","1","4","4","6","2","4","3","12","9","0.09090909090909091","638.9","3000","470","[""down"",""right""]","{""num_key_presses"":8,""num_perfect"":5,""num_errors"":1,""num_randdir"":2,""num_randdir_good_moves"":2,""num_whilered"":0,""num_whileblue"":1,""num_blue"":1,""num_good_moves"":7}","[409.57142857142856,418.47767857142856,2.2,409.57142857142856,418.47767857142856,104.6,409.57142857142856,418.47767857142856,206,525.5714285714286,494.47767857142856,309.7,681.5714285714286,614.4776785714286,414.4,718.5714285714286,681.4776785714286,514.4,729.5714285714286,709.4776785714286,616.1,730.5714285714286,710.4776785714286,719.8,736.5714285714286,711.4776785714286,821.6,857.5714285714286,704.4776785714286,922,854.5714285714286,685.4776785714286,1024.5,818.5714285714286,596.4776785714286,1124.4,827.5714285714286,549.4776785714286,1224.4,834.5714285714286,548.4776785714286,1324.8,834.5714285714286,548.4776785714286,1429.3,834.5714285714286,548.4776785714286,1529.8,834.5714285714286,548.4776785714286,1630.1,834.5714285714286,548.4776785714286,1730.3,834.5714285714286,548.4776785714286,1834.2,834.5714285714286,548.4776785714286,1934.8,834.5714285714286,548.4776785714286,2035,834.5714285714286,548.4776785714286,2139.6,834.5714285714286,548.4776785714286,2244.7,834.5714285714286,548.4776785714286,2345.4,834.5714285714286,548.4776785714286,2449.8,834.5714285714286,548.4776785714286,2555.2,834.5714285714286,548.4776785714286,2659.7,834.5714285714286,548.4776785714286,2764.5,834.5714285714286,548.4776785714286,2864.7,834.5714285714286,548.4776785714286,2969.3,834.5714285714286,548.4776785714286,3069.8,834.5714285714286,548.4776785714286,3174.3,834.5714285714286,548.4776785714286,3274.6,834.5714285714286,548.4776785714286,3379.4,834.5714285714286,548.4776785714286,3480.1,834.5714285714286,548.4776785714286,3585.4,834.5714285714286,548.4776785714286,3689.6,834.5714285714286,548.4776785714286,3789.6,834.5714285714286,548.4776785714286,3895.2,834.5714285714286,548.4776785714286,3999.7,834.5714285714286,548.4776785714286,4105.3,834.5714285714286,548.4776785714286,4210.2,834.5714285714286,548.4776785714286,4310.2,834.5714285714286,548.4776785714286,4414.5,834.5714285714286,548.4776785714286,4519.9,834.5714285714286,548.4776785714286,4624.5,834.5714285714286,548.4776785714286,4725.2,834.5714285714286,548.4776785714286,4829.4,834.5714285714286,548.4776785714286,4929.7]","[1374.5,1374.5,1000,0,374.5,""smooth"",""right"",""right"",""good_move"",4092,2717.2,2370.4,1374.8,346.8,""smooth"",""right"",""right"",""good_move"",7639.7,3547.7,3244.7,4092.1,303,""while_blue"",""right"",""left"",""bad_move"",10638.8,2998.6,2558.3,7640.2,440.3,""smooth"",""right"",""right"",""good_move"",13863.5,3224.6,2850.9,10638.9,373.7,""oops"",""right"",""down"",""good_move"",17357.5,3493.5,3079.9,13864,413.6,""smooth"",""right"",""right"",""good_move"",20675.3,3317.6,2994.7,17357.7,322.9,""oops"",""down"",""down"",""good_move"",23195.3,2519.8,2166.8,20675.5,353,""smooth"",""down"",""down"",""good_move""]"
"2700","","<div style=""width:500px;"">
  <p>What determined the result of this run?</p>
  </div>","94","html-slider-response","24","388870","0.0-7.0-1.2","130","1","2025-08-06 08:50:46","36c45c0696341be0efffe67d72a12abb","92.40.111.60","Mozilla/5.0 (Windows NT 10.0; Win64; x64) AppleWebKit/537.36 (KHTML, like Gecko) Chrome/138.0.0.0 Safari/537.36","WebKit","Chrome","138.0.0.0","Windows","10.0","https://app.prolific.com/","en-GB,en-US;q=0.9,en;q=0.8","5bfd8910eed5280001ead1dd","687a1a965b9f5b85a264363e","6893175e0bf7c1e6d403e8a4","1","5bfd8910eed5280001ead1dd","1","2025-08-06T08:57:17.989Z","","","","AttribQ","","","","","","","","","","","50","","","","","","","","","","","","","","","","","","","","","","","","","","",""
"2559","","<div style=""width:500px;"">
  <p>How much control did you have over the ball?</p>
  </div>","50","html-slider-response","25","391430","0.0-7.0-2.2","130","1","2025-08-06 08:50:46","36c45c0696341be0efffe67d72a12abb","92.40.111.60","Mozilla/5.0 (Windows NT 10.0; Win64; x64) AppleWebKit/537.36 (KHTML, like Gecko) Chrome/138.0.0.0 Safari/537.36","WebKit","Chrome","138.0.0.0","Windows","10.0","https://app.prolific.com/","en-GB,en-US;q=0.9,en;q=0.8","5bfd8910eed5280001ead1dd","687a1a965b9f5b85a264363e","6893175e0bf7c1e6d403e8a4","1","5bfd8910eed5280001ead1dd","1","2025-08-06T08:57:20.549Z","","","","ControlQ","","","","","","","","","","","50","","","","","","","","","","","","","","","","","","","","","","","","","","",""
"2508","","<div style=""width:500px;"">
  <p>How would you describe your current emotional state?</p>
  </div>","22","html-slider-response","26","393939","0.0-7.0-3.2","130","1","2025-08-06 08:50:46","36c45c0696341be0efffe67d72a12abb","92.40.111.60","Mozilla/5.0 (Windows NT 10.0; Win64; x64) AppleWebKit/537.36 (KHTML, like Gecko) Chrome/138.0.0.0 Safari/537.36","WebKit","Chrome","138.0.0.0","Windows","10.0","https://app.prolific.com/","en-GB,en-US;q=0.9,en;q=0.8","5bfd8910eed5280001ead1dd","687a1a965b9f5b85a264363e","6893175e0bf7c1e6d403e8a4","1","5bfd8910eed5280001ead1dd","1","2025-08-06T08:57:23.059Z","","","","StressQ","","","","","","","","","","","50","","","","","","","","","","","","","","","","","","","","","","","","","","",""
"2879","","<div style=""width:500px;"">
  <p>What best describes how you currently feel?</p>
  </div>","97","html-slider-response","27","396819","0.0-7.0-4.2","130","1","2025-08-06 08:50:46","36c45c0696341be0efffe67d72a12abb","92.40.111.60","Mozilla/5.0 (Windows NT 10.0; Win64; x64) AppleWebKit/537.36 (KHTML, like Gecko) Chrome/138.0.0.0 Safari/537.36","WebKit","Chrome","138.0.0.0","Windows","10.0","https://app.prolific.com/","en-GB,en-US;q=0.9,en;q=0.8","5bfd8910eed5280001ead1dd","687a1a965b9f5b85a264363e","6893175e0bf7c1e6d403e8a4","1","5bfd8910eed5280001ead1dd","1","2025-08-06T08:57:25.938Z","","","","MotivationQ","","","","","","","","","","","50","","","","","","","","","","","","","","","","","","","","","","","","","","",""
"","","","","ctl-task-cpt","28","422079","0.0-7.0-0.3","130","1","2025-08-06 08:50:46","36c45c0696341be0efffe67d72a12abb","92.40.111.60","Mozilla/5.0 (Windows NT 10.0; Win64; x64) AppleWebKit/537.36 (KHTML, like Gecko) Chrome/138.0.0.0 Safari/537.36","WebKit","Chrome","138.0.0.0","Windows","10.0","https://app.prolific.com/","en-GB,en-US;q=0.9,en;q=0.8","5bfd8910eed5280001ead1dd","687a1a965b9f5b85a264363e","6893175e0bf7c1e6d403e8a4","1","5bfd8910eed5280001ead1dd","1","2025-08-06T08:57:51.198Z","","","","","","","","","","","","","","","","win-only","1","g1:NE,g2:SW","0.7","4","0","399074.3","999.8","6006.7","22235.8","1","4","8","6","2","8","8","20","12","0.15151515151515152","1084.9","3000","1040","[""down"",""left""]","{""num_key_presses"":6,""num_perfect"":5,""num_errors"":0,""num_randdir"":1,""num_randdir_good_moves"":1,""num_whilered"":0,""num_whileblue"":0,""num_blue"":0,""num_good_moves"":6}","[414.57142857142856,414.47767857142856,0.1,414.57142857142856,414.47767857142856,103.4,414.57142857142856,414.47767857142856,205.6,419.57142857142856,415.47767857142856,305.8,433.57142857142856,414.47767857142856,406.1,400.57142857142856,450.47767857142856,510.7,251.57142857142856,637.4776785714286,621.2,78.57142857142857,762.4776785714286,721.6,70.57142857142857,763.4776785714286,825.9,70.57142857142857,763.4776785714286,931.7,70.57142857142857,763.4776785714286,1035.8,70.57142857142857,763.4776785714286,1136.2,70.57142857142857,763.4776785714286,1236.9,70.57142857142857,763.4776785714286,1336.9,120.57142857142857,748.4776785714286,1437.1,356.57142857142856,667.4776785714286,1538.6,400.57142857142856,652.4776785714286,1640.8,401.57142857142856,652.4776785714286,1752.6,401.57142857142856,651.4776785714286,1854.5,401.57142857142856,651.4776785714286,1956.6,401.57142857142856,651.4776785714286,2057.1,401.57142857142856,651.4776785714286,2160.9,401.57142857142856,651.4776785714286,2261.6,401.57142857142856,651.4776785714286,2369.3,401.57142857142856,651.4776785714286,2469.8,401.57142857142856,651.4776785714286,2570.1,401.57142857142856,651.4776785714286,2671.8,401.57142857142856,651.4776785714286,2775.7,401.57142857142856,651.4776785714286,2877.1,401.57142857142856,651.4776785714286,2980.8,401.57142857142856,651.4776785714286,3081,401.57142857142856,651.4776785714286,3188.4,401.57142857142856,651.4776785714286,3290.6,401.57142857142856,651.4776785714286,3390.8,401.57142857142856,651.4776785714286,3490.8,401.57142857142856,651.4776785714286,3590.8,401.57142857142856,651.4776785714286,3696.8,401.57142857142856,651.4776785714286,3804,401.57142857142856,651.4776785714286,3904.3,401.57142857142856,651.4776785714286,4004.7,401.57142857142856,651.4776785714286,4105.8,401.57142857142856,651.4776785714286,4210.4,401.57142857142856,651.4776785714286,4310.8,401.57142857142856,651.4776785714286,4411.5,401.57142857142856,651.4776785714286,4511.8,401.57142857142856,651.4776785714286,4622.4,401.57142857142856,651.4776785714286,4725.8,401.57142857142856,651.4776785714286,4825.9,401.57142857142856,651.4776785714286,4926.1]","[1416.3,1416.3,1000,0,416.3,""smooth"",""down"",""down"",""good_move"",5166,3749.2,3399.4,1416.8,349.8,""smooth"",""down"",""down"",""good_move"",7514.7,2348.5,2015.4,5166.2,333.1,""smooth"",""down"",""down"",""good_move"",10777.1,3262.2,2925.8,7514.9,336.4,""oops"",""left"",""left"",""good_move"",13612.5,2835.1,2513.5,10777.4,321.6,""smooth"",""left"",""left"",""good_move"",16131.6,2518.9,2192.5,13612.7,326.4,""smooth"",""left"",""left"",""good_move""]"
"1651","","<div style=""width:500px;"">
  <p>What determined the result of this run?</p>
  </div>","96","html-slider-response","29","423731","0.0-7.0-1.3","130","1","2025-08-06 08:50:46","36c45c0696341be0efffe67d72a12abb","92.40.111.60","Mozilla/5.0 (Windows NT 10.0; Win64; x64) AppleWebKit/537.36 (KHTML, like Gecko) Chrome/138.0.0.0 Safari/537.36","WebKit","Chrome","138.0.0.0","Windows","10.0","https://app.prolific.com/","en-GB,en-US;q=0.9,en;q=0.8","5bfd8910eed5280001ead1dd","687a1a965b9f5b85a264363e","6893175e0bf7c1e6d403e8a4","1","5bfd8910eed5280001ead1dd","1","2025-08-06T08:57:52.850Z","","","","AttribQ","","","","","","","","","","","50","","","","","","","","","","","","","","","","","","","","","","","","","","",""
"2232","","<div style=""width:500px;"">
  <p>How much control did you have over the ball?</p>
  </div>","100","html-slider-response","30","425964","0.0-7.0-2.3","130","1","2025-08-06 08:50:46","36c45c0696341be0efffe67d72a12abb","92.40.111.60","Mozilla/5.0 (Windows NT 10.0; Win64; x64) AppleWebKit/537.36 (KHTML, like Gecko) Chrome/138.0.0.0 Safari/537.36","WebKit","Chrome","138.0.0.0","Windows","10.0","https://app.prolific.com/","en-GB,en-US;q=0.9,en;q=0.8","5bfd8910eed5280001ead1dd","687a1a965b9f5b85a264363e","6893175e0bf7c1e6d403e8a4","1","5bfd8910eed5280001ead1dd","1","2025-08-06T08:57:55.083Z","","","","ControlQ","","","","","","","","","","","50","","","","","","","","","","","","","","","","","","","","","","","","","","",""
"3155","","<div style=""width:500px;"">
  <p>How would you describe your current emotional state?</p>
  </div>","25","html-slider-response","31","429120","0.0-7.0-3.3","130","1","2025-08-06 08:50:46","36c45c0696341be0efffe67d72a12abb","92.40.111.60","Mozilla/5.0 (Windows NT 10.0; Win64; x64) AppleWebKit/537.36 (KHTML, like Gecko) Chrome/138.0.0.0 Safari/537.36","WebKit","Chrome","138.0.0.0","Windows","10.0","https://app.prolific.com/","en-GB,en-US;q=0.9,en;q=0.8","5bfd8910eed5280001ead1dd","687a1a965b9f5b85a264363e","6893175e0bf7c1e6d403e8a4","1","5bfd8910eed5280001ead1dd","1","2025-08-06T08:57:58.239Z","","","","StressQ","","","","","","","","","","","50","","","","","","","","","","","","","","","","","","","","","","","","","","",""
"2468","","<div style=""width:500px;"">
  <p>What best describes how you currently feel?</p>
  </div>","100","html-slider-response","32","431589","0.0-7.0-4.3","130","1","2025-08-06 08:50:46","36c45c0696341be0efffe67d72a12abb","92.40.111.60","Mozilla/5.0 (Windows NT 10.0; Win64; x64) AppleWebKit/537.36 (KHTML, like Gecko) Chrome/138.0.0.0 Safari/537.36","WebKit","Chrome","138.0.0.0","Windows","10.0","https://app.prolific.com/","en-GB,en-US;q=0.9,en;q=0.8","5bfd8910eed5280001ead1dd","687a1a965b9f5b85a264363e","6893175e0bf7c1e6d403e8a4","1","5bfd8910eed5280001ead1dd","1","2025-08-06T08:58:00.708Z","","","","MotivationQ","","","","","","","","","","","50","","","","","","","","","","","","","","","","","","","","","","","","","","",""
"","","","","ctl-task-cpt","33","469814","0.0-7.0-0.4","130","1","2025-08-06 08:50:46","36c45c0696341be0efffe67d72a12abb","92.40.111.60","Mozilla/5.0 (Windows NT 10.0; Win64; x64) AppleWebKit/537.36 (KHTML, like Gecko) Chrome/138.0.0.0 Safari/537.36","WebKit","Chrome","138.0.0.0","Windows","10.0","https://app.prolific.com/","en-GB,en-US;q=0.9,en;q=0.8","5bfd8910eed5280001ead1dd","687a1a965b9f5b85a264363e","6893175e0bf7c1e6d403e8a4","1","5bfd8910eed5280001ead1dd","1","2025-08-06T08:58:38.933Z","","","","","","","","","","","","","","","","win-only","2","g1:SE,g2:NW","0.6","5","0","433844.4","1184.9","6185.7","35206.8","1","4","8","6","2","8","8","28","20","0.21212121212121213","727.8","3000","425","[""left"",""up""]","{""num_key_presses"":8,""num_perfect"":5,""num_errors"":0,""num_randdir"":3,""num_randdir_good_moves"":2,""num_whilered"":0,""num_whileblue"":0,""num_blue"":2,""num_good_moves"":7}","[407.57142857142856,419.47767857142856,0.3,407.57142857142856,419.47767857142856,100.5,407.57142857142856,419.47767857142856,202.5,411.57142857142856,424.47767857142856,307.6,435.57142857142856,459.47767857142856,407.7,38.57142857142857,225.47767857142856,508.1,41.57142857142857,115.47767857142857,611.6,43.57142857142857,101.47767857142857,716.3,43.57142857142857,101.47767857142857,816.9,43.57142857142857,101.47767857142857,917.3,79.57142857142857,190.47767857142856,1020.8,229.57142857142856,421.47767857142856,1122,239.57142857142856,427.47767857142856,1229.4,239.57142857142856,427.47767857142856,1330.9,239.57142857142856,427.47767857142856,1431.2,239.57142857142856,427.47767857142856,1531.3,239.57142857142856,427.47767857142856,1637.6,239.57142857142856,427.47767857142856,1742.4,239.57142857142856,427.47767857142856,1842.5,239.57142857142856,427.47767857142856,1946.4,239.57142857142856,427.47767857142856,2046.6,239.57142857142856,427.47767857142856,2150.9,239.57142857142856,427.47767857142856,2250.9,239.57142857142856,427.47767857142856,2356.4,239.57142857142856,427.47767857142856,2458.4,239.57142857142856,427.47767857142856,2561.6,239.57142857142856,427.47767857142856,2665.8,239.57142857142856,427.47767857142856,2765.8,239.57142857142856,427.47767857142856,2870.7,239.57142857142856,427.47767857142856,2971.2,239.57142857142856,427.47767857142856,3071.4,239.57142857142856,427.47767857142856,3172.5,239.57142857142856,427.47767857142856,3277.2,239.57142857142856,427.47767857142856,3380.7,239.57142857142856,427.47767857142856,3482.2,239.57142857142856,427.47767857142856,3586,239.57142857142856,427.47767857142856,3691.5,239.57142857142856,427.47767857142856,3792.5,239.57142857142856,427.47767857142856,3895.5,239.57142857142856,427.47767857142856,3996.2,239.57142857142856,427.47767857142856,4096.4,239.57142857142856,427.47767857142856,4196.6,239.57142857142856,427.47767857142856,4302,239.57142857142856,427.47767857142856,4406,239.57142857142856,427.47767857142856,4511.4,239.57142857142856,427.47767857142856,4615.7,239.57142857142856,427.47767857142856,4716.4,239.57142857142856,427.47767857142856,4816.6,239.57142857142856,427.47767857142856,4921]","[1323.8,1323.9,1000,0,323.9,""oops"",""up"",""up"",""good_move"",4495.3,3170.8,2857.7,1324.5,313.1,""smooth"",""up"",""up"",""good_move"",11413.3,6917.5,3208.4,7846.5,358.4,""smooth"",""up"",""up"",""good_move"",13315.8,1902.3,1439,11413.5,463.3,""oops"",""left"",""left"",""good_move"",16138,2821.8,2521.4,13316.2,300.4,""smooth"",""left"",""left"",""good_move"",19238.2,3100.1,2791.4,16138.1,308.7,""oops"",""left"",""down"",""bad_move"",25998.6,6760.1,2781.8,22892,324.8,""smooth"",""left"",""left"",""good_move"",28925.7,2927,2479.7,25998.7,447.3,""smooth"",""up"",""up"",""good_move""]"
"3492","","<div style=""width:500px;"">
  <p>What determined the result of this run?</p>
  </div>","86","html-slider-response","34","473307","0.0-7.0-1.4","130","1","2025-08-06 08:50:46","36c45c0696341be0efffe67d72a12abb","92.40.111.60","Mozilla/5.0 (Windows NT 10.0; Win64; x64) AppleWebKit/537.36 (KHTML, like Gecko) Chrome/138.0.0.0 Safari/537.36","WebKit","Chrome","138.0.0.0","Windows","10.0","https://app.prolific.com/","en-GB,en-US;q=0.9,en;q=0.8","5bfd8910eed5280001ead1dd","687a1a965b9f5b85a264363e","6893175e0bf7c1e6d403e8a4","1","5bfd8910eed5280001ead1dd","1","2025-08-06T08:58:42.427Z","","","","AttribQ","","","","","","","","","","","50","","","","","","","","","","","","","","","","","","","","","","","","","","",""
"2938","","<div style=""width:500px;"">
  <p>How much control did you have over the ball?</p>
  </div>","94","html-slider-response","35","476246","0.0-7.0-2.4","130","1","2025-08-06 08:50:46","36c45c0696341be0efffe67d72a12abb","92.40.111.60","Mozilla/5.0 (Windows NT 10.0; Win64; x64) AppleWebKit/537.36 (KHTML, like Gecko) Chrome/138.0.0.0 Safari/537.36","WebKit","Chrome","138.0.0.0","Windows","10.0","https://app.prolific.com/","en-GB,en-US;q=0.9,en;q=0.8","5bfd8910eed5280001ead1dd","687a1a965b9f5b85a264363e","6893175e0bf7c1e6d403e8a4","1","5bfd8910eed5280001ead1dd","1","2025-08-06T08:58:45.365Z","","","","ControlQ","","","","","","","","","","","50","","","","","","","","","","","","","","","","","","","","","","","","","","",""
"2871","","<div style=""width:500px;"">
  <p>How would you describe your current emotional state?</p>
  </div>","31","html-slider-response","36","479117","0.0-7.0-3.4","130","1","2025-08-06 08:50:46","36c45c0696341be0efffe67d72a12abb","92.40.111.60","Mozilla/5.0 (Windows NT 10.0; Win64; x64) AppleWebKit/537.36 (KHTML, like Gecko) Chrome/138.0.0.0 Safari/537.36","WebKit","Chrome","138.0.0.0","Windows","10.0","https://app.prolific.com/","en-GB,en-US;q=0.9,en;q=0.8","5bfd8910eed5280001ead1dd","687a1a965b9f5b85a264363e","6893175e0bf7c1e6d403e8a4","1","5bfd8910eed5280001ead1dd","1","2025-08-06T08:58:48.236Z","","","","StressQ","","","","","","","","","","","50","","","","","","","","","","","","","","","","","","","","","","","","","","",""
"2484","","<div style=""width:500px;"">
  <p>What best describes how you currently feel?</p>
  </div>","100","html-slider-response","37","481603","0.0-7.0-4.4","130","1","2025-08-06 08:50:46","36c45c0696341be0efffe67d72a12abb","92.40.111.60","Mozilla/5.0 (Windows NT 10.0; Win64; x64) AppleWebKit/537.36 (KHTML, like Gecko) Chrome/138.0.0.0 Safari/537.36","WebKit","Chrome","138.0.0.0","Windows","10.0","https://app.prolific.com/","en-GB,en-US;q=0.9,en;q=0.8","5bfd8910eed5280001ead1dd","687a1a965b9f5b85a264363e","6893175e0bf7c1e6d403e8a4","1","5bfd8910eed5280001ead1dd","1","2025-08-06T08:58:50.722Z","","","","MotivationQ","","","","","","","","","","","50","","","","","","","","","","","","","","","","","","","","","","","","","","",""
"","","","","ctl-task-cpt","38","518789","0.0-7.0-0.5","130","1","2025-08-06 08:50:46","36c45c0696341be0efffe67d72a12abb","92.40.111.60","Mozilla/5.0 (Windows NT 10.0; Win64; x64) AppleWebKit/537.36 (KHTML, like Gecko) Chrome/138.0.0.0 Safari/537.36","WebKit","Chrome","138.0.0.0","Windows","10.0","https://app.prolific.com/","en-GB,en-US;q=0.9,en;q=0.8","5bfd8910eed5280001ead1dd","687a1a965b9f5b85a264363e","6893175e0bf7c1e6d403e8a4","1","5bfd8910eed5280001ead1dd","1","2025-08-06T08:59:27.908Z","","","","","","","","","","","","","","","","win-only","3","g1:SW,g2:NE","0.5","6","0","483858.4","889.9","5892","34170.6","1","4","4","6","2","4","4","32","28","0.24242424242424243","914.5","3000","890","[""up"",""right""]","{""num_key_presses"":6,""num_perfect"":4,""num_errors"":0,""num_randdir"":2,""num_randdir_good_moves"":2,""num_whilered"":0,""num_whileblue"":0,""num_blue"":3,""num_good_moves"":6}","[421.57142857142856,416.47767857142856,0.2,421.57142857142856,416.47767857142856,101.3,421.57142857142856,416.47767857142856,206.1,421.57142857142856,416.47767857142856,307.4,417.57142857142856,422.47767857142856,410.9,401.57142857142856,457.47767857142856,511.2,660.5714285714286,279.47767857142856,616.4,822.5714285714286,87.47767857142857,716.5,807.5714285714286,83.47767857142857,818,724.5714285714286,103.47767857142857,918.7,725.5714285714286,100.47767857142857,1021.9,774.5714285714286,148.47767857142856,1127.7,780.5714285714286,288.47767857142856,1232.6,727.5714285714286,306.47767857142856,1335.7,728.5714285714286,306.47767857142856,1436.1,728.5714285714286,306.47767857142856,1537.2,728.5714285714286,306.47767857142856,1641.2,728.5714285714286,306.47767857142856,1745.8,728.5714285714286,306.47767857142856,1845.8,728.5714285714286,306.47767857142856,1947.5,728.5714285714286,306.47767857142856,2052.4,728.5714285714286,306.47767857142856,2165.3,728.5714285714286,306.47767857142856,2271.2,728.5714285714286,306.47767857142856,2382.1,728.5714285714286,306.47767857142856,2487,728.5714285714286,306.47767857142856,2590.9,728.5714285714286,306.47767857142856,2691.5,728.5714285714286,306.47767857142856,2799.6,728.5714285714286,306.47767857142856,2901.1,728.5714285714286,306.47767857142856,3001.5,728.5714285714286,306.47767857142856,3102,728.5714285714286,306.47767857142856,3215.8,728.5714285714286,306.47767857142856,3322,728.5714285714286,306.47767857142856,3425.9,728.5714285714286,306.47767857142856,3533.4,728.5714285714286,306.47767857142856,3636.7,728.5714285714286,306.47767857142856,3736.7,728.5714285714286,306.47767857142856,3836.7,728.5714285714286,306.47767857142856,3936.7,728.5714285714286,306.47767857142856,4036.8,728.5714285714286,306.47767857142856,4150.2,728.5714285714286,306.47767857142856,4252.6,728.5714285714286,306.47767857142856,4356,728.5714285714286,306.47767857142856,4460.7,728.5714285714286,306.47767857142856,4561.2,728.5714285714286,306.47767857142856,4661.3,728.5714285714286,306.47767857142856,4761.3,728.5714285714286,306.47767857142856,4865.8,728.5714285714286,306.47767857142856,4966.9]","[5803.8,5803.8,3391.2,2018.2,394.4,""oops"",""right"",""right"",""good_move"",12218.1,6414.1,2982.4,8873.6,362.2,""smooth"",""right"",""right"",""good_move"",15408.4,3190.1,2692.1,12218.3,498,""oops"",""right"",""right"",""good_move"",18369.2,2960.5,2445.6,15408.7,514.9,""smooth"",""up"",""up"",""good_move"",25356.4,6986.8,2198.2,22724.5,433.7,""smooth"",""up"",""up"",""good_move"",28152.6,2796,2432.2,25356.6,363.8,""smooth"",""up"",""up"",""good_move""]"
"2567","","<div style=""width:500px;"">
  <p>What determined the result of this run?</p>
  </div>","100","html-slider-response","39","521357","0.0-7.0-1.5","130","1","2025-08-06 08:50:46","36c45c0696341be0efffe67d72a12abb","92.40.111.60","Mozilla/5.0 (Windows NT 10.0; Win64; x64) AppleWebKit/537.36 (KHTML, like Gecko) Chrome/138.0.0.0 Safari/537.36","WebKit","Chrome","138.0.0.0","Windows","10.0","https://app.prolific.com/","en-GB,en-US;q=0.9,en;q=0.8","5bfd8910eed5280001ead1dd","687a1a965b9f5b85a264363e","6893175e0bf7c1e6d403e8a4","1","5bfd8910eed5280001ead1dd","1","2025-08-06T08:59:30.476Z","","","","AttribQ","","","","","","","","","","","50","","","","","","","","","","","","","","","","","","","","","","","","","","",""
"1824","","<div style=""width:500px;"">
  <p>How much control did you have over the ball?</p>
  </div>","100","html-slider-response","40","523182","0.0-7.0-2.5","130","1","2025-08-06 08:50:46","36c45c0696341be0efffe67d72a12abb","92.40.111.60","Mozilla/5.0 (Windows NT 10.0; Win64; x64) AppleWebKit/537.36 (KHTML, like Gecko) Chrome/138.0.0.0 Safari/537.36","WebKit","Chrome","138.0.0.0","Windows","10.0","https://app.prolific.com/","en-GB,en-US;q=0.9,en;q=0.8","5bfd8910eed5280001ead1dd","687a1a965b9f5b85a264363e","6893175e0bf7c1e6d403e8a4","1","5bfd8910eed5280001ead1dd","1","2025-08-06T08:59:32.301Z","","","","ControlQ","","","","","","","","","","","50","","","","","","","","","","","","","","","","","","","","","","","","","","",""
"2822","","<div style=""width:500px;"">
  <p>How would you describe your current emotional state?</p>
  </div>","19","html-slider-response","41","526005","0.0-7.0-3.5","130","1","2025-08-06 08:50:46","36c45c0696341be0efffe67d72a12abb","92.40.111.60","Mozilla/5.0 (Windows NT 10.0; Win64; x64) AppleWebKit/537.36 (KHTML, like Gecko) Chrome/138.0.0.0 Safari/537.36","WebKit","Chrome","138.0.0.0","Windows","10.0","https://app.prolific.com/","en-GB,en-US;q=0.9,en;q=0.8","5bfd8910eed5280001ead1dd","687a1a965b9f5b85a264363e","6893175e0bf7c1e6d403e8a4","1","5bfd8910eed5280001ead1dd","1","2025-08-06T08:59:35.124Z","","","","StressQ","","","","","","","","","","","50","","","","","","","","","","","","","","","","","","","","","","","","","","",""
"1924","","<div style=""width:500px;"">
  <p>What best describes how you currently feel?</p>
  </div>","100","html-slider-response","42","527930","0.0-7.0-4.5","130","1","2025-08-06 08:50:46","36c45c0696341be0efffe67d72a12abb","92.40.111.60","Mozilla/5.0 (Windows NT 10.0; Win64; x64) AppleWebKit/537.36 (KHTML, like Gecko) Chrome/138.0.0.0 Safari/537.36","WebKit","Chrome","138.0.0.0","Windows","10.0","https://app.prolific.com/","en-GB,en-US;q=0.9,en;q=0.8","5bfd8910eed5280001ead1dd","687a1a965b9f5b85a264363e","6893175e0bf7c1e6d403e8a4","1","5bfd8910eed5280001ead1dd","1","2025-08-06T08:59:37.049Z","","","","MotivationQ","","","","","","","","","","","50","","","","","","","","","","","","","","","","","","","","","","","","","","",""
"","","","","ctl-task-cpt","43","565241","0.0-7.0-0.6","130","1","2025-08-06 08:50:46","36c45c0696341be0efffe67d72a12abb","92.40.111.60","Mozilla/5.0 (Windows NT 10.0; Win64; x64) AppleWebKit/537.36 (KHTML, like Gecko) Chrome/138.0.0.0 Safari/537.36","WebKit","Chrome","138.0.0.0","Windows","10.0","https://app.prolific.com/","en-GB,en-US;q=0.9,en;q=0.8","5bfd8910eed5280001ead1dd","687a1a965b9f5b85a264363e","6893175e0bf7c1e6d403e8a4","1","5bfd8910eed5280001ead1dd","1","2025-08-06T09:00:14.360Z","","","","","","","","","","","","","","","","win-only","0","g1:NW,g2:SE","0.4","7","0","530185.3","854","5857.3","34307.3","1","4","8","6","2","-8","-8","24","32","0.18181818181818182","817.7","3000","-2420","[""down"",""right""]","{""num_key_presses"":9,""num_perfect"":4,""num_errors"":0,""num_randdir"":5,""num_randdir_good_moves"":3,""num_whilered"":0,""num_whileblue"":0,""num_blue"":1,""num_good_moves"":7}","[415.57142857142856,422.47767857142856,0.2,415.57142857142856,422.47767857142856,103.2,415.57142857142856,422.47767857142856,206.9,415.57142857142856,422.47767857142856,307,414.57142857142856,422.47767857142856,407.1,485.57142857142856,507.47767857142856,512.1,683.5714285714286,689.4776785714286,612.3,733.5714285714286,718.4776785714286,713.2,751.5714285714286,728.4776785714286,821.8,751.5714285714286,728.4776785714286,926.4,751.5714285714286,728.4776785714286,1026.7,751.5714285714286,728.4776785714286,1136.9,749.5714285714286,726.4776785714286,1238.1,661.5714285714286,639.4776785714286,1341.1,619.5714285714286,546.4776785714286,1441.5,616.5714285714286,542.4776785714286,1548,616.5714285714286,542.4776785714286,1653.1,616.5714285714286,542.4776785714286,1753.4,616.5714285714286,542.4776785714286,1854.1,616.5714285714286,542.4776785714286,1955.2,616.5714285714286,542.4776785714286,2055.5,616.5714285714286,542.4776785714286,2156.5,616.5714285714286,542.4776785714286,2262.2,616.5714285714286,542.4776785714286,2367.6,616.5714285714286,542.4776785714286,2471.5,616.5714285714286,542.4776785714286,2577.3,616.5714285714286,542.4776785714286,2677.5,616.5714285714286,542.4776785714286,2778,616.5714285714286,542.4776785714286,2881.3,616.5714285714286,542.4776785714286,2981.5,616.5714285714286,542.4776785714286,3082.4,616.5714285714286,542.4776785714286,3187.5,616.5714285714286,542.4776785714286,3289.7,616.5714285714286,542.4776785714286,3389.9,616.5714285714286,542.4776785714286,3491.2,616.5714285714286,542.4776785714286,3592.4,616.5714285714286,542.4776785714286,3696.6,616.5714285714286,542.4776785714286,3796.8,616.5714285714286,542.4776785714286,3897.7,616.5714285714286,542.4776785714286,4005.4,616.5714285714286,542.4776785714286,4106.2,616.5714285714286,542.4776785714286,4212.6,616.5714285714286,542.4776785714286,4322.1,616.5714285714286,542.4776785714286,4424.8,616.5714285714286,542.4776785714286,4526.9,616.5714285714286,542.4776785714286,4639.6,616.5714285714286,542.4776785714286,4741.7,616.5714285714286,542.4776785714286,4842.4,616.5714285714286,542.4776785714286,4946.2]","[1392.5,1392.5,1000,0,392.5,""oops"",""right"",""down"",""good_move"",3939.6,2546.7,2070,1392.9,476.7,""smooth"",""right"",""right"",""good_move"",10958.6,7018.6,2410.6,8195.6,352.5,""oops"",""right"",""left"",""bad_move"",13850.6,2891.6,2500.2,10959,391.4,""smooth"",""down"",""down"",""good_move"",16604.3,2753.4,2371.6,13850.9,381.8,""oops"",""down"",""down"",""good_move"",19405.2,2800.6,2429.3,16604.6,371.3,""smooth"",""right"",""right"",""good_move"",21382.6,1977.1,1583.8,19405.5,393.3,""oops"",""right"",""up"",""bad_move"",23226.6,1843.8,1470.6,21382.8,373.2,""oops"",""right"",""down"",""good_move"",25800.8,2574,2260,23226.8,314,""smooth"",""right"",""right"",""good_move""]"
"3575","","<div style=""width:500px;"">
  <p>What determined the result of this run?</p>
  </div>","20","html-slider-response","44","568817","0.0-7.0-1.6","130","1","2025-08-06 08:50:46","36c45c0696341be0efffe67d72a12abb","92.40.111.60","Mozilla/5.0 (Windows NT 10.0; Win64; x64) AppleWebKit/537.36 (KHTML, like Gecko) Chrome/138.0.0.0 Safari/537.36","WebKit","Chrome","138.0.0.0","Windows","10.0","https://app.prolific.com/","en-GB,en-US;q=0.9,en;q=0.8","5bfd8910eed5280001ead1dd","687a1a965b9f5b85a264363e","6893175e0bf7c1e6d403e8a4","1","5bfd8910eed5280001ead1dd","1","2025-08-06T09:00:17.936Z","","","","AttribQ","","","","","","","","","","","50","","","","","","","","","","","","","","","","","","","","","","","","","","",""
"4549","","<div style=""width:500px;"">
  <p>How much control did you have over the ball?</p>
  </div>","33","html-slider-response","45","573368","0.0-7.0-2.6","130","1","2025-08-06 08:50:46","36c45c0696341be0efffe67d72a12abb","92.40.111.60","Mozilla/5.0 (Windows NT 10.0; Win64; x64) AppleWebKit/537.36 (KHTML, like Gecko) Chrome/138.0.0.0 Safari/537.36","WebKit","Chrome","138.0.0.0","Windows","10.0","https://app.prolific.com/","en-GB,en-US;q=0.9,en;q=0.8","5bfd8910eed5280001ead1dd","687a1a965b9f5b85a264363e","6893175e0bf7c1e6d403e8a4","1","5bfd8910eed5280001ead1dd","1","2025-08-06T09:00:22.487Z","","","","ControlQ","","","","","","","","","","","50","","","","","","","","","","","","","","","","","","","","","","","","","","",""
"3073","","<div style=""width:500px;"">
  <p>How would you describe your current emotional state?</p>
  </div>","50","html-slider-response","46","576443","0.0-7.0-3.6","130","1","2025-08-06 08:50:46","36c45c0696341be0efffe67d72a12abb","92.40.111.60","Mozilla/5.0 (Windows NT 10.0; Win64; x64) AppleWebKit/537.36 (KHTML, like Gecko) Chrome/138.0.0.0 Safari/537.36","WebKit","Chrome","138.0.0.0","Windows","10.0","https://app.prolific.com/","en-GB,en-US;q=0.9,en;q=0.8","5bfd8910eed5280001ead1dd","687a1a965b9f5b85a264363e","6893175e0bf7c1e6d403e8a4","1","5bfd8910eed5280001ead1dd","1","2025-08-06T09:00:25.562Z","","","","StressQ","","","","","","","","","","","50","","","","","","","","","","","","","","","","","","","","","","","","","","",""
"3555","","<div style=""width:500px;"">
  <p>What best describes how you currently feel?</p>
  </div>","86","html-slider-response","47","579998","0.0-7.0-4.6","130","1","2025-08-06 08:50:46","36c45c0696341be0efffe67d72a12abb","92.40.111.60","Mozilla/5.0 (Windows NT 10.0; Win64; x64) AppleWebKit/537.36 (KHTML, like Gecko) Chrome/138.0.0.0 Safari/537.36","WebKit","Chrome","138.0.0.0","Windows","10.0","https://app.prolific.com/","en-GB,en-US;q=0.9,en;q=0.8","5bfd8910eed5280001ead1dd","687a1a965b9f5b85a264363e","6893175e0bf7c1e6d403e8a4","1","5bfd8910eed5280001ead1dd","1","2025-08-06T09:00:29.117Z","","","","MotivationQ","","","","","","","","","","","50","","","","","","","","","","","","","","","","","","","","","","","","","","",""
"","","","","ctl-task-cpt","48","621383","0.0-7.0-0.7","130","1","2025-08-06 08:50:46","36c45c0696341be0efffe67d72a12abb","92.40.111.60","Mozilla/5.0 (Windows NT 10.0; Win64; x64) AppleWebKit/537.36 (KHTML, like Gecko) Chrome/138.0.0.0 Safari/537.36","WebKit","Chrome","138.0.0.0","Windows","10.0","https://app.prolific.com/","en-GB,en-US;q=0.9,en;q=0.8","5bfd8910eed5280001ead1dd","687a1a965b9f5b85a264363e","6893175e0bf7c1e6d403e8a4","1","5bfd8910eed5280001ead1dd","1","2025-08-06T09:01:10.502Z","","","","","","","","","","","","","","","","win-only","1","g1:NE,g2:SW","0.3","8","0","582253.5","866.7","5870.9","38366.2","1","4","4","6","1","1","1","25","24","0.1893939393939394","1363.2","3000","570","[""up"",""right""]","{""num_key_presses"":8,""num_perfect"":3,""num_errors"":0,""num_randdir"":5,""num_randdir_good_moves"":3,""num_whilered"":0,""num_whileblue"":0,""num_blue"":3,""num_good_moves"":6}","[422.57142857142856,416.47767857142856,0.2,422.57142857142856,416.47767857142856,100.1,422.57142857142856,416.47767857142856,206.6,422.57142857142856,416.47767857142856,306.7,438.57142857142856,402.47767857142856,413,446.57142857142856,392.47767857142856,514.3,446.57142857142856,392.47767857142856,615,463.57142857142856,368.47767857142856,715.1,474.57142857142856,352.47767857142856,818.6,177.57142857142856,565.4776785714286,926.1,562.5714285714286,290.47767857142856,1027.2,659.5714285714286,136.47767857142856,1128.3,688.5714285714286,119.47767857142857,1229.5,708.5714285714286,91.47767857142857,1334.3,708.5714285714286,91.47767857142857,1434.9,708.5714285714286,91.47767857142857,1542.5,766.5714285714286,195.47767857142856,1645.2,782.5714285714286,250.47767857142856,1750.5,767.5714285714286,292.47767857142856,1859.8,783.5714285714286,291.47767857142856,1961.6,785.5714285714286,291.47767857142856,2064.2,785.5714285714286,291.47767857142856,2171.6,785.5714285714286,291.47767857142856,2276.7,785.5714285714286,291.47767857142856,2379.2,785.5714285714286,291.47767857142856,2479.6,785.5714285714286,291.47767857142856,2580.1,785.5714285714286,291.47767857142856,2684.9,785.5714285714286,291.47767857142856,2792.6,785.5714285714286,291.47767857142856,2894.5,785.5714285714286,291.47767857142856,2996.3,785.5714285714286,291.47767857142856,3100,785.5714285714286,291.47767857142856,3204.4,785.5714285714286,291.47767857142856,3312.3,785.5714285714286,291.47767857142856,3414,785.5714285714286,291.47767857142856,3514.7,785.5714285714286,291.47767857142856,3619.1,785.5714285714286,291.47767857142856,3720.7,785.5714285714286,291.47767857142856,3829.3,785.5714285714286,291.47767857142856,3934.4,785.5714285714286,291.47767857142856,4034.4,785.5714285714286,291.47767857142856,4135.6,785.5714285714286,291.47767857142856,4245.1,785.5714285714286,291.47767857142856,4350.2,785.5714285714286,291.47767857142856,4456.1,785.5714285714286,291.47767857142856,4563.5,785.5714285714286,291.47767857142856,4664.5,785.5714285714286,291.47767857142856,4769.1,785.5714285714286,291.47767857142856,4869.9,785.5714285714286,291.47767857142856,4970.3]","[1421.8,1421.8,1000,0,421.8,""smooth"",""right"",""right"",""good_move"",4154.7,2732.3,2406.4,1422.4,325.9,""smooth"",""right"",""right"",""good_move"",7853.4,3698.5,3358.1,4154.9,340.4,""smooth"",""up"",""up"",""good_move"",10631.2,2777.4,2470.5,7853.8,306.9,""oops"",""up"",""left"",""bad_move"",13368.5,2736.8,2442.9,10631.7,293.9,""oops"",""up"",""left"",""bad_move"",20344.4,6975.6,2744.2,17290,310.2,""oops"",""up"",""up"",""good_move"",23115.4,2770.6,2423.8,20344.8,346.8,""oops"",""right"",""right"",""good_move"",32387.4,9271.8,1495.9,30475.1,416.4,""oops"",""right"",""right"",""good_move""]"
"4130","","<div style=""width:500px;"">
  <p>What determined the result of this run?</p>
  </div>","20","html-slider-response","49","625514","0.0-7.0-1.7","130","1","2025-08-06 08:50:46","36c45c0696341be0efffe67d72a12abb","92.40.111.60","Mozilla/5.0 (Windows NT 10.0; Win64; x64) AppleWebKit/537.36 (KHTML, like Gecko) Chrome/138.0.0.0 Safari/537.36","WebKit","Chrome","138.0.0.0","Windows","10.0","https://app.prolific.com/","en-GB,en-US;q=0.9,en;q=0.8","5bfd8910eed5280001ead1dd","687a1a965b9f5b85a264363e","6893175e0bf7c1e6d403e8a4","1","5bfd8910eed5280001ead1dd","1","2025-08-06T09:01:14.633Z","","","","AttribQ","","","","","","","","","","","50","","","","","","","","","","","","","","","","","","","","","","","","","","",""
"3176","","<div style=""width:500px;"">
  <p>How much control did you have over the ball?</p>
  </div>","28","html-slider-response","50","628691","0.0-7.0-2.7","130","1","2025-08-06 08:50:46","36c45c0696341be0efffe67d72a12abb","92.40.111.60","Mozilla/5.0 (Windows NT 10.0; Win64; x64) AppleWebKit/537.36 (KHTML, like Gecko) Chrome/138.0.0.0 Safari/537.36","WebKit","Chrome","138.0.0.0","Windows","10.0","https://app.prolific.com/","en-GB,en-US;q=0.9,en;q=0.8","5bfd8910eed5280001ead1dd","687a1a965b9f5b85a264363e","6893175e0bf7c1e6d403e8a4","1","5bfd8910eed5280001ead1dd","1","2025-08-06T09:01:17.810Z","","","","ControlQ","","","","","","","","","","","50","","","","","","","","","","","","","","","","","","","","","","","","","","",""
"5117","","<div style=""width:500px;"">
  <p>How would you describe your current emotional state?</p>
  </div>","52","html-slider-response","51","633808","0.0-7.0-3.7","130","1","2025-08-06 08:50:46","36c45c0696341be0efffe67d72a12abb","92.40.111.60","Mozilla/5.0 (Windows NT 10.0; Win64; x64) AppleWebKit/537.36 (KHTML, like Gecko) Chrome/138.0.0.0 Safari/537.36","WebKit","Chrome","138.0.0.0","Windows","10.0","https://app.prolific.com/","en-GB,en-US;q=0.9,en;q=0.8","5bfd8910eed5280001ead1dd","687a1a965b9f5b85a264363e","6893175e0bf7c1e6d403e8a4","1","5bfd8910eed5280001ead1dd","1","2025-08-06T09:01:22.927Z","","","","StressQ","","","","","","","","","","","50","","","","","","","","","","","","","","","","","","","","","","","","","","",""
"2815","","<div style=""width:500px;"">
  <p>What best describes how you currently feel?</p>
  </div>","82","html-slider-response","52","636624","0.0-7.0-4.7","130","1","2025-08-06 08:50:46","36c45c0696341be0efffe67d72a12abb","92.40.111.60","Mozilla/5.0 (Windows NT 10.0; Win64; x64) AppleWebKit/537.36 (KHTML, like Gecko) Chrome/138.0.0.0 Safari/537.36","WebKit","Chrome","138.0.0.0","Windows","10.0","https://app.prolific.com/","en-GB,en-US;q=0.9,en;q=0.8","5bfd8910eed5280001ead1dd","687a1a965b9f5b85a264363e","6893175e0bf7c1e6d403e8a4","1","5bfd8910eed5280001ead1dd","1","2025-08-06T09:01:25.744Z","","","","MotivationQ","","","","","","","","","","","50","","","","","","","","","","","","","","","","","","","","","","","","","","",""
"","","","","ctl-task-cpt","53","682603","0.0-7.0-0.8","130","1","2025-08-06 08:50:46","36c45c0696341be0efffe67d72a12abb","92.40.111.60","Mozilla/5.0 (Windows NT 10.0; Win64; x64) AppleWebKit/537.36 (KHTML, like Gecko) Chrome/138.0.0.0 Safari/537.36","WebKit","Chrome","138.0.0.0","Windows","10.0","https://app.prolific.com/","en-GB,en-US;q=0.9,en;q=0.8","5bfd8910eed5280001ead1dd","687a1a965b9f5b85a264363e","6893175e0bf7c1e6d403e8a4","1","5bfd8910eed5280001ead1dd","1","2025-08-06T09:02:11.722Z","","","","","","","","","","","","","","","","win-only","0","g1:NW,g2:SE","0.4","9","0","638880.3","723.4","5727.1","42962","1","4","8","6","2","-8","-8","17","25","0.12878787878787878","814.4","3000","-2820","[""down"",""right""]","{""num_key_presses"":10,""num_perfect"":4,""num_errors"":0,""num_randdir"":6,""num_randdir_good_moves"":0,""num_whilered"":0,""num_whileblue"":0,""num_blue"":2,""num_good_moves"":4}","[409.57142857142856,418.47767857142856,0.1,409.57142857142856,418.47767857142856,102.5,409.57142857142856,418.47767857142856,202.7,409.57142857142856,420.47767857142856,303.1,506.57142857142856,516.4776785714286,403.1,686.5714285714286,656.4776785714286,503.9,718.5714285714286,694.4776785714286,607.4,730.5714285714286,720.4776785714286,715.3,739.5714285714286,732.4776785714286,817.8,739.5714285714286,732.4776785714286,923.4,738.5714285714286,731.4776785714286,1032.6,704.5714285714286,654.4776785714286,1134.3,657.5714285714286,540.4776785714286,1238.2,657.5714285714286,519.4776785714286,1339.2,661.5714285714286,519.4776785714286,1450.2,661.5714285714286,519.4776785714286,1561.3,661.5714285714286,519.4776785714286,1667.8,661.5714285714286,519.4776785714286,1772.5,661.5714285714286,519.4776785714286,1883.5,661.5714285714286,519.4776785714286,1983.5,661.5714285714286,519.4776785714286,2083.8,661.5714285714286,519.4776785714286,2187.3,661.5714285714286,519.4776785714286,2287.7,661.5714285714286,519.4776785714286,2388.3,661.5714285714286,519.4776785714286,2496.8,661.5714285714286,519.4776785714286,2601.3,661.5714285714286,519.4776785714286,2701.4,661.5714285714286,519.4776785714286,2803.7,661.5714285714286,519.4776785714286,2907.1,661.5714285714286,519.4776785714286,3007.3,661.5714285714286,519.4776785714286,3117.8,661.5714285714286,519.4776785714286,3222.4,661.5714285714286,519.4776785714286,3322.7,661.5714285714286,519.4776785714286,3423.6,661.5714285714286,519.4776785714286,3527.7,661.5714285714286,519.4776785714286,3628,661.5714285714286,519.4776785714286,3728.6,661.5714285714286,519.4776785714286,3832.2,661.5714285714286,519.4776785714286,3932.2,661.5714285714286,519.4776785714286,4032.5,661.5714285714286,519.4776785714286,4133.6,661.5714285714286,519.4776785714286,4237,661.5714285714286,519.4776785714286,4342.5,661.5714285714286,519.4776785714286,4451,661.5714285714286,519.4776785714286,4552.6,661.5714285714286,519.4776785714286,4652.9,661.5714285714286,519.4776785714286,4757,661.5714285714286,519.4776785714286,4857.2,661.5714285714286,519.4776785714286,4957.7]","[4376.8,4376.8,1961.1,2010.2,405.5,""smooth"",""right"",""right"",""good_move"",7180.1,2802.6,2415.2,4377.5,387.4,""smooth"",""right"",""right"",""good_move"",14049.2,6868.9,2873.2,10815.7,360.3,""oops"",""right"",""up"",""bad_move"",17637.6,3588.2,3218.5,14049.4,369.7,""oops"",""right"",""left"",""bad_move"",20100.2,2462.3,2095.6,17637.9,366.7,""oops"",""down"",""up"",""bad_move"",22796.4,2696.1,2395.4,20100.3,300.7,""smooth"",""right"",""right"",""good_move"",25814.2,3017.3,2667.1,22797,350.1,""smooth"",""right"",""right"",""good_move"",29259.4,3445,3098.2,25814.4,346.8,""oops"",""down"",""left"",""bad_move"",32094.2,2834.4,2491.7,29259.8,342.7,""oops"",""down"",""left"",""bad_move"",34897.7,2803.3,2469,32094.4,334.3,""oops"",""down"",""left"",""bad_move""]"
"12208","","<div style=""width:500px;"">
  <p>What determined the result of this run?</p>
  </div>","8","html-slider-response","54","694812","0.0-7.0-1.8","130","1","2025-08-06 08:50:46","36c45c0696341be0efffe67d72a12abb","92.40.111.60","Mozilla/5.0 (Windows NT 10.0; Win64; x64) AppleWebKit/537.36 (KHTML, like Gecko) Chrome/138.0.0.0 Safari/537.36","WebKit","Chrome","138.0.0.0","Windows","10.0","https://app.prolific.com/","en-GB,en-US;q=0.9,en;q=0.8","5bfd8910eed5280001ead1dd","687a1a965b9f5b85a264363e","6893175e0bf7c1e6d403e8a4","1","5bfd8910eed5280001ead1dd","1","2025-08-06T09:02:23.931Z","","","","AttribQ","","","","","","","","","","","50","","","","","","","","","","","","","","","","","","","","","","","","","","",""
"2014","","<div style=""width:500px;"">
  <p>How much control did you have over the ball?</p>
  </div>","0","html-slider-response","55","696828","0.0-7.0-2.8","130","1","2025-08-06 08:50:46","36c45c0696341be0efffe67d72a12abb","92.40.111.60","Mozilla/5.0 (Windows NT 10.0; Win64; x64) AppleWebKit/537.36 (KHTML, like Gecko) Chrome/138.0.0.0 Safari/537.36","WebKit","Chrome","138.0.0.0","Windows","10.0","https://app.prolific.com/","en-GB,en-US;q=0.9,en;q=0.8","5bfd8910eed5280001ead1dd","687a1a965b9f5b85a264363e","6893175e0bf7c1e6d403e8a4","1","5bfd8910eed5280001ead1dd","1","2025-08-06T09:02:25.947Z","","","","ControlQ","","","","","","","","","","","50","","","","","","","","","","","","","","","","","","","","","","","","","","",""
"2261","","<div style=""width:500px;"">
  <p>How would you describe your current emotional state?</p>
  </div>","72","html-slider-response","56","699090","0.0-7.0-3.8","130","1","2025-08-06 08:50:46","36c45c0696341be0efffe67d72a12abb","92.40.111.60","Mozilla/5.0 (Windows NT 10.0; Win64; x64) AppleWebKit/537.36 (KHTML, like Gecko) Chrome/138.0.0.0 Safari/537.36","WebKit","Chrome","138.0.0.0","Windows","10.0","https://app.prolific.com/","en-GB,en-US;q=0.9,en;q=0.8","5bfd8910eed5280001ead1dd","687a1a965b9f5b85a264363e","6893175e0bf7c1e6d403e8a4","1","5bfd8910eed5280001ead1dd","1","2025-08-06T09:02:28.209Z","","","","StressQ","","","","","","","","","","","50","","","","","","","","","","","","","","","","","","","","","","","","","","",""
"5473","","<div style=""width:500px;"">
  <p>What best describes how you currently feel?</p>
  </div>","75","html-slider-response","57","704564","0.0-7.0-4.8","130","1","2025-08-06 08:50:46","36c45c0696341be0efffe67d72a12abb","92.40.111.60","Mozilla/5.0 (Windows NT 10.0; Win64; x64) AppleWebKit/537.36 (KHTML, like Gecko) Chrome/138.0.0.0 Safari/537.36","WebKit","Chrome","138.0.0.0","Windows","10.0","https://app.prolific.com/","en-GB,en-US;q=0.9,en;q=0.8","5bfd8910eed5280001ead1dd","687a1a965b9f5b85a264363e","6893175e0bf7c1e6d403e8a4","1","5bfd8910eed5280001ead1dd","1","2025-08-06T09:02:33.683Z","","","","MotivationQ","","","","","","","","","","","50","","","","","","","","","","","","","","","","","","","","","","","","","","",""
"","","","","ctl-task-cpt","58","735531","0.0-7.0-0.9","130","1","2025-08-06 08:50:46","36c45c0696341be0efffe67d72a12abb","92.40.111.60","Mozilla/5.0 (Windows NT 10.0; Win64; x64) AppleWebKit/537.36 (KHTML, like Gecko) Chrome/138.0.0.0 Safari/537.36","WebKit","Chrome","138.0.0.0","Windows","10.0","https://app.prolific.com/","en-GB,en-US;q=0.9,en;q=0.8","5bfd8910eed5280001ead1dd","687a1a965b9f5b85a264363e","6893175e0bf7c1e6d403e8a4","1","5bfd8910eed5280001ead1dd","1","2025-08-06T09:03:04.650Z","","","","","","","","","","","","","","","","win-only","0","g1:NW,g2:SE","0.5","10","0","706819.5","814.4","5816.3","27946.4","1","4","4","6","2","4","4","21","17","0.1590909090909091","689.3","3000","1150","[""down"",""right""]","{""num_key_presses"":6,""num_perfect"":3,""num_errors"":0,""num_randdir"":3,""num_randdir_good_moves"":3,""num_whilered"":0,""num_whileblue"":0,""num_blue"":2,""num_good_moves"":6}","[423.57142857142856,406.47767857142856,0.3,423.57142857142856,406.47767857142856,119.1,423.57142857142856,406.47767857142856,221.9,424.57142857142856,422.47767857142856,322.2,521.5714285714286,539.4776785714286,424.8,732.5714285714286,716.4776785714286,540.8,757.5714285714286,741.4776785714286,644.1,758.5714285714286,741.4776785714286,746.8,758.5714285714286,741.4776785714286,852.4,782.5714285714286,704.4776785714286,952.5,852.5714285714286,633.4776785714286,1063.4,856.5714285714286,621.4776785714286,1166.3,856.5714285714286,621.4776785714286,1266.7,856.5714285714286,621.4776785714286,1374.1,856.5714285714286,621.4776785714286,1476.6,856.5714285714286,621.4776785714286,1581.9,856.5714285714286,621.4776785714286,1687.4,856.5714285714286,621.4776785714286,1790.5,856.5714285714286,621.4776785714286,1902.1,856.5714285714286,621.4776785714286,2003.2,856.5714285714286,621.4776785714286,2111,856.5714285714286,621.4776785714286,2218.9,856.5714285714286,621.4776785714286,2324.3,856.5714285714286,621.4776785714286,2426.3,856.5714285714286,621.4776785714286,2531.5,856.5714285714286,621.4776785714286,2636.3,856.5714285714286,621.4776785714286,2742.9,856.5714285714286,621.4776785714286,2846.8,856.5714285714286,621.4776785714286,2948.5,856.5714285714286,621.4776785714286,3053.2,856.5714285714286,621.4776785714286,3160,856.5714285714286,621.4776785714286,3260.9,856.5714285714286,621.4776785714286,3361.4,856.5714285714286,621.4776785714286,3468.9,856.5714285714286,621.4776785714286,3578.2,856.5714285714286,621.4776785714286,3681.2,856.5714285714286,621.4776785714286,3782.6,856.5714285714286,621.4776785714286,3886.3,856.5714285714286,621.4776785714286,3989.7,856.5714285714286,621.4776785714286,4091.9,856.5714285714286,621.4776785714286,4192.9,856.5714285714286,621.4776785714286,4299.6,856.5714285714286,621.4776785714286,4403.5,856.5714285714286,621.4776785714286,4509.5,856.5714285714286,621.4776785714286,4610.9,856.5714285714286,621.4776785714286,4711.2,856.5714285714286,621.4776785714286,4816.3,856.5714285714286,621.4776785714286,4916.7]","[1402.9,1402.9,1000,0,402.9,""smooth"",""right"",""right"",""good_move"",4005.1,2601.8,2146.1,1403.3,455.7,""smooth"",""right"",""right"",""good_move"",6961.3,2954.6,2658.6,4006.7,296,""oops"",""right"",""right"",""good_move"",9229,2267.3,1938.4,6961.7,328.9,""oops"",""down"",""down"",""good_move"",12094.8,2865.4,2554.5,9229.4,310.9,""smooth"",""down"",""down"",""good_move"",22033.4,9938.1,2620.6,18950.5,462.3,""oops"",""down"",""down"",""good_move""]"
"3436","","<div style=""width:500px;"">
  <p>What determined the result of this run?</p>
  </div>","85","html-slider-response","59","738968","0.0-7.0-1.9","130","1","2025-08-06 08:50:46","36c45c0696341be0efffe67d72a12abb","92.40.111.60","Mozilla/5.0 (Windows NT 10.0; Win64; x64) AppleWebKit/537.36 (KHTML, like Gecko) Chrome/138.0.0.0 Safari/537.36","WebKit","Chrome","138.0.0.0","Windows","10.0","https://app.prolific.com/","en-GB,en-US;q=0.9,en;q=0.8","5bfd8910eed5280001ead1dd","687a1a965b9f5b85a264363e","6893175e0bf7c1e6d403e8a4","1","5bfd8910eed5280001ead1dd","1","2025-08-06T09:03:08.088Z","","","","AttribQ","","","","","","","","","","","50","","","","","","","","","","","","","","","","","","","","","","","","","","",""
"1779","","<div style=""width:500px;"">
  <p>How much control did you have over the ball?</p>
  </div>","100","html-slider-response","60","740749","0.0-7.0-2.9","130","1","2025-08-06 08:50:46","36c45c0696341be0efffe67d72a12abb","92.40.111.60","Mozilla/5.0 (Windows NT 10.0; Win64; x64) AppleWebKit/537.36 (KHTML, like Gecko) Chrome/138.0.0.0 Safari/537.36","WebKit","Chrome","138.0.0.0","Windows","10.0","https://app.prolific.com/","en-GB,en-US;q=0.9,en;q=0.8","5bfd8910eed5280001ead1dd","687a1a965b9f5b85a264363e","6893175e0bf7c1e6d403e8a4","1","5bfd8910eed5280001ead1dd","1","2025-08-06T09:03:09.868Z","","","","ControlQ","","","","","","","","","","","50","","","","","","","","","","","","","","","","","","","","","","","","","","",""
"3589","","<div style=""width:500px;"">
  <p>How would you describe your current emotional state?</p>
  </div>","50","html-slider-response","61","744339","0.0-7.0-3.9","130","1","2025-08-06 08:50:46","36c45c0696341be0efffe67d72a12abb","92.40.111.60","Mozilla/5.0 (Windows NT 10.0; Win64; x64) AppleWebKit/537.36 (KHTML, like Gecko) Chrome/138.0.0.0 Safari/537.36","WebKit","Chrome","138.0.0.0","Windows","10.0","https://app.prolific.com/","en-GB,en-US;q=0.9,en;q=0.8","5bfd8910eed5280001ead1dd","687a1a965b9f5b85a264363e","6893175e0bf7c1e6d403e8a4","1","5bfd8910eed5280001ead1dd","1","2025-08-06T09:03:13.458Z","","","","StressQ","","","","","","","","","","","50","","","","","","","","","","","","","","","","","","","","","","","","","","",""
"1735","","<div style=""width:500px;"">
  <p>What best describes how you currently feel?</p>
  </div>","65","html-slider-response","62","746074","0.0-7.0-4.9","130","1","2025-08-06 08:50:46","36c45c0696341be0efffe67d72a12abb","92.40.111.60","Mozilla/5.0 (Windows NT 10.0; Win64; x64) AppleWebKit/537.36 (KHTML, like Gecko) Chrome/138.0.0.0 Safari/537.36","WebKit","Chrome","138.0.0.0","Windows","10.0","https://app.prolific.com/","en-GB,en-US;q=0.9,en;q=0.8","5bfd8910eed5280001ead1dd","687a1a965b9f5b85a264363e","6893175e0bf7c1e6d403e8a4","1","5bfd8910eed5280001ead1dd","1","2025-08-06T09:03:15.194Z","","","","MotivationQ","","","","","","","","","","","50","","","","","","","","","","","","","","","","","","","","","","","","","","",""
"","","","","ctl-task-cpt","63","780825","0.0-7.0-0.10","130","1","2025-08-06 08:50:46","36c45c0696341be0efffe67d72a12abb","92.40.111.60","Mozilla/5.0 (Windows NT 10.0; Win64; x64) AppleWebKit/537.36 (KHTML, like Gecko) Chrome/138.0.0.0 Safari/537.36","WebKit","Chrome","138.0.0.0","Windows","10.0","https://app.prolific.com/","en-GB,en-US;q=0.9,en;q=0.8","5bfd8910eed5280001ead1dd","687a1a965b9f5b85a264363e","6893175e0bf7c1e6d403e8a4","1","5bfd8910eed5280001ead1dd","1","2025-08-06T09:03:49.944Z","","","","","","","","","","","","","","","","win-only","1","g1:NE,g2:SW","0.6","11","0","748329.7","765.2","5767.7","31731.7","1","4","4","6","2","4","4","25","21","0.1893939393939394","820","3000","760","[""down"",""left""]","{""num_key_presses"":8,""num_perfect"":5,""num_errors"":0,""num_randdir"":3,""num_randdir_good_moves"":2,""num_whilered"":0,""num_whileblue"":0,""num_blue"":1,""num_good_moves"":7}","[420.57142857142856,415.47767857142856,0.4,420.57142857142856,415.47767857142856,101.4,420.57142857142856,415.47767857142856,205.7,420.57142857142856,415.47767857142856,306.7,511.57142857142856,362.47767857142856,407.1,271.57142857142856,614.4776785714286,512.9,161.57142857142856,750.4776785714286,616.5,143.57142857142856,757.4776785714286,716.7,104.57142857142857,751.4776785714286,829,121.57142857142857,748.4776785714286,931.2,307.57142857142856,729.4776785714286,1036.8,446.57142857142856,688.4776785714286,1143.8,446.57142857142856,687.4776785714286,1246.4,446.57142857142856,687.4776785714286,1352.2,446.57142857142856,687.4776785714286,1456,446.57142857142856,687.4776785714286,1556.4,446.57142857142856,687.4776785714286,1656.8,446.57142857142856,687.4776785714286,1767.9,446.57142857142856,687.4776785714286,1871.8,446.57142857142856,687.4776785714286,1985.5,446.57142857142856,687.4776785714286,2086.8,446.57142857142856,687.4776785714286,2190.4,446.57142857142856,687.4776785714286,2290.8,446.57142857142856,687.4776785714286,2401.3,446.57142857142856,687.4776785714286,2502.5,446.57142857142856,687.4776785714286,2602.6,446.57142857142856,687.4776785714286,2705.1,446.57142857142856,687.4776785714286,2806,446.57142857142856,687.4776785714286,2906.7,446.57142857142856,687.4776785714286,3019.2,446.57142857142856,687.4776785714286,3122.5,446.57142857142856,687.4776785714286,3227.1,446.57142857142856,687.4776785714286,3334.5,446.57142857142856,687.4776785714286,3436,446.57142857142856,687.4776785714286,3540.4,446.57142857142856,687.4776785714286,3653.4,446.57142857142856,687.4776785714286,3753.9,446.57142857142856,687.4776785714286,3854.9,446.57142857142856,687.4776785714286,3956.6,446.57142857142856,687.4776785714286,4063.2,446.57142857142856,687.4776785714286,4166,446.57142857142856,687.4776785714286,4271,446.57142857142856,687.4776785714286,4375.8,446.57142857142856,687.4776785714286,4487.2,446.57142857142856,687.4776785714286,4590.8,446.57142857142856,687.4776785714286,4692,446.57142857142856,687.4776785714286,4797.4,446.57142857142856,687.4776785714286,4900.5]","[1372.9,1372.9,1000,0,372.9,""smooth"",""down"",""down"",""good_move"",8008.2,6634.9,2553.8,5106.5,347.9,""oops"",""down"",""down"",""good_move"",10653.6,2645.2,2238.6,8008.4,406.6,""oops"",""down"",""left"",""good_move"",13685.6,3031.5,2608.5,10654.1,423,""smooth"",""down"",""down"",""good_move"",16707.6,3021.8,2660.1,13685.8,361.7,""smooth"",""left"",""left"",""good_move"",19885.6,3177.8,2856.4,16707.9,321.3,""oops"",""left"",""right"",""bad_move"",22839.3,2952.9,2616.4,19886.4,336.5,""smooth"",""left"",""left"",""good_move"",25839.6,2999.9,2682.4,22839.7,317.5,""smooth"",""left"",""left"",""good_move""]"
"2453","","<div style=""width:500px;"">
  <p>What determined the result of this run?</p>
  </div>","50","html-slider-response","64","783279","0.0-7.0-1.10","130","1","2025-08-06 08:50:46","36c45c0696341be0efffe67d72a12abb","92.40.111.60","Mozilla/5.0 (Windows NT 10.0; Win64; x64) AppleWebKit/537.36 (KHTML, like Gecko) Chrome/138.0.0.0 Safari/537.36","WebKit","Chrome","138.0.0.0","Windows","10.0","https://app.prolific.com/","en-GB,en-US;q=0.9,en;q=0.8","5bfd8910eed5280001ead1dd","687a1a965b9f5b85a264363e","6893175e0bf7c1e6d403e8a4","1","5bfd8910eed5280001ead1dd","1","2025-08-06T09:03:52.398Z","","","","AttribQ","","","","","","","","","","","50","","","","","","","","","","","","","","","","","","","","","","","","","","",""
"1991","","<div style=""width:500px;"">
  <p>How much control did you have over the ball?</p>
  </div>","50","html-slider-response","65","785271","0.0-7.0-2.10","130","1","2025-08-06 08:50:46","36c45c0696341be0efffe67d72a12abb","92.40.111.60","Mozilla/5.0 (Windows NT 10.0; Win64; x64) AppleWebKit/537.36 (KHTML, like Gecko) Chrome/138.0.0.0 Safari/537.36","WebKit","Chrome","138.0.0.0","Windows","10.0","https://app.prolific.com/","en-GB,en-US;q=0.9,en;q=0.8","5bfd8910eed5280001ead1dd","687a1a965b9f5b85a264363e","6893175e0bf7c1e6d403e8a4","1","5bfd8910eed5280001ead1dd","1","2025-08-06T09:03:54.391Z","","","","ControlQ","","","","","","","","","","","50","","","","","","","","","","","","","","","","","","","","","","","","","","",""
"4004","","<div style=""width:500px;"">
  <p>How would you describe your current emotional state?</p>
  </div>","50","html-slider-response","66","789277","0.0-7.0-3.10","130","1","2025-08-06 08:50:46","36c45c0696341be0efffe67d72a12abb","92.40.111.60","Mozilla/5.0 (Windows NT 10.0; Win64; x64) AppleWebKit/537.36 (KHTML, like Gecko) Chrome/138.0.0.0 Safari/537.36","WebKit","Chrome","138.0.0.0","Windows","10.0","https://app.prolific.com/","en-GB,en-US;q=0.9,en;q=0.8","5bfd8910eed5280001ead1dd","687a1a965b9f5b85a264363e","6893175e0bf7c1e6d403e8a4","1","5bfd8910eed5280001ead1dd","1","2025-08-06T09:03:58.396Z","","","","StressQ","","","","","","","","","","","50","","","","","","","","","","","","","","","","","","","","","","","","","","",""
"4295","","<div style=""width:500px;"">
  <p>What best describes how you currently feel?</p>
  </div>","50","html-slider-response","67","793573","0.0-7.0-4.10","130","1","2025-08-06 08:50:46","36c45c0696341be0efffe67d72a12abb","92.40.111.60","Mozilla/5.0 (Windows NT 10.0; Win64; x64) AppleWebKit/537.36 (KHTML, like Gecko) Chrome/138.0.0.0 Safari/537.36","WebKit","Chrome","138.0.0.0","Windows","10.0","https://app.prolific.com/","en-GB,en-US;q=0.9,en;q=0.8","5bfd8910eed5280001ead1dd","687a1a965b9f5b85a264363e","6893175e0bf7c1e6d403e8a4","1","5bfd8910eed5280001ead1dd","1","2025-08-06T09:04:02.692Z","","","","MotivationQ","","","","","","","","","","","50","","","","","","","","","","","","","","","","","","","","","","","","","","",""
"","","","","ctl-task-cpt","68","825905","0.0-7.0-0.11","130","1","2025-08-06 08:50:46","36c45c0696341be0efffe67d72a12abb","92.40.111.60","Mozilla/5.0 (Windows NT 10.0; Win64; x64) AppleWebKit/537.36 (KHTML, like Gecko) Chrome/138.0.0.0 Safari/537.36","WebKit","Chrome","138.0.0.0","Windows","10.0","https://app.prolific.com/","en-GB,en-US;q=0.9,en;q=0.8","5bfd8910eed5280001ead1dd","687a1a965b9f5b85a264363e","6893175e0bf7c1e6d403e8a4","1","5bfd8910eed5280001ead1dd","1","2025-08-06T09:04:35.025Z","","","","","","","","","","","","","","","","win-only","2","g1:SE,g2:NW","0.7","12","0","795828.7","790.2","5793.5","29310.4","1","4","8","6","2","8","7","32","25","0.24242424242424243","781.8","3000","1160","[""left"",""up""]","{""num_key_presses"":8,""num_perfect"":5,""num_errors"":1,""num_randdir"":2,""num_randdir_good_moves"":2,""num_whilered"":0,""num_whileblue"":1,""num_blue"":1,""num_good_moves"":7}","[413.57142857142856,424.47767857142856,0.2,413.57142857142856,424.47767857142856,100.3,413.57142857142856,424.47767857142856,201,413.57142857142856,431.47767857142856,301.5,679.5714285714286,690.4776785714286,410,326.57142857142856,416.47767857142856,513.8,107.57142857142857,156.47767857142856,615.8,90.57142857142857,120.47767857142857,716.6,85.57142857142857,112.47767857142857,826.7,86.57142857142857,112.47767857142857,931.2,354.57142857142856,288.47767857142856,1042,368.57142857142856,295.47767857142856,1147.2,368.57142857142856,295.47767857142856,1250.5,368.57142857142856,295.47767857142856,1351.2,368.57142857142856,295.47767857142856,1451.8,368.57142857142856,295.47767857142856,1552.5,368.57142857142856,295.47767857142856,1657.8,368.57142857142856,295.47767857142856,1760.3,368.57142857142856,295.47767857142856,1861.1,368.57142857142856,295.47767857142856,1962.6,368.57142857142856,295.47767857142856,2065.7,368.57142857142856,295.47767857142856,2166.1,368.57142857142856,295.47767857142856,2271.5,368.57142857142856,295.47767857142856,2375.8,368.57142857142856,295.47767857142856,2476.3,368.57142857142856,295.47767857142856,2581.7,368.57142857142856,295.47767857142856,2686.3,368.57142857142856,295.47767857142856,2791.9,368.57142857142856,295.47767857142856,2895.5,368.57142857142856,295.47767857142856,2996.4,368.57142857142856,295.47767857142856,3096.5,368.57142857142856,295.47767857142856,3196.9,368.57142857142856,295.47767857142856,3301,368.57142857142856,295.47767857142856,3406.4,368.57142857142856,295.47767857142856,3506.4,368.57142857142856,295.47767857142856,3610.3,368.57142857142856,295.47767857142856,3710.9,368.57142857142856,295.47767857142856,3811.4,368.57142857142856,295.47767857142856,3915.4,368.57142857142856,295.47767857142856,4017.5,368.57142857142856,295.47767857142856,4121.8,368.57142857142856,295.47767857142856,4229.5,368.57142857142856,295.47767857142856,4331.4,368.57142857142856,295.47767857142856,4436.3,368.57142857142856,295.47767857142856,4545,368.57142857142856,295.47767857142856,4645.5,368.57142857142856,295.47767857142856,4745.5,368.57142857142856,295.47767857142856,4845.8,368.57142857142856,295.47767857142856,4946.3]","[1359.7,1359.7,1000,0,359.7,""smooth"",""up"",""up"",""good_move"",4696.3,3336.4,2976.5,1359.9,359.9,""smooth"",""up"",""up"",""good_move"",7606.8,2910.3,2569.2,4696.5,341.1,""oops"",""up"",""left"",""good_move"",10443.3,2835.9,2518.4,7607.4,317.5,""oops"",""up"",""up"",""good_move"",13695.6,3252,2915.5,10443.6,336.5,""while_blue"",""left"",""right"",""bad_move"",16852.2,3156.1,2823.6,13696.1,332.5,""smooth"",""left"",""left"",""good_move"",20586.7,3734.2,3425,16852.5,309.2,""smooth"",""left"",""left"",""good_move"",23413,2826.1,2487,20586.9,339.1,""smooth"",""left"",""left"",""good_move""]"
"2490","","<div style=""width:500px;"">
  <p>What determined the result of this run?</p>
  </div>","81","html-slider-response","69","828397","0.0-7.0-1.11","130","1","2025-08-06 08:50:46","36c45c0696341be0efffe67d72a12abb","92.40.111.60","Mozilla/5.0 (Windows NT 10.0; Win64; x64) AppleWebKit/537.36 (KHTML, like Gecko) Chrome/138.0.0.0 Safari/537.36","WebKit","Chrome","138.0.0.0","Windows","10.0","https://app.prolific.com/","en-GB,en-US;q=0.9,en;q=0.8","5bfd8910eed5280001ead1dd","687a1a965b9f5b85a264363e","6893175e0bf7c1e6d403e8a4","1","5bfd8910eed5280001ead1dd","1","2025-08-06T09:04:37.516Z","","","","AttribQ","","","","","","","","","","","50","","","","","","","","","","","","","","","","","","","","","","","","","","",""
"2397","","<div style=""width:500px;"">
  <p>How much control did you have over the ball?</p>
  </div>","91","html-slider-response","70","830795","0.0-7.0-2.11","130","1","2025-08-06 08:50:46","36c45c0696341be0efffe67d72a12abb","92.40.111.60","Mozilla/5.0 (Windows NT 10.0; Win64; x64) AppleWebKit/537.36 (KHTML, like Gecko) Chrome/138.0.0.0 Safari/537.36","WebKit","Chrome","138.0.0.0","Windows","10.0","https://app.prolific.com/","en-GB,en-US;q=0.9,en;q=0.8","5bfd8910eed5280001ead1dd","687a1a965b9f5b85a264363e","6893175e0bf7c1e6d403e8a4","1","5bfd8910eed5280001ead1dd","1","2025-08-06T09:04:39.914Z","","","","ControlQ","","","","","","","","","","","50","","","","","","","","","","","","","","","","","","","","","","","","","","",""
"3325","","<div style=""width:500px;"">
  <p>How would you describe your current emotional state?</p>
  </div>","50","html-slider-response","71","834120","0.0-7.0-3.11","130","1","2025-08-06 08:50:46","36c45c0696341be0efffe67d72a12abb","92.40.111.60","Mozilla/5.0 (Windows NT 10.0; Win64; x64) AppleWebKit/537.36 (KHTML, like Gecko) Chrome/138.0.0.0 Safari/537.36","WebKit","Chrome","138.0.0.0","Windows","10.0","https://app.prolific.com/","en-GB,en-US;q=0.9,en;q=0.8","5bfd8910eed5280001ead1dd","687a1a965b9f5b85a264363e","6893175e0bf7c1e6d403e8a4","1","5bfd8910eed5280001ead1dd","1","2025-08-06T09:04:43.239Z","","","","StressQ","","","","","","","","","","","50","","","","","","","","","","","","","","","","","","","","","","","","","","",""
"2953","","<div style=""width:500px;"">
  <p>What best describes how you currently feel?</p>
  </div>","58","html-slider-response","72","837074","0.0-7.0-4.11","130","1","2025-08-06 08:50:46","36c45c0696341be0efffe67d72a12abb","92.40.111.60","Mozilla/5.0 (Windows NT 10.0; Win64; x64) AppleWebKit/537.36 (KHTML, like Gecko) Chrome/138.0.0.0 Safari/537.36","WebKit","Chrome","138.0.0.0","Windows","10.0","https://app.prolific.com/","en-GB,en-US;q=0.9,en;q=0.8","5bfd8910eed5280001ead1dd","687a1a965b9f5b85a264363e","6893175e0bf7c1e6d403e8a4","1","5bfd8910eed5280001ead1dd","1","2025-08-06T09:04:46.193Z","","","","MotivationQ","","","","","","","","","","","50","","","","","","","","","","","","","","","","","","","","","","","","","","",""
"","","","","ctl-task-cpt","73","860920","0.0-7.0-0.12","130","1","2025-08-06 08:50:46","36c45c0696341be0efffe67d72a12abb","92.40.111.60","Mozilla/5.0 (Windows NT 10.0; Win64; x64) AppleWebKit/537.36 (KHTML, like Gecko) Chrome/138.0.0.0 Safari/537.36","WebKit","Chrome","138.0.0.0","Windows","10.0","https://app.prolific.com/","en-GB,en-US;q=0.9,en;q=0.8","5bfd8910eed5280001ead1dd","687a1a965b9f5b85a264363e","6893175e0bf7c1e6d403e8a4","1","5bfd8910eed5280001ead1dd","1","2025-08-06T09:05:10.039Z","","","","","","","","","","","","","","","","win-only","1","g1:NE,g2:SW","0.8","13","0","839329.5","633.7","5635.9","20826.4","1","4","4","6","2","4","4","36","32","0.2727272727272727","671.2","3000","1150","[""down"",""left""]","{""num_key_presses"":6,""num_perfect"":4,""num_errors"":0,""num_randdir"":2,""num_randdir_good_moves"":2,""num_whilered"":0,""num_whileblue"":0,""num_blue"":0,""num_good_moves"":6}","[416.57142857142856,427.47767857142856,0.1,416.57142857142856,426.47767857142856,102.7,415.57142857142856,426.47767857142856,203.3,413.57142857142856,427.47767857142856,304.2,235.57142857142856,559.4776785714286,407.6,74.57142857142857,703.4776785714286,514.8,67.57142857142857,756.4776785714286,618.2,67.57142857142857,756.4776785714286,723.5,130.57142857142856,736.4776785714286,844.8,305.57142857142856,703.4776785714286,944.8,305.57142857142856,703.4776785714286,1046.7,305.57142857142856,703.4776785714286,1159.6,305.57142857142856,703.4776785714286,1263,305.57142857142856,703.4776785714286,1368.3,305.57142857142856,703.4776785714286,1473.5,305.57142857142856,703.4776785714286,1574,305.57142857142856,703.4776785714286,1674.6,305.57142857142856,703.4776785714286,1776.8,305.57142857142856,703.4776785714286,1883.6,305.57142857142856,703.4776785714286,1987,305.57142857142856,703.4776785714286,2088.9,305.57142857142856,703.4776785714286,2192.9,305.57142857142856,703.4776785714286,2297.1,305.57142857142856,703.4776785714286,2403.2,305.57142857142856,703.4776785714286,2510,305.57142857142856,703.4776785714286,2610.4,305.57142857142856,703.4776785714286,2710.7,305.57142857142856,703.4776785714286,2826.2,305.57142857142856,703.4776785714286,2926.2,305.57142857142856,703.4776785714286,3027.1,305.57142857142856,703.4776785714286,3144.2,305.57142857142856,703.4776785714286,3246.9,305.57142857142856,703.4776785714286,3347,305.57142857142856,703.4776785714286,3449,305.57142857142856,703.4776785714286,3551.7,305.57142857142856,703.4776785714286,3654.8,305.57142857142856,703.4776785714286,3762.7,305.57142857142856,703.4776785714286,3867.4,305.57142857142856,703.4776785714286,3968.5,305.57142857142856,703.4776785714286,4072.8,305.57142857142856,703.4776785714286,4173.2,305.57142857142856,703.4776785714286,4278.8,305.57142857142856,703.4776785714286,4379.2,305.57142857142856,703.4776785714286,4483.3,305.57142857142856,703.4776785714286,4587.7,305.57142857142856,703.4776785714286,4688.1,305.57142857142856,703.4776785714286,4797.1,305.57142857142856,703.4776785714286,4897.5,305.57142857142856,703.4776785714286,4998]","[1383,1383,1000,0,383,""oops"",""down"",""down"",""good_move"",4682.5,3298.9,2902.9,1383.6,396,""smooth"",""down"",""down"",""good_move"",7469.4,2786.6,2393.2,4682.8,393.4,""smooth"",""left"",""left"",""good_move"",9451.5,1981.8,1480.9,7469.8,500.8,""smooth"",""left"",""left"",""good_move"",12137.3,2685.6,2375.6,9451.7,310,""smooth"",""left"",""left"",""good_move"",15052.7,2914.9,2583.9,12137.8,331,""oops"",""down"",""down"",""good_move""]"
"2644","","<div style=""width:500px;"">
  <p>What determined the result of this run?</p>
  </div>","99","html-slider-response","74","863564","0.0-7.0-1.12","130","1","2025-08-06 08:50:46","36c45c0696341be0efffe67d72a12abb","92.40.111.60","Mozilla/5.0 (Windows NT 10.0; Win64; x64) AppleWebKit/537.36 (KHTML, like Gecko) Chrome/138.0.0.0 Safari/537.36","WebKit","Chrome","138.0.0.0","Windows","10.0","https://app.prolific.com/","en-GB,en-US;q=0.9,en;q=0.8","5bfd8910eed5280001ead1dd","687a1a965b9f5b85a264363e","6893175e0bf7c1e6d403e8a4","1","5bfd8910eed5280001ead1dd","1","2025-08-06T09:05:12.683Z","","","","AttribQ","","","","","","","","","","","50","","","","","","","","","","","","","","","","","","","","","","","","","","",""
"4778","","<div style=""width:500px;"">
  <p>How much control did you have over the ball?</p>
  </div>","100","html-slider-response","75","868344","0.0-7.0-2.12","130","1","2025-08-06 08:50:46","36c45c0696341be0efffe67d72a12abb","92.40.111.60","Mozilla/5.0 (Windows NT 10.0; Win64; x64) AppleWebKit/537.36 (KHTML, like Gecko) Chrome/138.0.0.0 Safari/537.36","WebKit","Chrome","138.0.0.0","Windows","10.0","https://app.prolific.com/","en-GB,en-US;q=0.9,en;q=0.8","5bfd8910eed5280001ead1dd","687a1a965b9f5b85a264363e","6893175e0bf7c1e6d403e8a4","1","5bfd8910eed5280001ead1dd","1","2025-08-06T09:05:17.463Z","","","","ControlQ","","","","","","","","","","","50","","","","","","","","","","","","","","","","","","","","","","","","","","",""
"2408","","<div style=""width:500px;"">
  <p>How would you describe your current emotional state?</p>
  </div>","46","html-slider-response","76","870752","0.0-7.0-3.12","130","1","2025-08-06 08:50:46","36c45c0696341be0efffe67d72a12abb","92.40.111.60","Mozilla/5.0 (Windows NT 10.0; Win64; x64) AppleWebKit/537.36 (KHTML, like Gecko) Chrome/138.0.0.0 Safari/537.36","WebKit","Chrome","138.0.0.0","Windows","10.0","https://app.prolific.com/","en-GB,en-US;q=0.9,en;q=0.8","5bfd8910eed5280001ead1dd","687a1a965b9f5b85a264363e","6893175e0bf7c1e6d403e8a4","1","5bfd8910eed5280001ead1dd","1","2025-08-06T09:05:19.872Z","","","","StressQ","","","","","","","","","","","50","","","","","","","","","","","","","","","","","","","","","","","","","","",""
"2330","","<div style=""width:500px;"">
  <p>What best describes how you currently feel?</p>
  </div>","90","html-slider-response","77","873083","0.0-7.0-4.12","130","1","2025-08-06 08:50:46","36c45c0696341be0efffe67d72a12abb","92.40.111.60","Mozilla/5.0 (Windows NT 10.0; Win64; x64) AppleWebKit/537.36 (KHTML, like Gecko) Chrome/138.0.0.0 Safari/537.36","WebKit","Chrome","138.0.0.0","Windows","10.0","https://app.prolific.com/","en-GB,en-US;q=0.9,en;q=0.8","5bfd8910eed5280001ead1dd","687a1a965b9f5b85a264363e","6893175e0bf7c1e6d403e8a4","1","5bfd8910eed5280001ead1dd","1","2025-08-06T09:05:22.202Z","","","","MotivationQ","","","","","","","","","","","50","","","","","","","","","","","","","","","","","","","","","","","","","","",""
