"rt","response_timestamp","stimulus","response","trial_type","trial_index","time_elapsed","internal_node_id","run_id","condition","recorded_at","source_code_version","ip","user_agent","device","browser","browser_version","platform","platform_version","referer","accept_language","PROLIFIC_PID","STUDY_ID","SESSION_ID","BATCH","prolific_id","batch","realtime","success","question_order","question_id","eventType","responses","item_order","radio_event_ids","radio_event_times","key_event_times","mouse_event_times","straightlining","zigzagging","honeypot","view_history","slider_start","which_type","canvas_config","goals_layout","control_level","trial_number","tutorial_trial_number","trial_start_time","phase1_start_time","phase2_start_time","phase3_start_time","goal_1_value","goal_1_distance","goal_2_value","goal_2_distance","goal_selected","outcome","outcome_total","participant_final_score","participant_initial_score","participant_final_score_prop","goal_choice_rt","allocated_time","allocated_time_remaining","goal_direction","counts","mouse_movements","key_presses"
"1807","1754470228991","<p style='font-size:40px;line-height:1.25'><strong>Welcome to the experiment!</strong></p><p style='font-size:1.1em;line-height:1.25'>Thank you for participanting in our experiment again! You will be asked to play the Dysfunctional Ball Game again. We will briefly recap the rules before we start.</p><p style='font-size:1.1em;line-height:1.25'>Press <strong>Next</strong> to continue.</p>","0","custom-html-button-response","0","1808","0.0-0.0","128","1","2025-08-06 08:50:25","36c45c0696341be0efffe67d72a12abb","178.212.218.13","Mozilla/5.0 (Windows NT 10.0; Win64; x64; rv:141.0) Gecko/20100101 Firefox/141.0","","Firefox","141.0","Windows","10.0","https://app.prolific.com/","pl,en-US;q=0.7,en;q=0.3","5c2b339a85602a00012ffedd","6877649eabb845cf142cd221","6893174bb1dd58e9ab54029d","1","5c2b339a85602a00012ffedd","1","2025-08-06T08:50:28.992Z","","","","","","","","","","","","","","","","","","","","","","","","","","","","","","","","","","","","","","","","","",""
"4330","","","","fullscreen","1","7143","0.0-1.0","128","1","2025-08-06 08:50:25","36c45c0696341be0efffe67d72a12abb","178.212.218.13","Mozilla/5.0 (Windows NT 10.0; Win64; x64; rv:141.0) Gecko/20100101 Firefox/141.0","","Firefox","141.0","Windows","10.0","https://app.prolific.com/","pl,en-US;q=0.7,en;q=0.3","5c2b339a85602a00012ffedd","6877649eabb845cf142cd221","6893174bb1dd58e9ab54029d","1","5c2b339a85602a00012ffedd","1","","true","","","","","","","","","","","","","","","","","","","","","","","","","","","","","","","","","","","","","","","","",""
"3004","1754470237331"," <p style='font-size:1.1em;line-height:1.25'>Thank you for closing all other tabs.</p><p style='font-size:1.1em;line-height:1.25'>We will now invite you to fill in some questionnaires, before starting the game.<br>This will take about 5 minutes.<br></p><p style='font-size:1.1em;line-height:1.25'>Press the <strong>Next</strong> button to continue.</p>","0","custom-html-button-response","2","10148","0.0-2.0","128","1","2025-08-06 08:50:25","36c45c0696341be0efffe67d72a12abb","178.212.218.13","Mozilla/5.0 (Windows NT 10.0; Win64; x64; rv:141.0) Gecko/20100101 Firefox/141.0","","Firefox","141.0","Windows","10.0","https://app.prolific.com/","pl,en-US;q=0.7,en;q=0.3","5c2b339a85602a00012ffedd","6877649eabb845cf142cd221","6893174bb1dd58e9ab54029d","1","5c2b339a85602a00012ffedd","1","2025-08-06T08:50:37.331Z","","","","","","","","","","","","","","","","","","","","","","","","","","","","","","","","","","","","","","","","","",""
"3262","","","{""assigned_sex"":""female""}","survey-multi-choice","3","13413","0.0-3.0-0.0","128","1","2025-08-06 08:50:25","36c45c0696341be0efffe67d72a12abb","178.212.218.13","Mozilla/5.0 (Windows NT 10.0; Win64; x64; rv:141.0) Gecko/20100101 Firefox/141.0","","Firefox","141.0","Windows","10.0","https://app.prolific.com/","pl,en-US;q=0.7,en;q=0.3","5c2b339a85602a00012ffedd","6877649eabb845cf142cd221","6893174bb1dd58e9ab54029d","1","5c2b339a85602a00012ffedd","1","","","[0]","0","demographics","","","","","","","","","","","","","","","","","","","","","","","","","","","","","","","","","","","","","",""
"1440","1754470242038","<p style='font-size:1.1em;line-height:1.25'>In the following, we will perform a baseline assessment. This means that we will ask you a few questions relating to your experiences over the past month.<br></p><p style='font-size:1.1em;line-height:1.25'>Press the <strong>Next</strong> button to continue.</p>","0","custom-html-button-response","4","14855","0.0-4.0-0.0","128","1","2025-08-06 08:50:25","36c45c0696341be0efffe67d72a12abb","178.212.218.13","Mozilla/5.0 (Windows NT 10.0; Win64; x64; rv:141.0) Gecko/20100101 Firefox/141.0","","Firefox","141.0","Windows","10.0","https://app.prolific.com/","pl,en-US;q=0.7,en;q=0.3","5c2b339a85602a00012ffedd","6877649eabb845cf142cd221","6893174bb1dd58e9ab54029d","1","5c2b339a85602a00012ffedd","1","2025-08-06T08:50:42.038Z","","","","","","","","","","","","","","","","","","","","","","","","","","","","","","","","","","","","","","","","","",""
"51345","","","","survey-template","5","66202","0.0-4.0-1.0","128","1","2025-08-06 08:50:25","36c45c0696341be0efffe67d72a12abb","178.212.218.13","Mozilla/5.0 (Windows NT 10.0; Win64; x64; rv:141.0) Gecko/20100101 Firefox/141.0","","Firefox","141.0","Windows","10.0","https://app.prolific.com/","pl,en-US;q=0.7,en;q=0.3","5c2b339a85602a00012ffedd","6877649eabb845cf142cd221","6893174bb1dd58e9ab54029d","1","5c2b339a85602a00012ffedd","1","2025-08-06T08:51:33.385Z","","","","pss","{""Q01"":""3"",""Q02"":""2"",""Q03"":""2"",""Q04"":""2"",""Q05"":""2"",""Q06"":""2"",""Q07"":""1"",""Q08"":""2"",""Q09"":""2"",""Q10"":""2""}","[0,1,2,3,4,5,6,7,8,9]","[""Q01"",""Q03"",""Q02"",""Q04"",""Q05"",""Q06"",""Q07"",""Q08"",""Q09"",""Q10""]","[6437,11481,12576,17182,21407,24045,41274,42494,45744,49336]","[]","[1,6437,8190,9359,10287,11481,12576,17182,21407,24045,41274,42494,45744,48652,49336,51344]","0.8","0.3333333333333333","0","","","","","","","","","","","","","","","","","","","","","","","","","","","","",""
"1712","1754470295100","<p style='font-size:1.1em;line-height:1.25'>Thank you for your answers! Now we will ask you a few more questions relating to your feelings in the last 24 hours.<br></p><p style='font-size:1.1em;line-height:1.25'>Press the <strong>Next</strong> button to continue.</p>","0","custom-html-button-response","6","67917","0.0-4.0-2.0","128","1","2025-08-06 08:50:25","36c45c0696341be0efffe67d72a12abb","178.212.218.13","Mozilla/5.0 (Windows NT 10.0; Win64; x64; rv:141.0) Gecko/20100101 Firefox/141.0","","Firefox","141.0","Windows","10.0","https://app.prolific.com/","pl,en-US;q=0.7,en;q=0.3","5c2b339a85602a00012ffedd","6877649eabb845cf142cd221","6893174bb1dd58e9ab54029d","1","5c2b339a85602a00012ffedd","1","2025-08-06T08:51:35.100Z","","","","","","","","","","","","","","","","","","","","","","","","","","","","","","","","","","","","","","","","","",""
"72367","","","","survey-template","7","140288","0.0-4.0-3.0","128","1","2025-08-06 08:50:25","36c45c0696341be0efffe67d72a12abb","178.212.218.13","Mozilla/5.0 (Windows NT 10.0; Win64; x64; rv:141.0) Gecko/20100101 Firefox/141.0","","Firefox","141.0","Windows","10.0","https://app.prolific.com/","pl,en-US;q=0.7,en;q=0.3","5c2b339a85602a00012ffedd","6877649eabb845cf142cd221","6893174bb1dd58e9ab54029d","1","5c2b339a85602a00012ffedd","1","2025-08-06T08:52:47.471Z","","","","drsp","{""Q01"":""4"",""Q02"":""3"",""Q03"":""3"",""Q04"":""3"",""Q05"":""3"",""Q06"":""3"",""Q07"":""3"",""Q08"":""2"",""Q09"":""5"",""Q10"":""5"",""Q11"":""4"",""Q12"":""4"",""Q13"":""5"",""Q14"":""4"",""Q15"":""5"",""Q16"":""2"",""Q17"":""3"",""Q18"":""3"",""Q19"":""1"",""Q20"":""1"",""Q21"":""3"",""Q22"":""2""}","[0,1,2,3,4,5,6,7,8,9,10,11,12,13,14,15,16,17,18,19,20,21]","[""Q01"",""Q02"",""Q03"",""Q04"",""Q05"",""Q06"",""Q07"",""Q08"",""Q09"",""Q10"",""Q11"",""Q12"",""Q13"",""Q14"",""Q15"",""Q16"",""Q17"",""Q18"",""Q19"",""Q20"",""Q21"",""Q21"",""Q22""]","[12985,14334,16962,18103,25374,30227,31504,33029,34579,36610,39712,41546,43448,45884,50120,52385,53451,58048,63626,64300,65614,69274,71783]","[]","[1,12985,14334,15577,16962,18103,25374,30227,31504,33029,34579,36610,37869,38510,39267,39712,41546,43448,45884,50120,52385,53451,58048,63626,64300,64948,65614,69274,71783,72366]","0.4090909090909091","0.38095238095238093","0","","","","","","","","","","","","","","","","","","","","","","","","","","","","",""
"4537","","","","survey-template","8","144828","0.0-4.0-4.0","128","1","2025-08-06 08:50:25","36c45c0696341be0efffe67d72a12abb","178.212.218.13","Mozilla/5.0 (Windows NT 10.0; Win64; x64; rv:141.0) Gecko/20100101 Firefox/141.0","","Firefox","141.0","Windows","10.0","https://app.prolific.com/","pl,en-US;q=0.7,en;q=0.3","5c2b339a85602a00012ffedd","6877649eabb845cf142cd221","6893174bb1dd58e9ab54029d","1","5c2b339a85602a00012ffedd","1","2025-08-06T08:52:52.011Z","","","","stress","{""Q01"":""2"",""Q02"":""2"",""Q03"":""3""}","[0,1,2]","[""Q01"",""Q02"",""Q03""]","[1972,3019,3792]","[]","[1972,3019,3792,4537]","0.6666666666666666","0.5","0","","","","","","","","","","","","","","","","","","","","","","","","","","","","",""
"1765","","","","instructions","9","146593","0.0-5.0-0.0","128","1","2025-08-06 08:50:25","36c45c0696341be0efffe67d72a12abb","178.212.218.13","Mozilla/5.0 (Windows NT 10.0; Win64; x64; rv:141.0) Gecko/20100101 Firefox/141.0","","Firefox","141.0","Windows","10.0","https://app.prolific.com/","pl,en-US;q=0.7,en;q=0.3","5c2b339a85602a00012ffedd","6877649eabb845cf142cd221","6893174bb1dd58e9ab54029d","1","5c2b339a85602a00012ffedd","1","","","","","","","","","","","","","","","[{""page_index"":0,""viewing_time"":1765}]","","","","","","","","","","","","","","","","","","","","","","","","","","","",""
"1916","","<p>Before you start with this game please answer the following three questions yourself. </p>
  <p>Through this game, we measure several aspects of your cognitive performance, such as reaction times, multi-tasking capabilities </p>
  <p>and the ability to assess the situation you are in.</p>
  <p></p>
  <p><b>How good do you usually are in such tasks?</b></p>","55","html-slider-response","10","148511","0.0-6.0-0.0","128","1","2025-08-06 08:50:25","36c45c0696341be0efffe67d72a12abb","178.212.218.13","Mozilla/5.0 (Windows NT 10.0; Win64; x64; rv:141.0) Gecko/20100101 Firefox/141.0","","Firefox","141.0","Windows","10.0","https://app.prolific.com/","pl,en-US;q=0.7,en;q=0.3","5c2b339a85602a00012ffedd","6877649eabb845cf142cd221","6893174bb1dd58e9ab54029d","1","5c2b339a85602a00012ffedd","1","2025-08-06T08:52:55.694Z","","","","PreSkillQ","","","","","","","","","","","50","","","","","","","","","","","","","","","","","","","","","","","","","","",""
"1839","","<div style=""width:500px;"">
  <p>How well do you think you will perform in this task compared to other participants?</p>
  </div>","42","html-slider-response","11","150351","0.0-6.0-1.0","128","1","2025-08-06 08:50:25","36c45c0696341be0efffe67d72a12abb","178.212.218.13","Mozilla/5.0 (Windows NT 10.0; Win64; x64; rv:141.0) Gecko/20100101 Firefox/141.0","","Firefox","141.0","Windows","10.0","https://app.prolific.com/","pl,en-US;q=0.7,en;q=0.3","5c2b339a85602a00012ffedd","6877649eabb845cf142cd221","6893174bb1dd58e9ab54029d","1","5c2b339a85602a00012ffedd","1","2025-08-06T08:52:57.534Z","","","","PrePerfQ","","","","","","","","","","","50","","","","","","","","","","","","","","","","","","","","","","","","","","",""
"3151","","<div style=""width:500px;"">
  <p>What best describes how you currently feel?</p>
  </div>","33","html-slider-response","12","153503","0.0-6.0-2.0","128","1","2025-08-06 08:50:25","36c45c0696341be0efffe67d72a12abb","178.212.218.13","Mozilla/5.0 (Windows NT 10.0; Win64; x64; rv:141.0) Gecko/20100101 Firefox/141.0","","Firefox","141.0","Windows","10.0","https://app.prolific.com/","pl,en-US;q=0.7,en;q=0.3","5c2b339a85602a00012ffedd","6877649eabb845cf142cd221","6893174bb1dd58e9ab54029d","1","5c2b339a85602a00012ffedd","1","2025-08-06T08:53:00.686Z","","","","PreMotivationQ","","","","","","","","","","","50","","","","","","","","","","","","","","","","","","","","","","","","","","",""
"","","","","ctl-task-cpt","13","181033","0.0-7.0-0.0","128","1","2025-08-06 08:50:25","36c45c0696341be0efffe67d72a12abb","178.212.218.13","Mozilla/5.0 (Windows NT 10.0; Win64; x64; rv:141.0) Gecko/20100101 Firefox/141.0","","Firefox","141.0","Windows","10.0","https://app.prolific.com/","pl,en-US;q=0.7,en;q=0.3","5c2b339a85602a00012ffedd","6877649eabb845cf142cd221","6893174bb1dd58e9ab54029d","1","5c2b339a85602a00012ffedd","1","2025-08-06T08:53:28.216Z","","","","","","","","","","","","","","","","win-only","1","g1:NE,g2:SW","1","1","0","155864","1022","6028","24526","1","4","8","6","1","1","1","1","0","0.007575757575757576","2142","3000","1185","[""up"",""right""]","{""num_key_presses"":4,""num_perfect"":4,""num_errors"":0,""num_randdir"":0,""num_randdir_good_moves"":0,""num_whilered"":0,""num_whileblue"":0,""num_blue"":2,""num_good_moves"":4}","[546.4285714285714,549.1285683768136,0,546.4285714285714,549.1285683768136,101,546.4285714285714,549.1285683768136,205,546.4285714285714,549.1285683768136,307,546.4285714285714,549.1285683768136,407,1162.4285714285713,795.1285683768136,514,1595.4285714285713,920.1285683768136,615,573.4285714285714,1213.1285683768135,718,551.4285714285714,1228.1285683768135,823,609.4285714285714,1278.1285683768135,928,610.4285714285714,1278.1285683768135,1030,610.4285714285714,1278.1285683768135,1132,605.4285714285714,1278.1285683768135,1232,722.4285714285714,1113.1285683768135,1334,1516.4285714285713,-160.87143162318637,1436,1549.4285714285713,-152.87143162318637,1541,1414.4285714285713,-113.87143162318638,1642,1143.4285714285713,-1.871431623186382,1743,961.4285714285714,239.12856837681363,1845,1061.4285714285713,171.12856837681363,1946,1086.4285714285713,145.12856837681363,2047,1088.4285714285713,133.12856837681363,2148,1088.4285714285713,132.12856837681363,2250,1088.4285714285713,132.12856837681363,2353,1085.4285714285713,135.12856837681363,2455,1018.4285714285714,213.12856837681363,2555,1018.4285714285714,213.12856837681363,2655,1018.4285714285714,213.12856837681363,2757,1018.4285714285714,213.12856837681363,2861,1018.4285714285714,213.12856837681363,2962,1018.4285714285714,213.12856837681363,3062,1018.4285714285714,213.12856837681363,3167,1018.4285714285714,213.12856837681363,3267,1018.4285714285714,213.12856837681363,3368,1018.4285714285714,213.12856837681363,3472,1018.4285714285714,213.12856837681363,3576,1018.4285714285714,213.12856837681363,3676,1018.4285714285714,213.12856837681363,3779,1018.4285714285714,213.12856837681363,3880,1018.4285714285714,213.12856837681363,3982,1018.4285714285714,213.12856837681363,4084,1018.4285714285714,213.12856837681363,4188,1018.4285714285714,213.12856837681363,4293,1018.4285714285714,213.12856837681363,4396,1018.4285714285714,213.12856837681363,4500,1018.4285714285714,213.12856837681363,4604,1018.4285714285714,213.12856837681363,4709,1018.4285714285714,213.12856837681363,4811,1018.4285714285714,213.12856837681363,4915]","[5221,5221,2429.4,2005,786.6,""smooth"",""up"",""up"",""good_move"",8179,2958,2476.5,5221,481.5,""smooth"",""up"",""up"",""good_move"",14818,6639,2605.1,11756,456.9,""smooth"",""right"",""right"",""good_move"",18397,3578,3140.4,14819,437.6,""smooth"",""right"",""right"",""good_move""]"
"2133","","<div style=""width:500px;"">
  <p>What determined the result of this run?</p>
  </div>","78","html-slider-response","14","183168","0.0-7.0-1.0","128","1","2025-08-06 08:50:25","36c45c0696341be0efffe67d72a12abb","178.212.218.13","Mozilla/5.0 (Windows NT 10.0; Win64; x64; rv:141.0) Gecko/20100101 Firefox/141.0","","Firefox","141.0","Windows","10.0","https://app.prolific.com/","pl,en-US;q=0.7,en;q=0.3","5c2b339a85602a00012ffedd","6877649eabb845cf142cd221","6893174bb1dd58e9ab54029d","1","5c2b339a85602a00012ffedd","1","2025-08-06T08:53:30.351Z","","","","AttribQ","","","","","","","","","","","50","","","","","","","","","","","","","","","","","","","","","","","","","","",""
"1425","","<div style=""width:500px;"">
  <p>How much control did you have over the ball?</p>
  </div>","72","html-slider-response","15","184594","0.0-7.0-2.0","128","1","2025-08-06 08:50:25","36c45c0696341be0efffe67d72a12abb","178.212.218.13","Mozilla/5.0 (Windows NT 10.0; Win64; x64; rv:141.0) Gecko/20100101 Firefox/141.0","","Firefox","141.0","Windows","10.0","https://app.prolific.com/","pl,en-US;q=0.7,en;q=0.3","5c2b339a85602a00012ffedd","6877649eabb845cf142cd221","6893174bb1dd58e9ab54029d","1","5c2b339a85602a00012ffedd","1","2025-08-06T08:53:31.777Z","","","","ControlQ","","","","","","","","","","","50","","","","","","","","","","","","","","","","","","","","","","","","","","",""
"2249","","<div style=""width:500px;"">
  <p>How would you describe your current emotional state?</p>
  </div>","42","html-slider-response","16","186845","0.0-7.0-3.0","128","1","2025-08-06 08:50:25","36c45c0696341be0efffe67d72a12abb","178.212.218.13","Mozilla/5.0 (Windows NT 10.0; Win64; x64; rv:141.0) Gecko/20100101 Firefox/141.0","","Firefox","141.0","Windows","10.0","https://app.prolific.com/","pl,en-US;q=0.7,en;q=0.3","5c2b339a85602a00012ffedd","6877649eabb845cf142cd221","6893174bb1dd58e9ab54029d","1","5c2b339a85602a00012ffedd","1","2025-08-06T08:53:34.028Z","","","","StressQ","","","","","","","","","","","50","","","","","","","","","","","","","","","","","","","","","","","","","","",""
"2220","","<div style=""width:500px;"">
  <p>What best describes how you currently feel?</p>
  </div>","44","html-slider-response","17","189066","0.0-7.0-4.0","128","1","2025-08-06 08:50:25","36c45c0696341be0efffe67d72a12abb","178.212.218.13","Mozilla/5.0 (Windows NT 10.0; Win64; x64; rv:141.0) Gecko/20100101 Firefox/141.0","","Firefox","141.0","Windows","10.0","https://app.prolific.com/","pl,en-US;q=0.7,en;q=0.3","5c2b339a85602a00012ffedd","6877649eabb845cf142cd221","6893174bb1dd58e9ab54029d","1","5c2b339a85602a00012ffedd","1","2025-08-06T08:53:36.249Z","","","","MotivationQ","","","","","","","","","","","50","","","","","","","","","","","","","","","","","","","","","","","","","","",""
"","","","","ctl-task-cpt","18","212017","0.0-7.0-0.1","128","1","2025-08-06 08:50:25","36c45c0696341be0efffe67d72a12abb","178.212.218.13","Mozilla/5.0 (Windows NT 10.0; Win64; x64; rv:141.0) Gecko/20100101 Firefox/141.0","","Firefox","141.0","Windows","10.0","https://app.prolific.com/","pl,en-US;q=0.7,en;q=0.3","5c2b339a85602a00012ffedd","6877649eabb845cf142cd221","6893174bb1dd58e9ab54029d","1","5c2b339a85602a00012ffedd","1","2025-08-06T08:53:59.200Z","","","","","","","","","","","","","","","","win-only","3","g1:SW,g2:NE","0.9","2","0","191426","677","5678","19949","1","4","4","6","1","1","1","2","1","0.015151515151515152","1343","3000","1430","[""down"",""left""]","{""num_key_presses"":4,""num_perfect"":4,""num_errors"":0,""num_randdir"":0,""num_randdir_good_moves"":0,""num_whilered"":0,""num_whileblue"":0,""num_blue"":1,""num_good_moves"":4}","[553.4285714285714,565.1285683768136,0,553.4285714285714,565.1285683768136,100,553.4285714285714,565.1285683768136,205,553.4285714285714,565.1285683768136,308,553.4285714285714,565.1285683768136,412,553.4285714285714,565.1285683768136,513,493.42857142857144,629.1285683768136,615,312.42857142857144,922.1285683768136,716,268.42857142857144,978.1285683768136,816,231.42857142857144,992.1285683768136,918,156.42857142857144,1024.1285683768135,1023,146.42857142857144,1027.1285683768135,1125,150.42857142857144,1027.1285683768135,1229,155.42857142857144,1027.1285683768135,1335,155.42857142857144,1026.1285683768135,1436,155.42857142857144,1026.1285683768135,1539,152.42857142857144,1026.1285683768135,1644,388.42857142857144,1030.1285683768135,1745,1707.4285714285713,780.1285683768136,1845,1812.4285714285713,734.1285683768136,1947,1804.4285714285713,731.1285683768136,2051,1804.4285714285713,731.1285683768136,2151,1803.4285714285713,732.1285683768136,2252,1803.4285714285713,732.1285683768136,2355,1803.4285714285713,732.1285683768136,2458,1803.4285714285713,732.1285683768136,2561,1803.4285714285713,732.1285683768136,2664,1803.4285714285713,732.1285683768136,2768,1803.4285714285713,732.1285683768136,2870,1803.4285714285713,732.1285683768136,2972,1803.4285714285713,732.1285683768136,3074,1803.4285714285713,732.1285683768136,3177,1803.4285714285713,732.1285683768136,3282,1803.4285714285713,732.1285683768136,3384,1803.4285714285713,732.1285683768136,3489,1803.4285714285713,732.1285683768136,3590,1803.4285714285713,732.1285683768136,3693,1803.4285714285713,732.1285683768136,3794,1803.4285714285713,732.1285683768136,3899,1803.4285714285713,732.1285683768136,3999,1803.4285714285713,732.1285683768136,4103,1803.4285714285713,732.1285683768136,4204,1803.4285714285713,732.1285683768136,4307,1803.4285714285713,732.1285683768136,4407,1803.4285714285713,732.1285683768136,4511,1803.4285714285713,732.1285683768136,4611,1803.4285714285713,732.1285683768136,4711,1803.4285714285713,732.1285683768136,4815,1803.4285714285713,732.1285683768136,4917]","[1593,1593,1000,0,593,""smooth"",""left"",""left"",""good_move"",4919,3326,2901.5,1594,423.5,""smooth"",""left"",""left"",""good_move"",8520,3601,3111.8,4920,488.2,""smooth"",""down"",""down"",""good_move"",14170,5650,2155.2,11643,371.8,""smooth"",""down"",""down"",""good_move""]"
"4851","","<div style=""width:500px;"">
  <p>What determined the result of this run?</p>
  </div>","100","html-slider-response","19","216870","0.0-7.0-1.1","128","1","2025-08-06 08:50:25","36c45c0696341be0efffe67d72a12abb","178.212.218.13","Mozilla/5.0 (Windows NT 10.0; Win64; x64; rv:141.0) Gecko/20100101 Firefox/141.0","","Firefox","141.0","Windows","10.0","https://app.prolific.com/","pl,en-US;q=0.7,en;q=0.3","5c2b339a85602a00012ffedd","6877649eabb845cf142cd221","6893174bb1dd58e9ab54029d","1","5c2b339a85602a00012ffedd","1","2025-08-06T08:54:04.053Z","","","","AttribQ","","","","","","","","","","","50","","","","","","","","","","","","","","","","","","","","","","","","","","",""
"1111","","<div style=""width:500px;"">
  <p>How much control did you have over the ball?</p>
  </div>","82","html-slider-response","20","217982","0.0-7.0-2.1","128","1","2025-08-06 08:50:25","36c45c0696341be0efffe67d72a12abb","178.212.218.13","Mozilla/5.0 (Windows NT 10.0; Win64; x64; rv:141.0) Gecko/20100101 Firefox/141.0","","Firefox","141.0","Windows","10.0","https://app.prolific.com/","pl,en-US;q=0.7,en;q=0.3","5c2b339a85602a00012ffedd","6877649eabb845cf142cd221","6893174bb1dd58e9ab54029d","1","5c2b339a85602a00012ffedd","1","2025-08-06T08:54:05.165Z","","","","ControlQ","","","","","","","","","","","50","","","","","","","","","","","","","","","","","","","","","","","","","","",""
"2732","","<div style=""width:500px;"">
  <p>How would you describe your current emotional state?</p>
  </div>","39","html-slider-response","21","220715","0.0-7.0-3.1","128","1","2025-08-06 08:50:25","36c45c0696341be0efffe67d72a12abb","178.212.218.13","Mozilla/5.0 (Windows NT 10.0; Win64; x64; rv:141.0) Gecko/20100101 Firefox/141.0","","Firefox","141.0","Windows","10.0","https://app.prolific.com/","pl,en-US;q=0.7,en;q=0.3","5c2b339a85602a00012ffedd","6877649eabb845cf142cd221","6893174bb1dd58e9ab54029d","1","5c2b339a85602a00012ffedd","1","2025-08-06T08:54:07.898Z","","","","StressQ","","","","","","","","","","","50","","","","","","","","","","","","","","","","","","","","","","","","","","",""
"1797","","<div style=""width:500px;"">
  <p>What best describes how you currently feel?</p>
  </div>","39","html-slider-response","22","222512","0.0-7.0-4.1","128","1","2025-08-06 08:50:25","36c45c0696341be0efffe67d72a12abb","178.212.218.13","Mozilla/5.0 (Windows NT 10.0; Win64; x64; rv:141.0) Gecko/20100101 Firefox/141.0","","Firefox","141.0","Windows","10.0","https://app.prolific.com/","pl,en-US;q=0.7,en;q=0.3","5c2b339a85602a00012ffedd","6877649eabb845cf142cd221","6893174bb1dd58e9ab54029d","1","5c2b339a85602a00012ffedd","1","2025-08-06T08:54:09.695Z","","","","MotivationQ","","","","","","","","","","","50","","","","","","","","","","","","","","","","","","","","","","","","","","",""
"","","","","ctl-task-cpt","23","246831","0.0-7.0-0.2","128","1","2025-08-06 08:50:25","36c45c0696341be0efffe67d72a12abb","178.212.218.13","Mozilla/5.0 (Windows NT 10.0; Win64; x64; rv:141.0) Gecko/20100101 Firefox/141.0","","Firefox","141.0","Windows","10.0","https://app.prolific.com/","pl,en-US;q=0.7,en;q=0.3","5c2b339a85602a00012ffedd","6877649eabb845cf142cd221","6893174bb1dd58e9ab54029d","1","5c2b339a85602a00012ffedd","1","2025-08-06T08:54:34.015Z","","","","","","","","","","","","","","","","win-only","1","g1:NE,g2:SW","0.8","3","0","224873","666","5668","21314","1","4","4","6","2","4","4","6","2","0.045454545454545456","1253","3000","865","[""down"",""left""]","{""num_key_presses"":6,""num_perfect"":6,""num_errors"":0,""num_randdir"":0,""num_randdir_good_moves"":0,""num_whilered"":0,""num_whileblue"":0,""num_blue"":0,""num_good_moves"":6}","[552.4285714285714,558.1285683768136,0,552.4285714285714,557.1285683768136,102,552.4285714285714,557.1285683768136,202,552.4285714285714,557.1285683768136,306,552.4285714285714,557.1285683768136,407,552.4285714285714,557.1285683768136,511,552.4285714285714,557.1285683768136,613,552.4285714285714,557.1285683768136,715,366.42857142857144,855.1285683768136,820,165.42857142857144,1009.1285683768136,924,74.42857142857143,1036.1285683768135,1027,91.42857142857143,1030.1285683768135,1128,121.42857142857143,995.1285683768136,1230,121.42857142857143,993.1285683768136,1330,121.42857142857143,993.1285683768136,1432,121.42857142857143,993.1285683768136,1536,121.42857142857143,993.1285683768136,1636,121.42857142857143,993.1285683768136,1736,121.42857142857143,993.1285683768136,1842,121.42857142857143,993.1285683768136,1947,121.42857142857143,993.1285683768136,2049,121.42857142857143,993.1285683768136,2155,121.42857142857143,993.1285683768136,2259,121.42857142857143,993.1285683768136,2359,121.42857142857143,993.1285683768136,2462,200.42857142857144,1001.1285683768136,2564,1809.4285714285713,870.1285683768136,2670,1826.4285714285713,834.1285683768136,2774,1818.4285714285713,836.1285683768136,2876,1818.4285714285713,836.1285683768136,2976,1818.4285714285713,836.1285683768136,3076,1818.4285714285713,836.1285683768136,3182,1818.4285714285713,836.1285683768136,3282,1818.4285714285713,836.1285683768136,3383,1818.4285714285713,836.1285683768136,3485,1818.4285714285713,836.1285683768136,3585,1818.4285714285713,836.1285683768136,3690,1818.4285714285713,836.1285683768136,3796,1818.4285714285713,836.1285683768136,3897,1818.4285714285713,836.1285683768136,3997,1818.4285714285713,836.1285683768136,4099,1818.4285714285713,836.1285683768136,4204,1818.4285714285713,836.1285683768136,4308,1818.4285714285713,836.1285683768136,4410,1818.4285714285713,836.1285683768136,4510,1818.4285714285713,836.1285683768136,4614,1818.4285714285713,836.1285683768136,4718,1818.4285714285713,836.1285683768136,4822,1818.4285714285713,836.1285683768136,4927]","[1739,1739,1000,0,739,""smooth"",""left"",""left"",""good_move"",3760,2021,1582,1739,439,""smooth"",""left"",""left"",""good_move"",6223,2463,2071.1,3760,391.9,""smooth"",""left"",""left"",""good_move"",9667,3444,3068.4,6223,375.6,""smooth"",""down"",""down"",""good_move"",12889,3221,2896.8,9668,324.2,""smooth"",""down"",""down"",""good_move"",15546,2657,2298.9,12889,359.1,""smooth"",""down"",""down"",""good_move""]"
"2309","","<div style=""width:500px;"">
  <p>What determined the result of this run?</p>
  </div>","100","html-slider-response","24","249143","0.0-7.0-1.2","128","1","2025-08-06 08:50:25","36c45c0696341be0efffe67d72a12abb","178.212.218.13","Mozilla/5.0 (Windows NT 10.0; Win64; x64; rv:141.0) Gecko/20100101 Firefox/141.0","","Firefox","141.0","Windows","10.0","https://app.prolific.com/","pl,en-US;q=0.7,en;q=0.3","5c2b339a85602a00012ffedd","6877649eabb845cf142cd221","6893174bb1dd58e9ab54029d","1","5c2b339a85602a00012ffedd","1","2025-08-06T08:54:36.326Z","","","","AttribQ","","","","","","","","","","","50","","","","","","","","","","","","","","","","","","","","","","","","","","",""
"1637","","<div style=""width:500px;"">
  <p>How much control did you have over the ball?</p>
  </div>","94","html-slider-response","25","250781","0.0-7.0-2.2","128","1","2025-08-06 08:50:25","36c45c0696341be0efffe67d72a12abb","178.212.218.13","Mozilla/5.0 (Windows NT 10.0; Win64; x64; rv:141.0) Gecko/20100101 Firefox/141.0","","Firefox","141.0","Windows","10.0","https://app.prolific.com/","pl,en-US;q=0.7,en;q=0.3","5c2b339a85602a00012ffedd","6877649eabb845cf142cd221","6893174bb1dd58e9ab54029d","1","5c2b339a85602a00012ffedd","1","2025-08-06T08:54:37.964Z","","","","ControlQ","","","","","","","","","","","50","","","","","","","","","","","","","","","","","","","","","","","","","","",""
"2531","","<div style=""width:500px;"">
  <p>How would you describe your current emotional state?</p>
  </div>","30","html-slider-response","26","253313","0.0-7.0-3.2","128","1","2025-08-06 08:50:25","36c45c0696341be0efffe67d72a12abb","178.212.218.13","Mozilla/5.0 (Windows NT 10.0; Win64; x64; rv:141.0) Gecko/20100101 Firefox/141.0","","Firefox","141.0","Windows","10.0","https://app.prolific.com/","pl,en-US;q=0.7,en;q=0.3","5c2b339a85602a00012ffedd","6877649eabb845cf142cd221","6893174bb1dd58e9ab54029d","1","5c2b339a85602a00012ffedd","1","2025-08-06T08:54:40.496Z","","","","StressQ","","","","","","","","","","","50","","","","","","","","","","","","","","","","","","","","","","","","","","",""
"2305","","<div style=""width:500px;"">
  <p>What best describes how you currently feel?</p>
  </div>","61","html-slider-response","27","255620","0.0-7.0-4.2","128","1","2025-08-06 08:50:25","36c45c0696341be0efffe67d72a12abb","178.212.218.13","Mozilla/5.0 (Windows NT 10.0; Win64; x64; rv:141.0) Gecko/20100101 Firefox/141.0","","Firefox","141.0","Windows","10.0","https://app.prolific.com/","pl,en-US;q=0.7,en;q=0.3","5c2b339a85602a00012ffedd","6877649eabb845cf142cd221","6893174bb1dd58e9ab54029d","1","5c2b339a85602a00012ffedd","1","2025-08-06T08:54:42.803Z","","","","MotivationQ","","","","","","","","","","","50","","","","","","","","","","","","","","","","","","","","","","","","","","",""
"","","","","ctl-task-cpt","28","281543","0.0-7.0-0.3","128","1","2025-08-06 08:50:25","36c45c0696341be0efffe67d72a12abb","178.212.218.13","Mozilla/5.0 (Windows NT 10.0; Win64; x64; rv:141.0) Gecko/20100101 Firefox/141.0","","Firefox","141.0","Windows","10.0","https://app.prolific.com/","pl,en-US;q=0.7,en;q=0.3","5c2b339a85602a00012ffedd","6877649eabb845cf142cd221","6893174bb1dd58e9ab54029d","1","5c2b339a85602a00012ffedd","1","2025-08-06T08:55:08.726Z","","","","","","","","","","","","","","","","win-only","2","g1:SE,g2:NW","0.7","4","0","257980","994","5997","22920","1","4","8","6","1","1","1","7","6","0.05303030303030303","1603","3000","970","[""down"",""right""]","{""num_key_presses"":6,""num_perfect"":4,""num_errors"":0,""num_randdir"":2,""num_randdir_good_moves"":1,""num_whilered"":0,""num_whileblue"":0,""num_blue"":0,""num_good_moves"":5}","[549.4285714285714,541.1285683768136,0,549.4285714285714,541.1285683768136,101,549.4285714285714,541.1285683768136,204,549.4285714285714,541.1285683768136,306,549.4285714285714,541.1285683768136,408,549.4285714285714,541.1285683768136,509,549.4285714285714,541.1285683768136,613,549.4285714285714,541.1285683768136,716,549.4285714285714,541.1285683768136,818,549.4285714285714,541.1285683768136,920,549.4285714285714,541.1285683768136,1021,549.4285714285714,541.1285683768136,1121,659.4285714285714,711.1285683768136,1222,1172.4285714285713,1062.1285683768135,1323,1082.4285714285713,1039.1285683768135,1428,1045.4285714285713,1020.1285683768136,1532,1044.4285714285713,1019.1285683768136,1635,1044.4285714285713,1019.1285683768136,1740,1044.4285714285713,1019.1285683768136,1842,1044.4285714285713,1019.1285683768136,1942,1044.4285714285713,1019.1285683768136,2046,1044.4285714285713,1019.1285683768136,2150,1044.4285714285713,1019.1285683768136,2252,1044.4285714285713,1019.1285683768136,2353,1044.4285714285713,1019.1285683768136,2455,1044.4285714285713,1019.1285683768136,2556,1044.4285714285713,1019.1285683768136,2659,1044.4285714285713,1019.1285683768136,2764,1044.4285714285713,1019.1285683768136,2865,1044.4285714285713,1019.1285683768136,2967,1044.4285714285713,1019.1285683768136,3072,1044.4285714285713,1019.1285683768136,3248,1044.4285714285713,1019.1285683768136,3350,1044.4285714285713,1019.1285683768136,3450,1044.4285714285713,1019.1285683768136,3551,1044.4285714285713,1019.1285683768136,3652,1044.4285714285713,1019.1285683768136,3756,1044.4285714285713,1019.1285683768136,3861,1044.4285714285713,1019.1285683768136,3964,1044.4285714285713,1019.1285683768136,4065,1044.4285714285713,1019.1285683768136,4167,1044.4285714285713,1019.1285683768136,4271,1044.4285714285713,1019.1285683768136,4373,1044.4285714285713,1019.1285683768136,4477,1044.4285714285713,1019.1285683768136,4579,1044.4285714285713,1019.1285683768136,4680,1044.4285714285713,1019.1285683768136,4784,1044.4285714285713,1019.1285683768136,4884,1044.4285714285713,1019.1285683768136,4985]","[1425,1425,1000,0,425,""oops"",""down"",""up"",""bad_move"",3843,2418,1998.8,1425,419.2,""smooth"",""down"",""down"",""good_move"",7244,3401,3049.4,3843,351.6,""smooth"",""down"",""down"",""good_move"",9749,2505,2091.4,7245,412.6,""oops"",""down"",""down"",""good_move"",13398,3649,3157.5,9749,491.5,""smooth"",""right"",""right"",""good_move"",16815,3417,3010.9,13398,406.1,""smooth"",""right"",""right"",""good_move""]"
"4480","","<div style=""width:500px;"">
  <p>What determined the result of this run?</p>
  </div>","71","html-slider-response","29","286026","0.0-7.0-1.3","128","1","2025-08-06 08:50:25","36c45c0696341be0efffe67d72a12abb","178.212.218.13","Mozilla/5.0 (Windows NT 10.0; Win64; x64; rv:141.0) Gecko/20100101 Firefox/141.0","","Firefox","141.0","Windows","10.0","https://app.prolific.com/","pl,en-US;q=0.7,en;q=0.3","5c2b339a85602a00012ffedd","6877649eabb845cf142cd221","6893174bb1dd58e9ab54029d","1","5c2b339a85602a00012ffedd","1","2025-08-06T08:55:13.209Z","","","","AttribQ","","","","","","","","","","","50","","","","","","","","","","","","","","","","","","","","","","","","","","",""
"1437","","<div style=""width:500px;"">
  <p>How much control did you have over the ball?</p>
  </div>","57","html-slider-response","30","287465","0.0-7.0-2.3","128","1","2025-08-06 08:50:25","36c45c0696341be0efffe67d72a12abb","178.212.218.13","Mozilla/5.0 (Windows NT 10.0; Win64; x64; rv:141.0) Gecko/20100101 Firefox/141.0","","Firefox","141.0","Windows","10.0","https://app.prolific.com/","pl,en-US;q=0.7,en;q=0.3","5c2b339a85602a00012ffedd","6877649eabb845cf142cd221","6893174bb1dd58e9ab54029d","1","5c2b339a85602a00012ffedd","1","2025-08-06T08:55:14.648Z","","","","ControlQ","","","","","","","","","","","50","","","","","","","","","","","","","","","","","","","","","","","","","","",""
"1547","","<div style=""width:500px;"">
  <p>How would you describe your current emotional state?</p>
  </div>","42","html-slider-response","31","289013","0.0-7.0-3.3","128","1","2025-08-06 08:50:25","36c45c0696341be0efffe67d72a12abb","178.212.218.13","Mozilla/5.0 (Windows NT 10.0; Win64; x64; rv:141.0) Gecko/20100101 Firefox/141.0","","Firefox","141.0","Windows","10.0","https://app.prolific.com/","pl,en-US;q=0.7,en;q=0.3","5c2b339a85602a00012ffedd","6877649eabb845cf142cd221","6893174bb1dd58e9ab54029d","1","5c2b339a85602a00012ffedd","1","2025-08-06T08:55:16.196Z","","","","StressQ","","","","","","","","","","","50","","","","","","","","","","","","","","","","","","","","","","","","","","",""
"2069","","<div style=""width:500px;"">
  <p>What best describes how you currently feel?</p>
  </div>","70","html-slider-response","32","291082","0.0-7.0-4.3","128","1","2025-08-06 08:50:25","36c45c0696341be0efffe67d72a12abb","178.212.218.13","Mozilla/5.0 (Windows NT 10.0; Win64; x64; rv:141.0) Gecko/20100101 Firefox/141.0","","Firefox","141.0","Windows","10.0","https://app.prolific.com/","pl,en-US;q=0.7,en;q=0.3","5c2b339a85602a00012ffedd","6877649eabb845cf142cd221","6893174bb1dd58e9ab54029d","1","5c2b339a85602a00012ffedd","1","2025-08-06T08:55:18.265Z","","","","MotivationQ","","","","","","","","","","","50","","","","","","","","","","","","","","","","","","","","","","","","","","",""
"","","","","ctl-task-cpt","33","328755","0.0-7.0-0.4","128","1","2025-08-06 08:50:25","36c45c0696341be0efffe67d72a12abb","178.212.218.13","Mozilla/5.0 (Windows NT 10.0; Win64; x64; rv:141.0) Gecko/20100101 Firefox/141.0","","Firefox","141.0","Windows","10.0","https://app.prolific.com/","pl,en-US;q=0.7,en;q=0.3","5c2b339a85602a00012ffedd","6877649eabb845cf142cd221","6893174bb1dd58e9ab54029d","1","5c2b339a85602a00012ffedd","1","2025-08-06T08:55:55.938Z","","","","","","","","","","","","","","","","win-only","1","g1:NE,g2:SW","0.6","5","0","293442","651","5654","34671","1","4","4","6","1","-1","-2","5","7","0.03787878787878788","1800","3000","-2555","[""up"",""right""]","{""num_key_presses"":8,""num_perfect"":4,""num_errors"":1,""num_randdir"":3,""num_randdir_good_moves"":1,""num_whilered"":0,""num_whileblue"":1,""num_blue"":2,""num_good_moves"":5}","[553.4285714285714,564.1285683768136,0,553.4285714285714,564.1285683768136,104,553.4285714285714,564.1285683768136,206,552.4285714285714,564.1285683768136,306,552.4285714285714,564.1285683768136,406,552.4285714285714,564.1285683768136,510,552.4285714285714,564.1285683768136,615,644.4285714285714,479.12856837681363,717,510.42857142857144,543.1285683768136,820,250.42857142857144,915.1285683768136,924,165.42857142857144,982.1285683768136,1024,151.42857142857144,987.1285683768136,1125,172.42857142857144,956.1285683768136,1226,718.4285714285714,418.12856837681363,1329,762.4285714285714,330.12856837681363,1429,875.4285714285714,216.12856837681363,1533,922.4285714285714,157.12856837681363,1633,995.4285714285714,83.12856837681362,1736,1020.4285714285714,60.12856837681362,1838,1020.4285714285714,60.12856837681362,1941,1020.4285714285714,60.12856837681362,2042,1122.4285714285713,90.12856837681362,2146,1653.4285714285713,220.12856837681363,2251,1704.4285714285713,235.12856837681363,2351,1704.4285714285713,236.12856837681363,2455,1704.4285714285713,236.12856837681363,2560,1704.4285714285713,236.12856837681363,2662,1704.4285714285713,236.12856837681363,2767,1704.4285714285713,236.12856837681363,2867,1704.4285714285713,236.12856837681363,2971,1704.4285714285713,236.12856837681363,3071,1704.4285714285713,236.12856837681363,3173,1704.4285714285713,236.12856837681363,3279,1704.4285714285713,236.12856837681363,3380,1704.4285714285713,236.12856837681363,3483,1704.4285714285713,236.12856837681363,3586,1704.4285714285713,236.12856837681363,3690,1704.4285714285713,236.12856837681363,3792,1704.4285714285713,236.12856837681363,3892,1704.4285714285713,236.12856837681363,3995,1704.4285714285713,236.12856837681363,4095,1704.4285714285713,236.12856837681363,4196,1704.4285714285713,236.12856837681363,4297,1704.4285714285713,236.12856837681363,4402,1704.4285714285713,236.12856837681363,4507,1704.4285714285713,236.12856837681363,4611,1704.4285714285713,236.12856837681363,4715,1704.4285714285713,236.12856837681363,4818,1704.4285714285713,236.12856837681363,4920]","[1561,1561,1000,0,561,""smooth"",""up"",""up"",""good_move"",4041,2481,2107.7,1561,373.3,""smooth"",""up"",""up"",""good_move"",6742,2700,2293.6,4042,406.4,""oops"",""right"",""down"",""bad_move"",9902,3159,2634.2,6743,524.8,""oops"",""right"",""right"",""good_move"",12283,2381,1984.2,9902,396.8,""oops"",""right"",""down"",""bad_move"",15071,2788,2414,12283,374,""while_blue"",""up"",""down"",""bad_move"",18307,3236,2622.3,15071,613.7,""smooth"",""up"",""up"",""good_move"",21702,3395,2984.4,18308,409.6,""smooth"",""up"",""up"",""good_move""]"
"3032","","<div style=""width:500px;"">
  <p>What determined the result of this run?</p>
  </div>","13","html-slider-response","34","331787","0.0-7.0-1.4","128","1","2025-08-06 08:50:25","36c45c0696341be0efffe67d72a12abb","178.212.218.13","Mozilla/5.0 (Windows NT 10.0; Win64; x64; rv:141.0) Gecko/20100101 Firefox/141.0","","Firefox","141.0","Windows","10.0","https://app.prolific.com/","pl,en-US;q=0.7,en;q=0.3","5c2b339a85602a00012ffedd","6877649eabb845cf142cd221","6893174bb1dd58e9ab54029d","1","5c2b339a85602a00012ffedd","1","2025-08-06T08:55:58.970Z","","","","AttribQ","","","","","","","","","","","50","","","","","","","","","","","","","","","","","","","","","","","","","","",""
"1726","","<div style=""width:500px;"">
  <p>How much control did you have over the ball?</p>
  </div>","27","html-slider-response","35","333515","0.0-7.0-2.4","128","1","2025-08-06 08:50:25","36c45c0696341be0efffe67d72a12abb","178.212.218.13","Mozilla/5.0 (Windows NT 10.0; Win64; x64; rv:141.0) Gecko/20100101 Firefox/141.0","","Firefox","141.0","Windows","10.0","https://app.prolific.com/","pl,en-US;q=0.7,en;q=0.3","5c2b339a85602a00012ffedd","6877649eabb845cf142cd221","6893174bb1dd58e9ab54029d","1","5c2b339a85602a00012ffedd","1","2025-08-06T08:56:00.698Z","","","","ControlQ","","","","","","","","","","","50","","","","","","","","","","","","","","","","","","","","","","","","","","",""
"1804","","<div style=""width:500px;"">
  <p>How would you describe your current emotional state?</p>
  </div>","66","html-slider-response","36","335320","0.0-7.0-3.4","128","1","2025-08-06 08:50:25","36c45c0696341be0efffe67d72a12abb","178.212.218.13","Mozilla/5.0 (Windows NT 10.0; Win64; x64; rv:141.0) Gecko/20100101 Firefox/141.0","","Firefox","141.0","Windows","10.0","https://app.prolific.com/","pl,en-US;q=0.7,en;q=0.3","5c2b339a85602a00012ffedd","6877649eabb845cf142cd221","6893174bb1dd58e9ab54029d","1","5c2b339a85602a00012ffedd","1","2025-08-06T08:56:02.503Z","","","","StressQ","","","","","","","","","","","50","","","","","","","","","","","","","","","","","","","","","","","","","","",""
"1551","","<div style=""width:500px;"">
  <p>What best describes how you currently feel?</p>
  </div>","58","html-slider-response","37","336874","0.0-7.0-4.4","128","1","2025-08-06 08:50:25","36c45c0696341be0efffe67d72a12abb","178.212.218.13","Mozilla/5.0 (Windows NT 10.0; Win64; x64; rv:141.0) Gecko/20100101 Firefox/141.0","","Firefox","141.0","Windows","10.0","https://app.prolific.com/","pl,en-US;q=0.7,en;q=0.3","5c2b339a85602a00012ffedd","6877649eabb845cf142cd221","6893174bb1dd58e9ab54029d","1","5c2b339a85602a00012ffedd","1","2025-08-06T08:56:04.057Z","","","","MotivationQ","","","","","","","","","","","50","","","","","","","","","","","","","","","","","","","","","","","","","","",""
"","","","","ctl-task-cpt","38","377631","0.0-7.0-0.5","128","1","2025-08-06 08:50:25","36c45c0696341be0efffe67d72a12abb","178.212.218.13","Mozilla/5.0 (Windows NT 10.0; Win64; x64; rv:141.0) Gecko/20100101 Firefox/141.0","","Firefox","141.0","Windows","10.0","https://app.prolific.com/","pl,en-US;q=0.7,en;q=0.3","5c2b339a85602a00012ffedd","6877649eabb845cf142cd221","6893174bb1dd58e9ab54029d","1","5c2b339a85602a00012ffedd","1","2025-08-06T08:56:44.814Z","","","","","","","","","","","","","","","","win-only","2","g1:SE,g2:NW","0.5","6","0","339234","597","5603","37754","1","4","8","6","1","-1","-1","4","5","0.030303030303030304","982","3000","-2540","[""down"",""right""]","{""num_key_presses"":8,""num_perfect"":4,""num_errors"":0,""num_randdir"":4,""num_randdir_good_moves"":1,""num_whilered"":0,""num_whileblue"":0,""num_blue"":2,""num_good_moves"":5}","[555.4285714285714,543.1285683768136,0,555.4285714285714,543.1285683768136,106,555.4285714285714,543.1285683768136,207,555.4285714285714,543.1285683768136,309,555.4285714285714,543.1285683768136,410,555.4285714285714,543.1285683768136,512,599.4285714285714,604.1285683768136,614,940.4285714285714,974.1285683768136,715,1013.4285714285714,999.1285683768136,817,1008.4285714285714,972.1285683768136,919,1008.4285714285714,972.1285683768136,1020,1008.4285714285714,972.1285683768136,1125,1008.4285714285714,972.1285683768136,1225,1008.4285714285714,972.1285683768136,1326,1008.4285714285714,972.1285683768136,1428,1008.4285714285714,972.1285683768136,1529,1008.4285714285714,972.1285683768136,1629,1009.4285714285714,972.1285683768136,1729,1009.4285714285714,972.1285683768136,1834,1010.4285714285714,972.1285683768136,1937,1010.4285714285714,972.1285683768136,2039,1010.4285714285714,972.1285683768136,2142,1010.4285714285714,972.1285683768136,2244,1010.4285714285714,972.1285683768136,2346,1010.4285714285714,972.1285683768136,2448,1010.4285714285714,972.1285683768136,2550,1010.4285714285714,972.1285683768136,2652,1010.4285714285714,972.1285683768136,2753,1010.4285714285714,972.1285683768136,2854,1010.4285714285714,972.1285683768136,2955,1010.4285714285714,972.1285683768136,3056,1010.4285714285714,972.1285683768136,3157,1010.4285714285714,972.1285683768136,3258,1010.4285714285714,972.1285683768136,3360,1010.4285714285714,972.1285683768136,3460,1010.4285714285714,972.1285683768136,3560,1010.4285714285714,972.1285683768136,3663,1010.4285714285714,972.1285683768136,3763,1010.4285714285714,972.1285683768136,3863,1010.4285714285714,972.1285683768136,3965,1010.4285714285714,972.1285683768136,4069,1067.4285714285713,953.1285683768136,4175,1190.4285714285713,865.1285683768136,4278,1261.4285714285713,800.1285683768136,4383,1294.4285714285713,795.1285683768136,4487,1294.4285714285713,795.1285683768136,4592,1294.4285714285713,795.1285683768136,4696,1294.4285714285713,795.1285683768136,4799,1294.4285714285713,795.1285683768136,4900,1294.4285714285713,795.1285683768136,5000]","[1474,1474,1000,0,474,""smooth"",""right"",""right"",""good_move"",4434,2960,2598.8,1475,360.2,""smooth"",""right"",""right"",""good_move"",7886,3452,3062,4434,390,""oops"",""down"",""down"",""good_move"",10711,2825,2469.4,7886,355.6,""oops"",""down"",""up"",""bad_move"",13796,3085,2692.9,10711,392.1,""smooth"",""down"",""down"",""good_move"",16513,2717,2325.4,13796,391.6,""oops"",""down"",""left"",""bad_move"",19693,3179,2642.9,16514,536.1,""smooth"",""down"",""down"",""good_move"",29603,9910,2518.9,26704,380.1,""oops"",""right"",""left"",""bad_move""]"
"1605","","<div style=""width:500px;"">
  <p>What determined the result of this run?</p>
  </div>","0","html-slider-response","39","379238","0.0-7.0-1.5","128","1","2025-08-06 08:50:25","36c45c0696341be0efffe67d72a12abb","178.212.218.13","Mozilla/5.0 (Windows NT 10.0; Win64; x64; rv:141.0) Gecko/20100101 Firefox/141.0","","Firefox","141.0","Windows","10.0","https://app.prolific.com/","pl,en-US;q=0.7,en;q=0.3","5c2b339a85602a00012ffedd","6877649eabb845cf142cd221","6893174bb1dd58e9ab54029d","1","5c2b339a85602a00012ffedd","1","2025-08-06T08:56:46.421Z","","","","AttribQ","","","","","","","","","","","50","","","","","","","","","","","","","","","","","","","","","","","","","","",""
"1512","","<div style=""width:500px;"">
  <p>How much control did you have over the ball?</p>
  </div>","0","html-slider-response","40","380751","0.0-7.0-2.5","128","1","2025-08-06 08:50:25","36c45c0696341be0efffe67d72a12abb","178.212.218.13","Mozilla/5.0 (Windows NT 10.0; Win64; x64; rv:141.0) Gecko/20100101 Firefox/141.0","","Firefox","141.0","Windows","10.0","https://app.prolific.com/","pl,en-US;q=0.7,en;q=0.3","5c2b339a85602a00012ffedd","6877649eabb845cf142cd221","6893174bb1dd58e9ab54029d","1","5c2b339a85602a00012ffedd","1","2025-08-06T08:56:47.934Z","","","","ControlQ","","","","","","","","","","","50","","","","","","","","","","","","","","","","","","","","","","","","","","",""
"1492","","<div style=""width:500px;"">
  <p>How would you describe your current emotional state?</p>
  </div>","78","html-slider-response","41","382243","0.0-7.0-3.5","128","1","2025-08-06 08:50:25","36c45c0696341be0efffe67d72a12abb","178.212.218.13","Mozilla/5.0 (Windows NT 10.0; Win64; x64; rv:141.0) Gecko/20100101 Firefox/141.0","","Firefox","141.0","Windows","10.0","https://app.prolific.com/","pl,en-US;q=0.7,en;q=0.3","5c2b339a85602a00012ffedd","6877649eabb845cf142cd221","6893174bb1dd58e9ab54029d","1","5c2b339a85602a00012ffedd","1","2025-08-06T08:56:49.426Z","","","","StressQ","","","","","","","","","","","50","","","","","","","","","","","","","","","","","","","","","","","","","","",""
"2453","","<div style=""width:500px;"">
  <p>What best describes how you currently feel?</p>
  </div>","37","html-slider-response","42","384697","0.0-7.0-4.5","128","1","2025-08-06 08:50:25","36c45c0696341be0efffe67d72a12abb","178.212.218.13","Mozilla/5.0 (Windows NT 10.0; Win64; x64; rv:141.0) Gecko/20100101 Firefox/141.0","","Firefox","141.0","Windows","10.0","https://app.prolific.com/","pl,en-US;q=0.7,en;q=0.3","5c2b339a85602a00012ffedd","6877649eabb845cf142cd221","6893174bb1dd58e9ab54029d","1","5c2b339a85602a00012ffedd","1","2025-08-06T08:56:51.880Z","","","","MotivationQ","","","","","","","","","","","50","","","","","","","","","","","","","","","","","","","","","","","","","","",""
"","","","","ctl-task-cpt","43","422216","0.0-7.0-0.6","128","1","2025-08-06 08:50:25","36c45c0696341be0efffe67d72a12abb","178.212.218.13","Mozilla/5.0 (Windows NT 10.0; Win64; x64; rv:141.0) Gecko/20100101 Firefox/141.0","","Firefox","141.0","Windows","10.0","https://app.prolific.com/","pl,en-US;q=0.7,en;q=0.3","5c2b339a85602a00012ffedd","6877649eabb845cf142cd221","6893174bb1dd58e9ab54029d","1","5c2b339a85602a00012ffedd","1","2025-08-06T08:57:29.399Z","","","","","","","","","","","","","","","","win-only","0","g1:NW,g2:SE","0.4","7","0","387058","610","5616","34514","1","4","8","6","1","-1","-1","3","4","0.022727272727272728","1239","3000","-2535","[""left"",""up""]","{""num_key_presses"":9,""num_perfect"":3,""num_errors"":0,""num_randdir"":6,""num_randdir_good_moves"":2,""num_whilered"":0,""num_whileblue"":0,""num_blue"":0,""num_good_moves"":5}","[557.4285714285714,565.1285683768136,0,557.4285714285714,565.1285683768136,104,557.4285714285714,565.1285683768136,208,557.4285714285714,565.1285683768136,312,557.4285714285714,565.1285683768136,412,557.4285714285714,565.1285683768136,512,557.4285714285714,565.1285683768136,615,517.4285714285714,553.1285683768136,719,259.42857142857144,389.12856837681363,824,164.42857142857144,266.12856837681363,925,140.42857142857144,220.12856837681363,1029,104.42857142857143,153.12856837681363,1130,95.42857142857143,97.12856837681362,1233,94.42857142857143,96.12856837681362,1334,94.42857142857143,96.12856837681362,1438,94.42857142857143,96.12856837681362,1541,94.42857142857143,96.12856837681362,1643,94.42857142857143,96.12856837681362,1747,94.42857142857143,96.12856837681362,1848,94.42857142857143,96.12856837681362,1948,94.42857142857143,97.12856837681362,2049,94.42857142857143,97.12856837681362,2151,94.42857142857143,97.12856837681362,2252,94.42857142857143,97.12856837681362,2356,94.42857142857143,97.12856837681362,2456,94.42857142857143,97.12856837681362,2560,94.42857142857143,97.12856837681362,2664,94.42857142857143,97.12856837681362,2769,94.42857142857143,97.12856837681362,2874,94.42857142857143,97.12856837681362,2978,94.42857142857143,97.12856837681362,3079,94.42857142857143,97.12856837681362,3179,94.42857142857143,97.12856837681362,3283,94.42857142857143,97.12856837681362,3389,94.42857142857143,97.12856837681362,3490,94.42857142857143,97.12856837681362,3590,94.42857142857143,97.12856837681362,3694,94.42857142857143,97.12856837681362,3799,94.42857142857143,97.12856837681362,3903,94.42857142857143,97.12856837681362,4009,94.42857142857143,97.12856837681362,4110,94.42857142857143,97.12856837681362,4214,94.42857142857143,97.12856837681362,4317,94.42857142857143,97.12856837681362,4419,94.42857142857143,97.12856837681362,4519,94.42857142857143,97.12856837681362,4624,94.42857142857143,97.12856837681362,4727,94.42857142857143,97.12856837681362,4829,94.42857142857143,97.12856837681362,4931]","[1486,1486,1000,0,486,""oops"",""up"",""right"",""bad_move"",4141,2655,2254.3,1486,400.7,""oops"",""up"",""down"",""bad_move"",6837,2696,2338.6,4141,357.4,""oops"",""up"",""left"",""good_move"",9840,3003,2679.7,6837,323.3,""oops"",""up"",""up"",""good_move"",12456,2615,2236.7,9841,378.3,""smooth"",""up"",""up"",""good_move"",16039,3582,3225.5,12457,356.5,""oops"",""up"",""right"",""bad_move"",19166,3127,2775.7,16039,351.3,""oops"",""up"",""down"",""bad_move"",22758,3592,3256,19166,336,""smooth"",""up"",""up"",""good_move"",26439,3681,3309.4,22758,371.6,""smooth"",""up"",""up"",""good_move""]"
"2080","","<div style=""width:500px;"">
  <p>What determined the result of this run?</p>
  </div>","0","html-slider-response","44","424299","0.0-7.0-1.6","128","1","2025-08-06 08:50:25","36c45c0696341be0efffe67d72a12abb","178.212.218.13","Mozilla/5.0 (Windows NT 10.0; Win64; x64; rv:141.0) Gecko/20100101 Firefox/141.0","","Firefox","141.0","Windows","10.0","https://app.prolific.com/","pl,en-US;q=0.7,en;q=0.3","5c2b339a85602a00012ffedd","6877649eabb845cf142cd221","6893174bb1dd58e9ab54029d","1","5c2b339a85602a00012ffedd","1","2025-08-06T08:57:31.482Z","","","","AttribQ","","","","","","","","","","","50","","","","","","","","","","","","","","","","","","","","","","","","","","",""
"1834","","<div style=""width:500px;"">
  <p>How much control did you have over the ball?</p>
  </div>","0","html-slider-response","45","426134","0.0-7.0-2.6","128","1","2025-08-06 08:50:25","36c45c0696341be0efffe67d72a12abb","178.212.218.13","Mozilla/5.0 (Windows NT 10.0; Win64; x64; rv:141.0) Gecko/20100101 Firefox/141.0","","Firefox","141.0","Windows","10.0","https://app.prolific.com/","pl,en-US;q=0.7,en;q=0.3","5c2b339a85602a00012ffedd","6877649eabb845cf142cd221","6893174bb1dd58e9ab54029d","1","5c2b339a85602a00012ffedd","1","2025-08-06T08:57:33.317Z","","","","ControlQ","","","","","","","","","","","50","","","","","","","","","","","","","","","","","","","","","","","","","","",""
"3238","","<div style=""width:500px;"">
  <p>How would you describe your current emotional state?</p>
  </div>","62","html-slider-response","46","429373","0.0-7.0-3.6","128","1","2025-08-06 08:50:25","36c45c0696341be0efffe67d72a12abb","178.212.218.13","Mozilla/5.0 (Windows NT 10.0; Win64; x64; rv:141.0) Gecko/20100101 Firefox/141.0","","Firefox","141.0","Windows","10.0","https://app.prolific.com/","pl,en-US;q=0.7,en;q=0.3","5c2b339a85602a00012ffedd","6877649eabb845cf142cd221","6893174bb1dd58e9ab54029d","1","5c2b339a85602a00012ffedd","1","2025-08-06T08:57:36.556Z","","","","StressQ","","","","","","","","","","","50","","","","","","","","","","","","","","","","","","","","","","","","","","",""
"1330","","<div style=""width:500px;"">
  <p>What best describes how you currently feel?</p>
  </div>","70","html-slider-response","47","430703","0.0-7.0-4.6","128","1","2025-08-06 08:50:25","36c45c0696341be0efffe67d72a12abb","178.212.218.13","Mozilla/5.0 (Windows NT 10.0; Win64; x64; rv:141.0) Gecko/20100101 Firefox/141.0","","Firefox","141.0","Windows","10.0","https://app.prolific.com/","pl,en-US;q=0.7,en;q=0.3","5c2b339a85602a00012ffedd","6877649eabb845cf142cd221","6893174bb1dd58e9ab54029d","1","5c2b339a85602a00012ffedd","1","2025-08-06T08:57:37.886Z","","","","MotivationQ","","","","","","","","","","","50","","","","","","","","","","","","","","","","","","","","","","","","","","",""
"","","","","ctl-task-cpt","48","466554","0.0-7.0-0.7","128","1","2025-08-06 08:50:25","36c45c0696341be0efffe67d72a12abb","178.212.218.13","Mozilla/5.0 (Windows NT 10.0; Win64; x64; rv:141.0) Gecko/20100101 Firefox/141.0","","Firefox","141.0","Windows","10.0","https://app.prolific.com/","pl,en-US;q=0.7,en;q=0.3","5c2b339a85602a00012ffedd","6877649eabb845cf142cd221","6893174bb1dd58e9ab54029d","1","5c2b339a85602a00012ffedd","1","2025-08-06T08:58:13.737Z","","","","","","","","","","","","","","","","win-only","0","g1:NW,g2:SE","0.3","8","0","433064","1013","6014","32848","1","4","4","6","2","-4","-4","0","3","0","961","3000","-2520","[""down"",""right""]","{""num_key_presses"":9,""num_perfect"":3,""num_errors"":0,""num_randdir"":6,""num_randdir_good_moves"":3,""num_whilered"":0,""num_whileblue"":0,""num_blue"":0,""num_good_moves"":6}","[557.4285714285714,554.1285683768136,0,557.4285714285714,554.1285683768136,104,557.4285714285714,554.1285683768136,206,557.4285714285714,554.1285683768136,312,557.4285714285714,554.1285683768136,414,611.4285714285714,676.1285683768136,515,986.4285714285714,953.1285683768136,619,981.4285714285714,947.1285683768136,721,981.4285714285714,949.1285683768136,826,977.4285714285714,952.1285683768136,930,976.4285714285714,954.1285683768136,1030,961.4285714285714,978.1285683768136,1134,961.4285714285714,978.1285683768136,1235,961.4285714285714,978.1285683768136,1335,961.4285714285714,978.1285683768136,1435,961.4285714285714,978.1285683768136,1535,961.4285714285714,978.1285683768136,1640,961.4285714285714,978.1285683768136,1740,961.4285714285714,978.1285683768136,1843,961.4285714285714,978.1285683768136,1944,1242.4285714285713,800.1285683768136,2049,1615.4285714285713,598.1285683768136,2151,1615.4285714285713,598.1285683768136,2252,1615.4285714285713,598.1285683768136,2356,1615.4285714285713,598.1285683768136,2460,1615.4285714285713,598.1285683768136,2561,1615.4285714285713,598.1285683768136,2662,1615.4285714285713,598.1285683768136,2764,1615.4285714285713,598.1285683768136,2864,1615.4285714285713,598.1285683768136,2965,1615.4285714285713,598.1285683768136,3066,1615.4285714285713,598.1285683768136,3170,1615.4285714285713,598.1285683768136,3273,1615.4285714285713,598.1285683768136,3376,1615.4285714285713,598.1285683768136,3481,1615.4285714285713,598.1285683768136,3586,1615.4285714285713,598.1285683768136,3691,1615.4285714285713,598.1285683768136,3791,1615.4285714285713,598.1285683768136,3893,1615.4285714285713,598.1285683768136,3998,1615.4285714285713,598.1285683768136,4098,1615.4285714285713,598.1285683768136,4201,1615.4285714285713,598.1285683768136,4305,1615.4285714285713,598.1285683768136,4409,1615.4285714285713,598.1285683768136,4514,1615.4285714285713,598.1285683768136,4614,1615.4285714285713,598.1285683768136,4717,1615.4285714285713,598.1285683768136,4820,1615.4285714285713,598.1285683768136,4923]","[1407,1407,1000,0,407,""smooth"",""down"",""down"",""good_move"",4197,2790,2391.4,1407,398.6,""oops"",""down"",""right"",""good_move"",6891,2694,2327.1,4197,366.9,""oops"",""down"",""up"",""bad_move"",9313,2422,2098.7,6891,323.3,""oops"",""right"",""left"",""bad_move"",12315,3002,2624.1,9313,377.9,""smooth"",""right"",""right"",""good_move"",15258,2943,2588.7,12315,354.3,""smooth"",""right"",""right"",""good_move"",18483,3225,2890.3,15258,334.7,""oops"",""right"",""down"",""good_move"",20794,2311,1893.7,18483,417.3,""oops"",""right"",""left"",""bad_move"",23663,2869,2512.1,20794,356.9,""oops"",""right"",""down"",""good_move""]"
"2214","","<div style=""width:500px;"">
  <p>What determined the result of this run?</p>
  </div>","0","html-slider-response","49","468770","0.0-7.0-1.7","128","1","2025-08-06 08:50:25","36c45c0696341be0efffe67d72a12abb","178.212.218.13","Mozilla/5.0 (Windows NT 10.0; Win64; x64; rv:141.0) Gecko/20100101 Firefox/141.0","","Firefox","141.0","Windows","10.0","https://app.prolific.com/","pl,en-US;q=0.7,en;q=0.3","5c2b339a85602a00012ffedd","6877649eabb845cf142cd221","6893174bb1dd58e9ab54029d","1","5c2b339a85602a00012ffedd","1","2025-08-06T08:58:15.953Z","","","","AttribQ","","","","","","","","","","","50","","","","","","","","","","","","","","","","","","","","","","","","","","",""
"1797","","<div style=""width:500px;"">
  <p>How much control did you have over the ball?</p>
  </div>","0","html-slider-response","50","470568","0.0-7.0-2.7","128","1","2025-08-06 08:50:25","36c45c0696341be0efffe67d72a12abb","178.212.218.13","Mozilla/5.0 (Windows NT 10.0; Win64; x64; rv:141.0) Gecko/20100101 Firefox/141.0","","Firefox","141.0","Windows","10.0","https://app.prolific.com/","pl,en-US;q=0.7,en;q=0.3","5c2b339a85602a00012ffedd","6877649eabb845cf142cd221","6893174bb1dd58e9ab54029d","1","5c2b339a85602a00012ffedd","1","2025-08-06T08:58:17.751Z","","","","ControlQ","","","","","","","","","","","50","","","","","","","","","","","","","","","","","","","","","","","","","","",""
"1855","","<div style=""width:500px;"">
  <p>How would you describe your current emotional state?</p>
  </div>","100","html-slider-response","51","472424","0.0-7.0-3.7","128","1","2025-08-06 08:50:25","36c45c0696341be0efffe67d72a12abb","178.212.218.13","Mozilla/5.0 (Windows NT 10.0; Win64; x64; rv:141.0) Gecko/20100101 Firefox/141.0","","Firefox","141.0","Windows","10.0","https://app.prolific.com/","pl,en-US;q=0.7,en;q=0.3","5c2b339a85602a00012ffedd","6877649eabb845cf142cd221","6893174bb1dd58e9ab54029d","1","5c2b339a85602a00012ffedd","1","2025-08-06T08:58:19.607Z","","","","StressQ","","","","","","","","","","","50","","","","","","","","","","","","","","","","","","","","","","","","","","",""
"1631","","<div style=""width:500px;"">
  <p>What best describes how you currently feel?</p>
  </div>","0","html-slider-response","52","474057","0.0-7.0-4.7","128","1","2025-08-06 08:50:25","36c45c0696341be0efffe67d72a12abb","178.212.218.13","Mozilla/5.0 (Windows NT 10.0; Win64; x64; rv:141.0) Gecko/20100101 Firefox/141.0","","Firefox","141.0","Windows","10.0","https://app.prolific.com/","pl,en-US;q=0.7,en;q=0.3","5c2b339a85602a00012ffedd","6877649eabb845cf142cd221","6893174bb1dd58e9ab54029d","1","5c2b339a85602a00012ffedd","1","2025-08-06T08:58:21.240Z","","","","MotivationQ","","","","","","","","","","","50","","","","","","","","","","","","","","","","","","","","","","","","","","",""
"","","","","ctl-task-cpt","53","508009","0.0-7.0-0.8","128","1","2025-08-06 08:50:25","36c45c0696341be0efffe67d72a12abb","178.212.218.13","Mozilla/5.0 (Windows NT 10.0; Win64; x64; rv:141.0) Gecko/20100101 Firefox/141.0","","Firefox","141.0","Windows","10.0","https://app.prolific.com/","pl,en-US;q=0.7,en;q=0.3","5c2b339a85602a00012ffedd","6877649eabb845cf142cd221","6893174bb1dd58e9ab54029d","1","5c2b339a85602a00012ffedd","1","2025-08-06T08:58:55.193Z","","","","","","","","","","","","","","","","win-only","3","g1:SW,g2:NE","0.4","9","0","476417","773","5778","30950","1","4","4","6","1","1","1","1","0","0.007575757575757576","1086","3000","1110","[""down"",""left""]","{""num_key_presses"":6,""num_perfect"":4,""num_errors"":0,""num_randdir"":2,""num_randdir_good_moves"":1,""num_whilered"":0,""num_whileblue"":0,""num_blue"":2,""num_good_moves"":5}","[555.4285714285714,552.1285683768136,0,555.4285714285714,552.1285683768136,103,555.4285714285714,552.1285683768136,206,555.4285714285714,552.1285683768136,310,555.4285714285714,552.1285683768136,410,555.4285714285714,552.1285683768136,512,306.42857142857144,775.1285683768136,616,173.42857142857144,946.1285683768136,718,121.42857142857143,966.1285683768136,819,109.42857142857143,975.1285683768136,922,107.42857142857143,978.1285683768136,1025,107.42857142857143,978.1285683768136,1127,107.42857142857143,978.1285683768136,1228,107.42857142857143,978.1285683768136,1331,107.42857142857143,978.1285683768136,1433,107.42857142857143,978.1285683768136,1533,107.42857142857143,978.1285683768136,1638,68.42857142857143,978.1285683768136,1741,-192.57142857142856,931.1285683768136,1843,-326.57142857142856,892.1285683768136,1947,-327.57142857142856,890.1285683768136,2051,-327.57142857142856,890.1285683768136,2152,-327.57142857142856,890.1285683768136,2253,-327.57142857142856,890.1285683768136,2354,-327.57142857142856,890.1285683768136,2454,-327.57142857142856,890.1285683768136,2556,-327.57142857142856,890.1285683768136,2658,-327.57142857142856,890.1285683768136,2762,-327.57142857142856,890.1285683768136,2862,-327.57142857142856,890.1285683768136,2965,-327.57142857142856,890.1285683768136,3065,-327.57142857142856,890.1285683768136,3166,-327.57142857142856,890.1285683768136,3268,-327.57142857142856,890.1285683768136,3373,-327.57142857142856,890.1285683768136,3473,-327.57142857142856,890.1285683768136,3578,-327.57142857142856,890.1285683768136,3678,-327.57142857142856,890.1285683768136,3780,-327.57142857142856,890.1285683768136,3881,-327.57142857142856,890.1285683768136,3987,-327.57142857142856,890.1285683768136,4089,-327.57142857142856,890.1285683768136,4190,-327.57142857142856,890.1285683768136,4291,-327.57142857142856,890.1285683768136,4394,-327.57142857142856,890.1285683768136,4496,-327.57142857142856,890.1285683768136,4596,-327.57142857142856,890.1285683768136,4700,-327.57142857142856,890.1285683768136,4802,-327.57142857142856,890.1285683768136,4907]","[5429,5429,2941.7,2002,485.3,""oops"",""left"",""right"",""bad_move"",8813,3384,2998.3,5429,385.7,""oops"",""left"",""left"",""good_move"",12012,3199,2846.5,8813,352.5,""smooth"",""left"",""left"",""good_move"",15390,3378,3046.5,12012,331.5,""smooth"",""left"",""left"",""good_move"",21896,6506,2522.4,19019,354.6,""smooth"",""down"",""down"",""good_move"",25072,3176,2817.7,21896,358.3,""smooth"",""down"",""down"",""good_move""]"
"1297","","<div style=""width:500px;"">
  <p>What determined the result of this run?</p>
  </div>","60","html-slider-response","54","509308","0.0-7.0-1.8","128","1","2025-08-06 08:50:25","36c45c0696341be0efffe67d72a12abb","178.212.218.13","Mozilla/5.0 (Windows NT 10.0; Win64; x64; rv:141.0) Gecko/20100101 Firefox/141.0","","Firefox","141.0","Windows","10.0","https://app.prolific.com/","pl,en-US;q=0.7,en;q=0.3","5c2b339a85602a00012ffedd","6877649eabb845cf142cd221","6893174bb1dd58e9ab54029d","1","5c2b339a85602a00012ffedd","1","2025-08-06T08:58:56.491Z","","","","AttribQ","","","","","","","","","","","50","","","","","","","","","","","","","","","","","","","","","","","","","","",""
"1236","","<div style=""width:500px;"">
  <p>How much control did you have over the ball?</p>
  </div>","69","html-slider-response","55","510545","0.0-7.0-2.8","128","1","2025-08-06 08:50:25","36c45c0696341be0efffe67d72a12abb","178.212.218.13","Mozilla/5.0 (Windows NT 10.0; Win64; x64; rv:141.0) Gecko/20100101 Firefox/141.0","","Firefox","141.0","Windows","10.0","https://app.prolific.com/","pl,en-US;q=0.7,en;q=0.3","5c2b339a85602a00012ffedd","6877649eabb845cf142cd221","6893174bb1dd58e9ab54029d","1","5c2b339a85602a00012ffedd","1","2025-08-06T08:58:57.728Z","","","","ControlQ","","","","","","","","","","","50","","","","","","","","","","","","","","","","","","","","","","","","","","",""
"1342","","<div style=""width:500px;"">
  <p>How would you describe your current emotional state?</p>
  </div>","60","html-slider-response","56","511887","0.0-7.0-3.8","128","1","2025-08-06 08:50:25","36c45c0696341be0efffe67d72a12abb","178.212.218.13","Mozilla/5.0 (Windows NT 10.0; Win64; x64; rv:141.0) Gecko/20100101 Firefox/141.0","","Firefox","141.0","Windows","10.0","https://app.prolific.com/","pl,en-US;q=0.7,en;q=0.3","5c2b339a85602a00012ffedd","6877649eabb845cf142cd221","6893174bb1dd58e9ab54029d","1","5c2b339a85602a00012ffedd","1","2025-08-06T08:58:59.070Z","","","","StressQ","","","","","","","","","","","50","","","","","","","","","","","","","","","","","","","","","","","","","","",""
"1681","","<div style=""width:500px;"">
  <p>What best describes how you currently feel?</p>
  </div>","54","html-slider-response","57","513569","0.0-7.0-4.8","128","1","2025-08-06 08:50:25","36c45c0696341be0efffe67d72a12abb","178.212.218.13","Mozilla/5.0 (Windows NT 10.0; Win64; x64; rv:141.0) Gecko/20100101 Firefox/141.0","","Firefox","141.0","Windows","10.0","https://app.prolific.com/","pl,en-US;q=0.7,en;q=0.3","5c2b339a85602a00012ffedd","6877649eabb845cf142cd221","6893174bb1dd58e9ab54029d","1","5c2b339a85602a00012ffedd","1","2025-08-06T08:59:00.753Z","","","","MotivationQ","","","","","","","","","","","50","","","","","","","","","","","","","","","","","","","","","","","","","","",""
"","","","","ctl-task-cpt","58","536380","0.0-7.0-0.9","128","1","2025-08-06 08:50:25","36c45c0696341be0efffe67d72a12abb","178.212.218.13","Mozilla/5.0 (Windows NT 10.0; Win64; x64; rv:141.0) Gecko/20100101 Firefox/141.0","","Firefox","141.0","Windows","10.0","https://app.prolific.com/","pl,en-US;q=0.7,en;q=0.3","5c2b339a85602a00012ffedd","6877649eabb845cf142cd221","6893174bb1dd58e9ab54029d","1","5c2b339a85602a00012ffedd","1","2025-08-06T08:59:23.563Z","","","","","","","","","","","","","","","","win-only","2","g1:SE,g2:NW","0.5","10","0","515930","677","5679","19807","1","4","8","6","1","1","1","2","1","0.015151515151515152","1050","3000","1550","[""down"",""right""]","{""num_key_presses"":4,""num_perfect"":4,""num_errors"":0,""num_randdir"":0,""num_randdir_good_moves"":0,""num_whilered"":0,""num_whileblue"":0,""num_blue"":1,""num_good_moves"":4}","[556.4285714285714,549.1285683768136,0,556.4285714285714,549.1285683768136,102,556.4285714285714,549.1285683768136,202,556.4285714285714,549.1285683768136,308,556.4285714285714,549.1285683768136,412,556.4285714285714,549.1285683768136,512,586.4285714285714,590.1285683768136,614,710.4285714285714,810.1285683768136,717,895.4285714285714,958.1285683768136,817,911.4285714285714,970.1285683768136,918,1018.4285714285714,972.1285683768136,1021,1018.4285714285714,972.1285683768136,1122,1018.4285714285714,972.1285683768136,1223,1018.4285714285714,972.1285683768136,1324,1018.4285714285714,972.1285683768136,1424,1018.4285714285714,972.1285683768136,1529,1018.4285714285714,971.1285683768136,1629,1018.4285714285714,971.1285683768136,1735,1018.4285714285714,971.1285683768136,1836,1018.4285714285714,971.1285683768136,1939,1018.4285714285714,971.1285683768136,2044,1018.4285714285714,971.1285683768136,2145,1018.4285714285714,971.1285683768136,2248,1183.4285714285713,935.1285683768136,2351,1672.4285714285713,646.1285683768136,2456,1593.4285714285713,603.1285683768136,2558,1511.4285714285713,598.1285683768136,2658,1511.4285714285713,598.1285683768136,2759,1511.4285714285713,598.1285683768136,2859,1511.4285714285713,598.1285683768136,2960,1511.4285714285713,598.1285683768136,3064,1511.4285714285713,598.1285683768136,3166,1511.4285714285713,598.1285683768136,3342,1511.4285714285713,598.1285683768136,3442,1511.4285714285713,598.1285683768136,3543,1511.4285714285713,598.1285683768136,3643,1511.4285714285713,598.1285683768136,3745,1511.4285714285713,598.1285683768136,3849,1511.4285714285713,598.1285683768136,3949,1511.4285714285713,598.1285683768136,4051,1511.4285714285713,598.1285683768136,4151,1511.4285714285713,598.1285683768136,4253,1511.4285714285713,598.1285683768136,4357,1511.4285714285713,598.1285683768136,4460,1511.4285714285713,598.1285683768136,4560,1511.4285714285713,598.1285683768136,4664,1511.4285714285713,598.1285683768136,4764,1511.4285714285713,598.1285683768136,4865,1511.4285714285713,598.1285683768136,4966]","[1415,1415,1000,0,415,""smooth"",""down"",""down"",""good_move"",4011,2596,2242.1,1415,353.9,""smooth"",""down"",""down"",""good_move"",7211,3200,2589.6,4011,610.4,""smooth"",""right"",""right"",""good_move"",14022,6811,2992.3,10677,352.7,""smooth"",""right"",""right"",""good_move""]"
"16220","","<div style=""width:500px;"">
  <p>What determined the result of this run?</p>
  </div>","64","html-slider-response","59","552604","0.0-7.0-1.9","128","1","2025-08-06 08:50:25","36c45c0696341be0efffe67d72a12abb","178.212.218.13","Mozilla/5.0 (Windows NT 10.0; Win64; x64; rv:141.0) Gecko/20100101 Firefox/141.0","","Firefox","141.0","Windows","10.0","https://app.prolific.com/","pl,en-US;q=0.7,en;q=0.3","5c2b339a85602a00012ffedd","6877649eabb845cf142cd221","6893174bb1dd58e9ab54029d","1","5c2b339a85602a00012ffedd","1","2025-08-06T08:59:39.787Z","","","","AttribQ","","","","","","","","","","","50","","","","","","","","","","","","","","","","","","","","","","","","","","",""
"2412","","<div style=""width:500px;"">
  <p>How much control did you have over the ball?</p>
  </div>","61","html-slider-response","60","555017","0.0-7.0-2.9","128","1","2025-08-06 08:50:25","36c45c0696341be0efffe67d72a12abb","178.212.218.13","Mozilla/5.0 (Windows NT 10.0; Win64; x64; rv:141.0) Gecko/20100101 Firefox/141.0","","Firefox","141.0","Windows","10.0","https://app.prolific.com/","pl,en-US;q=0.7,en;q=0.3","5c2b339a85602a00012ffedd","6877649eabb845cf142cd221","6893174bb1dd58e9ab54029d","1","5c2b339a85602a00012ffedd","1","2025-08-06T08:59:42.200Z","","","","ControlQ","","","","","","","","","","","50","","","","","","","","","","","","","","","","","","","","","","","","","","",""
"1075","","<div style=""width:500px;"">
  <p>How would you describe your current emotional state?</p>
  </div>","56","html-slider-response","61","556093","0.0-7.0-3.9","128","1","2025-08-06 08:50:25","36c45c0696341be0efffe67d72a12abb","178.212.218.13","Mozilla/5.0 (Windows NT 10.0; Win64; x64; rv:141.0) Gecko/20100101 Firefox/141.0","","Firefox","141.0","Windows","10.0","https://app.prolific.com/","pl,en-US;q=0.7,en;q=0.3","5c2b339a85602a00012ffedd","6877649eabb845cf142cd221","6893174bb1dd58e9ab54029d","1","5c2b339a85602a00012ffedd","1","2025-08-06T08:59:43.276Z","","","","StressQ","","","","","","","","","","","50","","","","","","","","","","","","","","","","","","","","","","","","","","",""
"1347","","<div style=""width:500px;"">
  <p>What best describes how you currently feel?</p>
  </div>","56","html-slider-response","62","557442","0.0-7.0-4.9","128","1","2025-08-06 08:50:25","36c45c0696341be0efffe67d72a12abb","178.212.218.13","Mozilla/5.0 (Windows NT 10.0; Win64; x64; rv:141.0) Gecko/20100101 Firefox/141.0","","Firefox","141.0","Windows","10.0","https://app.prolific.com/","pl,en-US;q=0.7,en;q=0.3","5c2b339a85602a00012ffedd","6877649eabb845cf142cd221","6893174bb1dd58e9ab54029d","1","5c2b339a85602a00012ffedd","1","2025-08-06T08:59:44.625Z","","","","MotivationQ","","","","","","","","","","","50","","","","","","","","","","","","","","","","","","","","","","","","","","",""
"","","","","ctl-task-cpt","63","596696","0.0-7.0-0.10","128","1","2025-08-06 08:50:25","36c45c0696341be0efffe67d72a12abb","178.212.218.13","Mozilla/5.0 (Windows NT 10.0; Win64; x64; rv:141.0) Gecko/20100101 Firefox/141.0","","Firefox","141.0","Windows","10.0","https://app.prolific.com/","pl,en-US;q=0.7,en;q=0.3","5c2b339a85602a00012ffedd","6877649eabb845cf142cd221","6893174bb1dd58e9ab54029d","1","5c2b339a85602a00012ffedd","1","2025-08-06T09:00:23.880Z","","","","","","","","","","","","","","","","win-only","3","g1:SW,g2:NE","0.6","11","0","559802","2846","7852","36253","1","4","8","6","1","-1","-2","0","2","0","1180","3000","-2520","[""down"",""left""]","{""num_key_presses"":9,""num_perfect"":4,""num_errors"":1,""num_randdir"":4,""num_randdir_good_moves"":1,""num_whilered"":0,""num_whileblue"":0,""num_blue"":0,""num_good_moves"":5}","[543.4285714285714,564.1285683768136,0,543.4285714285714,564.1285683768136,104,543.4285714285714,564.1285683768136,205,543.4285714285714,564.1285683768136,305,543.4285714285714,564.1285683768136,409,543.4285714285714,564.1285683768136,515,527.4285714285714,616.1285683768136,621,502.42857142857144,674.1285683768136,724,326.42857142857144,842.1285683768136,825,228.42857142857144,957.1285683768136,925,223.42857142857144,960.1285683768136,1028,156.42857142857144,993.1285683768136,1128,155.42857142857144,993.1285683768136,1233,155.42857142857144,993.1285683768136,1334,459.42857142857144,1012.1285683768136,1437,1170.4285714285713,898.1285683768136,1541,1184.4285714285713,885.1285683768136,1645,1184.4285714285713,885.1285683768136,1749,1184.4285714285713,885.1285683768136,1850,1184.4285714285713,885.1285683768136,1951,1184.4285714285713,885.1285683768136,2056,1184.4285714285713,885.1285683768136,2158,1184.4285714285713,885.1285683768136,2261,1184.4285714285713,885.1285683768136,2362,1184.4285714285713,885.1285683768136,2467,1184.4285714285713,885.1285683768136,2570,1184.4285714285713,885.1285683768136,2744,1184.4285714285713,885.1285683768136,2847,1184.4285714285713,885.1285683768136,2951,1184.4285714285713,885.1285683768136,3052,1184.4285714285713,885.1285683768136,3153,1184.4285714285713,885.1285683768136,3259,1184.4285714285713,885.1285683768136,3363,1184.4285714285713,885.1285683768136,3468,1184.4285714285713,885.1285683768136,3569,1184.4285714285713,885.1285683768136,3670,1184.4285714285713,885.1285683768136,3773,1184.4285714285713,885.1285683768136,3875,1184.4285714285713,885.1285683768136,3976,1184.4285714285713,885.1285683768136,4078,1184.4285714285713,885.1285683768136,4178,1184.4285714285713,885.1285683768136,4282,1184.4285714285713,885.1285683768136,4384,1184.4285714285713,885.1285683768136,4487,1184.4285714285713,885.1285683768136,4590,1184.4285714285713,885.1285683768136,4690,1184.4285714285713,885.1285683768136,4792,1184.4285714285713,885.1285683768136,4895,1184.4285714285713,885.1285683768136,5000]","[1457,1457,1000,0,457,""oops"",""left"",""left"",""good_move"",5117,3660,3295.4,1457,364.6,""oops"",""left"",""up"",""bad_move"",8136,3019,2286.5,5117,732.5,""smooth"",""left"",""left"",""good_move"",10615,2479,2142.2,8136,336.8,""smooth"",""down"",""down"",""good_move"",13757,3142,2740.4,10615,401.6,""oops"",""down"",""up"",""bad_move"",17669,3912,3436.1,13757,475.9,""smooth"",""down"",""down"",""good_move"",20310,2641,2288.1,17669,352.9,""oops"",""down"",""right"",""bad_move"",21915,1605,2250.9,20310,-645.9,""error"",""-"",""-"",""no_move"",25805,3890,2487.3,22916,401.7,""smooth"",""down"",""down"",""good_move""]"
"2898","","<div style=""width:500px;"">
  <p>What determined the result of this run?</p>
  </div>","0","html-slider-response","64","599598","0.0-7.0-1.10","128","1","2025-08-06 08:50:25","36c45c0696341be0efffe67d72a12abb","178.212.218.13","Mozilla/5.0 (Windows NT 10.0; Win64; x64; rv:141.0) Gecko/20100101 Firefox/141.0","","Firefox","141.0","Windows","10.0","https://app.prolific.com/","pl,en-US;q=0.7,en;q=0.3","5c2b339a85602a00012ffedd","6877649eabb845cf142cd221","6893174bb1dd58e9ab54029d","1","5c2b339a85602a00012ffedd","1","2025-08-06T09:00:26.781Z","","","","AttribQ","","","","","","","","","","","50","","","","","","","","","","","","","","","","","","","","","","","","","","",""
"1871","","<div style=""width:500px;"">
  <p>How much control did you have over the ball?</p>
  </div>","0","html-slider-response","65","601470","0.0-7.0-2.10","128","1","2025-08-06 08:50:25","36c45c0696341be0efffe67d72a12abb","178.212.218.13","Mozilla/5.0 (Windows NT 10.0; Win64; x64; rv:141.0) Gecko/20100101 Firefox/141.0","","Firefox","141.0","Windows","10.0","https://app.prolific.com/","pl,en-US;q=0.7,en;q=0.3","5c2b339a85602a00012ffedd","6877649eabb845cf142cd221","6893174bb1dd58e9ab54029d","1","5c2b339a85602a00012ffedd","1","2025-08-06T09:00:28.653Z","","","","ControlQ","","","","","","","","","","","50","","","","","","","","","","","","","","","","","","","","","","","","","","",""
"1759","","<div style=""width:500px;"">
  <p>How would you describe your current emotional state?</p>
  </div>","100","html-slider-response","66","603229","0.0-7.0-3.10","128","1","2025-08-06 08:50:25","36c45c0696341be0efffe67d72a12abb","178.212.218.13","Mozilla/5.0 (Windows NT 10.0; Win64; x64; rv:141.0) Gecko/20100101 Firefox/141.0","","Firefox","141.0","Windows","10.0","https://app.prolific.com/","pl,en-US;q=0.7,en;q=0.3","5c2b339a85602a00012ffedd","6877649eabb845cf142cd221","6893174bb1dd58e9ab54029d","1","5c2b339a85602a00012ffedd","1","2025-08-06T09:00:30.412Z","","","","StressQ","","","","","","","","","","","50","","","","","","","","","","","","","","","","","","","","","","","","","","",""
"1836","","<div style=""width:500px;"">
  <p>What best describes how you currently feel?</p>
  </div>","19","html-slider-response","67","605066","0.0-7.0-4.10","128","1","2025-08-06 08:50:25","36c45c0696341be0efffe67d72a12abb","178.212.218.13","Mozilla/5.0 (Windows NT 10.0; Win64; x64; rv:141.0) Gecko/20100101 Firefox/141.0","","Firefox","141.0","Windows","10.0","https://app.prolific.com/","pl,en-US;q=0.7,en;q=0.3","5c2b339a85602a00012ffedd","6877649eabb845cf142cd221","6893174bb1dd58e9ab54029d","1","5c2b339a85602a00012ffedd","1","2025-08-06T09:00:32.250Z","","","","MotivationQ","","","","","","","","","","","50","","","","","","","","","","","","","","","","","","","","","","","","","","",""
"","","","","ctl-task-cpt","68","631282","0.0-7.0-0.11","128","1","2025-08-06 08:50:25","36c45c0696341be0efffe67d72a12abb","178.212.218.13","Mozilla/5.0 (Windows NT 10.0; Win64; x64; rv:141.0) Gecko/20100101 Firefox/141.0","","Firefox","141.0","Windows","10.0","https://app.prolific.com/","pl,en-US;q=0.7,en;q=0.3","5c2b339a85602a00012ffedd","6877649eabb845cf142cd221","6893174bb1dd58e9ab54029d","1","5c2b339a85602a00012ffedd","1","2025-08-06T09:00:58.465Z","","","","","","","","","","","","","","","","win-only","2","g1:SE,g2:NW","0.7","12","0","607426","558","5563","23214","1","4","4","6","1","1","1","1","0","0.007575757575757576","1401","3000","1590","[""down"",""right""]","{""num_key_presses"":4,""num_perfect"":4,""num_errors"":0,""num_randdir"":0,""num_randdir_good_moves"":0,""num_whilered"":0,""num_whileblue"":0,""num_blue"":2,""num_good_moves"":4}","[550.4285714285714,547.1285683768136,0,550.4285714285714,547.1285683768136,102,550.4285714285714,547.1285683768136,205,550.4285714285714,547.1285683768136,306,550.4285714285714,547.1285683768136,408,550.4285714285714,547.1285683768136,509,550.4285714285714,547.1285683768136,611,550.4285714285714,547.1285683768136,712,550.4285714285714,547.1285683768136,817,561.4285714285714,639.1285683768136,920,728.4285714285714,918.1285683768136,1024,875.4285714285714,946.1285683768136,1126,899.4285714285714,962.1285683768136,1227,1029.4285714285713,1011.1285683768136,1328,1031.4285714285713,1011.1285683768136,1432,1031.4285714285713,1011.1285683768136,1536,1031.4285714285713,1011.1285683768136,1640,1031.4285714285713,1011.1285683768136,1741,1031.4285714285713,1011.1285683768136,1844,1031.4285714285713,1011.1285683768136,1946,1031.4285714285713,1011.1285683768136,2051,1031.4285714285713,1011.1285683768136,2151,1031.4285714285713,1011.1285683768136,2252,1031.4285714285713,1011.1285683768136,2352,1031.4285714285713,1011.1285683768136,2458,1031.4285714285713,1011.1285683768136,2563,1031.4285714285713,1011.1285683768136,2664,1031.4285714285713,1011.1285683768136,2769,1031.4285714285713,1011.1285683768136,2883,1031.4285714285713,1011.1285683768136,2988,1031.4285714285713,1011.1285683768136,3089,1031.4285714285713,1011.1285683768136,3193,1031.4285714285713,1011.1285683768136,3295,1031.4285714285713,1011.1285683768136,3399,1031.4285714285713,1011.1285683768136,3502,1031.4285714285713,1011.1285683768136,3602,1031.4285714285713,1011.1285683768136,3705,1031.4285714285713,1011.1285683768136,3807,1031.4285714285713,1011.1285683768136,3908,1031.4285714285713,1011.1285683768136,4012,1031.4285714285713,1011.1285683768136,4116,1031.4285714285713,1011.1285683768136,4217,1031.4285714285713,1011.1285683768136,4318,1031.4285714285713,1011.1285683768136,4418,1031.4285714285713,1011.1285683768136,4520,1031.4285714285713,1011.1285683768136,4625,1031.4285714285713,1011.1285683768136,4725,1031.4285714285713,1011.1285683768136,4827,1031.4285714285713,1011.1285683768136,4927]","[8586,8586,2679.7,5502,404.3,""smooth"",""down"",""down"",""good_move"",11781,3195,2802.8,8586,392.2,""smooth"",""down"",""down"",""good_move"",14415,2633,2118.5,11782,514.5,""smooth"",""right"",""right"",""good_move"",17547,3131,2759.6,14416,371.4,""smooth"",""right"",""right"",""good_move""]"
"2487","","<div style=""width:500px;"">
  <p>What determined the result of this run?</p>
  </div>","98","html-slider-response","69","633772","0.0-7.0-1.11","128","1","2025-08-06 08:50:25","36c45c0696341be0efffe67d72a12abb","178.212.218.13","Mozilla/5.0 (Windows NT 10.0; Win64; x64; rv:141.0) Gecko/20100101 Firefox/141.0","","Firefox","141.0","Windows","10.0","https://app.prolific.com/","pl,en-US;q=0.7,en;q=0.3","5c2b339a85602a00012ffedd","6877649eabb845cf142cd221","6893174bb1dd58e9ab54029d","1","5c2b339a85602a00012ffedd","1","2025-08-06T09:01:00.955Z","","","","AttribQ","","","","","","","","","","","50","","","","","","","","","","","","","","","","","","","","","","","","","","",""
"1332","","<div style=""width:500px;"">
  <p>How much control did you have over the ball?</p>
  </div>","77","html-slider-response","70","635105","0.0-7.0-2.11","128","1","2025-08-06 08:50:25","36c45c0696341be0efffe67d72a12abb","178.212.218.13","Mozilla/5.0 (Windows NT 10.0; Win64; x64; rv:141.0) Gecko/20100101 Firefox/141.0","","Firefox","141.0","Windows","10.0","https://app.prolific.com/","pl,en-US;q=0.7,en;q=0.3","5c2b339a85602a00012ffedd","6877649eabb845cf142cd221","6893174bb1dd58e9ab54029d","1","5c2b339a85602a00012ffedd","1","2025-08-06T09:01:02.288Z","","","","ControlQ","","","","","","","","","","","50","","","","","","","","","","","","","","","","","","","","","","","","","","",""
"1655","","<div style=""width:500px;"">
  <p>How would you describe your current emotional state?</p>
  </div>","33","html-slider-response","71","636761","0.0-7.0-3.11","128","1","2025-08-06 08:50:25","36c45c0696341be0efffe67d72a12abb","178.212.218.13","Mozilla/5.0 (Windows NT 10.0; Win64; x64; rv:141.0) Gecko/20100101 Firefox/141.0","","Firefox","141.0","Windows","10.0","https://app.prolific.com/","pl,en-US;q=0.7,en;q=0.3","5c2b339a85602a00012ffedd","6877649eabb845cf142cd221","6893174bb1dd58e9ab54029d","1","5c2b339a85602a00012ffedd","1","2025-08-06T09:01:03.944Z","","","","StressQ","","","","","","","","","","","50","","","","","","","","","","","","","","","","","","","","","","","","","","",""
"1113","","<div style=""width:500px;"">
  <p>What best describes how you currently feel?</p>
  </div>","67","html-slider-response","72","637875","0.0-7.0-4.11","128","1","2025-08-06 08:50:25","36c45c0696341be0efffe67d72a12abb","178.212.218.13","Mozilla/5.0 (Windows NT 10.0; Win64; x64; rv:141.0) Gecko/20100101 Firefox/141.0","","Firefox","141.0","Windows","10.0","https://app.prolific.com/","pl,en-US;q=0.7,en;q=0.3","5c2b339a85602a00012ffedd","6877649eabb845cf142cd221","6893174bb1dd58e9ab54029d","1","5c2b339a85602a00012ffedd","1","2025-08-06T09:01:05.058Z","","","","MotivationQ","","","","","","","","","","","50","","","","","","","","","","","","","","","","","","","","","","","","","","",""
"","","","","ctl-task-cpt","73","666468","0.0-7.0-0.12","128","1","2025-08-06 08:50:25","36c45c0696341be0efffe67d72a12abb","178.212.218.13","Mozilla/5.0 (Windows NT 10.0; Win64; x64; rv:141.0) Gecko/20100101 Firefox/141.0","","Firefox","141.0","Windows","10.0","https://app.prolific.com/","pl,en-US;q=0.7,en;q=0.3","5c2b339a85602a00012ffedd","6877649eabb845cf142cd221","6893174bb1dd58e9ab54029d","1","5c2b339a85602a00012ffedd","1","2025-08-06T09:01:33.651Z","","","","","","","","","","","","","","","","win-only","1","g1:NE,g2:SW","0.8","13","0","640236","686","5690","25589","1","4","8","6","1","1","1","2","1","0.015151515151515152","1015","3000","1620","[""up"",""right""]","{""num_key_presses"":4,""num_perfect"":4,""num_errors"":0,""num_randdir"":0,""num_randdir_good_moves"":0,""num_whilered"":0,""num_whileblue"":0,""num_blue"":3,""num_good_moves"":4}","[561.4285714285714,553.1285683768136,0,561.4285714285714,553.1285683768136,100,561.4285714285714,553.1285683768136,201,561.4285714285714,553.1285683768136,303,561.4285714285714,553.1285683768136,408,559.4285714285714,559.1285683768136,509,554.4285714285714,572.1285683768136,609,651.4285714285714,434.12856837681363,709,943.4285714285714,200.12856837681363,809,1001.4285714285714,112.12856837681362,914,1006.4285714285714,97.12856837681362,1018,1006.4285714285714,96.12856837681362,1123,1006.4285714285714,96.12856837681362,1223,1006.4285714285714,96.12856837681362,1325,1006.4285714285714,96.12856837681362,1430,1022.4285714285714,155.12856837681363,1534,1834.4285714285713,370.12856837681363,1637,1791.4285714285713,321.12856837681363,1740,1577.4285714285713,379.12856837681363,1844,1478.4285714285713,475.12856837681363,1946,1463.4285714285713,531.1285683768136,2048,1463.4285714285713,531.1285683768136,2150,1463.4285714285713,531.1285683768136,2253,1463.4285714285713,531.1285683768136,2355,1463.4285714285713,531.1285683768136,2455,1463.4285714285713,531.1285683768136,2555,1463.4285714285713,531.1285683768136,2656,1463.4285714285713,531.1285683768136,2756,1463.4285714285713,531.1285683768136,2857,1463.4285714285713,531.1285683768136,2959,1463.4285714285713,531.1285683768136,3062,1463.4285714285713,531.1285683768136,3167,1463.4285714285713,531.1285683768136,3267,1463.4285714285713,531.1285683768136,3367,1463.4285714285713,531.1285683768136,3469,1463.4285714285713,531.1285683768136,3575,1463.4285714285713,531.1285683768136,3677,1463.4285714285713,531.1285683768136,3779,1463.4285714285713,531.1285683768136,3883,1463.4285714285713,531.1285683768136,3984,1463.4285714285713,531.1285683768136,4088,1463.4285714285713,531.1285683768136,4194,1463.4285714285713,531.1285683768136,4295,1463.4285714285713,531.1285683768136,4400,1463.4285714285713,531.1285683768136,4500,1463.4285714285713,531.1285683768136,4601,1463.4285714285713,531.1285683768136,4701,1463.4285714285713,531.1285683768136,4801,1463.4285714285713,531.1285683768136,4904]","[4733,4733,2331.5,2009,392.5,""smooth"",""up"",""up"",""good_move"",10101,5368,1605.5,8082,413.5,""smooth"",""up"",""up"",""good_move"",16192,6091,2238.5,13471,482.5,""smooth"",""right"",""right"",""good_move"",19796,3604,3246.8,16192,357.2,""smooth"",""right"",""right"",""good_move""]"
"3073","","<div style=""width:500px;"">
  <p>What determined the result of this run?</p>
  </div>","93","html-slider-response","74","669544","0.0-7.0-1.12","128","1","2025-08-06 08:50:25","36c45c0696341be0efffe67d72a12abb","178.212.218.13","Mozilla/5.0 (Windows NT 10.0; Win64; x64; rv:141.0) Gecko/20100101 Firefox/141.0","","Firefox","141.0","Windows","10.0","https://app.prolific.com/","pl,en-US;q=0.7,en;q=0.3","5c2b339a85602a00012ffedd","6877649eabb845cf142cd221","6893174bb1dd58e9ab54029d","1","5c2b339a85602a00012ffedd","1","2025-08-06T09:01:36.727Z","","","","AttribQ","","","","","","","","","","","50","","","","","","","","","","","","","","","","","","","","","","","","","","",""
"1820","","<div style=""width:500px;"">
  <p>How much control did you have over the ball?</p>
  </div>","92","html-slider-response","75","671366","0.0-7.0-2.12","128","1","2025-08-06 08:50:25","36c45c0696341be0efffe67d72a12abb","178.212.218.13","Mozilla/5.0 (Windows NT 10.0; Win64; x64; rv:141.0) Gecko/20100101 Firefox/141.0","","Firefox","141.0","Windows","10.0","https://app.prolific.com/","pl,en-US;q=0.7,en;q=0.3","5c2b339a85602a00012ffedd","6877649eabb845cf142cd221","6893174bb1dd58e9ab54029d","1","5c2b339a85602a00012ffedd","1","2025-08-06T09:01:38.549Z","","","","ControlQ","","","","","","","","","","","50","","","","","","","","","","","","","","","","","","","","","","","","","","",""
"1715","","<div style=""width:500px;"">
  <p>How would you describe your current emotional state?</p>
  </div>","27","html-slider-response","76","673083","0.0-7.0-3.12","128","1","2025-08-06 08:50:25","36c45c0696341be0efffe67d72a12abb","178.212.218.13","Mozilla/5.0 (Windows NT 10.0; Win64; x64; rv:141.0) Gecko/20100101 Firefox/141.0","","Firefox","141.0","Windows","10.0","https://app.prolific.com/","pl,en-US;q=0.7,en;q=0.3","5c2b339a85602a00012ffedd","6877649eabb845cf142cd221","6893174bb1dd58e9ab54029d","1","5c2b339a85602a00012ffedd","1","2025-08-06T09:01:40.266Z","","","","StressQ","","","","","","","","","","","50","","","","","","","","","","","","","","","","","","","","","","","","","","",""
"1313","","<div style=""width:500px;"">
  <p>What best describes how you currently feel?</p>
  </div>","69","html-slider-response","77","674397","0.0-7.0-4.12","128","1","2025-08-06 08:50:25","36c45c0696341be0efffe67d72a12abb","178.212.218.13","Mozilla/5.0 (Windows NT 10.0; Win64; x64; rv:141.0) Gecko/20100101 Firefox/141.0","","Firefox","141.0","Windows","10.0","https://app.prolific.com/","pl,en-US;q=0.7,en;q=0.3","5c2b339a85602a00012ffedd","6877649eabb845cf142cd221","6893174bb1dd58e9ab54029d","1","5c2b339a85602a00012ffedd","1","2025-08-06T09:01:41.580Z","","","","MotivationQ","","","","","","","","","","","50","","","","","","","","","","","","","","","","","","","","","","","","","","",""
"","","","","ctl-task-cpt","78","715300","0.0-7.0-0.13","128","1","2025-08-06 08:50:25","36c45c0696341be0efffe67d72a12abb","178.212.218.13","Mozilla/5.0 (Windows NT 10.0; Win64; x64; rv:141.0) Gecko/20100101 Firefox/141.0","","Firefox","141.0","Windows","10.0","https://app.prolific.com/","pl,en-US;q=0.7,en;q=0.3","5c2b339a85602a00012ffedd","6877649eabb845cf142cd221","6893174bb1dd58e9ab54029d","1","5c2b339a85602a00012ffedd","1","2025-08-06T09:02:22.483Z","","","","","","","","","","","","","","","","win-only","1","g1:NE,g2:SW","0.9","14","0","676758","654","5661","37900","1","4","4","6","2","4","4","6","2","0.045454545454545456","2013","3000","315","[""down"",""left""]","{""num_key_presses"":8,""num_perfect"":7,""num_errors"":0,""num_randdir"":1,""num_randdir_good_moves"":0,""num_whilered"":0,""num_whileblue"":0,""num_blue"":3,""num_good_moves"":7}","[567.4285714285714,548.1285683768136,0,567.4285714285714,548.1285683768136,104,567.4285714285714,548.1285683768136,207,567.4285714285714,548.1285683768136,312,567.4285714285714,548.1285683768136,413,567.4285714285714,548.1285683768136,515,567.4285714285714,548.1285683768136,617,691.4285714285714,407.12856837681363,721,905.4285714285714,187.12856837681363,822,932.4285714285714,140.12856837681363,927,945.4285714285714,128.12856837681363,1030,968.4285714285714,115.12856837681362,1130,968.4285714285714,115.12856837681362,1233,959.4285714285714,131.12856837681363,1333,415.42857142857144,912.1285683768136,1437,245.42857142857144,1119.1285683768135,1538,198.42857142857144,1175.1285683768135,1640,42.42857142857143,1193.1285683768135,1745,18.42857142857143,1089.1285683768135,1850,63.42857142857143,1008.1285683768136,1952,73.42857142857143,996.1285683768136,2053,73.42857142857143,996.1285683768136,2153,73.42857142857143,996.1285683768136,2256,-35.57142857142857,984.1285683768136,2361,-411.57142857142856,886.1285683768136,2465,-422.57142857142856,880.1285683768136,2568,-422.57142857142856,880.1285683768136,2669,-418.57142857142856,900.1285683768136,2770,-418.57142857142856,900.1285683768136,2873,-417.57142857142856,900.1285683768136,2974,-417.57142857142856,900.1285683768136,3077,-417.57142857142856,900.1285683768136,3179,-417.57142857142856,900.1285683768136,3280,-417.57142857142856,900.1285683768136,3382,-417.57142857142856,900.1285683768136,3486,-417.57142857142856,900.1285683768136,3587,-417.57142857142856,900.1285683768136,3688,-417.57142857142856,900.1285683768136,3788,-417.57142857142856,900.1285683768136,3889,-417.57142857142856,900.1285683768136,3990,-417.57142857142856,900.1285683768136,4093,-417.57142857142856,900.1285683768136,4198,-417.57142857142856,900.1285683768136,4302,-417.57142857142856,900.1285683768136,4406,-417.57142857142856,900.1285683768136,4509,-417.57142857142856,900.1285683768136,4609,-417.57142857142856,900.1285683768136,4713,-417.57142857142856,900.1285683768136,4813,-417.57142857142856,900.1285683768136,4919]","[1394,1394,1000,0,394,""smooth"",""left"",""left"",""good_move"",7837,6443,2629.2,4776,431.8,""smooth"",""left"",""left"",""good_move"",11111,3274,2867.8,7837,406.2,""smooth"",""left"",""left"",""good_move"",13815,2704,2319.9,11111,384.1,""smooth"",""down"",""down"",""good_move"",19939,6124,1596.1,17918,424.9,""smooth"",""down"",""down"",""good_move"",22206,2267,1801.3,19939,465.7,""oops"",""down"",""right"",""bad_move"",28961,6755,2842.4,25724,394.6,""smooth"",""down"",""down"",""good_move"",32132,3171,2823.2,28961,347.8,""smooth"",""left"",""left"",""good_move""]"
"2453","","<div style=""width:500px;"">
  <p>What determined the result of this run?</p>
  </div>","78","html-slider-response","79","717758","0.0-7.0-1.13","128","1","2025-08-06 08:50:25","36c45c0696341be0efffe67d72a12abb","178.212.218.13","Mozilla/5.0 (Windows NT 10.0; Win64; x64; rv:141.0) Gecko/20100101 Firefox/141.0","","Firefox","141.0","Windows","10.0","https://app.prolific.com/","pl,en-US;q=0.7,en;q=0.3","5c2b339a85602a00012ffedd","6877649eabb845cf142cd221","6893174bb1dd58e9ab54029d","1","5c2b339a85602a00012ffedd","1","2025-08-06T09:02:24.941Z","","","","AttribQ","","","","","","","","","","","50","","","","","","","","","","","","","","","","","","","","","","","","","","",""
"1190","","<div style=""width:500px;"">
  <p>How much control did you have over the ball?</p>
  </div>","80","html-slider-response","80","718949","0.0-7.0-2.13","128","1","2025-08-06 08:50:25","36c45c0696341be0efffe67d72a12abb","178.212.218.13","Mozilla/5.0 (Windows NT 10.0; Win64; x64; rv:141.0) Gecko/20100101 Firefox/141.0","","Firefox","141.0","Windows","10.0","https://app.prolific.com/","pl,en-US;q=0.7,en;q=0.3","5c2b339a85602a00012ffedd","6877649eabb845cf142cd221","6893174bb1dd58e9ab54029d","1","5c2b339a85602a00012ffedd","1","2025-08-06T09:02:26.132Z","","","","ControlQ","","","","","","","","","","","50","","","","","","","","","","","","","","","","","","","","","","","","","","",""
"1403","","<div style=""width:500px;"">
  <p>How would you describe your current emotional state?</p>
  </div>","17","html-slider-response","81","720354","0.0-7.0-3.13","128","1","2025-08-06 08:50:25","36c45c0696341be0efffe67d72a12abb","178.212.218.13","Mozilla/5.0 (Windows NT 10.0; Win64; x64; rv:141.0) Gecko/20100101 Firefox/141.0","","Firefox","141.0","Windows","10.0","https://app.prolific.com/","pl,en-US;q=0.7,en;q=0.3","5c2b339a85602a00012ffedd","6877649eabb845cf142cd221","6893174bb1dd58e9ab54029d","1","5c2b339a85602a00012ffedd","1","2025-08-06T09:02:27.537Z","","","","StressQ","","","","","","","","","","","50","","","","","","","","","","","","","","","","","","","","","","","","","","",""
"1519","","<div style=""width:500px;"">
  <p>What best describes how you currently feel?</p>
  </div>","81","html-slider-response","82","721874","0.0-7.0-4.13","128","1","2025-08-06 08:50:25","36c45c0696341be0efffe67d72a12abb","178.212.218.13","Mozilla/5.0 (Windows NT 10.0; Win64; x64; rv:141.0) Gecko/20100101 Firefox/141.0","","Firefox","141.0","Windows","10.0","https://app.prolific.com/","pl,en-US;q=0.7,en;q=0.3","5c2b339a85602a00012ffedd","6877649eabb845cf142cd221","6893174bb1dd58e9ab54029d","1","5c2b339a85602a00012ffedd","1","2025-08-06T09:02:29.057Z","","","","MotivationQ","","","","","","","","","","","50","","","","","","","","","","","","","","","","","","","","","","","","","","",""
