"rt","response_timestamp","stimulus","response","trial_type","trial_index","time_elapsed","internal_node_id","run_id","condition","recorded_at","source_code_version","ip","user_agent","device","browser","browser_version","platform","platform_version","referer","accept_language","PROLIFIC_PID","STUDY_ID","SESSION_ID","BATCH","prolific_id","batch","realtime","success","question_order","question_id","eventType","responses","item_order","radio_event_ids","radio_event_times","key_event_times","mouse_event_times","straightlining","zigzagging","honeypot","view_history","slider_start","which_type","canvas_config","goals_layout","control_level","trial_number","tutorial_trial_number","trial_start_time","phase1_start_time","phase2_start_time","phase3_start_time","goal_1_value","goal_1_distance","goal_2_value","goal_2_distance","goal_selected","outcome","outcome_total","participant_final_score","participant_initial_score","participant_final_score_prop","goal_choice_rt","allocated_time","allocated_time_remaining","goal_direction","counts","mouse_movements","key_presses"
"1235","1754492212694","<p style='font-size:40px;line-height:1.25'><strong>Welcome to the experiment!</strong></p><p style='font-size:1.1em;line-height:1.25'>Thank you for participanting in our experiment again! You will be asked to play the Dysfunctional Ball Game again. We will briefly recap the rules before we start.</p><p style='font-size:1.1em;line-height:1.25'>Press <strong>Next</strong> to continue.</p>","0","custom-html-button-response","0","1247","0.0-0.0","209","1","2025-08-06 14:56:49","36c45c0696341be0efffe67d72a12abb","5.69.202.172","Mozilla/5.0 (Windows NT 10.0; Win64; x64) AppleWebKit/537.36 (KHTML, like Gecko) Chrome/138.0.0.0 Safari/537.36","WebKit","Chrome","138.0.0.0","Windows","10.0","https://app.prolific.com/","en-GB,en-US;q=0.9,en;q=0.8","5c4f7b99b33a5300013dbfdd","6877649eabb845cf142cd221","68936d2c3d8a0791899fcd79","1","5c4f7b99b33a5300013dbfdd","1","2025-08-06T14:56:52.696Z","","","","","","","","","","","","","","","","","","","","","","","","","","","","","","","","","","","","","","","","","",""
"5471","","","","fullscreen","1","7734","0.0-1.0","209","1","2025-08-06 14:56:49","36c45c0696341be0efffe67d72a12abb","5.69.202.172","Mozilla/5.0 (Windows NT 10.0; Win64; x64) AppleWebKit/537.36 (KHTML, like Gecko) Chrome/138.0.0.0 Safari/537.36","WebKit","Chrome","138.0.0.0","Windows","10.0","https://app.prolific.com/","en-GB,en-US;q=0.9,en;q=0.8","5c4f7b99b33a5300013dbfdd","6877649eabb845cf142cd221","68936d2c3d8a0791899fcd79","1","5c4f7b99b33a5300013dbfdd","1","","true","","","","","","","","","","","","","","","","","","","","","","","","","","","","","","","","","","","","","","","","",""
"1769","1754492220955"," <p style='font-size:1.1em;line-height:1.25'>Thank you for closing all other tabs.</p><p style='font-size:1.1em;line-height:1.25'>We will now invite you to fill in some questionnaires, before starting the game.<br>This will take about 5 minutes.<br></p><p style='font-size:1.1em;line-height:1.25'>Press the <strong>Next</strong> button to continue.</p>","0","custom-html-button-response","2","9506","0.0-2.0","209","1","2025-08-06 14:56:49","36c45c0696341be0efffe67d72a12abb","5.69.202.172","Mozilla/5.0 (Windows NT 10.0; Win64; x64) AppleWebKit/537.36 (KHTML, like Gecko) Chrome/138.0.0.0 Safari/537.36","WebKit","Chrome","138.0.0.0","Windows","10.0","https://app.prolific.com/","en-GB,en-US;q=0.9,en;q=0.8","5c4f7b99b33a5300013dbfdd","6877649eabb845cf142cd221","68936d2c3d8a0791899fcd79","1","5c4f7b99b33a5300013dbfdd","1","2025-08-06T14:57:00.955Z","","","","","","","","","","","","","","","","","","","","","","","","","","","","","","","","","","","","","","","","","",""
"2828","","","{""assigned_sex"":""female""}","survey-multi-choice","3","12337","0.0-3.0-0.0","209","1","2025-08-06 14:56:49","36c45c0696341be0efffe67d72a12abb","5.69.202.172","Mozilla/5.0 (Windows NT 10.0; Win64; x64) AppleWebKit/537.36 (KHTML, like Gecko) Chrome/138.0.0.0 Safari/537.36","WebKit","Chrome","138.0.0.0","Windows","10.0","https://app.prolific.com/","en-GB,en-US;q=0.9,en;q=0.8","5c4f7b99b33a5300013dbfdd","6877649eabb845cf142cd221","68936d2c3d8a0791899fcd79","1","5c4f7b99b33a5300013dbfdd","1","","","[0]","0","demographics","","","","","","","","","","","","","","","","","","","","","","","","","","","","","","","","","","","","","",""
"2563","1754492226350","<p style='font-size:1.1em;line-height:1.25'>In the following, we will perform a baseline assessment. This means that we will ask you a few questions relating to your experiences over the past month.<br></p><p style='font-size:1.1em;line-height:1.25'>Press the <strong>Next</strong> button to continue.</p>","0","custom-html-button-response","4","14902","0.0-4.0-0.0","209","1","2025-08-06 14:56:49","36c45c0696341be0efffe67d72a12abb","5.69.202.172","Mozilla/5.0 (Windows NT 10.0; Win64; x64) AppleWebKit/537.36 (KHTML, like Gecko) Chrome/138.0.0.0 Safari/537.36","WebKit","Chrome","138.0.0.0","Windows","10.0","https://app.prolific.com/","en-GB,en-US;q=0.9,en;q=0.8","5c4f7b99b33a5300013dbfdd","6877649eabb845cf142cd221","68936d2c3d8a0791899fcd79","1","5c4f7b99b33a5300013dbfdd","1","2025-08-06T14:57:06.351Z","","","","","","","","","","","","","","","","","","","","","","","","","","","","","","","","","","","","","","","","","",""
"34466.5","","","","survey-template","5","49377","0.0-4.0-1.0","209","1","2025-08-06 14:56:49","36c45c0696341be0efffe67d72a12abb","5.69.202.172","Mozilla/5.0 (Windows NT 10.0; Win64; x64) AppleWebKit/537.36 (KHTML, like Gecko) Chrome/138.0.0.0 Safari/537.36","WebKit","Chrome","138.0.0.0","Windows","10.0","https://app.prolific.com/","en-GB,en-US;q=0.9,en;q=0.8","5c4f7b99b33a5300013dbfdd","6877649eabb845cf142cd221","68936d2c3d8a0791899fcd79","1","5c4f7b99b33a5300013dbfdd","1","2025-08-06T14:57:40.826Z","","","","pss","{""Q01"":""0"",""Q02"":""0"",""Q03"":""1"",""Q04"":""0"",""Q05"":""0"",""Q06"":""0"",""Q07"":""1"",""Q08"":""0"",""Q09"":""1"",""Q10"":""0""}","[0,1,2,3,4,5,6,7,8,9]","[""Q01"",""Q02"",""Q03"",""Q04"",""Q05"",""Q06"",""Q07"",""Q08"",""Q09"",""Q09"",""Q10""]","[4404.699999928474,8634.099999904633,9722.599999904633,13295.599999904633,16255.099999904633,19402.899999976158,22471.699999928474,27902.599999904633,30739.699999928474,32487.5,33531.199999928474]","[]","[0.6999999284744263,4404.699999928474,5616.099999904633,7559.799999952316,8171,8634.099999904633,9722.599999904633,13295.599999904633,16255.099999904633,19402.899999976158,22471.699999928474,27105.099999904633,27902.599999904633,30739.699999928474,32487.5,33531.199999928474,34461.199999928474]","0.4","0.4444444444444444","0","","","","","","","","","","","","","","","","","","","","","","","","","","","","",""
"1991","1754492262819","<p style='font-size:1.1em;line-height:1.25'>Thank you for your answers! Now we will ask you a few more questions relating to your feelings in the last 24 hours.<br></p><p style='font-size:1.1em;line-height:1.25'>Press the <strong>Next</strong> button to continue.</p>","0","custom-html-button-response","6","51371","0.0-4.0-2.0","209","1","2025-08-06 14:56:49","36c45c0696341be0efffe67d72a12abb","5.69.202.172","Mozilla/5.0 (Windows NT 10.0; Win64; x64) AppleWebKit/537.36 (KHTML, like Gecko) Chrome/138.0.0.0 Safari/537.36","WebKit","Chrome","138.0.0.0","Windows","10.0","https://app.prolific.com/","en-GB,en-US;q=0.9,en;q=0.8","5c4f7b99b33a5300013dbfdd","6877649eabb845cf142cd221","68936d2c3d8a0791899fcd79","1","5c4f7b99b33a5300013dbfdd","1","2025-08-06T14:57:42.820Z","","","","","","","","","","","","","","","","","","","","","","","","","","","","","","","","","","","","","","","","","",""
"43283.299999952316","","","","survey-template","7","94662","0.0-4.0-3.0","209","1","2025-08-06 14:56:49","36c45c0696341be0efffe67d72a12abb","5.69.202.172","Mozilla/5.0 (Windows NT 10.0; Win64; x64) AppleWebKit/537.36 (KHTML, like Gecko) Chrome/138.0.0.0 Safari/537.36","WebKit","Chrome","138.0.0.0","Windows","10.0","https://app.prolific.com/","en-GB,en-US;q=0.9,en;q=0.8","5c4f7b99b33a5300013dbfdd","6877649eabb845cf142cd221","68936d2c3d8a0791899fcd79","1","5c4f7b99b33a5300013dbfdd","1","2025-08-06T14:58:26.112Z","","","","drsp","{""Q01"":""0"",""Q02"":""0"",""Q03"":""0"",""Q04"":""0"",""Q05"":""0"",""Q06"":""0"",""Q07"":""0"",""Q08"":""0"",""Q09"":""0"",""Q10"":""1"",""Q11"":""1"",""Q12"":""0"",""Q13"":""5"",""Q14"":""1"",""Q15"":""2"",""Q16"":""1"",""Q17"":""0"",""Q18"":""0"",""Q19"":""0"",""Q20"":""0"",""Q21"":""0"",""Q22"":""0""}","[0,1,2,3,4,5,6,7,8,9,10,11,12,13,14,15,16,17,18,19,20,21]","[""Q01"",""Q02"",""Q03"",""Q04"",""Q05"",""Q06"",""Q07"",""Q09"",""Q08"",""Q10"",""Q11"",""Q12"",""Q13"",""Q14"",""Q15"",""Q15"",""Q16"",""Q17"",""Q18"",""Q19"",""Q19"",""Q20"",""Q21"",""Q22""]","[2609.7999999523163,3676.899999976158,4789.100000023842,5878.399999976158,6775.399999976158,7777.200000047684,8755.700000047684,11658,12275.799999952316,17890.399999976158,19770,20921.200000047684,23155.200000047684,24254.600000023842,25816.700000047684,27397.899999976158,31552.5,32540,33982.5,34765.5,35768.10000002384,39567.799999952316,40358.10000002384,41562.799999952316]","[]","[0.20000004768371582,2609.7999999523163,3676.899999976158,4789.100000023842,5878.399999976158,6775.399999976158,7777.200000047684,8755.700000047684,10004.200000047684,11086.399999976158,11658,12275.799999952316,17890.399999976158,18774.799999952316,19770,20921.200000047684,22132.899999976158,23155.200000047684,24254.600000023842,25816.700000047684,26897.200000047684,27397.899999976158,31552.5,32540,33982.5,34765.5,35768.10000002384,39567.799999952316,40358.10000002384,41562.799999952316,43274.700000047684]","0.7272727272727273","0.2857142857142857","0","","","","","","","","","","","","","","","","","","","","","","","","","","","","",""
"9591.5","","","","survey-template","8","104258","0.0-4.0-4.0","209","1","2025-08-06 14:56:49","36c45c0696341be0efffe67d72a12abb","5.69.202.172","Mozilla/5.0 (Windows NT 10.0; Win64; x64) AppleWebKit/537.36 (KHTML, like Gecko) Chrome/138.0.0.0 Safari/537.36","WebKit","Chrome","138.0.0.0","Windows","10.0","https://app.prolific.com/","en-GB,en-US;q=0.9,en;q=0.8","5c4f7b99b33a5300013dbfdd","6877649eabb845cf142cd221","68936d2c3d8a0791899fcd79","1","5c4f7b99b33a5300013dbfdd","1","2025-08-06T14:58:35.707Z","","","","stress","{""Q01"":""1"",""Q02"":""1"",""Q03"":""0""}","[0,1,2]","[""Q02"",""Q01"",""Q03""]","[4591.299999952316,5853.5,7772]","[]","[2465.1999999284744,3405.6999999284744,4591.299999952316,5853.5,7772,8790.5,9588.899999976158]","0.3333333333333333","0","0","","","","","","","","","","","","","","","","","","","","","","","","","","","","",""
"5034","","","","instructions","9","109294","0.0-5.0-0.0","209","1","2025-08-06 14:56:49","36c45c0696341be0efffe67d72a12abb","5.69.202.172","Mozilla/5.0 (Windows NT 10.0; Win64; x64) AppleWebKit/537.36 (KHTML, like Gecko) Chrome/138.0.0.0 Safari/537.36","WebKit","Chrome","138.0.0.0","Windows","10.0","https://app.prolific.com/","en-GB,en-US;q=0.9,en;q=0.8","5c4f7b99b33a5300013dbfdd","6877649eabb845cf142cd221","68936d2c3d8a0791899fcd79","1","5c4f7b99b33a5300013dbfdd","1","","","","","","","","","","","","","","","[{""page_index"":0,""viewing_time"":5033}]","","","","","","","","","","","","","","","","","","","","","","","","","","","",""
"2221","","<p>Before you start with this game please answer the following three questions yourself. </p>
  <p>Through this game, we measure several aspects of your cognitive performance, such as reaction times, multi-tasking capabilities </p>
  <p>and the ability to assess the situation you are in.</p>
  <p></p>
  <p><b>How good do you usually are in such tasks?</b></p>","33","html-slider-response","10","111528","0.0-6.0-0.0","209","1","2025-08-06 14:56:49","36c45c0696341be0efffe67d72a12abb","5.69.202.172","Mozilla/5.0 (Windows NT 10.0; Win64; x64) AppleWebKit/537.36 (KHTML, like Gecko) Chrome/138.0.0.0 Safari/537.36","WebKit","Chrome","138.0.0.0","Windows","10.0","https://app.prolific.com/","en-GB,en-US;q=0.9,en;q=0.8","5c4f7b99b33a5300013dbfdd","6877649eabb845cf142cd221","68936d2c3d8a0791899fcd79","1","5c4f7b99b33a5300013dbfdd","1","2025-08-06T14:58:42.977Z","","","","PreSkillQ","","","","","","","","","","","50","","","","","","","","","","","","","","","","","","","","","","","","","","",""
"3421","","<div style=""width:500px;"">
  <p>How well do you think you will perform in this task compared to other participants?</p>
  </div>","38","html-slider-response","11","114952","0.0-6.0-1.0","209","1","2025-08-06 14:56:49","36c45c0696341be0efffe67d72a12abb","5.69.202.172","Mozilla/5.0 (Windows NT 10.0; Win64; x64) AppleWebKit/537.36 (KHTML, like Gecko) Chrome/138.0.0.0 Safari/537.36","WebKit","Chrome","138.0.0.0","Windows","10.0","https://app.prolific.com/","en-GB,en-US;q=0.9,en;q=0.8","5c4f7b99b33a5300013dbfdd","6877649eabb845cf142cd221","68936d2c3d8a0791899fcd79","1","5c4f7b99b33a5300013dbfdd","1","2025-08-06T14:58:46.401Z","","","","PrePerfQ","","","","","","","","","","","50","","","","","","","","","","","","","","","","","","","","","","","","","","",""
"2376","","<div style=""width:500px;"">
  <p>What best describes how you currently feel?</p>
  </div>","75","html-slider-response","12","117330","0.0-6.0-2.0","209","1","2025-08-06 14:56:49","36c45c0696341be0efffe67d72a12abb","5.69.202.172","Mozilla/5.0 (Windows NT 10.0; Win64; x64) AppleWebKit/537.36 (KHTML, like Gecko) Chrome/138.0.0.0 Safari/537.36","WebKit","Chrome","138.0.0.0","Windows","10.0","https://app.prolific.com/","en-GB,en-US;q=0.9,en;q=0.8","5c4f7b99b33a5300013dbfdd","6877649eabb845cf142cd221","68936d2c3d8a0791899fcd79","1","5c4f7b99b33a5300013dbfdd","1","2025-08-06T14:58:48.779Z","","","","PreMotivationQ","","","","","","","","","","","50","","","","","","","","","","","","","","","","","","","","","","","","","","",""
"","","","","ctl-task-cpt","13","143542","0.0-7.0-0.0","209","1","2025-08-06 14:56:49","36c45c0696341be0efffe67d72a12abb","5.69.202.172","Mozilla/5.0 (Windows NT 10.0; Win64; x64) AppleWebKit/537.36 (KHTML, like Gecko) Chrome/138.0.0.0 Safari/537.36","WebKit","Chrome","138.0.0.0","Windows","10.0","https://app.prolific.com/","en-GB,en-US;q=0.9,en;q=0.8","5c4f7b99b33a5300013dbfdd","6877649eabb845cf142cd221","68936d2c3d8a0791899fcd79","1","5c4f7b99b33a5300013dbfdd","1","2025-08-06T14:59:14.991Z","","","","","","","","","","","","","","","","win-only","0","g1:NW,g2:SE","1","1","0","119453.6","1083.1","6085.5","23199.5","1","4","8","6","2","8","8","8","0","0.06060606060606061","1000.5","3000","1095","[""down"",""right""]","{""num_key_presses"":6,""num_perfect"":6,""num_errors"":0,""num_randdir"":0,""num_randdir_good_moves"":0,""num_whilered"":0,""num_whileblue"":0,""num_blue"":0,""num_good_moves"":6}","[425.741960471017,420.6638378552028,0.2,425.741960471017,420.6638378552028,103.6,425.741960471017,420.6638378552028,208.5,425.741960471017,420.6638378552028,312.6,425.741960471017,420.6638378552028,413,425.741960471017,420.6638378552028,517.7,563.241960471017,574.6638378552028,617.8,680.116960471017,705.2888378552028,718.2,726.866960471017,725.9138378552028,818.2,739.241960471017,746.5388378552028,919.3,740.616960471017,750.6638378552028,1023,740.616960471017,750.6638378552028,1129.7,740.616960471017,750.6638378552028,1232.9,740.616960471017,750.6638378552028,1338,740.616960471017,750.6638378552028,1438,740.616960471017,750.6638378552028,1538.4,740.616960471017,750.6638378552028,1638.4,740.616960471017,750.6638378552028,1743,740.616960471017,750.6638378552028,1843.1,740.616960471017,750.6638378552028,1943.8,740.616960471017,750.6638378552028,2047.5,740.616960471017,750.6638378552028,2148.5,740.616960471017,750.6638378552028,2252.9,740.616960471017,750.6638378552028,2359.1,740.616960471017,750.6638378552028,2462.9,740.616960471017,750.6638378552028,2569,740.616960471017,750.6638378552028,2669.3,740.616960471017,750.6638378552028,2772.7,740.616960471017,750.6638378552028,2873.1,740.616960471017,750.6638378552028,2973.5,740.616960471017,750.6638378552028,3074.4,740.616960471017,750.6638378552028,3178.9,740.616960471017,750.6638378552028,3283.5,740.616960471017,750.6638378552028,3388.2,740.616960471017,750.6638378552028,3488.5,740.616960471017,750.6638378552028,3593.5,740.616960471017,750.6638378552028,3697.3,740.616960471017,750.6638378552028,3797.4,740.616960471017,750.6638378552028,3897.8,740.616960471017,750.6638378552028,4002.6,740.616960471017,750.6638378552028,4103,740.616960471017,750.6638378552028,4203.4,740.616960471017,750.6638378552028,4303.5,740.616960471017,750.6638378552028,4411.7,740.616960471017,750.6638378552028,4512.2,740.616960471017,750.6638378552028,4612.6,740.616960471017,750.6638378552028,4728.4,740.616960471017,750.6638378552028,4833.1,740.616960471017,750.6638378552028,4933.6]","[1328,1327.9,1000,0.1,327.9,""smooth"",""down"",""down"",""good_move"",4953.1,3624.7,3237.2,1328.4,387.5,""smooth"",""down"",""down"",""good_move"",8042.2,3088.8,2714.8,4953.4,374,""smooth"",""right"",""right"",""good_move"",11141.8,3098.8,2747.4,8043,351.4,""smooth"",""down"",""down"",""good_move"",13874.5,2732.5,2371.3,11142,361.2,""smooth"",""right"",""right"",""good_move"",16992.6,3117.8,2796.3,13874.8,321.5,""smooth"",""right"",""right"",""good_move""]"
"3629","","<div style=""width:500px;"">
  <p>What determined the result of this run?</p>
  </div>","34","html-slider-response","14","147172","0.0-7.0-1.0","209","1","2025-08-06 14:56:49","36c45c0696341be0efffe67d72a12abb","5.69.202.172","Mozilla/5.0 (Windows NT 10.0; Win64; x64) AppleWebKit/537.36 (KHTML, like Gecko) Chrome/138.0.0.0 Safari/537.36","WebKit","Chrome","138.0.0.0","Windows","10.0","https://app.prolific.com/","en-GB,en-US;q=0.9,en;q=0.8","5c4f7b99b33a5300013dbfdd","6877649eabb845cf142cd221","68936d2c3d8a0791899fcd79","1","5c4f7b99b33a5300013dbfdd","1","2025-08-06T14:59:18.621Z","","","","AttribQ","","","","","","","","","","","50","","","","","","","","","","","","","","","","","","","","","","","","","","",""
"1834","","<div style=""width:500px;"">
  <p>How much control did you have over the ball?</p>
  </div>","100","html-slider-response","15","149007","0.0-7.0-2.0","209","1","2025-08-06 14:56:49","36c45c0696341be0efffe67d72a12abb","5.69.202.172","Mozilla/5.0 (Windows NT 10.0; Win64; x64) AppleWebKit/537.36 (KHTML, like Gecko) Chrome/138.0.0.0 Safari/537.36","WebKit","Chrome","138.0.0.0","Windows","10.0","https://app.prolific.com/","en-GB,en-US;q=0.9,en;q=0.8","5c4f7b99b33a5300013dbfdd","6877649eabb845cf142cd221","68936d2c3d8a0791899fcd79","1","5c4f7b99b33a5300013dbfdd","1","2025-08-06T14:59:20.456Z","","","","ControlQ","","","","","","","","","","","50","","","","","","","","","","","","","","","","","","","","","","","","","","",""
"2616","","<div style=""width:500px;"">
  <p>How would you describe your current emotional state?</p>
  </div>","0","html-slider-response","16","151624","0.0-7.0-3.0","209","1","2025-08-06 14:56:49","36c45c0696341be0efffe67d72a12abb","5.69.202.172","Mozilla/5.0 (Windows NT 10.0; Win64; x64) AppleWebKit/537.36 (KHTML, like Gecko) Chrome/138.0.0.0 Safari/537.36","WebKit","Chrome","138.0.0.0","Windows","10.0","https://app.prolific.com/","en-GB,en-US;q=0.9,en;q=0.8","5c4f7b99b33a5300013dbfdd","6877649eabb845cf142cd221","68936d2c3d8a0791899fcd79","1","5c4f7b99b33a5300013dbfdd","1","2025-08-06T14:59:23.074Z","","","","StressQ","","","","","","","","","","","50","","","","","","","","","","","","","","","","","","","","","","","","","","",""
"2394","","<div style=""width:500px;"">
  <p>What best describes how you currently feel?</p>
  </div>","74","html-slider-response","17","154020","0.0-7.0-4.0","209","1","2025-08-06 14:56:49","36c45c0696341be0efffe67d72a12abb","5.69.202.172","Mozilla/5.0 (Windows NT 10.0; Win64; x64) AppleWebKit/537.36 (KHTML, like Gecko) Chrome/138.0.0.0 Safari/537.36","WebKit","Chrome","138.0.0.0","Windows","10.0","https://app.prolific.com/","en-GB,en-US;q=0.9,en;q=0.8","5c4f7b99b33a5300013dbfdd","6877649eabb845cf142cd221","68936d2c3d8a0791899fcd79","1","5c4f7b99b33a5300013dbfdd","1","2025-08-06T14:59:25.469Z","","","","MotivationQ","","","","","","","","","","","50","","","","","","","","","","","","","","","","","","","","","","","","","","",""
"","","","","ctl-task-cpt","18","200013","0.0-7.0-0.1","209","1","2025-08-06 14:56:49","36c45c0696341be0efffe67d72a12abb","5.69.202.172","Mozilla/5.0 (Windows NT 10.0; Win64; x64) AppleWebKit/537.36 (KHTML, like Gecko) Chrome/138.0.0.0 Safari/537.36","WebKit","Chrome","138.0.0.0","Windows","10.0","https://app.prolific.com/","en-GB,en-US;q=0.9,en;q=0.8","5c4f7b99b33a5300013dbfdd","6877649eabb845cf142cd221","68936d2c3d8a0791899fcd79","1","5c4f7b99b33a5300013dbfdd","1","2025-08-06T15:00:11.462Z","","","","","","","","","","","","","","","","win-only","1","g1:NE,g2:SW","0.9","2","0","156140.6","759.8","5763.2","42976.4","1","4","4","6","2","-4","-4","4","8","0.030303030303030304","891.7","3000","-2995","[""down"",""left""]","{""num_key_presses"":7,""num_perfect"":6,""num_errors"":0,""num_randdir"":1,""num_randdir_good_moves"":0,""num_whilered"":0,""num_whileblue"":0,""num_blue"":4,""num_good_moves"":6}","[414.741960471017,422.0388378552028,0.2,414.741960471017,422.0388378552028,102,414.741960471017,422.0388378552028,205.7,414.741960471017,422.0388378552028,305.9,414.741960471017,422.0388378552028,406.1,414.741960471017,422.0388378552028,508.2,169.99196047101702,691.5388378552028,611.8,134.24196047101702,721.7888378552028,716.4,110.86696047101701,749.2888378552028,822.1,101.24196047101701,757.5388378552028,926.8,101.24196047101701,757.5388378552028,1026.9,101.24196047101701,757.5388378552028,1127.6,36.61696047101701,742.4138378552028,1231,-495.508039528983,717.6638378552028,1332.1,-499.633039528983,719.0388378552028,1437.2,-499.633039528983,719.0388378552028,1541.7,-499.633039528983,719.0388378552028,1646.2,-499.633039528983,719.0388378552028,1751.9,-499.633039528983,719.0388378552028,1856.1,-499.633039528983,719.0388378552028,1956.4,-499.633039528983,719.0388378552028,2056.6,-499.633039528983,719.0388378552028,2157.8,-499.633039528983,719.0388378552028,2261.6,-499.633039528983,719.0388378552028,2361.8,-499.633039528983,719.0388378552028,2461.8,-499.633039528983,719.0388378552028,2561.8,-499.633039528983,719.0388378552028,2666.3,-499.633039528983,719.0388378552028,2771.1,-499.633039528983,719.0388378552028,2876.3,-499.633039528983,719.0388378552028,2981.4,-499.633039528983,719.0388378552028,3086.9,-499.633039528983,719.0388378552028,3191.1,-499.633039528983,719.0388378552028,3296.1,-499.633039528983,719.0388378552028,3396.7,-499.633039528983,719.0388378552028,3496.7,-499.633039528983,719.0388378552028,3597.6,-499.633039528983,719.0388378552028,3703.3,-499.633039528983,719.0388378552028,3807.4,-499.633039528983,719.0388378552028,3907.5,-499.633039528983,719.0388378552028,4010.9,-499.633039528983,719.0388378552028,4111.6,-499.633039528983,719.0388378552028,4211.7,-499.633039528983,719.0388378552028,4316.9,-499.633039528983,719.0388378552028,4416.9,-499.633039528983,719.0388378552028,4522.3,-499.633039528983,719.0388378552028,4627.3,-499.633039528983,719.0388378552028,4731.9,-499.633039528983,719.0388378552028,4835.5,-499.633039528983,719.0388378552028,4936.5]","[4835.2,4835.2,2525.5,2007.9,301.8,""smooth"",""down"",""down"",""good_move"",11632.9,6797.6,2437.9,8858.2,336.8,""smooth"",""left"",""left"",""good_move"",22508,10874.9,3982.2,18122.9,402.9,""smooth"",""down"",""down"",""good_move"",25281.7,2773.4,1879.7,22508.3,893.7,""smooth"",""left"",""left"",""good_move"",28782.7,3501,3207.5,25281.8,293.5,""oops"",""left"",""up"",""bad_move"",31193.5,2410.5,2044.1,28783,366.4,""smooth"",""left"",""left"",""good_move"",34638.2,3444.5,3149.6,31193.7,294.9,""smooth"",""down"",""down"",""good_move""]"
"3212","","<div style=""width:500px;"">
  <p>What determined the result of this run?</p>
  </div>","0","html-slider-response","19","203226","0.0-7.0-1.1","209","1","2025-08-06 14:56:49","36c45c0696341be0efffe67d72a12abb","5.69.202.172","Mozilla/5.0 (Windows NT 10.0; Win64; x64) AppleWebKit/537.36 (KHTML, like Gecko) Chrome/138.0.0.0 Safari/537.36","WebKit","Chrome","138.0.0.0","Windows","10.0","https://app.prolific.com/","en-GB,en-US;q=0.9,en;q=0.8","5c4f7b99b33a5300013dbfdd","6877649eabb845cf142cd221","68936d2c3d8a0791899fcd79","1","5c4f7b99b33a5300013dbfdd","1","2025-08-06T15:00:14.675Z","","","","AttribQ","","","","","","","","","","","50","","","","","","","","","","","","","","","","","","","","","","","","","","",""
"2341","","<div style=""width:500px;"">
  <p>How much control did you have over the ball?</p>
  </div>","29","html-slider-response","20","205568","0.0-7.0-2.1","209","1","2025-08-06 14:56:49","36c45c0696341be0efffe67d72a12abb","5.69.202.172","Mozilla/5.0 (Windows NT 10.0; Win64; x64) AppleWebKit/537.36 (KHTML, like Gecko) Chrome/138.0.0.0 Safari/537.36","WebKit","Chrome","138.0.0.0","Windows","10.0","https://app.prolific.com/","en-GB,en-US;q=0.9,en;q=0.8","5c4f7b99b33a5300013dbfdd","6877649eabb845cf142cd221","68936d2c3d8a0791899fcd79","1","5c4f7b99b33a5300013dbfdd","1","2025-08-06T15:00:17.017Z","","","","ControlQ","","","","","","","","","","","50","","","","","","","","","","","","","","","","","","","","","","","","","","",""
"2255","","<div style=""width:500px;"">
  <p>How would you describe your current emotional state?</p>
  </div>","31","html-slider-response","21","207824","0.0-7.0-3.1","209","1","2025-08-06 14:56:49","36c45c0696341be0efffe67d72a12abb","5.69.202.172","Mozilla/5.0 (Windows NT 10.0; Win64; x64) AppleWebKit/537.36 (KHTML, like Gecko) Chrome/138.0.0.0 Safari/537.36","WebKit","Chrome","138.0.0.0","Windows","10.0","https://app.prolific.com/","en-GB,en-US;q=0.9,en;q=0.8","5c4f7b99b33a5300013dbfdd","6877649eabb845cf142cd221","68936d2c3d8a0791899fcd79","1","5c4f7b99b33a5300013dbfdd","1","2025-08-06T15:00:19.273Z","","","","StressQ","","","","","","","","","","","50","","","","","","","","","","","","","","","","","","","","","","","","","","",""
"1856","","<div style=""width:500px;"">
  <p>What best describes how you currently feel?</p>
  </div>","61","html-slider-response","22","209681","0.0-7.0-4.1","209","1","2025-08-06 14:56:49","36c45c0696341be0efffe67d72a12abb","5.69.202.172","Mozilla/5.0 (Windows NT 10.0; Win64; x64) AppleWebKit/537.36 (KHTML, like Gecko) Chrome/138.0.0.0 Safari/537.36","WebKit","Chrome","138.0.0.0","Windows","10.0","https://app.prolific.com/","en-GB,en-US;q=0.9,en;q=0.8","5c4f7b99b33a5300013dbfdd","6877649eabb845cf142cd221","68936d2c3d8a0791899fcd79","1","5c4f7b99b33a5300013dbfdd","1","2025-08-06T15:00:21.130Z","","","","MotivationQ","","","","","","","","","","","50","","","","","","","","","","","","","","","","","","","","","","","","","","",""
"","","","","ctl-task-cpt","23","258255","0.0-7.0-0.2","209","1","2025-08-06 14:56:49","36c45c0696341be0efffe67d72a12abb","5.69.202.172","Mozilla/5.0 (Windows NT 10.0; Win64; x64) AppleWebKit/537.36 (KHTML, like Gecko) Chrome/138.0.0.0 Safari/537.36","WebKit","Chrome","138.0.0.0","Windows","10.0","https://app.prolific.com/","en-GB,en-US;q=0.9,en;q=0.8","5c4f7b99b33a5300013dbfdd","6877649eabb845cf142cd221","68936d2c3d8a0791899fcd79","1","5c4f7b99b33a5300013dbfdd","1","2025-08-06T15:01:09.704Z","","","","","","","","","","","","","","","","win-only","0","g1:NW,g2:SE","0.8","3","0","211802.7","904.8","5905.7","45555.7","1","4","4","6","2","4","2","6","4","0.045454545454545456","1218.2","3000","475","[""down"",""right""]","{""num_key_presses"":9,""num_perfect"":5,""num_errors"":2,""num_randdir"":2,""num_randdir_good_moves"":2,""num_whilered"":0,""num_whileblue"":1,""num_blue"":5,""num_good_moves"":7}","[416.116960471017,409.6638378552028,0,416.116960471017,409.6638378552028,101.6,416.116960471017,409.6638378552028,202.2,416.116960471017,409.6638378552028,306.5,416.116960471017,409.6638378552028,406.7,486.241960471017,516.9138378552028,512.9,615.491960471017,684.6638378552028,614,703.491960471017,746.5388378552028,716.4,717.241960471017,761.6638378552028,816.4,717.241960471017,761.6638378552028,916.4,717.241960471017,761.6638378552028,1016.5,807.991960471017,782.2888378552028,1116.7,812.116960471017,783.6638378552028,1228,812.116960471017,783.6638378552028,1330.9,820.366960471017,778.1638378552028,1431.1,1120.116960471017,669.5388378552028,1531.1,1139.366960471017,669.5388378552028,1631.5,1139.366960471017,669.5388378552028,1732.2,1139.366960471017,669.5388378552028,1836.3,1139.366960471017,669.5388378552028,1940.9,1139.366960471017,669.5388378552028,2041.1,1139.366960471017,669.5388378552028,2141.3,1139.366960471017,669.5388378552028,2241.4,1139.366960471017,669.5388378552028,2341.6,1139.366960471017,669.5388378552028,2446.8,1139.366960471017,669.5388378552028,2550.4,1139.366960471017,669.5388378552028,2651.7,1139.366960471017,669.5388378552028,2756.3,1139.366960471017,669.5388378552028,2857.5,1139.366960471017,669.5388378552028,2960.7,1139.366960471017,669.5388378552028,3066.2,1139.366960471017,669.5388378552028,3170.9,1139.366960471017,669.5388378552028,3271.1,1139.366960471017,669.5388378552028,3371.2,1139.366960471017,669.5388378552028,3476.2,1139.366960471017,669.5388378552028,3576.2,1139.366960471017,669.5388378552028,3680.9,1139.366960471017,669.5388378552028,3786.3,1139.366960471017,669.5388378552028,3890.5,1139.366960471017,669.5388378552028,3990.9,1139.366960471017,669.5388378552028,4096.5,1139.366960471017,669.5388378552028,4197,1139.366960471017,669.5388378552028,4297,1139.366960471017,669.5388378552028,4401,1139.366960471017,669.5388378552028,4505.7,1139.366960471017,669.5388378552028,4606.2,1139.366960471017,669.5388378552028,4710.5,1139.366960471017,669.5388378552028,4811.6,1139.366960471017,669.5388378552028,4915.7]","[1426.6,1426.6,1000,0,426.6,""smooth"",""down"",""down"",""good_move"",5601.9,4175,2324.1,5050,-1772.2,""error"",""-"",""-"",""no_move"",9144.8,3542.7,2209.6,6613.7,321.5,""oops"",""down"",""right"",""good_move"",12920.1,3775,3454.9,9145.1,320.1,""while_blue"",""down"",""up"",""bad_move"",19613.5,6692.6,3379.2,15935.2,299.1,""smooth"",""down"",""down"",""good_move"",23062.8,3449.1,3080.4,19613.7,368.7,""smooth"",""down"",""down"",""good_move"",30205.3,7142.3,3020.7,26840.6,344,""smooth"",""right"",""right"",""good_move"",32965.3,2760,2402.4,30205.4,357.6,""smooth"",""down"",""down"",""good_move"",39546.6,6580.9,2620.5,36481.6,444.5,""oops"",""right"",""right"",""good_move""]"
"2736","","<div style=""width:500px;"">
  <p>What determined the result of this run?</p>
  </div>","34","html-slider-response","24","260993","0.0-7.0-1.2","209","1","2025-08-06 14:56:49","36c45c0696341be0efffe67d72a12abb","5.69.202.172","Mozilla/5.0 (Windows NT 10.0; Win64; x64) AppleWebKit/537.36 (KHTML, like Gecko) Chrome/138.0.0.0 Safari/537.36","WebKit","Chrome","138.0.0.0","Windows","10.0","https://app.prolific.com/","en-GB,en-US;q=0.9,en;q=0.8","5c4f7b99b33a5300013dbfdd","6877649eabb845cf142cd221","68936d2c3d8a0791899fcd79","1","5c4f7b99b33a5300013dbfdd","1","2025-08-06T15:01:12.442Z","","","","AttribQ","","","","","","","","","","","50","","","","","","","","","","","","","","","","","","","","","","","","","","",""
"2697","","<div style=""width:500px;"">
  <p>How much control did you have over the ball?</p>
  </div>","36","html-slider-response","25","263690","0.0-7.0-2.2","209","1","2025-08-06 14:56:49","36c45c0696341be0efffe67d72a12abb","5.69.202.172","Mozilla/5.0 (Windows NT 10.0; Win64; x64) AppleWebKit/537.36 (KHTML, like Gecko) Chrome/138.0.0.0 Safari/537.36","WebKit","Chrome","138.0.0.0","Windows","10.0","https://app.prolific.com/","en-GB,en-US;q=0.9,en;q=0.8","5c4f7b99b33a5300013dbfdd","6877649eabb845cf142cd221","68936d2c3d8a0791899fcd79","1","5c4f7b99b33a5300013dbfdd","1","2025-08-06T15:01:15.139Z","","","","ControlQ","","","","","","","","","","","50","","","","","","","","","","","","","","","","","","","","","","","","","","",""
"2248","","<div style=""width:500px;"">
  <p>How would you describe your current emotional state?</p>
  </div>","27","html-slider-response","26","265939","0.0-7.0-3.2","209","1","2025-08-06 14:56:49","36c45c0696341be0efffe67d72a12abb","5.69.202.172","Mozilla/5.0 (Windows NT 10.0; Win64; x64) AppleWebKit/537.36 (KHTML, like Gecko) Chrome/138.0.0.0 Safari/537.36","WebKit","Chrome","138.0.0.0","Windows","10.0","https://app.prolific.com/","en-GB,en-US;q=0.9,en;q=0.8","5c4f7b99b33a5300013dbfdd","6877649eabb845cf142cd221","68936d2c3d8a0791899fcd79","1","5c4f7b99b33a5300013dbfdd","1","2025-08-06T15:01:17.388Z","","","","StressQ","","","","","","","","","","","50","","","","","","","","","","","","","","","","","","","","","","","","","","",""
"1671","","<div style=""width:500px;"">
  <p>What best describes how you currently feel?</p>
  </div>","59","html-slider-response","27","267612","0.0-7.0-4.2","209","1","2025-08-06 14:56:49","36c45c0696341be0efffe67d72a12abb","5.69.202.172","Mozilla/5.0 (Windows NT 10.0; Win64; x64) AppleWebKit/537.36 (KHTML, like Gecko) Chrome/138.0.0.0 Safari/537.36","WebKit","Chrome","138.0.0.0","Windows","10.0","https://app.prolific.com/","en-GB,en-US;q=0.9,en;q=0.8","5c4f7b99b33a5300013dbfdd","6877649eabb845cf142cd221","68936d2c3d8a0791899fcd79","1","5c4f7b99b33a5300013dbfdd","1","2025-08-06T15:01:19.061Z","","","","MotivationQ","","","","","","","","","","","50","","","","","","","","","","","","","","","","","","","","","","","","","","",""
"","","","","ctl-task-cpt","28","293045","0.0-7.0-0.3","209","1","2025-08-06 14:56:49","36c45c0696341be0efffe67d72a12abb","5.69.202.172","Mozilla/5.0 (Windows NT 10.0; Win64; x64) AppleWebKit/537.36 (KHTML, like Gecko) Chrome/138.0.0.0 Safari/537.36","WebKit","Chrome","138.0.0.0","Windows","10.0","https://app.prolific.com/","en-GB,en-US;q=0.9,en;q=0.8","5c4f7b99b33a5300013dbfdd","6877649eabb845cf142cd221","68936d2c3d8a0791899fcd79","1","5c4f7b99b33a5300013dbfdd","1","2025-08-06T15:01:44.494Z","","","","","","","","","","","","","","","","win-only","3","g1:SW,g2:NE","0.7","4","0","269737.1","1172","6176.3","22411","1","4","8","6","2","8","8","14","6","0.10606060606060606","863.3","3000","875","[""up"",""right""]","{""num_key_presses"":6,""num_perfect"":4,""num_errors"":0,""num_randdir"":2,""num_randdir_good_moves"":2,""num_whilered"":0,""num_whileblue"":0,""num_blue"":0,""num_good_moves"":6}","[416.116960471017,412.4138378552028,0.2,416.116960471017,412.4138378552028,104.3,416.116960471017,412.4138378552028,204.4,416.116960471017,412.4138378552028,308.1,417.491960471017,417.9138378552028,408.6,662.241960471017,108.5388378552028,508.9,691.116960471017,85.1638378552028,614.5,691.116960471017,85.1638378552028,719.2,754.366960471017,71.4138378552028,825,759.866960471017,72.7888378552028,940.1,770.866960471017,75.5388378552028,1042.2,963.366960471017,145.66383785520281,1145.3,1021.116960471017,181.41383785520281,1249.1,1066.491960471017,191.03883785520281,1356.7,1066.491960471017,191.03883785520281,1464.5,1066.491960471017,191.03883785520281,1568.6,1066.491960471017,191.03883785520281,1668.6,1066.491960471017,191.03883785520281,1768.6,1066.491960471017,191.03883785520281,1868.6,1066.491960471017,191.03883785520281,1973.8,1066.491960471017,191.03883785520281,2078.8,1066.491960471017,191.03883785520281,2179,1066.491960471017,191.03883785520281,2283.9,1066.491960471017,191.03883785520281,2388.9,1066.491960471017,191.03883785520281,2490.8,1066.491960471017,191.03883785520281,2591.3,1066.491960471017,191.03883785520281,2696.5,1066.491960471017,191.03883785520281,2798.6,1066.491960471017,191.03883785520281,2899.3,1066.491960471017,191.03883785520281,3004.4,1066.491960471017,191.03883785520281,3108.9,1066.491960471017,191.03883785520281,3213.8,1066.491960471017,191.03883785520281,3313.9,1066.491960471017,191.03883785520281,3414.1,1066.491960471017,191.03883785520281,3519.1,1066.491960471017,191.03883785520281,3623.9,1066.491960471017,191.03883785520281,3725,1066.491960471017,191.03883785520281,3828.5,1066.491960471017,191.03883785520281,3929.2,1066.491960471017,191.03883785520281,4034.3,1066.491960471017,191.03883785520281,4143,1066.491960471017,191.03883785520281,4243.7,1066.491960471017,191.03883785520281,4344.1,1066.491960471017,191.03883785520281,4448.7,1066.491960471017,191.03883785520281,4556.7,1066.491960471017,191.03883785520281,4659.2,1066.491960471017,191.03883785520281,4764.1,1066.491960471017,191.03883785520281,4868.4,1066.491960471017,191.03883785520281,4968.7]","[1306.2,1306.2,1000,0,306.2,""smooth"",""up"",""up"",""good_move"",3919.1,2612.5,2077.8,1306.6,534.7,""oops"",""up"",""up"",""good_move"",7662.4,3743.2,3426.8,3919.2,316.4,""smooth"",""right"",""right"",""good_move"",10441.8,2779.1,2463.8,7662.8,315.2,""oops"",""right"",""up"",""good_move"",12677.4,2235.3,1863,10442.1,372.3,""smooth"",""right"",""right"",""good_move"",16148.2,3470.6,3152.9,12677.6,317.7,""smooth"",""right"",""right"",""good_move""]"
"6159","","<div style=""width:500px;"">
  <p>What determined the result of this run?</p>
  </div>","37","html-slider-response","29","299205","0.0-7.0-1.3","209","1","2025-08-06 14:56:49","36c45c0696341be0efffe67d72a12abb","5.69.202.172","Mozilla/5.0 (Windows NT 10.0; Win64; x64) AppleWebKit/537.36 (KHTML, like Gecko) Chrome/138.0.0.0 Safari/537.36","WebKit","Chrome","138.0.0.0","Windows","10.0","https://app.prolific.com/","en-GB,en-US;q=0.9,en;q=0.8","5c4f7b99b33a5300013dbfdd","6877649eabb845cf142cd221","68936d2c3d8a0791899fcd79","1","5c4f7b99b33a5300013dbfdd","1","2025-08-06T15:01:50.654Z","","","","AttribQ","","","","","","","","","","","50","","","","","","","","","","","","","","","","","","","","","","","","","","",""
"3597","","<div style=""width:500px;"">
  <p>How much control did you have over the ball?</p>
  </div>","62","html-slider-response","30","302803","0.0-7.0-2.3","209","1","2025-08-06 14:56:49","36c45c0696341be0efffe67d72a12abb","5.69.202.172","Mozilla/5.0 (Windows NT 10.0; Win64; x64) AppleWebKit/537.36 (KHTML, like Gecko) Chrome/138.0.0.0 Safari/537.36","WebKit","Chrome","138.0.0.0","Windows","10.0","https://app.prolific.com/","en-GB,en-US;q=0.9,en;q=0.8","5c4f7b99b33a5300013dbfdd","6877649eabb845cf142cd221","68936d2c3d8a0791899fcd79","1","5c4f7b99b33a5300013dbfdd","1","2025-08-06T15:01:54.252Z","","","","ControlQ","","","","","","","","","","","50","","","","","","","","","","","","","","","","","","","","","","","","","","",""
"2449","","<div style=""width:500px;"">
  <p>How would you describe your current emotional state?</p>
  </div>","27","html-slider-response","31","305253","0.0-7.0-3.3","209","1","2025-08-06 14:56:49","36c45c0696341be0efffe67d72a12abb","5.69.202.172","Mozilla/5.0 (Windows NT 10.0; Win64; x64) AppleWebKit/537.36 (KHTML, like Gecko) Chrome/138.0.0.0 Safari/537.36","WebKit","Chrome","138.0.0.0","Windows","10.0","https://app.prolific.com/","en-GB,en-US;q=0.9,en;q=0.8","5c4f7b99b33a5300013dbfdd","6877649eabb845cf142cd221","68936d2c3d8a0791899fcd79","1","5c4f7b99b33a5300013dbfdd","1","2025-08-06T15:01:56.702Z","","","","StressQ","","","","","","","","","","","50","","","","","","","","","","","","","","","","","","","","","","","","","","",""
"2371","","<div style=""width:500px;"">
  <p>What best describes how you currently feel?</p>
  </div>","59","html-slider-response","32","307624","0.0-7.0-4.3","209","1","2025-08-06 14:56:49","36c45c0696341be0efffe67d72a12abb","5.69.202.172","Mozilla/5.0 (Windows NT 10.0; Win64; x64) AppleWebKit/537.36 (KHTML, like Gecko) Chrome/138.0.0.0 Safari/537.36","WebKit","Chrome","138.0.0.0","Windows","10.0","https://app.prolific.com/","en-GB,en-US;q=0.9,en;q=0.8","5c4f7b99b33a5300013dbfdd","6877649eabb845cf142cd221","68936d2c3d8a0791899fcd79","1","5c4f7b99b33a5300013dbfdd","1","2025-08-06T15:01:59.074Z","","","","MotivationQ","","","","","","","","","","","50","","","","","","","","","","","","","","","","","","","","","","","","","","",""
"","","","","ctl-task-cpt","33","337405","0.0-7.0-0.4","209","1","2025-08-06 14:56:49","36c45c0696341be0efffe67d72a12abb","5.69.202.172","Mozilla/5.0 (Windows NT 10.0; Win64; x64) AppleWebKit/537.36 (KHTML, like Gecko) Chrome/138.0.0.0 Safari/537.36","WebKit","Chrome","138.0.0.0","Windows","10.0","https://app.prolific.com/","en-GB,en-US;q=0.9,en;q=0.8","5c4f7b99b33a5300013dbfdd","6877649eabb845cf142cd221","68936d2c3d8a0791899fcd79","1","5c4f7b99b33a5300013dbfdd","1","2025-08-06T15:02:28.854Z","","","","","","","","","","","","","","","","win-only","0","g1:NW,g2:SE","0.6","5","0","309745.5","644.8","5645.5","26761.7","1","4","4","6","2","4","4","18","14","0.13636363636363635","877.4","3000","1495","[""down"",""right""]","{""num_key_presses"":6,""num_perfect"":5,""num_errors"":0,""num_randdir"":1,""num_randdir_good_moves"":1,""num_whilered"":0,""num_whileblue"":0,""num_blue"":2,""num_good_moves"":6}","[407.866960471017,412.4138378552028,0.2,407.866960471017,412.4138378552028,101,407.866960471017,412.4138378552028,201.9,407.866960471017,412.4138378552028,306.4,431.241960471017,434.4138378552028,414.8,636.116960471017,724.5388378552028,515.2,645.741960471017,736.9138378552028,616.4,645.741960471017,736.9138378552028,717.1,761.241960471017,756.1638378552028,821.4,768.116960471017,757.5388378552028,921.7,768.116960471017,757.5388378552028,1022,926.241960471017,761.6638378552028,1131,935.866960471017,761.6638378552028,1232.4,935.866960471017,761.6638378552028,1336.2,1080.241960471017,738.2888378552028,1437.9,1195.741960471017,709.4138378552028,1541.3,1195.741960471017,709.4138378552028,1647.7,1195.741960471017,709.4138378552028,1751.6,1195.741960471017,709.4138378552028,1856.2,1195.741960471017,709.4138378552028,1963.8,1195.741960471017,709.4138378552028,2072.2,1195.741960471017,709.4138378552028,2176.5,1195.741960471017,709.4138378552028,2278.4,1195.741960471017,709.4138378552028,2379.4,1195.741960471017,709.4138378552028,2481.8,1195.741960471017,709.4138378552028,2586.1,1195.741960471017,709.4138378552028,2686.4,1195.741960471017,709.4138378552028,2790.7,1195.741960471017,709.4138378552028,2891.4,1195.741960471017,709.4138378552028,2991.8,1195.741960471017,709.4138378552028,3096.4,1195.741960471017,709.4138378552028,3201.8,1195.741960471017,709.4138378552028,3306.4,1195.741960471017,709.4138378552028,3406.8,1195.741960471017,709.4138378552028,3511.1,1195.741960471017,709.4138378552028,3616.3,1195.741960471017,709.4138378552028,3720.8,1195.741960471017,709.4138378552028,3821,1195.741960471017,709.4138378552028,3921.3,1195.741960471017,709.4138378552028,4021.3,1195.741960471017,709.4138378552028,4121.5,1195.741960471017,709.4138378552028,4230.3,1195.741960471017,709.4138378552028,4331.2,1195.741960471017,709.4138378552028,4434.4,1195.741960471017,709.4138378552028,4537,1195.741960471017,709.4138378552028,4642.2,1195.741960471017,709.4138378552028,4746,1195.741960471017,709.4138378552028,4851,1195.741960471017,709.4138378552028,4951.1]","[1291.8,1291.8,1000,0,291.8,""smooth"",""down"",""down"",""good_move"",3879.5,2587.3,2298.9,1292.2,288.4,""smooth"",""right"",""right"",""good_move"",6880,2999.8,2728.4,3880.2,271.4,""oops"",""down"",""right"",""good_move"",13097.1,6217,2566.5,10200.3,330.3,""smooth"",""down"",""down"",""good_move"",18601.9,5504.6,2025.3,16265.4,311.2,""smooth"",""down"",""down"",""good_move"",21009.5,2407.4,2075.7,18602.2,331.7,""smooth"",""right"",""right"",""good_move""]"
"2147","","<div style=""width:500px;"">
  <p>What determined the result of this run?</p>
  </div>","42","html-slider-response","34","339553","0.0-7.0-1.4","209","1","2025-08-06 14:56:49","36c45c0696341be0efffe67d72a12abb","5.69.202.172","Mozilla/5.0 (Windows NT 10.0; Win64; x64) AppleWebKit/537.36 (KHTML, like Gecko) Chrome/138.0.0.0 Safari/537.36","WebKit","Chrome","138.0.0.0","Windows","10.0","https://app.prolific.com/","en-GB,en-US;q=0.9,en;q=0.8","5c4f7b99b33a5300013dbfdd","6877649eabb845cf142cd221","68936d2c3d8a0791899fcd79","1","5c4f7b99b33a5300013dbfdd","1","2025-08-06T15:02:31.002Z","","","","AttribQ","","","","","","","","","","","50","","","","","","","","","","","","","","","","","","","","","","","","","","",""
"3940","","<div style=""width:500px;"">
  <p>How much control did you have over the ball?</p>
  </div>","87","html-slider-response","35","343494","0.0-7.0-2.4","209","1","2025-08-06 14:56:49","36c45c0696341be0efffe67d72a12abb","5.69.202.172","Mozilla/5.0 (Windows NT 10.0; Win64; x64) AppleWebKit/537.36 (KHTML, like Gecko) Chrome/138.0.0.0 Safari/537.36","WebKit","Chrome","138.0.0.0","Windows","10.0","https://app.prolific.com/","en-GB,en-US;q=0.9,en;q=0.8","5c4f7b99b33a5300013dbfdd","6877649eabb845cf142cd221","68936d2c3d8a0791899fcd79","1","5c4f7b99b33a5300013dbfdd","1","2025-08-06T15:02:34.943Z","","","","ControlQ","","","","","","","","","","","50","","","","","","","","","","","","","","","","","","","","","","","","","","",""
"5533","","<div style=""width:500px;"">
  <p>How would you describe your current emotional state?</p>
  </div>","40","html-slider-response","36","349028","0.0-7.0-3.4","209","1","2025-08-06 14:56:49","36c45c0696341be0efffe67d72a12abb","5.69.202.172","Mozilla/5.0 (Windows NT 10.0; Win64; x64) AppleWebKit/537.36 (KHTML, like Gecko) Chrome/138.0.0.0 Safari/537.36","WebKit","Chrome","138.0.0.0","Windows","10.0","https://app.prolific.com/","en-GB,en-US;q=0.9,en;q=0.8","5c4f7b99b33a5300013dbfdd","6877649eabb845cf142cd221","68936d2c3d8a0791899fcd79","1","5c4f7b99b33a5300013dbfdd","1","2025-08-06T15:02:40.477Z","","","","StressQ","","","","","","","","","","","50","","","","","","","","","","","","","","","","","","","","","","","","","","",""
"3320","","<div style=""width:500px;"">
  <p>What best describes how you currently feel?</p>
  </div>","64","html-slider-response","37","352350","0.0-7.0-4.4","209","1","2025-08-06 14:56:49","36c45c0696341be0efffe67d72a12abb","5.69.202.172","Mozilla/5.0 (Windows NT 10.0; Win64; x64) AppleWebKit/537.36 (KHTML, like Gecko) Chrome/138.0.0.0 Safari/537.36","WebKit","Chrome","138.0.0.0","Windows","10.0","https://app.prolific.com/","en-GB,en-US;q=0.9,en;q=0.8","5c4f7b99b33a5300013dbfdd","6877649eabb845cf142cd221","68936d2c3d8a0791899fcd79","1","5c4f7b99b33a5300013dbfdd","1","2025-08-06T15:02:43.799Z","","","","MotivationQ","","","","","","","","","","","50","","","","","","","","","","","","","","","","","","","","","","","","","","",""
"","","","","ctl-task-cpt","38","381152","0.0-7.0-0.5","209","1","2025-08-06 14:56:49","36c45c0696341be0efffe67d72a12abb","5.69.202.172","Mozilla/5.0 (Windows NT 10.0; Win64; x64) AppleWebKit/537.36 (KHTML, like Gecko) Chrome/138.0.0.0 Safari/537.36","WebKit","Chrome","138.0.0.0","Windows","10.0","https://app.prolific.com/","en-GB,en-US;q=0.9,en;q=0.8","5c4f7b99b33a5300013dbfdd","6877649eabb845cf142cd221","68936d2c3d8a0791899fcd79","1","5c4f7b99b33a5300013dbfdd","1","2025-08-06T15:03:12.601Z","","","","","","","","","","","","","","","","win-only","3","g1:SW,g2:NE","0.5","6","0","354472.3","737.6","5740.5","25795.3","1","4","8","6","2","8","8","26","18","0.19696969696969696","804.6","3000","1330","[""up"",""right""]","{""num_key_presses"":6,""num_perfect"":3,""num_errors"":0,""num_randdir"":3,""num_randdir_good_moves"":3,""num_whilered"":0,""num_whileblue"":0,""num_blue"":1,""num_good_moves"":6}","[411.991960471017,427.5388378552028,0.2,411.991960471017,427.5388378552028,103.9,411.991960471017,427.5388378552028,208,411.991960471017,427.5388378552028,308.5,411.991960471017,427.5388378552028,409,670.491960471017,175.91383785520281,518.8,713.116960471017,134.66383785520281,623.8,726.866960471017,119.5388378552028,723.9,728.241960471017,112.6638378552028,829.5,728.241960471017,112.6638378552028,933.7,1043.116960471017,178.66383785520281,1033.9,1059.616960471017,186.91383785520281,1136.5,1059.616960471017,186.91383785520281,1238,1223.241960471017,244.66383785520281,1343.7,1264.491960471017,263.9138378552028,1449.3,1264.491960471017,263.9138378552028,1553.2,1264.491960471017,263.9138378552028,1653.8,1264.491960471017,263.9138378552028,1754.2,1264.491960471017,263.9138378552028,1858.3,1264.491960471017,263.9138378552028,1966.6,1264.491960471017,263.9138378552028,2072.6,1264.491960471017,263.9138378552028,2173.6,1264.491960471017,263.9138378552028,2273.9,1264.491960471017,263.9138378552028,2384,1264.491960471017,263.9138378552028,2488,1264.491960471017,263.9138378552028,2596.9,1264.491960471017,263.9138378552028,2698.8,1264.491960471017,263.9138378552028,2803.4,1264.491960471017,263.9138378552028,2903.8,1264.491960471017,263.9138378552028,3005.4,1264.491960471017,263.9138378552028,3109.2,1264.491960471017,263.9138378552028,3222.1,1264.491960471017,263.9138378552028,3323.4,1264.491960471017,263.9138378552028,3435.6,1264.491960471017,263.9138378552028,3537.7,1264.491960471017,263.9138378552028,3638.7,1264.491960471017,263.9138378552028,3747.3,1264.491960471017,263.9138378552028,3850.9,1264.491960471017,263.9138378552028,3954.2,1264.491960471017,263.9138378552028,4062.4,1264.491960471017,263.9138378552028,4169.3,1264.491960471017,263.9138378552028,4273.6,1264.491960471017,263.9138378552028,4379.7,1264.491960471017,263.9138378552028,4482.7,1264.491960471017,263.9138378552028,4587,1264.491960471017,263.9138378552028,4688,1264.491960471017,263.9138378552028,4788,1264.491960471017,263.9138378552028,4888.2,1264.491960471017,263.9138378552028,4993.4]","[1359.2,1359.2,1000,0,359.2,""smooth"",""up"",""up"",""good_move"",8713,7353.4,2807.1,5510.2,395.7,""oops"",""right"",""up"",""good_move"",11038.4,2325.2,1918,8713.2,407.2,""oops"",""right"",""up"",""good_move"",13911.7,2873.1,2539.1,11038.6,334,""smooth"",""right"",""right"",""good_move"",17174.7,3262.7,2922.7,13912,340,""smooth"",""right"",""right"",""good_move"",19942,2767.1,2434.6,17174.9,332.5,""oops"",""right"",""right"",""good_move""]"
"1546","","<div style=""width:500px;"">
  <p>What determined the result of this run?</p>
  </div>","36","html-slider-response","39","382700","0.0-7.0-1.5","209","1","2025-08-06 14:56:49","36c45c0696341be0efffe67d72a12abb","5.69.202.172","Mozilla/5.0 (Windows NT 10.0; Win64; x64) AppleWebKit/537.36 (KHTML, like Gecko) Chrome/138.0.0.0 Safari/537.36","WebKit","Chrome","138.0.0.0","Windows","10.0","https://app.prolific.com/","en-GB,en-US;q=0.9,en;q=0.8","5c4f7b99b33a5300013dbfdd","6877649eabb845cf142cd221","68936d2c3d8a0791899fcd79","1","5c4f7b99b33a5300013dbfdd","1","2025-08-06T15:03:14.149Z","","","","AttribQ","","","","","","","","","","","50","","","","","","","","","","","","","","","","","","","","","","","","","","",""
"2041","","<div style=""width:500px;"">
  <p>How much control did you have over the ball?</p>
  </div>","63","html-slider-response","40","384742","0.0-7.0-2.5","209","1","2025-08-06 14:56:49","36c45c0696341be0efffe67d72a12abb","5.69.202.172","Mozilla/5.0 (Windows NT 10.0; Win64; x64) AppleWebKit/537.36 (KHTML, like Gecko) Chrome/138.0.0.0 Safari/537.36","WebKit","Chrome","138.0.0.0","Windows","10.0","https://app.prolific.com/","en-GB,en-US;q=0.9,en;q=0.8","5c4f7b99b33a5300013dbfdd","6877649eabb845cf142cd221","68936d2c3d8a0791899fcd79","1","5c4f7b99b33a5300013dbfdd","1","2025-08-06T15:03:16.191Z","","","","ControlQ","","","","","","","","","","","50","","","","","","","","","","","","","","","","","","","","","","","","","","",""
"2410","","<div style=""width:500px;"">
  <p>How would you describe your current emotional state?</p>
  </div>","36","html-slider-response","41","387152","0.0-7.0-3.5","209","1","2025-08-06 14:56:49","36c45c0696341be0efffe67d72a12abb","5.69.202.172","Mozilla/5.0 (Windows NT 10.0; Win64; x64) AppleWebKit/537.36 (KHTML, like Gecko) Chrome/138.0.0.0 Safari/537.36","WebKit","Chrome","138.0.0.0","Windows","10.0","https://app.prolific.com/","en-GB,en-US;q=0.9,en;q=0.8","5c4f7b99b33a5300013dbfdd","6877649eabb845cf142cd221","68936d2c3d8a0791899fcd79","1","5c4f7b99b33a5300013dbfdd","1","2025-08-06T15:03:18.601Z","","","","StressQ","","","","","","","","","","","50","","","","","","","","","","","","","","","","","","","","","","","","","","",""
"1530","","<div style=""width:500px;"">
  <p>What best describes how you currently feel?</p>
  </div>","65","html-slider-response","42","388683","0.0-7.0-4.5","209","1","2025-08-06 14:56:49","36c45c0696341be0efffe67d72a12abb","5.69.202.172","Mozilla/5.0 (Windows NT 10.0; Win64; x64) AppleWebKit/537.36 (KHTML, like Gecko) Chrome/138.0.0.0 Safari/537.36","WebKit","Chrome","138.0.0.0","Windows","10.0","https://app.prolific.com/","en-GB,en-US;q=0.9,en;q=0.8","5c4f7b99b33a5300013dbfdd","6877649eabb845cf142cd221","68936d2c3d8a0791899fcd79","1","5c4f7b99b33a5300013dbfdd","1","2025-08-06T15:03:20.132Z","","","","MotivationQ","","","","","","","","","","","50","","","","","","","","","","","","","","","","","","","","","","","","","","",""
"","","","","ctl-task-cpt","43","452628","0.0-7.0-0.6","209","1","2025-08-06 14:56:49","36c45c0696341be0efffe67d72a12abb","5.69.202.172","Mozilla/5.0 (Windows NT 10.0; Win64; x64) AppleWebKit/537.36 (KHTML, like Gecko) Chrome/138.0.0.0 Safari/537.36","WebKit","Chrome","138.0.0.0","Windows","10.0","https://app.prolific.com/","en-GB,en-US;q=0.9,en;q=0.8","5c4f7b99b33a5300013dbfdd","6877649eabb845cf142cd221","68936d2c3d8a0791899fcd79","1","5c4f7b99b33a5300013dbfdd","1","2025-08-06T15:04:24.077Z","","","","","","","","","","","","","","","","win-only","3","g1:SW,g2:NE","0.4","7","0","390803.9","574.1","5575.7","60936.2","1","4","4","6","2","-4","-6","20","26","0.15151515151515152","725.7","3000","-2065","[""up"",""right""]","{""num_key_presses"":15,""num_perfect"":6,""num_errors"":2,""num_randdir"":7,""num_randdir_good_moves"":3,""num_whilered"":0,""num_whileblue"":2,""num_blue"":5,""num_good_moves"":9}","[413.366960471017,419.2888378552028,0.2,413.366960471017,419.2888378552028,102.3,413.366960471017,419.2888378552028,206.3,413.366960471017,419.2888378552028,312,413.366960471017,419.2888378552028,423.7,714.491960471017,101.6638378552028,524.5,717.241960471017,97.5388378552028,625.5,719.991960471017,97.5388378552028,728,719.991960471017,97.5388378552028,841,966.116960471017,199.28883785520281,941.3,988.116960471017,211.66383785520281,1042.4,988.116960471017,211.66383785520281,1154.7,1095.366960471017,266.6638378552028,1257,1227.366960471017,321.6638378552028,1357.4,1227.366960471017,321.6638378552028,1461.8,1227.366960471017,321.6638378552028,1565.5,1227.366960471017,321.6638378552028,1675.9,1227.366960471017,321.6638378552028,1777.3,1227.366960471017,321.6638378552028,1881.5,1227.366960471017,321.6638378552028,1981.9,1227.366960471017,321.6638378552028,2091.2,1227.366960471017,321.6638378552028,2191.8,1227.366960471017,321.6638378552028,2297.1,1227.366960471017,321.6638378552028,2401.9,1227.366960471017,321.6638378552028,2506.2,1227.366960471017,321.6638378552028,2609.8,1227.366960471017,321.6638378552028,2719.3,1227.366960471017,321.6638378552028,2822.5,1227.366960471017,321.6638378552028,2931.8,1227.366960471017,321.6638378552028,3041.6,1227.366960471017,321.6638378552028,3142.2,1227.366960471017,321.6638378552028,3257,1227.366960471017,321.6638378552028,3357.2,1227.366960471017,321.6638378552028,3462.2,1227.366960471017,321.6638378552028,3568.4,1227.366960471017,321.6638378552028,3673.9,1227.366960471017,321.6638378552028,3776.6,1227.366960471017,321.6638378552028,3876.6,1227.366960471017,321.6638378552028,3981.8,1227.366960471017,321.6638378552028,4091.2,1227.366960471017,321.6638378552028,4192.4,1227.366960471017,321.6638378552028,4296.6,1227.366960471017,321.6638378552028,4401.4,1227.366960471017,321.6638378552028,4504.6,1227.366960471017,321.6638378552028,4607.5,1227.366960471017,321.6638378552028,4709.1,1227.366960471017,321.6638378552028,4810.7,1227.366960471017,321.6638378552028,4918.7]","[1322.9,1322.9,1000,0,322.9,""oops"",""up"",""left"",""bad_move"",3765,2441.6,2109.9,1323.4,331.7,""oops"",""up"",""left"",""bad_move"",6073.3,2308,2004.6,3765.3,303.4,""smooth"",""up"",""up"",""good_move"",9285.7,3212.1,2872,6073.6,340.1,""smooth"",""up"",""up"",""good_move"",12181,2894.7,2597.8,9286.3,296.9,""smooth"",""right"",""right"",""good_move"",15190.1,3008.4,2712,12181.8,296.4,""smooth"",""up"",""up"",""good_move"",18578.6,3388.1,3060.1,15190.5,328,""while_blue"",""right"",""left"",""bad_move"",25476.8,6897.6,3061.9,22099.9,315,""oops"",""right"",""right"",""good_move"",28631.3,3154.1,2692.3,25477.2,461.8,""oops"",""right"",""left"",""bad_move"",30975.7,2344.1,1935.1,28631.6,409,""oops"",""right"",""down"",""bad_move"",32775.3,1799.3,1386.6,30976,412.7,""oops"",""right"",""right"",""good_move"",36275.9,3500.5,3183.1,32775.4,317.4,""smooth"",""right"",""right"",""good_move"",39082,2805.9,2517.4,36276.1,288.5,""smooth"",""right"",""right"",""good_move"",42124.6,3042.3,2765.9,39082.3,276.4,""oops"",""right"",""up"",""good_move"",45270.9,3145.9,2884.2,42125,261.7,""while_blue"",""right"",""left"",""bad_move""]"
"1924","","<div style=""width:500px;"">
  <p>What determined the result of this run?</p>
  </div>","0","html-slider-response","44","454554","0.0-7.0-1.6","209","1","2025-08-06 14:56:49","36c45c0696341be0efffe67d72a12abb","5.69.202.172","Mozilla/5.0 (Windows NT 10.0; Win64; x64) AppleWebKit/537.36 (KHTML, like Gecko) Chrome/138.0.0.0 Safari/537.36","WebKit","Chrome","138.0.0.0","Windows","10.0","https://app.prolific.com/","en-GB,en-US;q=0.9,en;q=0.8","5c4f7b99b33a5300013dbfdd","6877649eabb845cf142cd221","68936d2c3d8a0791899fcd79","1","5c4f7b99b33a5300013dbfdd","1","2025-08-06T15:04:26.003Z","","","","AttribQ","","","","","","","","","","","50","","","","","","","","","","","","","","","","","","","","","","","","","","",""
"1833","","<div style=""width:500px;"">
  <p>How much control did you have over the ball?</p>
  </div>","0","html-slider-response","45","456389","0.0-7.0-2.6","209","1","2025-08-06 14:56:49","36c45c0696341be0efffe67d72a12abb","5.69.202.172","Mozilla/5.0 (Windows NT 10.0; Win64; x64) AppleWebKit/537.36 (KHTML, like Gecko) Chrome/138.0.0.0 Safari/537.36","WebKit","Chrome","138.0.0.0","Windows","10.0","https://app.prolific.com/","en-GB,en-US;q=0.9,en;q=0.8","5c4f7b99b33a5300013dbfdd","6877649eabb845cf142cd221","68936d2c3d8a0791899fcd79","1","5c4f7b99b33a5300013dbfdd","1","2025-08-06T15:04:27.838Z","","","","ControlQ","","","","","","","","","","","50","","","","","","","","","","","","","","","","","","","","","","","","","","",""
"2450","","<div style=""width:500px;"">
  <p>How would you describe your current emotional state?</p>
  </div>","62","html-slider-response","46","458840","0.0-7.0-3.6","209","1","2025-08-06 14:56:49","36c45c0696341be0efffe67d72a12abb","5.69.202.172","Mozilla/5.0 (Windows NT 10.0; Win64; x64) AppleWebKit/537.36 (KHTML, like Gecko) Chrome/138.0.0.0 Safari/537.36","WebKit","Chrome","138.0.0.0","Windows","10.0","https://app.prolific.com/","en-GB,en-US;q=0.9,en;q=0.8","5c4f7b99b33a5300013dbfdd","6877649eabb845cf142cd221","68936d2c3d8a0791899fcd79","1","5c4f7b99b33a5300013dbfdd","1","2025-08-06T15:04:30.289Z","","","","StressQ","","","","","","","","","","","50","","","","","","","","","","","","","","","","","","","","","","","","","","",""
"2710","","<div style=""width:500px;"">
  <p>What best describes how you currently feel?</p>
  </div>","43","html-slider-response","47","461551","0.0-7.0-4.6","209","1","2025-08-06 14:56:49","36c45c0696341be0efffe67d72a12abb","5.69.202.172","Mozilla/5.0 (Windows NT 10.0; Win64; x64) AppleWebKit/537.36 (KHTML, like Gecko) Chrome/138.0.0.0 Safari/537.36","WebKit","Chrome","138.0.0.0","Windows","10.0","https://app.prolific.com/","en-GB,en-US;q=0.9,en;q=0.8","5c4f7b99b33a5300013dbfdd","6877649eabb845cf142cd221","68936d2c3d8a0791899fcd79","1","5c4f7b99b33a5300013dbfdd","1","2025-08-06T15:04:33.000Z","","","","MotivationQ","","","","","","","","","","","50","","","","","","","","","","","","","","","","","","","","","","","","","","",""
"","","","","ctl-task-cpt","48","510566","0.0-7.0-0.7","209","1","2025-08-06 14:56:49","36c45c0696341be0efffe67d72a12abb","5.69.202.172","Mozilla/5.0 (Windows NT 10.0; Win64; x64) AppleWebKit/537.36 (KHTML, like Gecko) Chrome/138.0.0.0 Safari/537.36","WebKit","Chrome","138.0.0.0","Windows","10.0","https://app.prolific.com/","en-GB,en-US;q=0.9,en;q=0.8","5c4f7b99b33a5300013dbfdd","6877649eabb845cf142cd221","68936d2c3d8a0791899fcd79","1","5c4f7b99b33a5300013dbfdd","1","2025-08-06T15:05:22.015Z","","","","","","","","","","","","","","","","win-only","0","g1:NW,g2:SE","0.3","8","0","463672","671.2","5676.2","45996.9","1","4","8","6","2","-8","-8","12","20","0.09090909090909091","869.5","3000","-2145","[""down"",""right""]","{""num_key_presses"":13,""num_perfect"":4,""num_errors"":0,""num_randdir"":9,""num_randdir_good_moves"":3,""num_whilered"":0,""num_whileblue"":0,""num_blue"":1,""num_good_moves"":7}","[416.116960471017,405.5388378552028,0.2,416.116960471017,405.5388378552028,104.6,416.116960471017,405.5388378552028,204.7,416.116960471017,405.5388378552028,322.6,567.366960471017,516.9138378552028,425.7,799.741960471017,684.6638378552028,535,799.741960471017,684.6638378552028,637,802.491960471017,728.6638378552028,739.1,801.116960471017,769.9138378552028,840.2,801.116960471017,771.2888378552028,941.9,801.116960471017,771.2888378552028,1045.2,1125.616960471017,647.5388378552028,1149.2,1125.616960471017,647.5388378552028,1249.7,1125.616960471017,647.5388378552028,1350,1125.616960471017,647.5388378552028,1453.4,1125.616960471017,647.5388378552028,1555.2,1125.616960471017,647.5388378552028,1656.6,1125.616960471017,647.5388378552028,1760.1,1125.616960471017,647.5388378552028,1860.4,1125.616960471017,647.5388378552028,1964.4,1125.616960471017,647.5388378552028,2065,1125.616960471017,647.5388378552028,2169.8,1125.616960471017,647.5388378552028,2270.2,1125.616960471017,647.5388378552028,2374.7,1125.616960471017,647.5388378552028,2479.5,1125.616960471017,647.5388378552028,2584.8,1125.616960471017,647.5388378552028,2687.6,1125.616960471017,647.5388378552028,2802.3,1125.616960471017,647.5388378552028,2917,1125.616960471017,647.5388378552028,3017.8,1125.616960471017,647.5388378552028,3119.2,1125.616960471017,647.5388378552028,3223.3,1125.616960471017,647.5388378552028,3342,1125.616960471017,647.5388378552028,3444.3,1125.616960471017,647.5388378552028,3544.5,1125.616960471017,647.5388378552028,3645.6,1125.616960471017,647.5388378552028,3749.7,1125.616960471017,647.5388378552028,3850.5,1125.616960471017,647.5388378552028,3950.8,1125.616960471017,647.5388378552028,4054.4,1125.616960471017,647.5388378552028,4154.6,1125.616960471017,647.5388378552028,4259.5,1125.616960471017,647.5388378552028,4364.4,1125.616960471017,647.5388378552028,4464.7,1125.616960471017,647.5388378552028,4569.6,1125.616960471017,647.5388378552028,4674.3,1125.616960471017,647.5388378552028,4774.9,1125.616960471017,647.5388378552028,4875,1125.616960471017,647.5388378552028,4981.4]","[1308.6,1308.6,1000,0.1,308.5,""oops"",""right"",""up"",""bad_move"",4109.6,2800,2492,1309.6,308,""oops"",""down"",""down"",""good_move"",7075.7,2965.7,2705.5,4110,260.2,""oops"",""down"",""up"",""bad_move"",9799.8,2723.7,2435.4,7076.1,288.3,""oops"",""down"",""down"",""good_move"",15263,5463.1,1960.2,13020.1,282.8,""smooth"",""right"",""right"",""good_move"",18322.7,3059.2,2748.3,15263.6,310.9,""oops"",""down"",""right"",""good_move"",20600.9,2278,1925.4,18322.9,352.6,""oops"",""down"",""up"",""bad_move"",23490.9,2889.4,2584.1,20601.6,305.2,""smooth"",""down"",""down"",""good_move"",26585.9,3093.6,2760.2,23492.3,333.4,""smooth"",""down"",""down"",""good_move"",28869,2282.9,1939.8,26586.1,343.1,""oops"",""down"",""up"",""bad_move"",32054.5,3185.2,2917.3,28869.3,267.9,""oops"",""down"",""up"",""bad_move"",35022.6,2968,2649.7,32054.6,318.3,""oops"",""down"",""left"",""bad_move"",38033.2,3010.2,2601.5,35023,408.7,""smooth"",""down"",""down"",""good_move""]"
"1732","","<div style=""width:500px;"">
  <p>What determined the result of this run?</p>
  </div>","0","html-slider-response","49","512300","0.0-7.0-1.7","209","1","2025-08-06 14:56:49","36c45c0696341be0efffe67d72a12abb","5.69.202.172","Mozilla/5.0 (Windows NT 10.0; Win64; x64) AppleWebKit/537.36 (KHTML, like Gecko) Chrome/138.0.0.0 Safari/537.36","WebKit","Chrome","138.0.0.0","Windows","10.0","https://app.prolific.com/","en-GB,en-US;q=0.9,en;q=0.8","5c4f7b99b33a5300013dbfdd","6877649eabb845cf142cd221","68936d2c3d8a0791899fcd79","1","5c4f7b99b33a5300013dbfdd","1","2025-08-06T15:05:23.749Z","","","","AttribQ","","","","","","","","","","","50","","","","","","","","","","","","","","","","","","","","","","","","","","",""
"1861","","<div style=""width:500px;"">
  <p>How much control did you have over the ball?</p>
  </div>","0","html-slider-response","50","514162","0.0-7.0-2.7","209","1","2025-08-06 14:56:49","36c45c0696341be0efffe67d72a12abb","5.69.202.172","Mozilla/5.0 (Windows NT 10.0; Win64; x64) AppleWebKit/537.36 (KHTML, like Gecko) Chrome/138.0.0.0 Safari/537.36","WebKit","Chrome","138.0.0.0","Windows","10.0","https://app.prolific.com/","en-GB,en-US;q=0.9,en;q=0.8","5c4f7b99b33a5300013dbfdd","6877649eabb845cf142cd221","68936d2c3d8a0791899fcd79","1","5c4f7b99b33a5300013dbfdd","1","2025-08-06T15:05:25.611Z","","","","ControlQ","","","","","","","","","","","50","","","","","","","","","","","","","","","","","","","","","","","","","","",""
"1936","","<div style=""width:500px;"">
  <p>How would you describe your current emotional state?</p>
  </div>","71","html-slider-response","51","516100","0.0-7.0-3.7","209","1","2025-08-06 14:56:49","36c45c0696341be0efffe67d72a12abb","5.69.202.172","Mozilla/5.0 (Windows NT 10.0; Win64; x64) AppleWebKit/537.36 (KHTML, like Gecko) Chrome/138.0.0.0 Safari/537.36","WebKit","Chrome","138.0.0.0","Windows","10.0","https://app.prolific.com/","en-GB,en-US;q=0.9,en;q=0.8","5c4f7b99b33a5300013dbfdd","6877649eabb845cf142cd221","68936d2c3d8a0791899fcd79","1","5c4f7b99b33a5300013dbfdd","1","2025-08-06T15:05:27.549Z","","","","StressQ","","","","","","","","","","","50","","","","","","","","","","","","","","","","","","","","","","","","","","",""
"1480","","<div style=""width:500px;"">
  <p>What best describes how you currently feel?</p>
  </div>","31","html-slider-response","52","517581","0.0-7.0-4.7","209","1","2025-08-06 14:56:49","36c45c0696341be0efffe67d72a12abb","5.69.202.172","Mozilla/5.0 (Windows NT 10.0; Win64; x64) AppleWebKit/537.36 (KHTML, like Gecko) Chrome/138.0.0.0 Safari/537.36","WebKit","Chrome","138.0.0.0","Windows","10.0","https://app.prolific.com/","en-GB,en-US;q=0.9,en;q=0.8","5c4f7b99b33a5300013dbfdd","6877649eabb845cf142cd221","68936d2c3d8a0791899fcd79","1","5c4f7b99b33a5300013dbfdd","1","2025-08-06T15:05:29.030Z","","","","MotivationQ","","","","","","","","","","","50","","","","","","","","","","","","","","","","","","","","","","","","","","",""
"","","","","ctl-task-cpt","53","562722","0.0-7.0-0.8","209","1","2025-08-06 14:56:49","36c45c0696341be0efffe67d72a12abb","5.69.202.172","Mozilla/5.0 (Windows NT 10.0; Win64; x64) AppleWebKit/537.36 (KHTML, like Gecko) Chrome/138.0.0.0 Safari/537.36","WebKit","Chrome","138.0.0.0","Windows","10.0","https://app.prolific.com/","en-GB,en-US;q=0.9,en;q=0.8","5c4f7b99b33a5300013dbfdd","6877649eabb845cf142cd221","68936d2c3d8a0791899fcd79","1","5c4f7b99b33a5300013dbfdd","1","2025-08-06T15:06:14.171Z","","","","","","","","","","","","","","","","win-only","2","g1:SE,g2:NW","0.4","9","0","519703.7","873","5873.7","42121","1","4","8","6","2","-8","-8","4","12","0.030303030303030304","1175.5","3000","-2280","[""left"",""up""]","{""num_key_presses"":13,""num_perfect"":7,""num_errors"":0,""num_randdir"":6,""num_randdir_good_moves"":2,""num_whilered"":0,""num_whileblue"":0,""num_blue"":0,""num_good_moves"":9}","[427.116960471017,412.4138378552028,0.2,427.116960471017,412.4138378552028,102.3,427.116960471017,412.4138378552028,202.7,427.116960471017,412.4138378552028,302.9,427.116960471017,412.4138378552028,403.2,374.866960471017,401.4138378552028,517.4,39.36696047101701,9.5388378552028,617.9,2.241960471017009,-34.4611621447972,718.5,-7.383039528982991,-34.4611621447972,820.4,-8.75803952898299,-34.4611621447972,936.7,7.741960471017009,-13.8361621447972,1039,43.49196047101701,46.6638378552028,1142.8,46.24196047101701,49.4138378552028,1251.1,46.24196047101701,49.4138378552028,1363.2,-67.88303952898299,57.6638378552028,1468.7,-389.633039528983,126.4138378552028,1584.9,-389.633039528983,126.4138378552028,1690.5,-389.633039528983,126.4138378552028,1793.4,-389.633039528983,126.4138378552028,1897.6,-389.633039528983,126.4138378552028,2000,-389.633039528983,126.4138378552028,2102.6,-389.633039528983,126.4138378552028,2213.3,-389.633039528983,126.4138378552028,2313.5,-389.633039528983,126.4138378552028,2414.2,-389.633039528983,126.4138378552028,2516.4,-389.633039528983,126.4138378552028,2617.5,-389.633039528983,126.4138378552028,2719.1,-389.633039528983,126.4138378552028,2827.2,-389.633039528983,126.4138378552028,2928.2,-389.633039528983,126.4138378552028,3029.3,-389.633039528983,126.4138378552028,3134.1,-389.633039528983,126.4138378552028,3238.8,-389.633039528983,126.4138378552028,3342.4,-389.633039528983,126.4138378552028,3442.4,-389.633039528983,126.4138378552028,3547.4,-389.633039528983,126.4138378552028,3647.4,-389.633039528983,126.4138378552028,3748.6,-389.633039528983,126.4138378552028,3849.5,-389.633039528983,126.4138378552028,3966.4,-389.633039528983,126.4138378552028,4067.6,-389.633039528983,126.4138378552028,4172.8,-389.633039528983,126.4138378552028,4273.8,-389.633039528983,126.4138378552028,4380.4,-389.633039528983,126.4138378552028,4482.2,-389.633039528983,126.4138378552028,4583.1,-389.633039528983,126.4138378552028,4695.2,-389.633039528983,126.4138378552028,4798.5,-389.633039528983,126.4138378552028,4899.9]","[1426,1426,1000,0,426,""oops"",""up"",""up"",""good_move"",4145.6,2719,2426.7,1426.6,292.3,""smooth"",""up"",""up"",""good_move"",6509.5,2363.8,2078.8,4145.8,284.9,""smooth"",""left"",""left"",""good_move"",9782.7,3272.8,2948.2,6509.9,324.6,""oops"",""left"",""down"",""bad_move"",12185.5,2401.6,2072.9,9783.9,328.7,""oops"",""left"",""up"",""good_move"",14742.5,2556.7,2273.2,12185.8,283.5,""oops"",""left"",""right"",""bad_move"",17475.3,2732.5,2462.1,14742.8,270.4,""smooth"",""left"",""left"",""good_move"",20456.1,2980.2,2650.5,17475.9,329.7,""oops"",""left"",""right"",""bad_move"",23902.1,3445.7,3126.9,20456.4,318.8,""smooth"",""left"",""left"",""good_move"",26663.1,2760.7,2470.4,23902.4,290.3,""oops"",""up"",""right"",""bad_move"",29231,2567.6,2297.4,26663.4,270.2,""smooth"",""up"",""up"",""good_move"",31298.4,2066.5,1749.4,29231.9,317.1,""smooth"",""left"",""left"",""good_move"",33972.1,2673.5,2402.1,31298.6,271.4,""smooth"",""left"",""left"",""good_move""]"
"4419","","<div style=""width:500px;"">
  <p>What determined the result of this run?</p>
  </div>","0","html-slider-response","54","567142","0.0-7.0-1.8","209","1","2025-08-06 14:56:49","36c45c0696341be0efffe67d72a12abb","5.69.202.172","Mozilla/5.0 (Windows NT 10.0; Win64; x64) AppleWebKit/537.36 (KHTML, like Gecko) Chrome/138.0.0.0 Safari/537.36","WebKit","Chrome","138.0.0.0","Windows","10.0","https://app.prolific.com/","en-GB,en-US;q=0.9,en;q=0.8","5c4f7b99b33a5300013dbfdd","6877649eabb845cf142cd221","68936d2c3d8a0791899fcd79","1","5c4f7b99b33a5300013dbfdd","1","2025-08-06T15:06:18.591Z","","","","AttribQ","","","","","","","","","","","50","","","","","","","","","","","","","","","","","","","","","","","","","","",""
"1964","","<div style=""width:500px;"">
  <p>How much control did you have over the ball?</p>
  </div>","0","html-slider-response","55","569108","0.0-7.0-2.8","209","1","2025-08-06 14:56:49","36c45c0696341be0efffe67d72a12abb","5.69.202.172","Mozilla/5.0 (Windows NT 10.0; Win64; x64) AppleWebKit/537.36 (KHTML, like Gecko) Chrome/138.0.0.0 Safari/537.36","WebKit","Chrome","138.0.0.0","Windows","10.0","https://app.prolific.com/","en-GB,en-US;q=0.9,en;q=0.8","5c4f7b99b33a5300013dbfdd","6877649eabb845cf142cd221","68936d2c3d8a0791899fcd79","1","5c4f7b99b33a5300013dbfdd","1","2025-08-06T15:06:20.557Z","","","","ControlQ","","","","","","","","","","","50","","","","","","","","","","","","","","","","","","","","","","","","","","",""
"2792","","<div style=""width:500px;"">
  <p>How would you describe your current emotional state?</p>
  </div>","90","html-slider-response","56","571900","0.0-7.0-3.8","209","1","2025-08-06 14:56:49","36c45c0696341be0efffe67d72a12abb","5.69.202.172","Mozilla/5.0 (Windows NT 10.0; Win64; x64) AppleWebKit/537.36 (KHTML, like Gecko) Chrome/138.0.0.0 Safari/537.36","WebKit","Chrome","138.0.0.0","Windows","10.0","https://app.prolific.com/","en-GB,en-US;q=0.9,en;q=0.8","5c4f7b99b33a5300013dbfdd","6877649eabb845cf142cd221","68936d2c3d8a0791899fcd79","1","5c4f7b99b33a5300013dbfdd","1","2025-08-06T15:06:23.349Z","","","","StressQ","","","","","","","","","","","50","","","","","","","","","","","","","","","","","","","","","","","","","","",""
"1993","","<div style=""width:500px;"">
  <p>What best describes how you currently feel?</p>
  </div>","32","html-slider-response","57","573895","0.0-7.0-4.8","209","1","2025-08-06 14:56:49","36c45c0696341be0efffe67d72a12abb","5.69.202.172","Mozilla/5.0 (Windows NT 10.0; Win64; x64) AppleWebKit/537.36 (KHTML, like Gecko) Chrome/138.0.0.0 Safari/537.36","WebKit","Chrome","138.0.0.0","Windows","10.0","https://app.prolific.com/","en-GB,en-US;q=0.9,en;q=0.8","5c4f7b99b33a5300013dbfdd","6877649eabb845cf142cd221","68936d2c3d8a0791899fcd79","1","5c4f7b99b33a5300013dbfdd","1","2025-08-06T15:06:25.344Z","","","","MotivationQ","","","","","","","","","","","50","","","","","","","","","","","","","","","","","","","","","","","","","","",""
"","","","","ctl-task-cpt","58","645483","0.0-7.0-0.9","209","1","2025-08-06 14:56:49","36c45c0696341be0efffe67d72a12abb","5.69.202.172","Mozilla/5.0 (Windows NT 10.0; Win64; x64) AppleWebKit/537.36 (KHTML, like Gecko) Chrome/138.0.0.0 Safari/537.36","WebKit","Chrome","138.0.0.0","Windows","10.0","https://app.prolific.com/","en-GB,en-US;q=0.9,en;q=0.8","5c4f7b99b33a5300013dbfdd","6877649eabb845cf142cd221","68936d2c3d8a0791899fcd79","1","5c4f7b99b33a5300013dbfdd","1","2025-08-06T15:07:36.932Z","","","","","","","","","","","","","","","","win-only","2","g1:SE,g2:NW","0.5","10","0","576016.5","799.1","5801","68582.2","1","4","4","6","2","-4","-6","0","4","0","1208.1","3000","-2150","[""left"",""up""]","{""num_key_presses"":14,""num_perfect"":6,""num_errors"":2,""num_randdir"":6,""num_randdir_good_moves"":2,""num_whilered"":0,""num_whileblue"":1,""num_blue"":7,""num_good_moves"":9}","[416.116960471017,423.4138378552028,0.6,416.116960471017,423.4138378552028,100,416.116960471017,423.4138378552028,202.1,416.116960471017,423.4138378552028,302.2,416.116960471017,423.4138378552028,403.2,512.366960471017,511.4138378552028,508.9,515.116960471017,519.6638378552028,611.6,2.241960471017009,96.1638378552028,723.5,-17.00803952898299,76.9138378552028,826.1,-14.25803952898299,76.9138378552028,932.4,-14.25803952898299,76.9138378552028,1036.4,44.86696047101701,96.1638378552028,1137,53.11696047101701,98.9138378552028,1243.4,53.11696047101701,98.9138378552028,1357.2,53.11696047101701,98.9138378552028,1457.8,-512.008039528983,104.4138378552028,1565.1,-514.758039528983,104.4138378552028,1674.1,-514.758039528983,104.4138378552028,1776.8,-514.758039528983,104.4138378552028,1882.2,-514.758039528983,104.4138378552028,1982.2,-514.758039528983,104.4138378552028,2086.9,-514.758039528983,104.4138378552028,2191.4,-514.758039528983,104.4138378552028,2291.5,-514.758039528983,104.4138378552028,2391.6,-514.758039528983,104.4138378552028,2493.2,-514.758039528983,104.4138378552028,2597.8,-514.758039528983,104.4138378552028,2701.7,-514.758039528983,104.4138378552028,2806.7,-514.758039528983,104.4138378552028,2912.4,-514.758039528983,104.4138378552028,3024.9,-514.758039528983,104.4138378552028,3127.1,-514.758039528983,104.4138378552028,3236.5,-514.758039528983,104.4138378552028,3341.4,-514.758039528983,104.4138378552028,3441.9,-514.758039528983,104.4138378552028,3559.9,-514.758039528983,104.4138378552028,3670.1,-514.758039528983,104.4138378552028,3776,-514.758039528983,104.4138378552028,3876.4,-514.758039528983,104.4138378552028,3981.4,-514.758039528983,104.4138378552028,4090.3,-514.758039528983,104.4138378552028,4200.6,-514.758039528983,104.4138378552028,4301.2,-514.758039528983,104.4138378552028,4401.3,-514.758039528983,104.4138378552028,4501.6,-514.758039528983,104.4138378552028,4607.7,-514.758039528983,104.4138378552028,4712.5,-514.758039528983,104.4138378552028,4821.9,-514.758039528983,104.4138378552028,4922.7]","[342.3,342.3,1000,0,-657.7,""error"",""-"",""-"",""no_move"",4023.5,3680.3,2308.1,1344.7,370.7,""smooth"",""up"",""up"",""good_move"",7281.3,3257.3,2934.5,4024.1,322.7,""oops"",""left"",""down"",""bad_move"",10598.9,3317.2,2969.2,7281.8,348,""smooth"",""left"",""left"",""good_move"",20277.1,9677.8,2404.6,17431.3,441.2,""oops"",""up"",""up"",""good_move"",30796.4,10518.5,2774.3,27650.2,371.9,""oops"",""up"",""right"",""bad_move"",33519,2722.3,2379.6,30796.9,342.6,""while_blue"",""up"",""up"",""good_move"",36707.6,3188.4,2843.1,33519.2,345.4,""smooth"",""left"",""left"",""good_move"",42309.6,5601.3,2229.3,39709.8,370.5,""smooth"",""left"",""left"",""good_move"",45080.3,2770.4,2426.3,42309.9,344.1,""smooth"",""left"",""left"",""good_move"",47589.8,2509.3,2178.2,45080.5,331.1,""oops"",""up"",""right"",""bad_move"",54144.5,6554.3,2965.9,50827.2,351.4,""oops"",""up"",""left"",""good_move"",57750,3604.8,3278.9,54145.2,325.9,""oops"",""up"",""down"",""bad_move"",59840.8,2090.6,1752.7,57750.2,337.9,""smooth"",""up"",""up"",""good_move""]"
"2230","","<div style=""width:500px;"">
  <p>What determined the result of this run?</p>
  </div>","0","html-slider-response","59","647714","0.0-7.0-1.9","209","1","2025-08-06 14:56:49","36c45c0696341be0efffe67d72a12abb","5.69.202.172","Mozilla/5.0 (Windows NT 10.0; Win64; x64) AppleWebKit/537.36 (KHTML, like Gecko) Chrome/138.0.0.0 Safari/537.36","WebKit","Chrome","138.0.0.0","Windows","10.0","https://app.prolific.com/","en-GB,en-US;q=0.9,en;q=0.8","5c4f7b99b33a5300013dbfdd","6877649eabb845cf142cd221","68936d2c3d8a0791899fcd79","1","5c4f7b99b33a5300013dbfdd","1","2025-08-06T15:07:39.163Z","","","","AttribQ","","","","","","","","","","","50","","","","","","","","","","","","","","","","","","","","","","","","","","",""
"2968","","<div style=""width:500px;"">
  <p>How much control did you have over the ball?</p>
  </div>","0","html-slider-response","60","650684","0.0-7.0-2.9","209","1","2025-08-06 14:56:49","36c45c0696341be0efffe67d72a12abb","5.69.202.172","Mozilla/5.0 (Windows NT 10.0; Win64; x64) AppleWebKit/537.36 (KHTML, like Gecko) Chrome/138.0.0.0 Safari/537.36","WebKit","Chrome","138.0.0.0","Windows","10.0","https://app.prolific.com/","en-GB,en-US;q=0.9,en;q=0.8","5c4f7b99b33a5300013dbfdd","6877649eabb845cf142cd221","68936d2c3d8a0791899fcd79","1","5c4f7b99b33a5300013dbfdd","1","2025-08-06T15:07:42.133Z","","","","ControlQ","","","","","","","","","","","50","","","","","","","","","","","","","","","","","","","","","","","","","","",""
"1706","","<div style=""width:500px;"">
  <p>How would you describe your current emotional state?</p>
  </div>","100","html-slider-response","61","652392","0.0-7.0-3.9","209","1","2025-08-06 14:56:49","36c45c0696341be0efffe67d72a12abb","5.69.202.172","Mozilla/5.0 (Windows NT 10.0; Win64; x64) AppleWebKit/537.36 (KHTML, like Gecko) Chrome/138.0.0.0 Safari/537.36","WebKit","Chrome","138.0.0.0","Windows","10.0","https://app.prolific.com/","en-GB,en-US;q=0.9,en;q=0.8","5c4f7b99b33a5300013dbfdd","6877649eabb845cf142cd221","68936d2c3d8a0791899fcd79","1","5c4f7b99b33a5300013dbfdd","1","2025-08-06T15:07:43.841Z","","","","StressQ","","","","","","","","","","","50","","","","","","","","","","","","","","","","","","","","","","","","","","",""
"1443","","<div style=""width:500px;"">
  <p>What best describes how you currently feel?</p>
  </div>","24","html-slider-response","62","653836","0.0-7.0-4.9","209","1","2025-08-06 14:56:49","36c45c0696341be0efffe67d72a12abb","5.69.202.172","Mozilla/5.0 (Windows NT 10.0; Win64; x64) AppleWebKit/537.36 (KHTML, like Gecko) Chrome/138.0.0.0 Safari/537.36","WebKit","Chrome","138.0.0.0","Windows","10.0","https://app.prolific.com/","en-GB,en-US;q=0.9,en;q=0.8","5c4f7b99b33a5300013dbfdd","6877649eabb845cf142cd221","68936d2c3d8a0791899fcd79","1","5c4f7b99b33a5300013dbfdd","1","2025-08-06T15:07:45.285Z","","","","MotivationQ","","","","","","","","","","","50","","","","","","","","","","","","","","","","","","","","","","","","","","",""
"","","","","ctl-task-cpt","63","704049","0.0-7.0-0.10","209","1","2025-08-06 14:56:49","36c45c0696341be0efffe67d72a12abb","5.69.202.172","Mozilla/5.0 (Windows NT 10.0; Win64; x64) AppleWebKit/537.36 (KHTML, like Gecko) Chrome/138.0.0.0 Safari/537.36","WebKit","Chrome","138.0.0.0","Windows","10.0","https://app.prolific.com/","en-GB,en-US;q=0.9,en;q=0.8","5c4f7b99b33a5300013dbfdd","6877649eabb845cf142cd221","68936d2c3d8a0791899fcd79","1","5c4f7b99b33a5300013dbfdd","1","2025-08-06T15:08:35.498Z","","","","","","","","","","","","","","","","win-only","2","g1:SE,g2:NW","0.6","11","0","655957.3","937.9","5938.8","47190.6","1","4","8","6","1","-1","-2","0","0","0","878.9","3000","-1970","[""down"",""right""]","{""num_key_presses"":12,""num_perfect"":6,""num_errors"":1,""num_randdir"":5,""num_randdir_good_moves"":0,""num_whilered"":0,""num_whileblue"":1,""num_blue"":3,""num_good_moves"":6}","[416.116960471017,408.2888378552028,0.3,416.116960471017,408.2888378552028,101.4,416.116960471017,408.2888378552028,203.8,416.116960471017,408.2888378552028,304.3,581.116960471017,559.5388378552028,423.1,703.491960471017,673.6638378552028,532.1,711.741960471017,679.1638378552028,636.7,732.366960471017,719.0388378552028,737.5,746.116960471017,768.5388378552028,852.8,746.116960471017,768.5388378552028,968.9,746.116960471017,768.5388378552028,1071.8,1203.991960471017,687.4138378552028,1172.3,1374.491960471017,676.4138378552028,1276.4,1374.491960471017,676.4138378552028,1379.4,1374.491960471017,676.4138378552028,1485.2,1374.491960471017,676.4138378552028,1594,1374.491960471017,676.4138378552028,1698.4,1374.491960471017,676.4138378552028,1806.4,1374.491960471017,676.4138378552028,1919.4,1374.491960471017,676.4138378552028,2024.3,1374.491960471017,676.4138378552028,2128,1374.491960471017,676.4138378552028,2232.6,1374.491960471017,676.4138378552028,2336.3,1374.491960471017,676.4138378552028,2452.1,1374.491960471017,676.4138378552028,2553.8,1374.491960471017,676.4138378552028,2658.5,1374.491960471017,676.4138378552028,2759.8,1374.491960471017,676.4138378552028,2862.8,1374.491960471017,676.4138378552028,2964,1374.491960471017,676.4138378552028,3064.2,1374.491960471017,676.4138378552028,3164.3,1374.491960471017,676.4138378552028,3268.6,1374.491960471017,676.4138378552028,3375.8,1374.491960471017,676.4138378552028,3487.1,1374.491960471017,676.4138378552028,3597.5,1374.491960471017,676.4138378552028,3706.2,1374.491960471017,676.4138378552028,3816.2,1374.491960471017,676.4138378552028,3925.8,1374.491960471017,676.4138378552028,4029.1,1374.491960471017,676.4138378552028,4132.4,1374.491960471017,676.4138378552028,4237.3,1374.491960471017,676.4138378552028,4339.2,1374.491960471017,676.4138378552028,4440.5,1374.491960471017,676.4138378552028,4548.6,1374.491960471017,676.4138378552028,4652.5,1374.491960471017,676.4138378552028,4764.2,1374.491960471017,676.4138378552028,4865.8,1374.491960471017,676.4138378552028,4968.9]","[1371.4,1371.4,1000,0,371.4,""oops"",""down"",""up"",""bad_move"",3613.2,2241.3,1856.7,1371.9,384.6,""smooth"",""right"",""right"",""good_move"",6229.2,2615.2,2332.6,3614.1,282.5,""smooth"",""right"",""right"",""good_move"",9896.6,3667.2,3203.8,6229.4,463.4,""oops"",""down"",""left"",""bad_move"",12625.5,2728.5,2400.6,9897,327.9,""while_blue"",""down"",""left"",""bad_move"",14979.2,2353.4,1698.8,12625.9,654.6,""smooth"",""down"",""down"",""good_move"",23889.6,8909.8,2155.3,21312.8,421.5,""smooth"",""down"",""down"",""good_move"",26153.6,2263.4,1763.8,23890.2,499.6,""oops"",""down"",""left"",""bad_move"",29106.2,2952.1,2539.7,26154.2,412.4,""smooth"",""down"",""down"",""good_move"",32268.1,3161.6,2841.5,29106.5,320.1,""smooth"",""right"",""right"",""good_move"",35868,3599.1,3275.4,32268.9,323.7,""oops"",""right"",""left"",""bad_move"",38883.6,3015.2,2676.2,35868.4,339,""oops"",""right"",""up"",""bad_move""]"
"2981","","<div style=""width:500px;"">
  <p>What determined the result of this run?</p>
  </div>","0","html-slider-response","64","707032","0.0-7.0-1.10","209","1","2025-08-06 14:56:49","36c45c0696341be0efffe67d72a12abb","5.69.202.172","Mozilla/5.0 (Windows NT 10.0; Win64; x64) AppleWebKit/537.36 (KHTML, like Gecko) Chrome/138.0.0.0 Safari/537.36","WebKit","Chrome","138.0.0.0","Windows","10.0","https://app.prolific.com/","en-GB,en-US;q=0.9,en;q=0.8","5c4f7b99b33a5300013dbfdd","6877649eabb845cf142cd221","68936d2c3d8a0791899fcd79","1","5c4f7b99b33a5300013dbfdd","1","2025-08-06T15:08:38.481Z","","","","AttribQ","","","","","","","","","","","50","","","","","","","","","","","","","","","","","","","","","","","","","","",""
"2038","","<div style=""width:500px;"">
  <p>How much control did you have over the ball?</p>
  </div>","0","html-slider-response","65","709070","0.0-7.0-2.10","209","1","2025-08-06 14:56:49","36c45c0696341be0efffe67d72a12abb","5.69.202.172","Mozilla/5.0 (Windows NT 10.0; Win64; x64) AppleWebKit/537.36 (KHTML, like Gecko) Chrome/138.0.0.0 Safari/537.36","WebKit","Chrome","138.0.0.0","Windows","10.0","https://app.prolific.com/","en-GB,en-US;q=0.9,en;q=0.8","5c4f7b99b33a5300013dbfdd","6877649eabb845cf142cd221","68936d2c3d8a0791899fcd79","1","5c4f7b99b33a5300013dbfdd","1","2025-08-06T15:08:40.520Z","","","","ControlQ","","","","","","","","","","","50","","","","","","","","","","","","","","","","","","","","","","","","","","",""
"1834","","<div style=""width:500px;"">
  <p>How would you describe your current emotional state?</p>
  </div>","100","html-slider-response","66","710905","0.0-7.0-3.10","209","1","2025-08-06 14:56:49","36c45c0696341be0efffe67d72a12abb","5.69.202.172","Mozilla/5.0 (Windows NT 10.0; Win64; x64) AppleWebKit/537.36 (KHTML, like Gecko) Chrome/138.0.0.0 Safari/537.36","WebKit","Chrome","138.0.0.0","Windows","10.0","https://app.prolific.com/","en-GB,en-US;q=0.9,en;q=0.8","5c4f7b99b33a5300013dbfdd","6877649eabb845cf142cd221","68936d2c3d8a0791899fcd79","1","5c4f7b99b33a5300013dbfdd","1","2025-08-06T15:08:42.355Z","","","","StressQ","","","","","","","","","","","50","","","","","","","","","","","","","","","","","","","","","","","","","","",""
"1637","","<div style=""width:500px;"">
  <p>What best describes how you currently feel?</p>
  </div>","0","html-slider-response","67","712544","0.0-7.0-4.10","209","1","2025-08-06 14:56:49","36c45c0696341be0efffe67d72a12abb","5.69.202.172","Mozilla/5.0 (Windows NT 10.0; Win64; x64) AppleWebKit/537.36 (KHTML, like Gecko) Chrome/138.0.0.0 Safari/537.36","WebKit","Chrome","138.0.0.0","Windows","10.0","https://app.prolific.com/","en-GB,en-US;q=0.9,en;q=0.8","5c4f7b99b33a5300013dbfdd","6877649eabb845cf142cd221","68936d2c3d8a0791899fcd79","1","5c4f7b99b33a5300013dbfdd","1","2025-08-06T15:08:43.993Z","","","","MotivationQ","","","","","","","","","","","50","","","","","","","","","","","","","","","","","","","","","","","","","","",""
"","","","","ctl-task-cpt","68","760559","0.0-7.0-0.11","209","1","2025-08-06 14:56:49","36c45c0696341be0efffe67d72a12abb","5.69.202.172","Mozilla/5.0 (Windows NT 10.0; Win64; x64) AppleWebKit/537.36 (KHTML, like Gecko) Chrome/138.0.0.0 Safari/537.36","WebKit","Chrome","138.0.0.0","Windows","10.0","https://app.prolific.com/","en-GB,en-US;q=0.9,en;q=0.8","5c4f7b99b33a5300013dbfdd","6877649eabb845cf142cd221","68936d2c3d8a0791899fcd79","1","5c4f7b99b33a5300013dbfdd","1","2025-08-06T15:09:32.009Z","","","","","","","","","","","","","","","","win-only","0","g1:NW,g2:SE","0.7","12","0","714667.4","812.5","5822.8","44994.1","1","4","4","6","2","4","3","3","0","0.022727272727272728","853.8","3000","980","[""down"",""right""]","{""num_key_presses"":12,""num_perfect"":8,""num_errors"":1,""num_randdir"":3,""num_randdir_good_moves"":1,""num_whilered"":0,""num_whileblue"":1,""num_blue"":3,""num_good_moves"":9}","[407.866960471017,413.7888378552028,0.1,407.866960471017,413.7888378552028,116.8,407.866960471017,413.7888378552028,222.2,407.866960471017,413.7888378552028,330.8,407.866960471017,413.7888378552028,433.6,546.741960471017,526.5388378552028,536.9,696.616960471017,763.0388378552028,642.5,739.241960471017,794.6638378552028,746.1,754.366960471017,823.5388378552028,858.5,754.366960471017,823.5388378552028,958.7,754.366960471017,823.5388378552028,1067,1114.616960471017,717.6638378552028,1189.1,1294.741960471017,673.6638378552028,1290.7,1293.366960471017,669.5388378552028,1395,1293.366960471017,669.5388378552028,1505.7,1293.366960471017,669.5388378552028,1609.3,1293.366960471017,669.5388378552028,1714.1,1293.366960471017,669.5388378552028,1831.5,1293.366960471017,669.5388378552028,1953.9,1293.366960471017,669.5388378552028,2056.5,1293.366960471017,669.5388378552028,2159.5,1293.366960471017,669.5388378552028,2266.4,1293.366960471017,669.5388378552028,2382.8,1293.366960471017,669.5388378552028,2487,1293.366960471017,669.5388378552028,2588.7,1293.366960471017,669.5388378552028,2688.9,1293.366960471017,669.5388378552028,2793.5,1293.366960471017,669.5388378552028,2894.1,1293.366960471017,669.5388378552028,2995.6,1293.366960471017,669.5388378552028,3099.7,1293.366960471017,669.5388378552028,3199.7,1293.366960471017,669.5388378552028,3300.3,1293.366960471017,669.5388378552028,3402.1,1293.366960471017,669.5388378552028,3509.6,1293.366960471017,669.5388378552028,3615.2,1293.366960471017,669.5388378552028,3732.7,1293.366960471017,669.5388378552028,3837.5,1293.366960471017,669.5388378552028,3947.5,1293.366960471017,669.5388378552028,4048.8,1293.366960471017,669.5388378552028,4158.5,1293.366960471017,669.5388378552028,4263.6,1293.366960471017,669.5388378552028,4364.9,1293.366960471017,669.5388378552028,4467.7,1293.366960471017,669.5388378552028,4570.4,1293.366960471017,669.5388378552028,4673.9,1293.366960471017,669.5388378552028,4782.5,1293.366960471017,669.5388378552028,4895.3]","[1374.5,1374.5,1000,0,374.5,""smooth"",""down"",""down"",""good_move"",3685.7,2310.5,1949.3,1375.2,361.2,""smooth"",""down"",""down"",""good_move"",6687.8,3001.8,2670.6,3686,331.2,""smooth"",""down"",""down"",""good_move"",9110.1,2422,2082.9,6688.1,339.1,""oops"",""right"",""up"",""bad_move"",11726.5,2616,2307.9,9110.5,308.1,""smooth"",""right"",""right"",""good_move"",14948.3,3221.2,2933.8,11727.1,287.4,""smooth"",""right"",""right"",""good_move"",17770.8,2822.2,2503.1,14948.7,319.1,""smooth"",""right"",""right"",""good_move"",20727.2,2956.1,2665.9,17771.1,290.2,""oops"",""down"",""up"",""bad_move"",23597.3,2869.2,2626.7,20728.2,242.5,""while_blue"",""down"",""up"",""bad_move"",26758.1,3160,2829.6,23598.2,330.3,""oops"",""down"",""down"",""good_move"",33069,6310.3,2536.3,30178.9,353.8,""smooth"",""down"",""down"",""good_move"",39024.5,5955.2,2498.1,36199.6,326.8,""smooth"",""down"",""down"",""good_move""]"
"2696","","<div style=""width:500px;"">
  <p>What determined the result of this run?</p>
  </div>","0","html-slider-response","69","763258","0.0-7.0-1.11","209","1","2025-08-06 14:56:49","36c45c0696341be0efffe67d72a12abb","5.69.202.172","Mozilla/5.0 (Windows NT 10.0; Win64; x64) AppleWebKit/537.36 (KHTML, like Gecko) Chrome/138.0.0.0 Safari/537.36","WebKit","Chrome","138.0.0.0","Windows","10.0","https://app.prolific.com/","en-GB,en-US;q=0.9,en;q=0.8","5c4f7b99b33a5300013dbfdd","6877649eabb845cf142cd221","68936d2c3d8a0791899fcd79","1","5c4f7b99b33a5300013dbfdd","1","2025-08-06T15:09:34.707Z","","","","AttribQ","","","","","","","","","","","50","","","","","","","","","","","","","","","","","","","","","","","","","","",""
"2566","","<div style=""width:500px;"">
  <p>How much control did you have over the ball?</p>
  </div>","27","html-slider-response","70","765825","0.0-7.0-2.11","209","1","2025-08-06 14:56:49","36c45c0696341be0efffe67d72a12abb","5.69.202.172","Mozilla/5.0 (Windows NT 10.0; Win64; x64) AppleWebKit/537.36 (KHTML, like Gecko) Chrome/138.0.0.0 Safari/537.36","WebKit","Chrome","138.0.0.0","Windows","10.0","https://app.prolific.com/","en-GB,en-US;q=0.9,en;q=0.8","5c4f7b99b33a5300013dbfdd","6877649eabb845cf142cd221","68936d2c3d8a0791899fcd79","1","5c4f7b99b33a5300013dbfdd","1","2025-08-06T15:09:37.274Z","","","","ControlQ","","","","","","","","","","","50","","","","","","","","","","","","","","","","","","","","","","","","","","",""
"1962","","<div style=""width:500px;"">
  <p>How would you describe your current emotional state?</p>
  </div>","100","html-slider-response","71","767788","0.0-7.0-3.11","209","1","2025-08-06 14:56:49","36c45c0696341be0efffe67d72a12abb","5.69.202.172","Mozilla/5.0 (Windows NT 10.0; Win64; x64) AppleWebKit/537.36 (KHTML, like Gecko) Chrome/138.0.0.0 Safari/537.36","WebKit","Chrome","138.0.0.0","Windows","10.0","https://app.prolific.com/","en-GB,en-US;q=0.9,en;q=0.8","5c4f7b99b33a5300013dbfdd","6877649eabb845cf142cd221","68936d2c3d8a0791899fcd79","1","5c4f7b99b33a5300013dbfdd","1","2025-08-06T15:09:39.237Z","","","","StressQ","","","","","","","","","","","50","","","","","","","","","","","","","","","","","","","","","","","","","","",""
"1858","","<div style=""width:500px;"">
  <p>What best describes how you currently feel?</p>
  </div>","0","html-slider-response","72","769648","0.0-7.0-4.11","209","1","2025-08-06 14:56:49","36c45c0696341be0efffe67d72a12abb","5.69.202.172","Mozilla/5.0 (Windows NT 10.0; Win64; x64) AppleWebKit/537.36 (KHTML, like Gecko) Chrome/138.0.0.0 Safari/537.36","WebKit","Chrome","138.0.0.0","Windows","10.0","https://app.prolific.com/","en-GB,en-US;q=0.9,en;q=0.8","5c4f7b99b33a5300013dbfdd","6877649eabb845cf142cd221","68936d2c3d8a0791899fcd79","1","5c4f7b99b33a5300013dbfdd","1","2025-08-06T15:09:41.097Z","","","","MotivationQ","","","","","","","","","","","50","","","","","","","","","","","","","","","","","","","","","","","","","","",""
"","","","","ctl-task-cpt","73","799636","0.0-7.0-0.12","209","1","2025-08-06 14:56:49","36c45c0696341be0efffe67d72a12abb","5.69.202.172","Mozilla/5.0 (Windows NT 10.0; Win64; x64) AppleWebKit/537.36 (KHTML, like Gecko) Chrome/138.0.0.0 Safari/537.36","WebKit","Chrome","138.0.0.0","Windows","10.0","https://app.prolific.com/","en-GB,en-US;q=0.9,en;q=0.8","5c4f7b99b33a5300013dbfdd","6877649eabb845cf142cd221","68936d2c3d8a0791899fcd79","1","5c4f7b99b33a5300013dbfdd","1","2025-08-06T15:10:11.085Z","","","","","","","","","","","","","","","","win-only","0","g1:NW,g2:SE","0.8","13","0","771769.2","705.5","5726","26956.6","1","4","8","6","2","8","7","10","3","0.07575757575757576","895.6","3000","1895","[""down"",""right""]","{""num_key_presses"":7,""num_perfect"":5,""num_errors"":1,""num_randdir"":1,""num_randdir_good_moves"":1,""num_whilered"":0,""num_whileblue"":0,""num_blue"":1,""num_good_moves"":6}","[420.241960471017,415.1638378552028,0.6,420.241960471017,415.1638378552028,101.5,420.241960471017,415.1638378552028,202.8,420.241960471017,415.1638378552028,310.1,420.241960471017,415.1638378552028,411.9,486.241960471017,471.5388378552028,513.7,649.866960471017,662.6638378552028,614,710.366960471017,706.6638378552028,721.5,739.241960471017,745.1638378552028,826.5,739.241960471017,750.6638378552028,932.5,739.241960471017,750.6638378552028,1035.1,739.241960471017,750.6638378552028,1135.1,1285.116960471017,658.5388378552028,1242,1322.241960471017,651.6638378552028,1346.7,1322.241960471017,651.6638378552028,1450.8,1322.241960471017,651.6638378552028,1558.6,1322.241960471017,651.6638378552028,1664.7,1322.241960471017,651.6638378552028,1765,1322.241960471017,651.6638378552028,1865.5,1322.241960471017,651.6638378552028,1965.6,1322.241960471017,651.6638378552028,2065.9,1322.241960471017,651.6638378552028,2174.9,1322.241960471017,651.6638378552028,2275,1322.241960471017,651.6638378552028,2375,1322.241960471017,651.6638378552028,2475.6,1322.241960471017,651.6638378552028,2579.7,1322.241960471017,651.6638378552028,2685.3,1322.241960471017,651.6638378552028,2785.4,1322.241960471017,651.6638378552028,2900.7,1322.241960471017,651.6638378552028,3003.3,1322.241960471017,651.6638378552028,3106.5,1322.241960471017,651.6638378552028,3208,1322.241960471017,651.6638378552028,3309.8,1322.241960471017,651.6638378552028,3410.8,1322.241960471017,651.6638378552028,3522.1,1322.241960471017,651.6638378552028,3631.1,1322.241960471017,651.6638378552028,3741,1322.241960471017,651.6638378552028,3855.2,1322.241960471017,651.6638378552028,3956.4,1322.241960471017,651.6638378552028,4057.8,1322.241960471017,651.6638378552028,4160.5,1322.241960471017,651.6638378552028,4260.6,1322.241960471017,651.6638378552028,4360.8,1322.241960471017,651.6638378552028,4465.8,1322.241960471017,651.6638378552028,4566.1,1322.241960471017,651.6638378552028,4666.3,1322.241960471017,651.6638378552028,4793.2,1322.241960471017,651.6638378552028,4895.9,1322.241960471017,651.6638378552028,4999.8]","[359.2,359.2,1000,0,-640.8,""error"",""-"",""-"",""no_move"",3919,3559.1,2252.1,1360.3,306.6,""smooth"",""down"",""down"",""good_move"",6562.3,2643,2323.1,3919.3,319.9,""smooth"",""down"",""down"",""good_move"",8841,2278.3,1969,6562.7,309.3,""smooth"",""right"",""right"",""good_move"",15136,6294.5,2472.5,12284.9,378.6,""oops"",""right"",""right"",""good_move"",17944.6,2808.4,2449,15136.2,359.4,""smooth"",""down"",""down"",""good_move"",21072.5,3127.5,2740.9,17945.1,386.5,""smooth"",""right"",""right"",""good_move""]"
"2324","","<div style=""width:500px;"">
  <p>What determined the result of this run?</p>
  </div>","0","html-slider-response","74","801961","0.0-7.0-1.12","209","1","2025-08-06 14:56:49","36c45c0696341be0efffe67d72a12abb","5.69.202.172","Mozilla/5.0 (Windows NT 10.0; Win64; x64) AppleWebKit/537.36 (KHTML, like Gecko) Chrome/138.0.0.0 Safari/537.36","WebKit","Chrome","138.0.0.0","Windows","10.0","https://app.prolific.com/","en-GB,en-US;q=0.9,en;q=0.8","5c4f7b99b33a5300013dbfdd","6877649eabb845cf142cd221","68936d2c3d8a0791899fcd79","1","5c4f7b99b33a5300013dbfdd","1","2025-08-06T15:10:13.410Z","","","","AttribQ","","","","","","","","","","","50","","","","","","","","","","","","","","","","","","","","","","","","","","",""
"2569","","<div style=""width:500px;"">
  <p>How much control did you have over the ball?</p>
  </div>","63","html-slider-response","75","804533","0.0-7.0-2.12","209","1","2025-08-06 14:56:49","36c45c0696341be0efffe67d72a12abb","5.69.202.172","Mozilla/5.0 (Windows NT 10.0; Win64; x64) AppleWebKit/537.36 (KHTML, like Gecko) Chrome/138.0.0.0 Safari/537.36","WebKit","Chrome","138.0.0.0","Windows","10.0","https://app.prolific.com/","en-GB,en-US;q=0.9,en;q=0.8","5c4f7b99b33a5300013dbfdd","6877649eabb845cf142cd221","68936d2c3d8a0791899fcd79","1","5c4f7b99b33a5300013dbfdd","1","2025-08-06T15:10:15.982Z","","","","ControlQ","","","","","","","","","","","50","","","","","","","","","","","","","","","","","","","","","","","","","","",""
"2018","","<div style=""width:500px;"">
  <p>How would you describe your current emotional state?</p>
  </div>","100","html-slider-response","76","806553","0.0-7.0-3.12","209","1","2025-08-06 14:56:49","36c45c0696341be0efffe67d72a12abb","5.69.202.172","Mozilla/5.0 (Windows NT 10.0; Win64; x64) AppleWebKit/537.36 (KHTML, like Gecko) Chrome/138.0.0.0 Safari/537.36","WebKit","Chrome","138.0.0.0","Windows","10.0","https://app.prolific.com/","en-GB,en-US;q=0.9,en;q=0.8","5c4f7b99b33a5300013dbfdd","6877649eabb845cf142cd221","68936d2c3d8a0791899fcd79","1","5c4f7b99b33a5300013dbfdd","1","2025-08-06T15:10:18.002Z","","","","StressQ","","","","","","","","","","","50","","","","","","","","","","","","","","","","","","","","","","","","","","",""
"1319","","<div style=""width:500px;"">
  <p>What best describes how you currently feel?</p>
