"rt","response_timestamp","stimulus","response","trial_type","trial_index","time_elapsed","internal_node_id","run_id","condition","recorded_at","source_code_version","ip","user_agent","device","browser","browser_version","platform","platform_version","referer","accept_language","PROLIFIC_PID","STUDY_ID","SESSION_ID","BATCH","prolific_id","batch","realtime","success","question_order","question_id","eventType","responses","item_order","radio_event_ids","radio_event_times","key_event_times","mouse_event_times","straightlining","zigzagging","honeypot","view_history","slider_start","which_type","canvas_config","goals_layout","control_level","trial_number","tutorial_trial_number","trial_start_time","phase1_start_time","phase2_start_time","phase3_start_time","goal_1_value","goal_1_distance","goal_2_value","goal_2_distance","goal_selected","outcome","outcome_total","participant_final_score","participant_initial_score","participant_final_score_prop","goal_choice_rt","allocated_time","allocated_time_remaining","goal_direction","counts","mouse_movements","key_presses"
"23499","1754470539641","<p style='font-size:40px;line-height:1.25'><strong>Welcome to the experiment!</strong></p><p style='font-size:1.1em;line-height:1.25'>Thank you for participanting in our experiment again! You will be asked to play the Dysfunctional Ball Game again. We will briefly recap the rules before we start.</p><p style='font-size:1.1em;line-height:1.25'>Press <strong>Next</strong> to continue.</p>","0","custom-html-button-response","0","23501","0.0-0.0","144","1","2025-08-06 08:55:03","36c45c0696341be0efffe67d72a12abb","5.206.180.140","Mozilla/5.0 (Windows NT 10.0; Win64; x64) AppleWebKit/537.36 (KHTML, like Gecko) Chrome/138.0.0.0 Safari/537.36","WebKit","Chrome","138.0.0.0","Windows","10.0","https://app.prolific.com/","en-US,en;q=0.9","5c59ceb27e554c0001257ff4","687a1a965b9f5b85a264363e","689317a93d0ed7606b249f4e","1","5c59ceb27e554c0001257ff4","1","2025-08-06T08:55:39.642Z","","","","","","","","","","","","","","","","","","","","","","","","","","","","","","","","","","","","","","","","","",""
"63498","","","","fullscreen","1","88009","0.0-1.0","144","1","2025-08-06 08:55:03","36c45c0696341be0efffe67d72a12abb","5.206.180.140","Mozilla/5.0 (Windows NT 10.0; Win64; x64) AppleWebKit/537.36 (KHTML, like Gecko) Chrome/138.0.0.0 Safari/537.36","WebKit","Chrome","138.0.0.0","Windows","10.0","https://app.prolific.com/","en-US,en;q=0.9","5c59ceb27e554c0001257ff4","687a1a965b9f5b85a264363e","689317a93d0ed7606b249f4e","1","5c59ceb27e554c0001257ff4","1","","true","","","","","","","","","","","","","","","","","","","","","","","","","","","","","","","","","","","","","","","","",""
"3982","1754470608133"," <p style='font-size:1.1em;line-height:1.25'>Thank you for closing all other tabs.</p><p style='font-size:1.1em;line-height:1.25'>We will now invite you to fill in some questionnaires, before starting the game.<br>This will take about 5 minutes.<br></p><p style='font-size:1.1em;line-height:1.25'>Press the <strong>Next</strong> button to continue.</p>","0","custom-html-button-response","2","91993","0.0-2.0","144","1","2025-08-06 08:55:03","36c45c0696341be0efffe67d72a12abb","5.206.180.140","Mozilla/5.0 (Windows NT 10.0; Win64; x64) AppleWebKit/537.36 (KHTML, like Gecko) Chrome/138.0.0.0 Safari/537.36","WebKit","Chrome","138.0.0.0","Windows","10.0","https://app.prolific.com/","en-US,en;q=0.9","5c59ceb27e554c0001257ff4","687a1a965b9f5b85a264363e","689317a93d0ed7606b249f4e","1","5c59ceb27e554c0001257ff4","1","2025-08-06T08:56:48.134Z","","","","","","","","","","","","","","","","","","","","","","","","","","","","","","","","","","","","","","","","","",""
"5089","","","{""assigned_sex"":""female""}","survey-multi-choice","3","97083","0.0-3.0-0.0","144","1","2025-08-06 08:55:03","36c45c0696341be0efffe67d72a12abb","5.206.180.140","Mozilla/5.0 (Windows NT 10.0; Win64; x64) AppleWebKit/537.36 (KHTML, like Gecko) Chrome/138.0.0.0 Safari/537.36","WebKit","Chrome","138.0.0.0","Windows","10.0","https://app.prolific.com/","en-US,en;q=0.9","5c59ceb27e554c0001257ff4","687a1a965b9f5b85a264363e","689317a93d0ed7606b249f4e","1","5c59ceb27e554c0001257ff4","1","","","[0]","0","demographics","","","","","","","","","","","","","","","","","","","","","","","","","","","","","","","","","","","","","",""
"4191","1754470617415","<p style='font-size:1.1em;line-height:1.25'>In the following, we will perform a baseline assessment. This means that we will ask you a few questions relating to your experiences over the past month.<br></p><p style='font-size:1.1em;line-height:1.25'>Press the <strong>Next</strong> button to continue.</p>","0","custom-html-button-response","4","101275","0.0-4.0-0.0","144","1","2025-08-06 08:55:03","36c45c0696341be0efffe67d72a12abb","5.206.180.140","Mozilla/5.0 (Windows NT 10.0; Win64; x64) AppleWebKit/537.36 (KHTML, like Gecko) Chrome/138.0.0.0 Safari/537.36","WebKit","Chrome","138.0.0.0","Windows","10.0","https://app.prolific.com/","en-US,en;q=0.9","5c59ceb27e554c0001257ff4","687a1a965b9f5b85a264363e","689317a93d0ed7606b249f4e","1","5c59ceb27e554c0001257ff4","1","2025-08-06T08:56:57.416Z","","","","","","","","","","","","","","","","","","","","","","","","","","","","","","","","","","","","","","","","","",""
"61682.09999990463","","","","survey-template","5","162964","0.0-4.0-1.0","144","1","2025-08-06 08:55:03","36c45c0696341be0efffe67d72a12abb","5.206.180.140","Mozilla/5.0 (Windows NT 10.0; Win64; x64) AppleWebKit/537.36 (KHTML, like Gecko) Chrome/138.0.0.0 Safari/537.36","WebKit","Chrome","138.0.0.0","Windows","10.0","https://app.prolific.com/","en-US,en;q=0.9","5c59ceb27e554c0001257ff4","687a1a965b9f5b85a264363e","689317a93d0ed7606b249f4e","1","5c59ceb27e554c0001257ff4","1","2025-08-06T08:57:59.105Z","","","","pss","{""Q01"":""2"",""Q02"":""1"",""Q03"":""2"",""Q04"":""1"",""Q05"":""2"",""Q06"":""1"",""Q07"":""1"",""Q08"":""2"",""Q09"":""2"",""Q10"":""1""}","[0,1,2,3,4,5,6,7,8,9]","[""Q01"",""Q02"",""Q03"",""Q04"",""Q05"",""Q06"",""Q07"",""Q08"",""Q09"",""Q10""]","[12624,20271.799999713898,21008.199999809265,36264.09999990463,39216.2999997139,47272.09999990463,50224.09999990463,52504.09999990463,55563.2999997139,59938.7999997139]","[]","[0.19999980926513672,12624,19583.900000095367,20271.799999713898,21008.199999809265,36264.09999990463,39216.2999997139,43833.09999990463,47272.09999990463,50224.09999990463,52504.09999990463,55144,55563.2999997139,59938.7999997139,61679.5]","0.5","0.7777777777777778","0","","","","","","","","","","","","","","","","","","","","","","","","","","","","",""
"4646","1754470683752","<p style='font-size:1.1em;line-height:1.25'>Thank you for your answers! Now we will ask you a few more questions relating to your feelings in the last 24 hours.<br></p><p style='font-size:1.1em;line-height:1.25'>Press the <strong>Next</strong> button to continue.</p>","0","custom-html-button-response","6","167611","0.0-4.0-2.0","144","1","2025-08-06 08:55:03","36c45c0696341be0efffe67d72a12abb","5.206.180.140","Mozilla/5.0 (Windows NT 10.0; Win64; x64) AppleWebKit/537.36 (KHTML, like Gecko) Chrome/138.0.0.0 Safari/537.36","WebKit","Chrome","138.0.0.0","Windows","10.0","https://app.prolific.com/","en-US,en;q=0.9","5c59ceb27e554c0001257ff4","687a1a965b9f5b85a264363e","689317a93d0ed7606b249f4e","1","5c59ceb27e554c0001257ff4","1","2025-08-06T08:58:03.753Z","","","","","","","","","","","","","","","","","","","","","","","","","","","","","","","","","","","","","","","","","",""
"63961","","","","survey-template","7","231576","0.0-4.0-3.0","144","1","2025-08-06 08:55:03","36c45c0696341be0efffe67d72a12abb","5.206.180.140","Mozilla/5.0 (Windows NT 10.0; Win64; x64) AppleWebKit/537.36 (KHTML, like Gecko) Chrome/138.0.0.0 Safari/537.36","WebKit","Chrome","138.0.0.0","Windows","10.0","https://app.prolific.com/","en-US,en;q=0.9","5c59ceb27e554c0001257ff4","687a1a965b9f5b85a264363e","689317a93d0ed7606b249f4e","1","5c59ceb27e554c0001257ff4","1","2025-08-06T08:59:07.717Z","","","","drsp","{""Q01"":""1"",""Q02"":""1"",""Q03"":""0"",""Q04"":""1"",""Q05"":""0"",""Q06"":""0"",""Q07"":""1"",""Q08"":""0"",""Q09"":""1"",""Q10"":""1"",""Q11"":""2"",""Q12"":""0"",""Q13"":""5"",""Q14"":""1"",""Q15"":""1"",""Q16"":""2"",""Q17"":""1"",""Q18"":""1"",""Q19"":""0"",""Q20"":""0"",""Q21"":""0"",""Q22"":""0""}","[0,1,2,3,4,5,6,7,8,9,10,11,12,13,14,15,16,17,18,19,20,21]","[""Q01"",""Q02"",""Q03"",""Q04"",""Q05"",""Q06"",""Q07"",""Q08"",""Q09"",""Q10"",""Q11"",""Q12"",""Q13"",""Q14"",""Q15"",""Q16"",""Q17"",""Q18"",""Q19"",""Q20"",""Q21"",""Q22""]","[6836.299999713898,7740,10835.5,11651,14067.099999904633,14987.199999809265,18259.099999904633,19219.699999809265,21804.89999961853,24283.699999809265,26178.89999961853,28875.099999904633,31212.299999713898,34428.5,37282.699999809265,39979.7999997139,42691,44282.89999961853,48178.7999997139,52594.5,55474.89999961853,58002.7999997139]","[]","[0,6836.299999713898,7740,9523.099999904633,10835.5,11651,14067.099999904633,14987.199999809265,18259.099999904633,19219.699999809265,21804.89999961853,24283.699999809265,26178.89999961853,28875.099999904633,31212.299999713898,34428.5,37282.699999809265,39979.7999997139,42691,44282.89999961853,48178.7999997139,52594.5,55474.89999961853,58002.7999997139,63955.7999997139]","0.45454545454545453","0.5238095238095238","0","","","","","","","","","","","","","","","","","","","","","","","","","","","","",""
"9712.300000190735","","","","survey-template","8","241306","0.0-4.0-4.0","144","1","2025-08-06 08:55:03","36c45c0696341be0efffe67d72a12abb","5.206.180.140","Mozilla/5.0 (Windows NT 10.0; Win64; x64) AppleWebKit/537.36 (KHTML, like Gecko) Chrome/138.0.0.0 Safari/537.36","WebKit","Chrome","138.0.0.0","Windows","10.0","https://app.prolific.com/","en-US,en;q=0.9","5c59ceb27e554c0001257ff4","687a1a965b9f5b85a264363e","689317a93d0ed7606b249f4e","1","5c59ceb27e554c0001257ff4","1","2025-08-06T08:59:17.447Z","","","","stress","{""Q01"":""2"",""Q02"":""2"",""Q03"":""1""}","[0,1,2]","[""Q01"",""Q02"",""Q03""]","[3023.4000000953674,6758.5,8895.199999809265]","[]","[3023.4000000953674,6758.5,8494.800000190735,8895.199999809265,9711.300000190735]","0.3333333333333333","0.5","0","","","","","","","","","","","","","","","","","","","","","","","","","","","","",""
"25997","","","","instructions","9","267305","0.0-5.0-0.0","144","1","2025-08-06 08:55:03","36c45c0696341be0efffe67d72a12abb","5.206.180.140","Mozilla/5.0 (Windows NT 10.0; Win64; x64) AppleWebKit/537.36 (KHTML, like Gecko) Chrome/138.0.0.0 Safari/537.36","WebKit","Chrome","138.0.0.0","Windows","10.0","https://app.prolific.com/","en-US,en;q=0.9","5c59ceb27e554c0001257ff4","687a1a965b9f5b85a264363e","689317a93d0ed7606b249f4e","1","5c59ceb27e554c0001257ff4","1","","","","","","","","","","","","","","","[{""page_index"":0,""viewing_time"":25997}]","","","","","","","","","","","","","","","","","","","","","","","","","","","",""
"24853","","<p>Before you start with this game please answer the following three questions yourself. </p>
  <p>Through this game, we measure several aspects of your cognitive performance, such as reaction times, multi-tasking capabilities </p>
  <p>and the ability to assess the situation you are in.</p>
  <p></p>
  <p><b>How good do you usually are in such tasks?</b></p>","56","html-slider-response","10","292177","0.0-6.0-0.0","144","1","2025-08-06 08:55:03","36c45c0696341be0efffe67d72a12abb","5.206.180.140","Mozilla/5.0 (Windows NT 10.0; Win64; x64) AppleWebKit/537.36 (KHTML, like Gecko) Chrome/138.0.0.0 Safari/537.36","WebKit","Chrome","138.0.0.0","Windows","10.0","https://app.prolific.com/","en-US,en;q=0.9","5c59ceb27e554c0001257ff4","687a1a965b9f5b85a264363e","689317a93d0ed7606b249f4e","1","5c59ceb27e554c0001257ff4","1","2025-08-06T09:00:08.318Z","","","","PreSkillQ","","","","","","","","","","","50","","","","","","","","","","","","","","","","","","","","","","","","","","",""
"4166","","<div style=""width:500px;"">
  <p>How well do you think you will perform in this task compared to other participants?</p>
  </div>","41","html-slider-response","11","296344","0.0-6.0-1.0","144","1","2025-08-06 08:55:03","36c45c0696341be0efffe67d72a12abb","5.206.180.140","Mozilla/5.0 (Windows NT 10.0; Win64; x64) AppleWebKit/537.36 (KHTML, like Gecko) Chrome/138.0.0.0 Safari/537.36","WebKit","Chrome","138.0.0.0","Windows","10.0","https://app.prolific.com/","en-US,en;q=0.9","5c59ceb27e554c0001257ff4","687a1a965b9f5b85a264363e","689317a93d0ed7606b249f4e","1","5c59ceb27e554c0001257ff4","1","2025-08-06T09:00:12.485Z","","","","PrePerfQ","","","","","","","","","","","50","","","","","","","","","","","","","","","","","","","","","","","","","","",""
"3096","","<div style=""width:500px;"">
  <p>What best describes how you currently feel?</p>
  </div>","62","html-slider-response","12","299440","0.0-6.0-2.0","144","1","2025-08-06 08:55:03","36c45c0696341be0efffe67d72a12abb","5.206.180.140","Mozilla/5.0 (Windows NT 10.0; Win64; x64) AppleWebKit/537.36 (KHTML, like Gecko) Chrome/138.0.0.0 Safari/537.36","WebKit","Chrome","138.0.0.0","Windows","10.0","https://app.prolific.com/","en-US,en;q=0.9","5c59ceb27e554c0001257ff4","687a1a965b9f5b85a264363e","689317a93d0ed7606b249f4e","1","5c59ceb27e554c0001257ff4","1","2025-08-06T09:00:15.582Z","","","","PreMotivationQ","","","","","","","","","","","50","","","","","","","","","","","","","","","","","","","","","","","","","","",""
"","","","","ctl-task-cpt","13","325523","0.0-7.0-0.0","144","1","2025-08-06 08:55:03","36c45c0696341be0efffe67d72a12abb","5.206.180.140","Mozilla/5.0 (Windows NT 10.0; Win64; x64) AppleWebKit/537.36 (KHTML, like Gecko) Chrome/138.0.0.0 Safari/537.36","WebKit","Chrome","138.0.0.0","Windows","10.0","https://app.prolific.com/","en-US,en;q=0.9","5c59ceb27e554c0001257ff4","687a1a965b9f5b85a264363e","689317a93d0ed7606b249f4e","1","5c59ceb27e554c0001257ff4","1","2025-08-06T09:00:41.664Z","","","","","","","","","","","","","","","","win-only","3","g1:SW,g2:NE","1","1","0","301729.8","1547.8","6550.6","23056.6","1","4","4","6","1","1","0","0","0","0","1631.3","3000","650","[""down"",""left""]","{""num_key_presses"":6,""num_perfect"":5,""num_errors"":1,""num_randdir"":0,""num_randdir_good_moves"":0,""num_whilered"":0,""num_whileblue"":1,""num_blue"":1,""num_good_moves"":5}","[413.57142857142856,415.47767857142856,1.3,413.57142857142856,415.47767857142856,103,413.57142857142856,415.47767857142856,205.7,413.57142857142856,415.47767857142856,308.1,413.57142857142856,415.47767857142856,408.3,413.57142857142856,415.47767857142856,508.4,413.57142857142856,415.47767857142856,612.8,413.57142857142856,415.47767857142856,718.4,413.57142857142856,415.47767857142856,819.3,413.57142857142856,415.47767857142856,922.6,413.57142857142856,415.47767857142856,1022.6,413.57142857142856,415.47767857142856,1123.5,242.57142857142856,535.4776785714286,1229.5,75.57142857142857,698.4776785714286,1334.5,74.57142857142857,716.4776785714286,1438.3,80.57142857142857,734.4776785714286,1539.5,82.57142857142857,738.4776785714286,1639.5,82.57142857142857,738.4776785714286,1743.9,82.57142857142857,738.4776785714286,1844.6,82.57142857142857,738.4776785714286,1947.6,82.57142857142857,738.4776785714286,2048.7,82.57142857142857,738.4776785714286,2152.7,82.57142857142857,738.4776785714286,2252.8,82.57142857142857,738.4776785714286,2357.9,82.57142857142857,738.4776785714286,2458.5,82.57142857142857,738.4776785714286,2563.2,82.57142857142857,738.4776785714286,2663.3,82.57142857142857,738.4776785714286,2764,82.57142857142857,738.4776785714286,2869.2,82.57142857142857,738.4776785714286,2973.6,82.57142857142857,738.4776785714286,3078.3,82.57142857142857,738.4776785714286,3184.2,82.57142857142857,738.4776785714286,3288.1,82.57142857142857,738.4776785714286,3393.3,146.57142857142856,711.4776785714286,3498.6,204.57142857142856,671.4776785714286,3599.2,75.57142857142857,578.4776785714286,3702.9,-64.42857142857143,499.47767857142856,3808.3,-56.42857142857143,500.47767857142856,3908.3,-56.42857142857143,500.47767857142856,4008.6,-56.42857142857143,499.47767857142856,4108.6,-58.42857142857143,493.47767857142856,4213.9,-60.42857142857143,492.47767857142856,4319.1,-60.42857142857143,492.47767857142856,4424.2,-60.42857142857143,492.47767857142856,4528.2,-60.42857142857143,492.47767857142856,4628.2,-60.42857142857143,492.47767857142856,4733.8,-48.42857142857143,489.47767857142856,4838.2,-40.42857142857143,486.47767857142856,4943.7]","[1463.4,1463.4,1000,0,463.4,""smooth"",""down"",""down"",""good_move"",5138.8,3675.1,3138.7,1463.7,536.4,""smooth"",""down"",""down"",""good_move"",7491.9,2352.9,1892,5139,460.9,""while_blue"",""left"",""up"",""bad_move"",10535.8,3043.6,2516.4,7492.2,527.2,""smooth"",""left"",""left"",""good_move"",13372,2836,2403,10536,433,""smooth"",""left"",""left"",""good_move"",16416.6,3044.5,2589.6,13372.1,454.9,""smooth"",""down"",""down"",""good_move""]"
"3356","","<div style=""width:500px;"">
  <p>What determined the result of this run?</p>
  </div>","94","html-slider-response","14","328880","0.0-7.0-1.0","144","1","2025-08-06 08:55:03","36c45c0696341be0efffe67d72a12abb","5.206.180.140","Mozilla/5.0 (Windows NT 10.0; Win64; x64) AppleWebKit/537.36 (KHTML, like Gecko) Chrome/138.0.0.0 Safari/537.36","WebKit","Chrome","138.0.0.0","Windows","10.0","https://app.prolific.com/","en-US,en;q=0.9","5c59ceb27e554c0001257ff4","687a1a965b9f5b85a264363e","689317a93d0ed7606b249f4e","1","5c59ceb27e554c0001257ff4","1","2025-08-06T09:00:45.021Z","","","","AttribQ","","","","","","","","","","","50","","","","","","","","","","","","","","","","","","","","","","","","","","",""
"1863","","<div style=""width:500px;"">
  <p>How much control did you have over the ball?</p>
  </div>","96","html-slider-response","15","330744","0.0-7.0-2.0","144","1","2025-08-06 08:55:03","36c45c0696341be0efffe67d72a12abb","5.206.180.140","Mozilla/5.0 (Windows NT 10.0; Win64; x64) AppleWebKit/537.36 (KHTML, like Gecko) Chrome/138.0.0.0 Safari/537.36","WebKit","Chrome","138.0.0.0","Windows","10.0","https://app.prolific.com/","en-US,en;q=0.9","5c59ceb27e554c0001257ff4","687a1a965b9f5b85a264363e","689317a93d0ed7606b249f4e","1","5c59ceb27e554c0001257ff4","1","2025-08-06T09:00:46.885Z","","","","ControlQ","","","","","","","","","","","50","","","","","","","","","","","","","","","","","","","","","","","","","","",""
"2727","","<div style=""width:500px;"">
  <p>How would you describe your current emotional state?</p>
  </div>","70","html-slider-response","16","333472","0.0-7.0-3.0","144","1","2025-08-06 08:55:03","36c45c0696341be0efffe67d72a12abb","5.206.180.140","Mozilla/5.0 (Windows NT 10.0; Win64; x64) AppleWebKit/537.36 (KHTML, like Gecko) Chrome/138.0.0.0 Safari/537.36","WebKit","Chrome","138.0.0.0","Windows","10.0","https://app.prolific.com/","en-US,en;q=0.9","5c59ceb27e554c0001257ff4","687a1a965b9f5b85a264363e","689317a93d0ed7606b249f4e","1","5c59ceb27e554c0001257ff4","1","2025-08-06T09:00:49.613Z","","","","StressQ","","","","","","","","","","","50","","","","","","","","","","","","","","","","","","","","","","","","","","",""
"11695","","<div style=""width:500px;"">
  <p>What best describes how you currently feel?</p>
  </div>","68","html-slider-response","17","345168","0.0-7.0-4.0","144","1","2025-08-06 08:55:03","36c45c0696341be0efffe67d72a12abb","5.206.180.140","Mozilla/5.0 (Windows NT 10.0; Win64; x64) AppleWebKit/537.36 (KHTML, like Gecko) Chrome/138.0.0.0 Safari/537.36","WebKit","Chrome","138.0.0.0","Windows","10.0","https://app.prolific.com/","en-US,en;q=0.9","5c59ceb27e554c0001257ff4","687a1a965b9f5b85a264363e","689317a93d0ed7606b249f4e","1","5c59ceb27e554c0001257ff4","1","2025-08-06T09:01:01.309Z","","","","MotivationQ","","","","","","","","","","","50","","","","","","","","","","","","","","","","","","","","","","","","","","",""
"","","","","ctl-task-cpt","18","367910","0.0-7.0-0.1","144","1","2025-08-06 08:55:03","36c45c0696341be0efffe67d72a12abb","5.206.180.140","Mozilla/5.0 (Windows NT 10.0; Win64; x64) AppleWebKit/537.36 (KHTML, like Gecko) Chrome/138.0.0.0 Safari/537.36","WebKit","Chrome","138.0.0.0","Windows","10.0","https://app.prolific.com/","en-US,en;q=0.9","5c59ceb27e554c0001257ff4","687a1a965b9f5b85a264363e","689317a93d0ed7606b249f4e","1","5c59ceb27e554c0001257ff4","1","2025-08-06T09:01:24.051Z","","","","","","","","","","","","","","","","win-only","1","g1:NE,g2:SW","0.9","2","0","347437.2","1011","6016.1","19725.4","1","4","8","6","1","1","1","1","0","0.007575757575757576","1063.7","3000","850","[""up"",""right""]","{""num_key_presses"":4,""num_perfect"":4,""num_errors"":0,""num_randdir"":0,""num_randdir_good_moves"":0,""num_whilered"":0,""num_whileblue"":0,""num_blue"":1,""num_good_moves"":4}","[413.57142857142856,416.47767857142856,0.2,413.57142857142856,416.47767857142856,104.7,413.57142857142856,416.47767857142856,210.2,413.57142857142856,416.47767857142856,314.5,413.57142857142856,416.47767857142856,415.1,413.57142857142856,416.47767857142856,520.4,413.57142857142856,416.47767857142856,624.9,413.57142857142856,416.47767857142856,730.4,592.5714285714286,247.47767857142856,835,743.5714285714286,92.47767857142857,935.8,743.5714285714286,82.47767857142857,1041.5,743.5714285714286,82.47767857142857,1144.4,771.5714285714286,85.47767857142857,1244.8,999.5714285714286,140.47767857142856,1350.5,999.5714285714286,143.47767857142856,1455.2,999.5714285714286,143.47767857142856,1559.6,999.5714285714286,143.47767857142856,1660.4,999.5714285714286,143.47767857142856,1761.1,999.5714285714286,143.47767857142856,1865,999.5714285714286,143.47767857142856,1965.1,999.5714285714286,143.47767857142856,2065.7,999.5714285714286,143.47767857142856,2171.2,999.5714285714286,143.47767857142856,2276.2,999.5714285714286,143.47767857142856,2379.6,999.5714285714286,143.47767857142856,2480.4,999.5714285714286,143.47767857142856,2580.4,999.5714285714286,143.47767857142856,2684.6,999.5714285714286,143.47767857142856,2785,999.5714285714286,143.47767857142856,2885.2,999.5714285714286,143.47767857142856,2986,999.5714285714286,143.47767857142856,3091,999.5714285714286,143.47767857142856,3194.9,999.5714285714286,143.47767857142856,3295,999.5714285714286,143.47767857142856,3395.2,999.5714285714286,143.47767857142856,3499.4,999.5714285714286,143.47767857142856,3599.6,999.5714285714286,143.47767857142856,3705.1,999.5714285714286,143.47767857142856,3805.1,999.5714285714286,143.47767857142856,3905.2,999.5714285714286,143.47767857142856,4010.6,999.5714285714286,143.47767857142856,4110.6,999.5714285714286,143.47767857142856,4214.4,999.5714285714286,143.47767857142856,4314.4,999.5714285714286,143.47767857142856,4414.7,999.5714285714286,143.47767857142856,4520.5,999.5714285714286,143.47767857142856,4624.9,999.5714285714286,143.47767857142856,4730.3,999.5714285714286,143.47767857142856,4835.3,999.5714285714286,143.47767857142856,4939.7]","[1543.4,1543.4,1000,0,543.5,""smooth"",""right"",""right"",""good_move"",4737.2,3193.6,2499,1543.7,694.5,""smooth"",""up"",""up"",""good_move"",10378.7,5641.3,2301.5,7640.6,436.6,""smooth"",""up"",""up"",""good_move"",13616.5,3237.8,2740.2,10378.7,497.6,""smooth"",""right"",""right"",""good_move""]"
"2513","","<div style=""width:500px;"">
  <p>What determined the result of this run?</p>
  </div>","98","html-slider-response","19","370424","0.0-7.0-1.1","144","1","2025-08-06 08:55:03","36c45c0696341be0efffe67d72a12abb","5.206.180.140","Mozilla/5.0 (Windows NT 10.0; Win64; x64) AppleWebKit/537.36 (KHTML, like Gecko) Chrome/138.0.0.0 Safari/537.36","WebKit","Chrome","138.0.0.0","Windows","10.0","https://app.prolific.com/","en-US,en;q=0.9","5c59ceb27e554c0001257ff4","687a1a965b9f5b85a264363e","689317a93d0ed7606b249f4e","1","5c59ceb27e554c0001257ff4","1","2025-08-06T09:01:26.565Z","","","","AttribQ","","","","","","","","","","","50","","","","","","","","","","","","","","","","","","","","","","","","","","",""
"1959","","<div style=""width:500px;"">
  <p>How much control did you have over the ball?</p>
  </div>","98","html-slider-response","20","372384","0.0-7.0-2.1","144","1","2025-08-06 08:55:03","36c45c0696341be0efffe67d72a12abb","5.206.180.140","Mozilla/5.0 (Windows NT 10.0; Win64; x64) AppleWebKit/537.36 (KHTML, like Gecko) Chrome/138.0.0.0 Safari/537.36","WebKit","Chrome","138.0.0.0","Windows","10.0","https://app.prolific.com/","en-US,en;q=0.9","5c59ceb27e554c0001257ff4","687a1a965b9f5b85a264363e","689317a93d0ed7606b249f4e","1","5c59ceb27e554c0001257ff4","1","2025-08-06T09:01:28.525Z","","","","ControlQ","","","","","","","","","","","50","","","","","","","","","","","","","","","","","","","","","","","","","","",""
"2424","","<div style=""width:500px;"">
  <p>How would you describe your current emotional state?</p>
  </div>","37","html-slider-response","21","374808","0.0-7.0-3.1","144","1","2025-08-06 08:55:03","36c45c0696341be0efffe67d72a12abb","5.206.180.140","Mozilla/5.0 (Windows NT 10.0; Win64; x64) AppleWebKit/537.36 (KHTML, like Gecko) Chrome/138.0.0.0 Safari/537.36","WebKit","Chrome","138.0.0.0","Windows","10.0","https://app.prolific.com/","en-US,en;q=0.9","5c59ceb27e554c0001257ff4","687a1a965b9f5b85a264363e","689317a93d0ed7606b249f4e","1","5c59ceb27e554c0001257ff4","1","2025-08-06T09:01:30.949Z","","","","StressQ","","","","","","","","","","","50","","","","","","","","","","","","","","","","","","","","","","","","","","",""
"2087","","<div style=""width:500px;"">
  <p>What best describes how you currently feel?</p>
  </div>","73","html-slider-response","22","376896","0.0-7.0-4.1","144","1","2025-08-06 08:55:03","36c45c0696341be0efffe67d72a12abb","5.206.180.140","Mozilla/5.0 (Windows NT 10.0; Win64; x64) AppleWebKit/537.36 (KHTML, like Gecko) Chrome/138.0.0.0 Safari/537.36","WebKit","Chrome","138.0.0.0","Windows","10.0","https://app.prolific.com/","en-US,en;q=0.9","5c59ceb27e554c0001257ff4","687a1a965b9f5b85a264363e","689317a93d0ed7606b249f4e","1","5c59ceb27e554c0001257ff4","1","2025-08-06T09:01:33.037Z","","","","MotivationQ","","","","","","","","","","","50","","","","","","","","","","","","","","","","","","","","","","","","","","",""
"","","","","ctl-task-cpt","23","396228","0.0-7.0-0.2","144","1","2025-08-06 08:55:03","36c45c0696341be0efffe67d72a12abb","5.206.180.140","Mozilla/5.0 (Windows NT 10.0; Win64; x64) AppleWebKit/537.36 (KHTML, like Gecko) Chrome/138.0.0.0 Safari/537.36","WebKit","Chrome","138.0.0.0","Windows","10.0","https://app.prolific.com/","en-US,en;q=0.9","5c59ceb27e554c0001257ff4","687a1a965b9f5b85a264363e","689317a93d0ed7606b249f4e","1","5c59ceb27e554c0001257ff4","1","2025-08-06T09:01:52.369Z","","","","","","","","","","","","","","","","win-only","1","g1:NE,g2:SW","0.8","3","0","379166.3","630.9","5637.2","16321.3","1","4","4","6","1","1","1","2","1","0.015151515151515152","1175.2","3000","1330","[""up"",""right""]","{""num_key_presses"":4,""num_perfect"":3,""num_errors"":0,""num_randdir"":1,""num_randdir_good_moves"":1,""num_whilered"":0,""num_whileblue"":0,""num_blue"":0,""num_good_moves"":4}","[422.57142857142856,415.47767857142856,0.3,422.57142857142856,415.47767857142856,104.9,422.57142857142856,416.47767857142856,215.6,424.57142857142856,419.47767857142856,315.7,424.57142857142856,419.47767857142856,416.4,424.57142857142856,419.47767857142856,520.5,421.57142857142856,419.47767857142856,624.8,421.57142857142856,417.47767857142856,732.2,452.57142857142856,379.47767857142856,833.3,637.5714285714286,143.47767857142856,935,678.5714285714286,107.47767857142857,1039.3,730.5714285714286,98.47767857142857,1139.3,730.5714285714286,98.47767857142857,1239.9,774.5714285714286,98.47767857142857,1349.6,962.5714285714286,106.47767857142857,1455.1,955.5714285714286,134.47767857142856,1559.4,955.5714285714286,134.47767857142856,1660.1,949.5714285714286,131.47767857142856,1765.9,936.5714285714286,133.47767857142856,1865.9,931.5714285714286,140.47767857142856,1966.8,930.5714285714286,140.47767857142856,2070.1,930.5714285714286,140.47767857142856,2170.1,930.5714285714286,140.47767857142856,2270.3,930.5714285714286,140.47767857142856,2370.3,930.5714285714286,140.47767857142856,2474.3,930.5714285714286,140.47767857142856,2575.8,930.5714285714286,140.47767857142856,2682.4,930.5714285714286,140.47767857142856,2785.2,930.5714285714286,140.47767857142856,2890.2,930.5714285714286,140.47767857142856,2990.3,930.5714285714286,140.47767857142856,3099.5,930.5714285714286,140.47767857142856,3199.6,930.5714285714286,140.47767857142856,3305.2,930.5714285714286,140.47767857142856,3405.9,930.5714285714286,140.47767857142856,3516,930.5714285714286,140.47767857142856,3620,930.5714285714286,140.47767857142856,3724.6,930.5714285714286,140.47767857142856,3824.6,930.5714285714286,140.47767857142856,3925.3,930.5714285714286,140.47767857142856,4032.9,930.5714285714286,140.47767857142856,4135.6,930.5714285714286,140.47767857142856,4240.2,930.5714285714286,140.47767857142856,4340.3,930.5714285714286,140.47767857142856,4440.5,930.5714285714286,140.47767857142856,4548.8,930.5714285714286,140.47767857142856,4649,930.5714285714286,140.47767857142856,4749.4,930.5714285714286,140.47767857142856,4849.6,930.5714285714286,140.47767857142856,4950.3]","[1492.1,1492.1,1000,0,492.1,""smooth"",""up"",""up"",""good_move"",4542.8,3050.5,2581.6,1492.4,468.9,""oops"",""up"",""up"",""good_move"",7258.9,2715.8,2268.2,4543.1,447.7,""smooth"",""right"",""right"",""good_move"",10591.8,3332.6,2857.1,7259.2,475.5,""smooth"",""right"",""right"",""good_move""]"
"1890","","<div style=""width:500px;"">
  <p>What determined the result of this run?</p>
  </div>","97","html-slider-response","24","398119","0.0-7.0-1.2","144","1","2025-08-06 08:55:03","36c45c0696341be0efffe67d72a12abb","5.206.180.140","Mozilla/5.0 (Windows NT 10.0; Win64; x64) AppleWebKit/537.36 (KHTML, like Gecko) Chrome/138.0.0.0 Safari/537.36","WebKit","Chrome","138.0.0.0","Windows","10.0","https://app.prolific.com/","en-US,en;q=0.9","5c59ceb27e554c0001257ff4","687a1a965b9f5b85a264363e","689317a93d0ed7606b249f4e","1","5c59ceb27e554c0001257ff4","1","2025-08-06T09:01:54.260Z","","","","AttribQ","","","","","","","","","","","50","","","","","","","","","","","","","","","","","","","","","","","","","","",""
"1391","","<div style=""width:500px;"">
  <p>How much control did you have over the ball?</p>
  </div>","95","html-slider-response","25","399511","0.0-7.0-2.2","144","1","2025-08-06 08:55:03","36c45c0696341be0efffe67d72a12abb","5.206.180.140","Mozilla/5.0 (Windows NT 10.0; Win64; x64) AppleWebKit/537.36 (KHTML, like Gecko) Chrome/138.0.0.0 Safari/537.36","WebKit","Chrome","138.0.0.0","Windows","10.0","https://app.prolific.com/","en-US,en;q=0.9","5c59ceb27e554c0001257ff4","687a1a965b9f5b85a264363e","689317a93d0ed7606b249f4e","1","5c59ceb27e554c0001257ff4","1","2025-08-06T09:01:55.652Z","","","","ControlQ","","","","","","","","","","","50","","","","","","","","","","","","","","","","","","","","","","","","","","",""
"1995","","<div style=""width:500px;"">
  <p>How would you describe your current emotional state?</p>
  </div>","27","html-slider-response","26","401507","0.0-7.0-3.2","144","1","2025-08-06 08:55:03","36c45c0696341be0efffe67d72a12abb","5.206.180.140","Mozilla/5.0 (Windows NT 10.0; Win64; x64) AppleWebKit/537.36 (KHTML, like Gecko) Chrome/138.0.0.0 Safari/537.36","WebKit","Chrome","138.0.0.0","Windows","10.0","https://app.prolific.com/","en-US,en;q=0.9","5c59ceb27e554c0001257ff4","687a1a965b9f5b85a264363e","689317a93d0ed7606b249f4e","1","5c59ceb27e554c0001257ff4","1","2025-08-06T09:01:57.648Z","","","","StressQ","","","","","","","","","","","50","","","","","","","","","","","","","","","","","","","","","","","","","","",""
"1877","","<div style=""width:500px;"">
  <p>What best describes how you currently feel?</p>
  </div>","72","html-slider-response","27","403384","0.0-7.0-4.2","144","1","2025-08-06 08:55:03","36c45c0696341be0efffe67d72a12abb","5.206.180.140","Mozilla/5.0 (Windows NT 10.0; Win64; x64) AppleWebKit/537.36 (KHTML, like Gecko) Chrome/138.0.0.0 Safari/537.36","WebKit","Chrome","138.0.0.0","Windows","10.0","https://app.prolific.com/","en-US,en;q=0.9","5c59ceb27e554c0001257ff4","687a1a965b9f5b85a264363e","689317a93d0ed7606b249f4e","1","5c59ceb27e554c0001257ff4","1","2025-08-06T09:01:59.525Z","","","","MotivationQ","","","","","","","","","","","50","","","","","","","","","","","","","","","","","","","","","","","","","","",""
"","","","","ctl-task-cpt","28","423819","0.0-7.0-0.3","144","1","2025-08-06 08:55:03","36c45c0696341be0efffe67d72a12abb","5.206.180.140","Mozilla/5.0 (Windows NT 10.0; Win64; x64) AppleWebKit/537.36 (KHTML, like Gecko) Chrome/138.0.0.0 Safari/537.36","WebKit","Chrome","138.0.0.0","Windows","10.0","https://app.prolific.com/","en-US,en;q=0.9","5c59ceb27e554c0001257ff4","687a1a965b9f5b85a264363e","689317a93d0ed7606b249f4e","1","5c59ceb27e554c0001257ff4","1","2025-08-06T09:02:19.960Z","","","","","","","","","","","","","","","","win-only","2","g1:SE,g2:NW","0.7","4","0","405655.3","841.7","5842.5","17415.2","1","4","8","6","1","1","1","3","2","0.022727272727272728","969.4","3000","1290","[""down"",""right""]","{""num_key_presses"":4,""num_perfect"":4,""num_errors"":0,""num_randdir"":0,""num_randdir_good_moves"":0,""num_whilered"":0,""num_whileblue"":0,""num_blue"":0,""num_good_moves"":4}","[420.57142857142856,420.47767857142856,0.7,420.57142857142856,420.47767857142856,103.9,420.57142857142856,420.47767857142856,209.3,420.57142857142856,420.47767857142856,309.4,420.57142857142856,420.47767857142856,416.3,420.57142857142856,420.47767857142856,516.4,420.57142857142856,423.47767857142856,616.5,621.5714285714286,605.4776785714286,716.9,709.5714285714286,695.4776785714286,818.7,721.5714285714286,722.4776785714286,919.3,721.5714285714286,722.4776785714286,1019.5,721.5714285714286,722.4776785714286,1124.6,788.5714285714286,710.4776785714286,1234.5,898.5714285714286,581.4776785714286,1339.1,897.5714285714286,559.4776785714286,1444.9,897.5714285714286,559.4776785714286,1549.7,898.5714285714286,552.4776785714286,1650,887.5714285714286,519.4776785714286,1751.1,889.5714285714286,506.47767857142856,1853.9,891.5714285714286,502.47767857142856,1955,892.5714285714286,502.47767857142856,2059.3,892.5714285714286,502.47767857142856,2167.6,892.5714285714286,502.47767857142856,2267.6,892.5714285714286,502.47767857142856,2368.5,892.5714285714286,502.47767857142856,2469.6,892.5714285714286,502.47767857142856,2573.8,892.5714285714286,502.47767857142856,2674.9,892.5714285714286,502.47767857142856,2783.2,892.5714285714286,502.47767857142856,2883.2,892.5714285714286,502.47767857142856,2983.6,892.5714285714286,502.47767857142856,3089.3,892.5714285714286,502.47767857142856,3194,892.5714285714286,502.47767857142856,3294,892.5714285714286,502.47767857142856,3394.4,892.5714285714286,502.47767857142856,3499.9,892.5714285714286,502.47767857142856,3601.3,892.5714285714286,502.47767857142856,3701.9,892.5714285714286,502.47767857142856,3803.8,892.5714285714286,502.47767857142856,3903.8,892.5714285714286,502.47767857142856,4004.6,892.5714285714286,502.47767857142856,4108.6,892.5714285714286,502.47767857142856,4209.5,892.5714285714286,502.47767857142856,4317,892.5714285714286,502.47767857142856,4419.4,892.5714285714286,502.47767857142856,4524.9,892.5714285714286,502.47767857142856,4633.5,892.5714285714286,502.47767857142856,4733.6,892.5714285714286,502.47767857142856,4839.6,892.5714285714286,502.47767857142856,4939.6]","[1464.4,1464.5,1000,0,464.5,""smooth"",""down"",""down"",""good_move"",4325.1,2860.4,2405.1,1464.7,455.3,""smooth"",""right"",""right"",""good_move"",7954.6,3629.2,3199.2,4325.4,430.1,""smooth"",""down"",""down"",""good_move"",11465.4,3510.6,3083,7954.8,427.6,""smooth"",""right"",""right"",""good_move""]"
"1725","","<div style=""width:500px;"">
  <p>What determined the result of this run?</p>
  </div>","98","html-slider-response","29","425544","0.0-7.0-1.3","144","1","2025-08-06 08:55:03","36c45c0696341be0efffe67d72a12abb","5.206.180.140","Mozilla/5.0 (Windows NT 10.0; Win64; x64) AppleWebKit/537.36 (KHTML, like Gecko) Chrome/138.0.0.0 Safari/537.36","WebKit","Chrome","138.0.0.0","Windows","10.0","https://app.prolific.com/","en-US,en;q=0.9","5c59ceb27e554c0001257ff4","687a1a965b9f5b85a264363e","689317a93d0ed7606b249f4e","1","5c59ceb27e554c0001257ff4","1","2025-08-06T09:02:21.685Z","","","","AttribQ","","","","","","","","","","","50","","","","","","","","","","","","","","","","","","","","","","","","","","",""
"1855","","<div style=""width:500px;"">
  <p>How much control did you have over the ball?</p>
  </div>","98","html-slider-response","30","427400","0.0-7.0-2.3","144","1","2025-08-06 08:55:03","36c45c0696341be0efffe67d72a12abb","5.206.180.140","Mozilla/5.0 (Windows NT 10.0; Win64; x64) AppleWebKit/537.36 (KHTML, like Gecko) Chrome/138.0.0.0 Safari/537.36","WebKit","Chrome","138.0.0.0","Windows","10.0","https://app.prolific.com/","en-US,en;q=0.9","5c59ceb27e554c0001257ff4","687a1a965b9f5b85a264363e","689317a93d0ed7606b249f4e","1","5c59ceb27e554c0001257ff4","1","2025-08-06T09:02:23.541Z","","","","ControlQ","","","","","","","","","","","50","","","","","","","","","","","","","","","","","","","","","","","","","","",""
"2691","","<div style=""width:500px;"">
  <p>How would you describe your current emotional state?</p>
  </div>","19","html-slider-response","31","430092","0.0-7.0-3.3","144","1","2025-08-06 08:55:03","36c45c0696341be0efffe67d72a12abb","5.206.180.140","Mozilla/5.0 (Windows NT 10.0; Win64; x64) AppleWebKit/537.36 (KHTML, like Gecko) Chrome/138.0.0.0 Safari/537.36","WebKit","Chrome","138.0.0.0","Windows","10.0","https://app.prolific.com/","en-US,en;q=0.9","5c59ceb27e554c0001257ff4","687a1a965b9f5b85a264363e","689317a93d0ed7606b249f4e","1","5c59ceb27e554c0001257ff4","1","2025-08-06T09:02:26.233Z","","","","StressQ","","","","","","","","","","","50","","","","","","","","","","","","","","","","","","","","","","","","","","",""
"1436","","<div style=""width:500px;"">
  <p>What best describes how you currently feel?</p>
  </div>","78","html-slider-response","32","431528","0.0-7.0-4.3","144","1","2025-08-06 08:55:03","36c45c0696341be0efffe67d72a12abb","5.206.180.140","Mozilla/5.0 (Windows NT 10.0; Win64; x64) AppleWebKit/537.36 (KHTML, like Gecko) Chrome/138.0.0.0 Safari/537.36","WebKit","Chrome","138.0.0.0","Windows","10.0","https://app.prolific.com/","en-US,en;q=0.9","5c59ceb27e554c0001257ff4","687a1a965b9f5b85a264363e","689317a93d0ed7606b249f4e","1","5c59ceb27e554c0001257ff4","1","2025-08-06T09:02:27.670Z","","","","MotivationQ","","","","","","","","","","","50","","","","","","","","","","","","","","","","","","","","","","","","","","",""
"","","","","ctl-task-cpt","33","479531","0.0-7.0-0.4","144","1","2025-08-06 08:55:03","36c45c0696341be0efffe67d72a12abb","5.206.180.140","Mozilla/5.0 (Windows NT 10.0; Win64; x64) AppleWebKit/537.36 (KHTML, like Gecko) Chrome/138.0.0.0 Safari/537.36","WebKit","Chrome","138.0.0.0","Windows","10.0","https://app.prolific.com/","en-US,en;q=0.9","5c59ceb27e554c0001257ff4","687a1a965b9f5b85a264363e","689317a93d0ed7606b249f4e","1","5c59ceb27e554c0001257ff4","1","2025-08-06T09:03:15.672Z","","","","","","","","","","","","","","","","win-only","3","g1:SW,g2:NE","0.6","5","0","433799.5","949.1","5949.9","44986.4","1","4","8","6","2","-8","-10","0","3","0","1131.2","3000","-2690","[""up"",""right""]","{""num_key_presses"":9,""num_perfect"":3,""num_errors"":2,""num_randdir"":4,""num_randdir_good_moves"":3,""num_whilered"":0,""num_whileblue"":2,""num_blue"":5,""num_good_moves"":6}","[421.57142857142856,421.47767857142856,0.2,421.57142857142856,421.47767857142856,101.4,421.57142857142856,421.47767857142856,206.2,421.57142857142856,421.47767857142856,307.8,421.57142857142856,421.47767857142856,407.8,401.57142857142856,429.47767857142856,515.4,407.57142857142856,407.47767857142856,615.6,684.5714285714286,205.47767857142856,715.8,825.5714285714286,78.47767857142857,816.7,825.5714285714286,66.47767857142857,916.8,797.5714285714286,67.47767857142857,1022,783.5714285714286,71.47767857142857,1132.7,783.5714285714286,71.47767857142857,1233.1,809.5714285714286,143.47767857142856,1333.1,875.5714285714286,288.47767857142856,1436.4,875.5714285714286,292.47767857142856,1537.2,869.5714285714286,297.47767857142856,1642.3,861.5714285714286,312.47767857142856,1749.8,882.5714285714286,327.47767857142856,1851.8,882.5714285714286,327.47767857142856,1956.9,883.5714285714286,327.47767857142856,2066.1,917.5714285714286,300.47767857142856,2167.1,952.5714285714286,280.47767857142856,2271.9,952.5714285714286,279.47767857142856,2372.7,952.5714285714286,278.47767857142856,2481.1,952.5714285714286,278.47767857142856,2581.9,954.5714285714286,277.47767857142856,2682,954.5714285714286,277.47767857142856,2786.3,954.5714285714286,277.47767857142856,2887.9,954.5714285714286,277.47767857142856,2992.2,954.5714285714286,277.47767857142856,3092.8,954.5714285714286,277.47767857142856,3199.9,954.5714285714286,277.47767857142856,3302,954.5714285714286,277.47767857142856,3407.4,954.5714285714286,277.47767857142856,3507.5,954.5714285714286,277.47767857142856,3615.5,954.5714285714286,277.47767857142856,3716.2,954.5714285714286,277.47767857142856,3821.8,954.5714285714286,277.47767857142856,3926.5,954.5714285714286,277.47767857142856,4031.7,954.5714285714286,277.47767857142856,4137.3,954.5714285714286,277.47767857142856,4242.1,954.5714285714286,277.47767857142856,4342.6,954.5714285714286,277.47767857142856,4448.4,954.5714285714286,277.47767857142856,4550.1,954.5714285714286,277.47767857142856,4650.1,954.5714285714286,277.47767857142856,4751.5,954.5714285714286,277.47767857142856,4856.8,954.5714285714286,277.47767857142856,4957.1]","[1497.5,1497.5,1000,0,497.5,""smooth"",""up"",""up"",""good_move"",4422.1,2924.3,2501.7,1497.8,422.6,""while_blue"",""up"",""down"",""bad_move"",7735.3,3312.9,2838.1,4422.4,474.8,""oops"",""up"",""up"",""good_move"",10350.2,2614.7,2144.2,7735.5,470.5,""oops"",""right"",""right"",""good_move"",13214.4,2863.9,2395.7,10350.5,468.2,""oops"",""up"",""up"",""good_move"",26816.3,13601.7,2216.5,24098.6,501.2,""smooth"",""right"",""right"",""good_move"",29666.9,2850.3,2408.4,26816.6,441.9,""oops"",""up"",""down"",""bad_move"",32779.2,3111.9,2635.4,29667.3,476.5,""smooth"",""right"",""right"",""good_move"",35667.1,2887.7,2467.9,32779.4,419.8,""while_blue"",""up"",""left"",""bad_move""]"
"5015","","<div style=""width:500px;"">
  <p>What determined the result of this run?</p>
  </div>","39","html-slider-response","34","484547","0.0-7.0-1.4","144","1","2025-08-06 08:55:03","36c45c0696341be0efffe67d72a12abb","5.206.180.140","Mozilla/5.0 (Windows NT 10.0; Win64; x64) AppleWebKit/537.36 (KHTML, like Gecko) Chrome/138.0.0.0 Safari/537.36","WebKit","Chrome","138.0.0.0","Windows","10.0","https://app.prolific.com/","en-US,en;q=0.9","5c59ceb27e554c0001257ff4","687a1a965b9f5b85a264363e","689317a93d0ed7606b249f4e","1","5c59ceb27e554c0001257ff4","1","2025-08-06T09:03:20.689Z","","","","AttribQ","","","","","","","","","","","50","","","","","","","","","","","","","","","","","","","","","","","","","","",""
"4007","","<div style=""width:500px;"">
  <p>How much control did you have over the ball?</p>
  </div>","44","html-slider-response","35","488558","0.0-7.0-2.4","144","1","2025-08-06 08:55:03","36c45c0696341be0efffe67d72a12abb","5.206.180.140","Mozilla/5.0 (Windows NT 10.0; Win64; x64) AppleWebKit/537.36 (KHTML, like Gecko) Chrome/138.0.0.0 Safari/537.36","WebKit","Chrome","138.0.0.0","Windows","10.0","https://app.prolific.com/","en-US,en;q=0.9","5c59ceb27e554c0001257ff4","687a1a965b9f5b85a264363e","689317a93d0ed7606b249f4e","1","5c59ceb27e554c0001257ff4","1","2025-08-06T09:03:24.699Z","","","","ControlQ","","","","","","","","","","","50","","","","","","","","","","","","","","","","","","","","","","","","","","",""
"2502","","<div style=""width:500px;"">
  <p>How would you describe your current emotional state?</p>
  </div>","95","html-slider-response","36","491063","0.0-7.0-3.4","144","1","2025-08-06 08:55:03","36c45c0696341be0efffe67d72a12abb","5.206.180.140","Mozilla/5.0 (Windows NT 10.0; Win64; x64) AppleWebKit/537.36 (KHTML, like Gecko) Chrome/138.0.0.0 Safari/537.36","WebKit","Chrome","138.0.0.0","Windows","10.0","https://app.prolific.com/","en-US,en;q=0.9","5c59ceb27e554c0001257ff4","687a1a965b9f5b85a264363e","689317a93d0ed7606b249f4e","1","5c59ceb27e554c0001257ff4","1","2025-08-06T09:03:27.204Z","","","","StressQ","","","","","","","","","","","50","","","","","","","","","","","","","","","","","","","","","","","","","","",""
"2215","","<div style=""width:500px;"">
  <p>What best describes how you currently feel?</p>
  </div>","67","html-slider-response","37","493279","0.0-7.0-4.4","144","1","2025-08-06 08:55:03","36c45c0696341be0efffe67d72a12abb","5.206.180.140","Mozilla/5.0 (Windows NT 10.0; Win64; x64) AppleWebKit/537.36 (KHTML, like Gecko) Chrome/138.0.0.0 Safari/537.36","WebKit","Chrome","138.0.0.0","Windows","10.0","https://app.prolific.com/","en-US,en;q=0.9","5c59ceb27e554c0001257ff4","687a1a965b9f5b85a264363e","689317a93d0ed7606b249f4e","1","5c59ceb27e554c0001257ff4","1","2025-08-06T09:03:29.420Z","","","","MotivationQ","","","","","","","","","","","50","","","","","","","","","","","","","","","","","","","","","","","","","","",""
"","","","","ctl-task-cpt","38","513223","0.0-7.0-0.5","144","1","2025-08-06 08:55:03","36c45c0696341be0efffe67d72a12abb","5.206.180.140","Mozilla/5.0 (Windows NT 10.0; Win64; x64) AppleWebKit/537.36 (KHTML, like Gecko) Chrome/138.0.0.0 Safari/537.36","WebKit","Chrome","138.0.0.0","Windows","10.0","https://app.prolific.com/","en-US,en;q=0.9","5c59ceb27e554c0001257ff4","687a1a965b9f5b85a264363e","689317a93d0ed7606b249f4e","1","5c59ceb27e554c0001257ff4","1","2025-08-06T09:03:49.364Z","","","","","","","","","","","","","","","","win-only","1","g1:NE,g2:SW","0.5","6","0","495549","703.4","5706.6","16925.7","1","4","4","6","1","1","1","1","0","0.007575757575757576","920","3000","1500","[""up"",""right""]","{""num_key_presses"":4,""num_perfect"":2,""num_errors"":0,""num_randdir"":2,""num_randdir_good_moves"":2,""num_whilered"":0,""num_whileblue"":0,""num_blue"":0,""num_good_moves"":4}","[426.57142857142856,419.47767857142856,0.1,426.57142857142856,419.47767857142856,105.8,426.57142857142856,419.47767857142856,209.9,426.57142857142856,419.47767857142856,312.3,426.57142857142856,419.47767857142856,413,426.57142857142856,419.47767857142856,513.6,426.57142857142856,415.47767857142856,617.8,686.5714285714286,159.47767857142856,722.2,713.5714285714286,129.47767857142856,823.4,725.5714285714286,117.47767857142857,927.7,725.5714285714286,117.47767857142857,1039.2,867.5714285714286,96.47767857142857,1146,982.5714285714286,81.47767857142857,1247,979.5714285714286,94.47767857142857,1348.7,959.5714285714286,184.47767857142856,1452.4,959.5714285714286,187.47767857142856,1553.4,959.5714285714286,187.47767857142856,1659.5,959.5714285714286,187.47767857142856,1762.5,959.5714285714286,187.47767857142856,1862.5,959.5714285714286,187.47767857142856,1962.8,959.5714285714286,187.47767857142856,2062.9,959.5714285714286,187.47767857142856,2167.4,959.5714285714286,187.47767857142856,2267.8,959.5714285714286,187.47767857142856,2368,959.5714285714286,187.47767857142856,2474.5,959.5714285714286,187.47767857142856,2578.6,959.5714285714286,187.47767857142856,2682.8,959.5714285714286,187.47767857142856,2783.6,959.5714285714286,187.47767857142856,2887.1,959.5714285714286,187.47767857142856,2988,959.5714285714286,187.47767857142856,3088.1,959.5714285714286,187.47767857142856,3196.9,959.5714285714286,187.47767857142856,3297.9,959.5714285714286,187.47767857142856,3401.8,959.5714285714286,187.47767857142856,3502.4,959.5714285714286,187.47767857142856,3603.7,959.5714285714286,187.47767857142856,3707.8,959.5714285714286,187.47767857142856,3809.5,959.5714285714286,187.47767857142856,3912.9,959.5714285714286,187.47767857142856,4017,959.5714285714286,187.47767857142856,4117.6,959.5714285714286,187.47767857142856,4217.7,959.5714285714286,187.47767857142856,4317.9,959.5714285714286,187.47767857142856,4418.2,959.5714285714286,187.47767857142856,4524,959.5714285714286,187.47767857142856,4624.8,959.5714285714286,187.47767857142856,4727.2,959.5714285714286,187.47767857142856,4828.7,959.5714285714286,187.47767857142856,4933.3]","[1462,1462,1000,0,462,""oops"",""right"",""up"",""good_move"",4057.9,2595.6,2090.9,1462.3,504.7,""oops"",""right"",""right"",""good_move"",7241.3,3183.1,2713.5,4058.2,469.6,""smooth"",""up"",""up"",""good_move"",11109.2,3867.6,3443.5,7241.6,424.1,""smooth"",""right"",""right"",""good_move""]"
"2892","","<div style=""width:500px;"">
  <p>What determined the result of this run?</p>
  </div>","73","html-slider-response","39","516117","0.0-7.0-1.5","144","1","2025-08-06 08:55:03","36c45c0696341be0efffe67d72a12abb","5.206.180.140","Mozilla/5.0 (Windows NT 10.0; Win64; x64) AppleWebKit/537.36 (KHTML, like Gecko) Chrome/138.0.0.0 Safari/537.36","WebKit","Chrome","138.0.0.0","Windows","10.0","https://app.prolific.com/","en-US,en;q=0.9","5c59ceb27e554c0001257ff4","687a1a965b9f5b85a264363e","689317a93d0ed7606b249f4e","1","5c59ceb27e554c0001257ff4","1","2025-08-06T09:03:52.258Z","","","","AttribQ","","","","","","","","","","","50","","","","","","","","","","","","","","","","","","","","","","","","","","",""
"4670","","<div style=""width:500px;"">
  <p>How much control did you have over the ball?</p>
  </div>","64","html-slider-response","40","520791","0.0-7.0-2.5","144","1","2025-08-06 08:55:03","36c45c0696341be0efffe67d72a12abb","5.206.180.140","Mozilla/5.0 (Windows NT 10.0; Win64; x64) AppleWebKit/537.36 (KHTML, like Gecko) Chrome/138.0.0.0 Safari/537.36","WebKit","Chrome","138.0.0.0","Windows","10.0","https://app.prolific.com/","en-US,en;q=0.9","5c59ceb27e554c0001257ff4","687a1a965b9f5b85a264363e","689317a93d0ed7606b249f4e","1","5c59ceb27e554c0001257ff4","1","2025-08-06T09:03:56.932Z","","","","ControlQ","","","","","","","","","","","50","","","","","","","","","","","","","","","","","","","","","","","","","","",""
"2963","","<div style=""width:500px;"">
  <p>How would you describe your current emotional state?</p>
  </div>","61","html-slider-response","41","523758","0.0-7.0-3.5","144","1","2025-08-06 08:55:03","36c45c0696341be0efffe67d72a12abb","5.206.180.140","Mozilla/5.0 (Windows NT 10.0; Win64; x64) AppleWebKit/537.36 (KHTML, like Gecko) Chrome/138.0.0.0 Safari/537.36","WebKit","Chrome","138.0.0.0","Windows","10.0","https://app.prolific.com/","en-US,en;q=0.9","5c59ceb27e554c0001257ff4","687a1a965b9f5b85a264363e","689317a93d0ed7606b249f4e","1","5c59ceb27e554c0001257ff4","1","2025-08-06T09:03:59.899Z","","","","StressQ","","","","","","","","","","","50","","","","","","","","","","","","","","","","","","","","","","","","","","",""
"2170","","<div style=""width:500px;"">
  <p>What best describes how you currently feel?</p>
  </div>","64","html-slider-response","42","525932","0.0-7.0-4.5","144","1","2025-08-06 08:55:03","36c45c0696341be0efffe67d72a12abb","5.206.180.140","Mozilla/5.0 (Windows NT 10.0; Win64; x64) AppleWebKit/537.36 (KHTML, like Gecko) Chrome/138.0.0.0 Safari/537.36","WebKit","Chrome","138.0.0.0","Windows","10.0","https://app.prolific.com/","en-US,en;q=0.9","5c59ceb27e554c0001257ff4","687a1a965b9f5b85a264363e","689317a93d0ed7606b249f4e","1","5c59ceb27e554c0001257ff4","1","2025-08-06T09:04:02.073Z","","","","MotivationQ","","","","","","","","","","","50","","","","","","","","","","","","","","","","","","","","","","","","","","",""
"","","","","ctl-task-cpt","43","548229","0.0-7.0-0.6","144","1","2025-08-06 08:55:03","36c45c0696341be0efffe67d72a12abb","5.206.180.140","Mozilla/5.0 (Windows NT 10.0; Win64; x64) AppleWebKit/537.36 (KHTML, like Gecko) Chrome/138.0.0.0 Safari/537.36","WebKit","Chrome","138.0.0.0","Windows","10.0","https://app.prolific.com/","en-US,en;q=0.9","5c59ceb27e554c0001257ff4","687a1a965b9f5b85a264363e","689317a93d0ed7606b249f4e","1","5c59ceb27e554c0001257ff4","1","2025-08-06T09:04:24.370Z","","","","","","","","","","","","","","","","win-only","2","g1:SE,g2:NW","0.4","7","0","528206.3","768.5","5771.2","19273.8","1","4","8","6","1","1","1","2","1","0.015151515151515152","1008","3000","1500","[""down"",""right""]","{""num_key_presses"":4,""num_perfect"":4,""num_errors"":0,""num_randdir"":0,""num_randdir_good_moves"":0,""num_whilered"":0,""num_whileblue"":0,""num_blue"":1,""num_good_moves"":4}","[411.57142857142856,415.47767857142856,0.2,411.57142857142856,415.47767857142856,108.3,411.57142857142856,415.47767857142856,209.2,411.57142857142856,415.47767857142856,312.9,411.57142857142856,415.47767857142856,413.3,411.57142857142856,415.47767857142856,518.1,429.57142857142856,444.47767857142856,619.6,627.5714285714286,664.4776785714286,723.3,671.5714285714286,719.4776785714286,828.1,695.5714285714286,736.4776785714286,928.8,714.5714285714286,744.4776785714286,1043.5,739.5714285714286,741.4776785714286,1158.7,877.5714285714286,664.4776785714286,1258.9,887.5714285714286,626.4776785714286,1362.7,887.5714285714286,626.4776785714286,1467.4,887.5714285714286,626.4776785714286,1570.4,887.5714285714286,626.4776785714286,1672.3,887.5714285714286,626.4776785714286,1772.7,887.5714285714286,626.4776785714286,1877.6,887.5714285714286,626.4776785714286,1993.7,887.5714285714286,626.4776785714286,2097.2,887.5714285714286,626.4776785714286,2197.3,887.5714285714286,626.4776785714286,2298.4,887.5714285714286,626.4776785714286,2402.8,887.5714285714286,626.4776785714286,2503.4,887.5714285714286,626.4776785714286,2609.2,887.5714285714286,626.4776785714286,2725.6,887.5714285714286,626.4776785714286,2827,887.5714285714286,626.4776785714286,2927.7,887.5714285714286,626.4776785714286,3032,887.5714285714286,626.4776785714286,3132.1,887.5714285714286,626.4776785714286,3232.2,887.5714285714286,626.4776785714286,3337.4,887.5714285714286,626.4776785714286,3439.1,887.5714285714286,626.4776785714286,3543.4,887.5714285714286,626.4776785714286,3657.7,887.5714285714286,626.4776785714286,3758.7,887.5714285714286,626.4776785714286,3858.7,887.5714285714286,626.4776785714286,3962.7,887.5714285714286,626.4776785714286,4067.1,887.5714285714286,626.4776785714286,4167.9,887.5714285714286,626.4776785714286,4272.4,887.5714285714286,626.4776785714286,4372.4,887.5714285714286,626.4776785714286,4472.5,887.5714285714286,626.4776785714286,4572.8,887.5714285714286,626.4776785714286,4672.9,887.5714285714286,626.4776785714286,4772.9,887.5714285714286,626.4776785714286,4877.2,887.5714285714286,626.4776785714286,4977.7]","[4954,4954.1,2396.2,2005.4,552.5,""smooth"",""down"",""down"",""good_move"",6873.7,1919.3,1441.9,4954.4,477.4,""smooth"",""right"",""right"",""good_move"",9571.5,2697.5,2083.5,6874,614,""smooth"",""down"",""down"",""good_move"",13376.9,3805.2,3331.6,9571.7,473.6,""smooth"",""right"",""right"",""good_move""]"
"3774","","<div style=""width:500px;"">
  <p>What determined the result of this run?</p>
  </div>","71","html-slider-response","44","552005","0.0-7.0-1.6","144","1","2025-08-06 08:55:03","36c45c0696341be0efffe67d72a12abb","5.206.180.140","Mozilla/5.0 (Windows NT 10.0; Win64; x64) AppleWebKit/537.36 (KHTML, like Gecko) Chrome/138.0.0.0 Safari/537.36","WebKit","Chrome","138.0.0.0","Windows","10.0","https://app.prolific.com/","en-US,en;q=0.9","5c59ceb27e554c0001257ff4","687a1a965b9f5b85a264363e","689317a93d0ed7606b249f4e","1","5c59ceb27e554c0001257ff4","1","2025-08-06T09:04:28.147Z","","","","AttribQ","","","","","","","","","","","50","","","","","","","","","","","","","","","","","","","","","","","","","","",""
"3203","","<div style=""width:500px;"">
  <p>How much control did you have over the ball?</p>
  </div>","81","html-slider-response","45","555213","0.0-7.0-2.6","144","1","2025-08-06 08:55:03","36c45c0696341be0efffe67d72a12abb","5.206.180.140","Mozilla/5.0 (Windows NT 10.0; Win64; x64) AppleWebKit/537.36 (KHTML, like Gecko) Chrome/138.0.0.0 Safari/537.36","WebKit","Chrome","138.0.0.0","Windows","10.0","https://app.prolific.com/","en-US,en;q=0.9","5c59ceb27e554c0001257ff4","687a1a965b9f5b85a264363e","689317a93d0ed7606b249f4e","1","5c59ceb27e554c0001257ff4","1","2025-08-06T09:04:31.355Z","","","","ControlQ","","","","","","","","","","","50","","","","","","","","","","","","","","","","","","","","","","","","","","",""
"3229","","<div style=""width:500px;"">
  <p>How would you describe your current emotional state?</p>
  </div>","59","html-slider-response","46","558446","0.0-7.0-3.6","144","1","2025-08-06 08:55:03","36c45c0696341be0efffe67d72a12abb","5.206.180.140","Mozilla/5.0 (Windows NT 10.0; Win64; x64) AppleWebKit/537.36 (KHTML, like Gecko) Chrome/138.0.0.0 Safari/537.36","WebKit","Chrome","138.0.0.0","Windows","10.0","https://app.prolific.com/","en-US,en;q=0.9","5c59ceb27e554c0001257ff4","687a1a965b9f5b85a264363e","689317a93d0ed7606b249f4e","1","5c59ceb27e554c0001257ff4","1","2025-08-06T09:04:34.588Z","","","","StressQ","","","","","","","","","","","50","","","","","","","","","","","","","","","","","","","","","","","","","","",""
"2595","","<div style=""width:500px;"">
  <p>What best describes how you currently feel?</p>
  </div>","73","html-slider-response","47","561045","0.0-7.0-4.6","144","1","2025-08-06 08:55:03","36c45c0696341be0efffe67d72a12abb","5.206.180.140","Mozilla/5.0 (Windows NT 10.0; Win64; x64) AppleWebKit/537.36 (KHTML, like Gecko) Chrome/138.0.0.0 Safari/537.36","WebKit","Chrome","138.0.0.0","Windows","10.0","https://app.prolific.com/","en-US,en;q=0.9","5c59ceb27e554c0001257ff4","687a1a965b9f5b85a264363e","689317a93d0ed7606b249f4e","1","5c59ceb27e554c0001257ff4","1","2025-08-06T09:04:37.187Z","","","","MotivationQ","","","","","","","","","","","50","","","","","","","","","","","","","","","","","","","","","","","","","","",""
"","","","","ctl-task-cpt","48","588194","0.0-7.0-0.7","144","1","2025-08-06 08:55:03","36c45c0696341be0efffe67d72a12abb","5.206.180.140","Mozilla/5.0 (Windows NT 10.0; Win64; x64) AppleWebKit/537.36 (KHTML, like Gecko) Chrome/138.0.0.0 Safari/537.36","WebKit","Chrome","138.0.0.0","Windows","10.0","https://app.prolific.com/","en-US,en;q=0.9","5c59ceb27e554c0001257ff4","687a1a965b9f5b85a264363e","689317a93d0ed7606b249f4e","1","5c59ceb27e554c0001257ff4","1","2025-08-06T09:05:04.336Z","","","","","","","","","","","","","","","","win-only","1","g1:NE,g2:SW","0.3","8","0","563319.8","1028.8","6031.6","24125.9","1","4","4","6","1","1","1","3","2","0.022727272727272728","919.8","3000","910","[""up"",""right""]","{""num_key_presses"":6,""num_perfect"":3,""num_errors"":0,""num_randdir"":3,""num_randdir_good_moves"":2,""num_whilered"":0,""num_whileblue"":0,""num_blue"":0,""num_good_moves"":5}","[422.57142857142856,412.47767857142856,0.2,422.57142857142856,412.47767857142856,118.2,422.57142857142856,412.47767857142856,218.4,422.57142857142856,412.47767857142856,319.5,422.57142857142856,412.47767857142856,419.5,422.57142857142856,412.47767857142856,521.9,422.57142857142856,412.47767857142856,622.1,672.5714285714286,213.47767857142856,726.7,767.5714285714286,100.47767857142857,829.2,767.5714285714286,94.47767857142857,929.4,767.5714285714286,94.47767857142857,1040.5,881.5714285714286,195.47767857142856,1142.4,896.5714285714286,261.47767857142856,1247.8,896.5714285714286,261.47767857142856,1352,895.5714285714286,261.47767857142856,1452.4,895.5714285714286,261.47767857142856,1568.8,895.5714285714286,261.47767857142856,1668.9,895.5714285714286,261.47767857142856,1769.5,895.5714285714286,261.47767857142856,1871.5,895.5714285714286,261.47767857142856,1972.1,895.5714285714286,261.47767857142856,2072.7,895.5714285714286,261.47767857142856,2176.9,895.5714285714286,261.47767857142856,2277.6,895.5714285714286,261.47767857142856,2381.8,895.5714285714286,261.47767857142856,2482,895.5714285714286,261.47767857142856,2586.6,895.5714285714286,261.47767857142856,2688.4,895.5714285714286,261.47767857142856,2802.9,895.5714285714286,261.47767857142856,2903.2,895.5714285714286,261.47767857142856,3006.8,895.5714285714286,261.47767857142856,3107,895.5714285714286,261.47767857142856,3207,895.5714285714286,261.47767857142856,3314,895.5714285714286,261.47767857142856,3414.7,895.5714285714286,261.47767857142856,3514.7,895.5714285714286,261.47767857142856,3616.9,895.5714285714286,261.47767857142856,3718.1,895.5714285714286,261.47767857142856,3835.8,895.5714285714286,261.47767857142856,3937.4,895.5714285714286,261.47767857142856,4038.3,895.5714285714286,261.47767857142856,4142.6,895.5714285714286,261.47767857142856,4242.6,895.5714285714286,261.47767857142856,4347.9,895.5714285714286,261.47767857142856,4448.7,895.5714285714286,261.47767857142856,4552.6,895.5714285714286,261.47767857142856,4669,895.5714285714286,261.47767857142856,4769.3,895.5714285714286,261.47767857142856,4869.5,895.5714285714286,261.47767857142856,4972.9]","[1448.8,1448.8,1000,0,448.8,""smooth"",""right"",""right"",""good_move"",4714.7,3265.6,2767.8,1449.1,497.8,""oops"",""up"",""left"",""bad_move"",7650,2935,2472.7,4715,462.3,""smooth"",""up"",""up"",""good_move"",10975.4,3325.1,2876.7,7650.3,448.4,""oops"",""right"",""right"",""good_move"",14771.8,3795.7,3333.6,10976.1,462.1,""smooth"",""up"",""up"",""good_move"",17995.4,3223.4,2794.3,14772,429.1,""oops"",""right"",""right"",""good_move""]"
"3353","","<div style=""width:500px;"">
  <p>What determined the result of this run?</p>
  </div>","72","html-slider-response","49","591549","0.0-7.0-1.7","144","1","2025-08-06 08:55:03","36c45c0696341be0efffe67d72a12abb","5.206.180.140","Mozilla/5.0 (Windows NT 10.0; Win64; x64) AppleWebKit/537.36 (KHTML, like Gecko) Chrome/138.0.0.0 Safari/537.36","WebKit","Chrome","138.0.0.0","Windows","10.0","https://app.prolific.com/","en-US,en;q=0.9","5c59ceb27e554c0001257ff4","687a1a965b9f5b85a264363e","689317a93d0ed7606b249f4e","1","5c59ceb27e554c0001257ff4","1","2025-08-06T09:05:07.691Z","","","","AttribQ","","","","","","","","","","","50","","","","","","","","","","","","","","","","","","","","","","","","","","",""
"4482","","<div style=""width:500px;"">
  <p>How much control did you have over the ball?</p>
  </div>","77","html-slider-response","50","596036","0.0-7.0-2.7","144","1","2025-08-06 08:55:03","36c45c0696341be0efffe67d72a12abb","5.206.180.140","Mozilla/5.0 (Windows NT 10.0; Win64; x64) AppleWebKit/537.36 (KHTML, like Gecko) Chrome/138.0.0.0 Safari/537.36","WebKit","Chrome","138.0.0.0","Windows","10.0","https://app.prolific.com/","en-US,en;q=0.9","5c59ceb27e554c0001257ff4","687a1a965b9f5b85a264363e","689317a93d0ed7606b249f4e","1","5c59ceb27e554c0001257ff4","1","2025-08-06T09:05:12.177Z","","","","ControlQ","","","","","","","","","","","50","","","","","","","","","","","","","","","","","","","","","","","","","","",""
"3773","","<div style=""width:500px;"">
  <p>How would you describe your current emotional state?</p>
  </div>","60","html-slider-response","51","599813","0.0-7.0-3.7","144","1","2025-08-06 08:55:03","36c45c0696341be0efffe67d72a12abb","5.206.180.140","Mozilla/5.0 (Windows NT 10.0; Win64; x64) AppleWebKit/537.36 (KHTML, like Gecko) Chrome/138.0.0.0 Safari/537.36","WebKit","Chrome","138.0.0.0","Windows","10.0","https://app.prolific.com/","en-US,en;q=0.9","5c59ceb27e554c0001257ff4","687a1a965b9f5b85a264363e","689317a93d0ed7606b249f4e","1","5c59ceb27e554c0001257ff4","1","2025-08-06T09:05:15.955Z","","","","StressQ","","","","","","","","","","","50","","","","","","","","","","","","","","","","","","","","","","","","","","",""
"12331","","<div style=""width:500px;"">
  <p>What best describes how you currently feel?</p>
  </div>","64","html-slider-response","52","612148","0.0-7.0-4.7","144","1","2025-08-06 08:55:03","36c45c0696341be0efffe67d72a12abb","5.206.180.140","Mozilla/5.0 (Windows NT 10.0; Win64; x64) AppleWebKit/537.36 (KHTML, like Gecko) Chrome/138.0.0.0 Safari/537.36","WebKit","Chrome","138.0.0.0","Windows","10.0","https://app.prolific.com/","en-US,en;q=0.9","5c59ceb27e554c0001257ff4","687a1a965b9f5b85a264363e","689317a93d0ed7606b249f4e","1","5c59ceb27e554c0001257ff4","1","2025-08-06T09:05:28.290Z","","","","MotivationQ","","","","","","","","","","","50","","","","","","","","","","","","","","","","","","","","","","","","","","",""
"","","","","ctl-task-cpt","53","659328","0.0-7.0-0.8","144","1","2025-08-06 08:55:03","36c45c0696341be0efffe67d72a12abb","5.206.180.140","Mozilla/5.0 (Windows NT 10.0; Win64; x64) AppleWebKit/537.36 (KHTML, like Gecko) Chrome/138.0.0.0 Safari/537.36","WebKit","Chrome","138.0.0.0","Windows","10.0","https://app.prolific.com/","en-US,en;q=0.9","5c59ceb27e554c0001257ff4","687a1a965b9f5b85a264363e","689317a93d0ed7606b249f4e","1","5c59ceb27e554c0001257ff4","1","2025-08-06T09:06:15.469Z","","","","","","","","","","","","","","","","win-only","2","g1:SE,g2:NW","0.4","9","0","614423.5","964.5","5966.4","44156.3","1","4","8","6","1","-1","-2","1","3","0.007575757575757576","775.8","3000","-2670","[""down"",""right""]","{""num_key_presses"":7,""num_perfect"":2,""num_errors"":1,""num_randdir"":4,""num_randdir_good_moves"":2,""num_whilered"":0,""num_whileblue"":1,""num_blue"":6,""num_good_moves"":5}","[407.57142857142856,417.47767857142856,0.1,407.57142857142856,417.47767857142856,101.5,407.57142857142856,417.47767857142856,215,407.57142857142856,417.47767857142856,315.8,407.57142857142856,417.47767857142856,422,567.5714285714286,564.4776785714286,526.3,715.5714285714286,735.4776785714286,646.1,740.5714285714286,765.4776785714286,749.8,740.5714285714286,765.4776785714286,853,768.5714285714286,731.4776785714286,958.7,911.5714285714286,523.4776785714286,1061.9,911.5714285714286,516.4776785714286,1163,911.5714285714286,516.4776785714286,1266.3,911.5714285714286,516.4776785714286,1366.3,910.5714285714286,516.4776785714286,1466.3,910.5714285714286,516.4776785714286,1566.9,910.5714285714286,516.4776785714286,1670.9,910.5714285714286,516.4776785714286,1772.9,910.5714285714286,516.4776785714286,1877.4,910.5714285714286,516.4776785714286,1987.9,910.5714285714286,516.4776785714286,2091.7,910.5714285714286,516.4776785714286,2192.1,910.5714285714286,516.4776785714286,2297.5,910.5714285714286,516.4776785714286,2406.4,910.5714285714286,516.4776785714286,2506.8,910.5714285714286,516.4776785714286,2608.8,910.5714285714286,516.4776785714286,2710.8,910.5714285714286,516.4776785714286,2811.3,910.5714285714286,516.4776785714286,2911.7,910.5714285714286,516.4776785714286,3016.7,910.5714285714286,516.4776785714286,3121.3,910.5714285714286,516.4776785714286,3222.8,910.5714285714286,516.4776785714286,3326,910.5714285714286,516.4776785714286,3427.1,910.5714285714286,516.4776785714286,3533,910.5714285714286,516.4776785714286,3641.6,910.5714285714286,516.4776785714286,3746.6,910.5714285714286,516.4776785714286,3847.4,910.5714285714286,516.4776785714286,3956.6,910.5714285714286,516.4776785714286,4057.4,910.5714285714286,516.4776785714286,4162.4,910.5714285714286,516.4776785714286,4266.1,910.5714285714286,516.4776785714286,4371.3,910.5714285714286,516.4776785714286,4472.2,910.5714285714286,516.4776785714286,4576.6,910.5714285714286,516.4776785714286,4687.8,910.5714285714286,516.4776785714286,4795.7,910.5714285714286,516.4776785714286,4896.1]","[4441.6,4441.6,1848.1,2005.6,587.9,""oops"",""down"",""down"",""good_move"",7560.5,3118.6,2631.4,4442,487.1,""oops"",""right"",""left"",""bad_move"",10174.2,2613.4,2196.3,7560.8,417.1,""while_blue"",""down"",""right"",""good_move"",23568.3,13393.8,2487.2,20539,542.1,""smooth"",""right"",""right"",""good_move"",26149.3,2580.5,2173,23568.9,407.4,""oops"",""down"",""up"",""bad_move"",32118.8,5969.2,2420.8,29206,492,""oops"",""down"",""right"",""good_move"",35222.6,3103.5,2612.9,32119.1,490.6,""smooth"",""down"",""down"",""good_move""]"
"2967","","<div style=""width:500px;"">
  <p>What determined the result of this run?</p>
  </div>","18","html-slider-response","54","662296","0.0-7.0-1.8","144","1","2025-08-06 08:55:03","36c45c0696341be0efffe67d72a12abb","5.206.180.140","Mozilla/5.0 (Windows NT 10.0; Win64; x64) AppleWebKit/537.36 (KHTML, like Gecko) Chrome/138.0.0.0 Safari/537.36","WebKit","Chrome","138.0.0.0","Windows","10.0","https://app.prolific.com/","en-US,en;q=0.9","5c59ceb27e554c0001257ff4","687a1a965b9f5b85a264363e","689317a93d0ed7606b249f4e","1","5c59ceb27e554c0001257ff4","1","2025-08-06T09:06:18.438Z","","","","AttribQ","","","","","","","","","","","50","","","","","","","","","","","","","","","","","","","","","","","","","","",""
"3106","","<div style=""width:500px;"">
  <p>How much control did you have over the ball?</p>
  </div>","21","html-slider-response","55","665406","0.0-7.0-2.8","144","1","2025-08-06 08:55:03","36c45c0696341be0efffe67d72a12abb","5.206.180.140","Mozilla/5.0 (Windows NT 10.0; Win64; x64) AppleWebKit/537.36 (KHTML, like Gecko) Chrome/138.0.0.0 Safari/537.36","WebKit","Chrome","138.0.0.0","Windows","10.0","https://app.prolific.com/","en-US,en;q=0.9","5c59ceb27e554c0001257ff4","687a1a965b9f5b85a264363e","689317a93d0ed7606b249f4e","1","5c59ceb27e554c0001257ff4","1","2025-08-06T09:06:21.548Z","","","","ControlQ","","","","","","","","","","","50","","","","","","","","","","","","","","","","","","","","","","","","","","",""
"2808","","<div style=""width:500px;"">
  <p>How would you describe your current emotional state?</p>
  </div>","90","html-slider-response","56","668218","0.0-7.0-3.8","144","1","2025-08-06 08:55:03","36c45c0696341be0efffe67d72a12abb","5.206.180.140","Mozilla/5.0 (Windows NT 10.0; Win64; x64) AppleWebKit/537.36 (KHTML, like Gecko) Chrome/138.0.0.0 Safari/537.36","WebKit","Chrome","138.0.0.0","Windows","10.0","https://app.prolific.com/","en-US,en;q=0.9","5c59ceb27e554c0001257ff4","687a1a965b9f5b85a264363e","689317a93d0ed7606b249f4e","1","5c59ceb27e554c0001257ff4","1","2025-08-06T09:06:24.359Z","","","","StressQ","","","","","","","","","","","50","","","","","","","","","","","","","","","","","","","","","","","","","","",""
"3246","","<div style=""width:500px;"">
  <p>What best describes how you currently feel?</p>
  </div>","66","html-slider-response","57","671468","0.0-7.0-4.8","144","1","2025-08-06 08:55:03","36c45c0696341be0efffe67d72a12abb","5.206.180.140","Mozilla/5.0 (Windows NT 10.0; Win64; x64) AppleWebKit/537.36 (KHTML, like Gecko) Chrome/138.0.0.0 Safari/537.36","WebKit","Chrome","138.0.0.0","Windows","10.0","https://app.prolific.com/","en-US,en;q=0.9","5c59ceb27e554c0001257ff4","687a1a965b9f5b85a264363e","689317a93d0ed7606b249f4e","1","5c59ceb27e554c0001257ff4","1","2025-08-06T09:06:27.609Z","","","","MotivationQ","","","","","","","","","","","50","","","","","","","","","","","","","","","","","","","","","","","","","","",""
"","","","","ctl-task-cpt","58","694109","0.0-7.0-0.9","144","1","2025-08-06 08:55:03","36c45c0696341be0efffe67d72a12abb","5.206.180.140","Mozilla/5.0 (Windows NT 10.0; Win64; x64) AppleWebKit/537.36 (KHTML, like Gecko) Chrome/138.0.0.0 Safari/537.36","WebKit","Chrome","138.0.0.0","Windows","10.0","https://app.prolific.com/","en-US,en;q=0.9","5c59ceb27e554c0001257ff4","687a1a965b9f5b85a264363e","689317a93d0ed7606b249f4e","1","5c59ceb27e554c0001257ff4","1","2025-08-06T09:06:50.250Z","","","","","","","","","","","","","","","","win-only","0","g1:NW,g2:SE","0.5","10","0","673741.9","1029","6035.4","19611.4","1","4","4","6","1","1","1","2","1","0.015151515151515152","1260.3","3000","1435","[""left"",""up""]","{""num_key_presses"":4,""num_perfect"":3,""num_errors"":0,""num_randdir"":1,""num_randdir_good_moves"":1,""num_whilered"":0,""num_whileblue"":0,""num_blue"":1,""num_good_moves"":4}","[420.57142857142856,411.47767857142856,0.3,420.57142857142856,411.47767857142856,103.9,420.57142857142856,411.47767857142856,207.5,420.57142857142856,411.47767857142856,311.9,418.57142857142856,419.47767857142856,421.6,507.57142857142856,532.4776785714286,523,767.5714285714286,709.4776785714286,623.7,768.5714285714286,710.4776785714286,727.2,768.5714285714286,710.4776785714286,827.9,358.57142857142856,365.47767857142856,938.9,131.57142857142856,169.47767857142856,1041.5,93.57142857142857,135.47767857142856,1143.1,74.57142857142857,119.47767857142857,1247.8,74.57142857142857,119.47767857142857,1353.4,51.57142857142857,137.47767857142856,1456.3,-86.42857142857143,225.47767857142856,1561.2,-96.42857142857143,230.47767857142856,1663.4,-96.42857142857143,230.47767857142856,1773.5,-96.42857142857143,230.47767857142856,1874.3,-96.42857142857143,230.47767857142856,1978,-96.42857142857143,230.47767857142856,2081.7,-96.42857142857143,230.47767857142856,2186.6,-96.42857142857143,230.47767857142856,2289.1,-96.42857142857143,230.47767857142856,2391.5,-96.42857142857143,230.47767857142856,2492.7,-96.42857142857143,230.47767857142856,2601,-96.42857142857143,230.47767857142856,2708.6,-96.42857142857143,230.47767857142856,2811.2,-96.42857142857143,230.47767857142856,2916.4,-96.42857142857143,230.47767857142856,3016.6,-96.42857142857143,230.47767857142856,3121.6,-96.42857142857143,230.47767857142856,3223.1,-96.42857142857143,230.47767857142856,3327.2,-96.42857142857143,230.47767857142856,3429.9,-96.42857142857143,230.47767857142856,3532.1,-96.42857142857143,230.47767857142856,3638.7,-96.42857142857143,230.47767857142856,3741.2,-96.42857142857143,230.47767857142856,3841.6,-96.42857142857143,230.47767857142856,3942.4,-96.42857142857143,230.47767857142856,4042.6,-96.42857142857143,230.47767857142856,4146.6,-96.42857142857143,230.47767857142856,4247.6,-96.42857142857143,230.47767857142856,4352.2,-96.42857142857143,230.47767857142856,4455.1,-96.42857142857143,230.47767857142856,4557.1,-96.42857142857143,230.47767857142856,4662.4,-96.42857142857143,230.47767857142856,4773.1,-96.42857142857143,230.47767857142856,4879.8,-96.42857142857143,230.47767857142856,4981.4]","[1440.8,1440.8,1000,0,440.8,""smooth"",""left"",""left"",""good_move"",7684.3,6242.6,3183.8,3980.4,520.1,""oops"",""left"",""up"",""good_move"",10873.7,3189.2,2708.3,7684.5,480.9,""smooth"",""left"",""left"",""good_move"",13468.1,2593.5,2125.3,10874.6,468.2,""smooth"",""up"",""up"",""good_move""]"
"3181","","<div style=""width:500px;"">
  <p>What determined the result of this run?</p>
  </div>","61","html-slider-response","59","697291","0.0-7.0-1.9","144","1","2025-08-06 08:55:03","36c45c0696341be0efffe67d72a12abb","5.206.180.140","Mozilla/5.0 (Windows NT 10.0; Win64; x64) AppleWebKit/537.36 (KHTML, like Gecko) Chrome/138.0.0.0 Safari/537.36","WebKit","Chrome","138.0.0.0","Windows","10.0","https://app.prolific.com/","en-US,en;q=0.9","5c59ceb27e554c0001257ff4","687a1a965b9f5b85a264363e","689317a93d0ed7606b249f4e","1","5c59ceb27e554c0001257ff4","1","2025-08-06T09:06:53.433Z","","","","AttribQ","","","","","","","","","","","50","","","","","","","","","","","","","","","","","","","","","","","","","","",""
"3828","","<div style=""width:500px;"">
  <p>How much control did you have over the ball?</p>
  </div>","57","html-slider-response","60","701123","0.0-7.0-2.9","144","1","2025-08-06 08:55:03","36c45c0696341be0efffe67d72a12abb","5.206.180.140","Mozilla/5.0 (Windows NT 10.0; Win64; x64) AppleWebKit/537.36 (KHTML, like Gecko) Chrome/138.0.0.0 Safari/537.36","WebKit","Chrome","138.0.0.0","Windows","10.0","https://app.prolific.com/","en-US,en;q=0.9","5c59ceb27e554c0001257ff4","687a1a965b9f5b85a264363e","689317a93d0ed7606b249f4e","1","5c59ceb27e554c0001257ff4","1","2025-08-06T09:06:57.264Z","","","","ControlQ","","","","","","","","","","","50","","","","","","","","","","","","","","","","","","","","","","","","","","",""
"3588","","<div style=""width:500px;"">
  <p>How would you describe your current emotional state?</p>
  </div>","67","html-slider-response","61","704714","0.0-7.0-3.9","144","1","2025-08-06 08:55:03","36c45c0696341be0efffe67d72a12abb","5.206.180.140","Mozilla/5.0 (Windows NT 10.0; Win64; x64) AppleWebKit/537.36 (KHTML, like Gecko) Chrome/138.0.0.0 Safari/537.36","WebKit","Chrome","138.0.0.0","Windows","10.0","https://app.prolific.com/","en-US,en;q=0.9","5c59ceb27e554c0001257ff4","687a1a965b9f5b85a264363e","689317a93d0ed7606b249f4e","1","5c59ceb27e554c0001257ff4","1","2025-08-06T09:07:00.856Z","","","","StressQ","","","","","","","","","","","50","","","","","","","","","","","","","","","","","","","","","","","","","","",""
"2782","","<div style=""width:500px;"">
  <p>What best describes how you currently feel?</p>
  </div>","65","html-slider-response","62","707501","0.0-7.0-4.9","144","1","2025-08-06 08:55:03","36c45c0696341be0efffe67d72a12abb","5.206.180.140","Mozilla/5.0 (Windows NT 10.0; Win64; x64) AppleWebKit/537.36 (KHTML, like Gecko) Chrome/138.0.0.0 Safari/537.36","WebKit","Chrome","138.0.0.0","Windows","10.0","https://app.prolific.com/","en-US,en;q=0.9","5c59ceb27e554c0001257ff4","687a1a965b9f5b85a264363e","689317a93d0ed7606b249f4e","1","5c59ceb27e554c0001257ff4","1","2025-08-06T09:07:03.643Z","","","","MotivationQ","","","","","","","","","","","50","","","","","","","","","","","","","","","","","","","","","","","","","","",""
"","","","","ctl-task-cpt","63","727174","0.0-7.0-0.10","144","1","2025-08-06 08:55:03","36c45c0696341be0efffe67d72a12abb","5.206.180.140","Mozilla/5.0 (Windows NT 10.0; Win64; x64) AppleWebKit/537.36 (KHTML, like Gecko) Chrome/138.0.0.0 Safari/537.36","WebKit","Chrome","138.0.0.0","Windows","10.0","https://app.prolific.com/","en-US,en;q=0.9","5c59ceb27e554c0001257ff4","687a1a965b9f5b85a264363e","689317a93d0ed7606b249f4e","1","5c59ceb27e554c0001257ff4","1","2025-08-06T09:07:23.315Z","","","","","","","","","","","","","","","","win-only","1","g1:NE,g2:SW","0.6","11","0","709775.3","1141.9","6143","16651.2","1","4","4","6","1","1","1","3","2","0.022727272727272728","661.9","3000","1500","[""up"",""right""]","{""num_key_presses"":4,""num_perfect"":3,""num_errors"":0,""num_randdir"":1,""num_randdir_good_moves"":1,""num_whilered"":0,""num_whileblue"":0,""num_blue"":0,""num_good_moves"":4}","[414.57142857142856,416.47767857142856,0.9,414.57142857142856,416.47767857142856,103,414.57142857142856,416.47767857142856,203.6,414.57142857142856,416.47767857142856,304.7,497.57142857142856,349.47767857142856,409.3,734.5714285714286,126.47767857142857,511.8,741.5714285714286,87.47767857142857,614.9,741.5714285714286,84.47767857142857,715.5,777.5714285714286,98.47767857142857,826.7,931.5714285714286,140.47767857142856,930.6,931.5714285714286,141.47767857142856,1035.2,931.5714285714286,141.47767857142856,1136.4,931.5714285714286,141.47767857142856,1239.4,931.5714285714286,141.47767857142856,1339.6,931.5714285714286,141.47767857142856,1442.1,931.5714285714286,141.47767857142856,1543.5,931.5714285714286,141.47767857142856,1643.8,931.5714285714286,141.47767857142856,1744.8,931.5714285714286,141.47767857142856,1844.8,931.5714285714286,141.47767857142856,1945.3,931.5714285714286,141.47767857142856,2049.4,931.5714285714286,141.47767857142856,2159.9,931.5714285714286,141.47767857142856,2260.5,931.5714285714286,141.47767857142856,2364.7,931.5714285714286,141.47767857142856,2471.9,931.5714285714286,141.47767857142856,2574.5,931.5714285714286,141.47767857142856,2678,931.5714285714286,141.47767857142856,2779.6,931.5714285714286,141.47767857142856,2884.8,931.5714285714286,141.47767857142856,2988.6,931.5714285714286,141.47767857142856,3091.3,931.5714285714286,141.47767857142856,3193.7,931.5714285714286,141.47767857142856,3303.2,931.5714285714286,141.47767857142856,3406.2,931.5714285714286,141.47767857142856,3508.8,931.5714285714286,141.47767857142856,3611.9,931.5714285714286,141.47767857142856,3715.3,931.5714285714286,141.47767857142856,3819.7,931.5714285714286,141.47767857142856,3920.5,931.5714285714286,141.47767857142856,4025.1,931.5714285714286,141.47767857142856,4127.4,931.5714285714286,141.47767857142856,4228.4,931.5714285714286,141.47767857142856,4328.9,931.5714285714286,141.47767857142856,4429.3,931.5714285714286,141.47767857142856,4530.1,931.5714285714286,141.47767857142856,4640.1,931.5714285714286,141.47767857142856,4745,931.5714285714286,141.47767857142856,4850.5,931.5714285714286,141.47767857142856,4961]","[1452.4,1452.4,1000,0,452.4,""smooth"",""up"",""up"",""good_move"",4452,2999.3,2495.8,1452.7,503.5,""smooth"",""right"",""right"",""good_move"",7122.4,2670.1,2269.4,4452.3,400.7,""smooth"",""right"",""right"",""good_move"",10392.3,3269.7,2785.2,7122.7,484.5,""oops"",""up"",""up"",""good_move""]"
"1987","","<div style=""width:500px;"">
  <p>What determined the result of this run?</p>
  </div>","81","html-slider-response","64","729164","0.0-7.0-1.10","144","1","2025-08-06 08:55:03","36c45c0696341be0efffe67d72a12abb","5.206.180.140","Mozilla/5.0 (Windows NT 10.0; Win64; x64) AppleWebKit/537.36 (KHTML, like Gecko) Chrome/138.0.0.0 Safari/537.36","WebKit","Chrome","138.0.0.0","Windows","10.0","https://app.prolific.com/","en-US,en;q=0.9","5c59ceb27e554c0001257ff4","687a1a965b9f5b85a264363e","689317a93d0ed7606b249f4e","1","5c59ceb27e554c0001257ff4","1","2025-08-06T09:07:25.305Z","","","","AttribQ","","","","","","","","","","","50","","","","","","","","","","","","","","","","","","","","","","","","","","",""
"2630","","<div style=""width:500px;"">
  <p>How much control did you have over the ball?</p>
  </div>","84","html-slider-response","65","731798","0.0-7.0-2.10","144","1","2025-08-06 08:55:03","36c45c0696341be0efffe67d72a12abb","5.206.180.140","Mozilla/5.0 (Windows NT 10.0; Win64; x64) AppleWebKit/537.36 (KHTML, like Gecko) Chrome/138.0.0.0 Safari/537.36","WebKit","Chrome","138.0.0.0","Windows","10.0","https://app.prolific.com/","en-US,en;q=0.9","5c59ceb27e554c0001257ff4","687a1a965b9f5b85a264363e","689317a93d0ed7606b249f4e","1","5c59ceb27e554c0001257ff4","1","2025-08-06T09:07:27.939Z","","","","ControlQ","","","","","","","","","","","50","","","","","","","","","","","","","","","","","","","","","","","","","","",""
"12169","","<div style=""width:500px;"">
  <p>How would you describe your current emotional state?</p>
  </div>","58","html-slider-response","66","743970","0.0-7.0-3.10","144","1","2025-08-06 08:55:03","36c45c0696341be0efffe67d72a12abb","5.206.180.140","Mozilla/5.0 (Windows NT 10.0; Win64; x64) AppleWebKit/537.36 (KHTML, like Gecko) Chrome/138.0.0.0 Safari/537.36","WebKit","Chrome","138.0.0.0","Windows","10.0","https://app.prolific.com/","en-US,en;q=0.9","5c59ceb27e554c0001257ff4","687a1a965b9f5b85a264363e","689317a93d0ed7606b249f4e","1","5c59ceb27e554c0001257ff4","1","2025-08-06T09:07:40.111Z","","","","StressQ","","","","","","","","","","","50","","","","","","","","","","","","","","","","","","","","","","","","","","",""
"3231","","<div style=""width:500px;"">
  <p>What best describes how you currently feel?</p>
  </div>","59","html-slider-response","67","747204","0.0-7.0-4.10","144","1","2025-08-06 08:55:03","36c45c0696341be0efffe67d72a12abb","5.206.180.140","Mozilla/5.0 (Windows NT 10.0; Win64; x64) AppleWebKit/537.36 (KHTML, like Gecko) Chrome/138.0.0.0 Safari/537.36","WebKit","Chrome","138.0.0.0","Windows","10.0","https://app.prolific.com/","en-US,en;q=0.9","5c59ceb27e554c0001257ff4","687a1a965b9f5b85a264363e","689317a93d0ed7606b249f4e","1","5c59ceb27e554c0001257ff4","1","2025-08-06T09:07:43.346Z","","","","MotivationQ","","","","","","","","","","","50","","","","","","","","","","","","","","","","","","","","","","","","","","",""
"","","","","ctl-task-cpt","68","767506","0.0-7.0-0.11","144","1","2025-08-06 08:55:03","36c45c0696341be0efffe67d72a12abb","5.206.180.140","Mozilla/5.0 (Windows NT 10.0; Win64; x64) AppleWebKit/537.36 (KHTML, like Gecko) Chrome/138.0.0.0 Safari/537.36","WebKit","Chrome","138.0.0.0","Windows","10.0","https://app.prolific.com/","en-US,en;q=0.9","5c59ceb27e554c0001257ff4","687a1a965b9f5b85a264363e","689317a93d0ed7606b249f4e","1","5c59ceb27e554c0001257ff4","1","2025-08-06T09:08:03.647Z","","","","","","","","","","","","","","","","win-only","0","g1:NW,g2:SE","0.7","12","0","749478.3","1828.7","6831.8","17279.7","1","4","8","6","1","1","1","4","3","0.030303030303030304","766.6","3000","1570","[""left"",""up""]","{""num_key_presses"":4,""num_perfect"":4,""num_errors"":0,""num_randdir"":0,""num_randdir_good_moves"":0,""num_whilered"":0,""num_whileblue"":0,""num_blue"":0,""num_good_moves"":4}","[410.57142857142856,424.47767857142856,0.2,410.57142857142856,424.47767857142856,103.7,410.57142857142856,424.47767857142856,207.6,410.57142857142856,424.47767857142856,310.6,402.57142857142856,415.47767857142856,420.7,204.57142857142856,189.47767857142856,521.7,60.57142857142857,98.47767857142857,622.2,55.57142857142857,92.47767857142857,722.4,55.57142857142857,92.47767857142857,828.9,48.57142857142857,91.47767857142857,932.2,-84.42857142857143,133.47767857142856,1034,-131.42857142857144,144.47767857142856,1137.7,-131.42857142857144,144.47767857142856,1243.2,-131.42857142857144,144.47767857142856,1343.8,-131.42857142857144,144.47767857142856,1447.5,-131.42857142857144,144.47767857142856,1547.7,-131.42857142857144,144.47767857142856,1648.1,-131.42857142857144,144.47767857142856,1751.7,-131.42857142857144,144.47767857142856,1852.1,-131.42857142857144,144.47767857142856,1952.1,-131.42857142857144,144.47767857142856,2052.8,-131.42857142857144,144.47767857142856,2153.9,-131.42857142857144,144.47767857142856,2257.7,-131.42857142857144,144.47767857142856,2359.2,-131.42857142857144,144.47767857142856,2462.4,-131.42857142857144,144.47767857142856,2567.8,-131.42857142857144,144.47767857142856,2672,-131.42857142857144,144.47767857142856,2773.6,-131.42857142857144,144.47767857142856,2878.7,-131.42857142857144,144.47767857142856,2982.9,-131.42857142857144,144.47767857142856,3087.1,-131.42857142857144,144.47767857142856,3192.9,-131.42857142857144,144.47767857142856,3302.4,-131.42857142857144,144.47767857142856,3403.9,-131.42857142857144,144.47767857142856,3507.4,-131.42857142857144,144.47767857142856,3613.5,-131.42857142857144,144.47767857142856,3719,-131.42857142857144,144.47767857142856,3822.1,-131.42857142857144,144.47767857142856,3932,-131.42857142857144,144.47767857142856,4035,-131.42857142857144,144.47767857142856,4137.4,-131.42857142857144,144.47767857142856,4248.3,-131.42857142857144,144.47767857142856,4348.7,-131.42857142857144,144.47767857142856,4453.1,-131.42857142857144,144.47767857142856,4558.2,-131.42857142857144,144.47767857142856,4662.7,-131.42857142857144,144.47767857142856,4762.7,-131.42857142857144,144.47767857142856,4868,-131.42857142857144,144.47767857142856,4973.2]","[1464.3,1464.3,1000,0,464.3,""smooth"",""left"",""left"",""good_move"",4423.8,2959.3,2530.9,1464.6,428.4,""smooth"",""left"",""left"",""good_move"",7843.1,3419,2968.5,4424.1,450.5,""smooth"",""up"",""up"",""good_move"",10332.6,2488.6,2092,7844,396.6,""smooth"",""up"",""up"",""good_move""]"
"2431","","<div style=""width:500px;"">
  <p>What determined the result of this run?</p>
  </div>","82","html-slider-response","69","769939","0.0-7.0-1.11","144","1","2025-08-06 08:55:03","36c45c0696341be0efffe67d72a12abb","5.206.180.140","Mozilla/5.0 (Windows NT 10.0; Win64; x64) AppleWebKit/537.36 (KHTML, like Gecko) Chrome/138.0.0.0 Safari/537.36","WebKit","Chrome","138.0.0.0","Windows","10.0","https://app.prolific.com/","en-US,en;q=0.9","5c59ceb27e554c0001257ff4","687a1a965b9f5b85a264363e","689317a93d0ed7606b249f4e","1","5c59ceb27e554c0001257ff4","1","2025-08-06T09:08:06.081Z","","","","AttribQ","","","","","","","","","","","50","","","","","","","","","","","","","","","","","","","","","","","","","","",""
"3442","","<div style=""width:500px;"">
  <p>How much control did you have over the ball?</p>
  </div>","85","html-slider-response","70","773386","0.0-7.0-2.11","144","1","2025-08-06 08:55:03","36c45c0696341be0efffe67d72a12abb","5.206.180.140","Mozilla/5.0 (Windows NT 10.0; Win64; x64) AppleWebKit/537.36 (KHTML, like Gecko) Chrome/138.0.0.0 Safari/537.36","WebKit","Chrome","138.0.0.0","Windows","10.0","https://app.prolific.com/","en-US,en;q=0.9","5c59ceb27e554c0001257ff4","687a1a965b9f5b85a264363e","689317a93d0ed7606b249f4e","1","5c59ceb27e554c0001257ff4","1","2025-08-06T09:08:09.528Z","","","","ControlQ","","","","","","","","","","","50","","","","","","","","","","","","","","","","","","","","","","","","","","",""
"5149","","<div style=""width:500px;"">
  <p>How would you describe your current emotional state?</p>
  </div>","43","html-slider-response","71","778540","0.0-7.0-3.11","144","1","2025-08-06 08:55:03","36c45c0696341be0efffe67d72a12abb","5.206.180.140","Mozilla/5.0 (Windows NT 10.0; Win64; x64) AppleWebKit/537.36 (KHTML, like Gecko) Chrome/138.0.0.0 Safari/537.36","WebKit","Chrome","138.0.0.0","Windows","10.0","https://app.prolific.com/","en-US,en;q=0.9","5c59ceb27e554c0001257ff4","687a1a965b9f5b85a264363e","689317a93d0ed7606b249f4e","1","5c59ceb27e554c0001257ff4","1","2025-08-06T09:08:14.681Z","","","","StressQ","","","","","","","","","","","50","","","","","","","","","","","","","","","","","","","","","","","","","","",""
"5262","","<div style=""width:500px;"">
  <p>What best describes how you currently feel?</p>
  </div>","68","html-slider-response","72","783805","0.0-7.0-4.11","144","1","2025-08-06 08:55:03","36c45c0696341be0efffe67d72a12abb","5.206.180.140","Mozilla/5.0 (Windows NT 10.0; Win64; x64) AppleWebKit/537.36 (KHTML, like Gecko) Chrome/138.0.0.0 Safari/537.36","WebKit","Chrome","138.0.0.0","Windows","10.0","https://app.prolific.com/","en-US,en;q=0.9","5c59ceb27e554c0001257ff4","687a1a965b9f5b85a264363e","689317a93d0ed7606b249f4e","1","5c59ceb27e554c0001257ff4","1","2025-08-06T09:08:19.947Z","","","","MotivationQ","","","","","","","","","","","50","","","","","","","","","","","","","","","","","","","","","","","","","","",""
"","","","","ctl-task-cpt","73","813040","0.0-7.0-0.12","144","1","2025-08-06 08:55:03","36c45c0696341be0efffe67d72a12abb","5.206.180.140","Mozilla/5.0 (Windows NT 10.0; Win64; x64) AppleWebKit/537.36 (KHTML, like Gecko) Chrome/138.0.0.0 Safari/537.36","WebKit","Chrome","138.0.0.0","Windows","10.0","https://app.prolific.com/","en-US,en;q=0.9","5c59ceb27e554c0001257ff4","687a1a965b9f5b85a264363e","689317a93d0ed7606b249f4e","1","5c59ceb27e554c0001257ff4","1","2025-08-06T09:08:49.181Z","","","","","","","","","","","","","","","","win-only","0","g1:NW,g2:SE","0.8","13","0","786079.4","1648.4","6657.5","26210.8","1","4","4","6","1","1","0","4","4","0.030303030303030304","1058.2","3000","685","[""left"",""up""]","{""num_key_presses"":7,""num_perfect"":5,""num_errors"":1,""num_randdir"":1,""num_randdir_good_moves"":0,""num_whilered"":0,""num_whileblue"":0,""num_blue"":0,""num_good_moves"":5}","[422.57142857142856,411.47767857142856,0.1,422.57142857142856,411.47767857142856,100.1,422.57142857142856,411.47767857142856,202.2,422.57142857142856,411.47767857142856,314.4,422.57142857142856,411.47767857142856,418.8,422.57142857142856,412.47767857142856,527.2,411.57142857142856,409.47767857142856,628.8,237.57142857142856,265.47767857142856,731.5,155.57142857142856,187.47767857142856,832.9,96.57142857142857,133.47767857142856,938,89.57142857142857,104.47767857142857,1042.6,89.57142857142857,104.47767857142857,1144.4,87.57142857142857,103.47767857142857,1251.4,15.57142857142857,103.47767857142857,1354.5,-38.42857142857143,106.47767857142857,1464.2,-38.42857142857143,106.47767857142857,1565.1,-38.42857142857143,106.47767857142857,1667.1,-38.42857142857143,106.47767857142857,1767.9,-38.42857142857143,106.47767857142857,1869.1,-38.42857142857143,106.47767857142857,1972.2,-38.42857142857143,106.47767857142857,2078.5,-38.42857142857143,106.47767857142857,2180.2,-38.42857142857143,106.47767857142857,2282,-38.42857142857143,106.47767857142857,2382.1,-38.42857142857143,106.47767857142857,2483.9,-38.42857142857143,106.47767857142857,2587.7,-38.42857142857143,106.47767857142857,2689.9,-38.42857142857143,106.47767857142857,2794.5,-38.42857142857143,106.47767857142857,2900.7,-38.42857142857143,106.47767857142857,3003,-38.42857142857143,106.47767857142857,3110.4,-38.42857142857143,106.47767857142857,3212.3,-38.42857142857143,106.47767857142857,3314.5,-38.42857142857143,106.47767857142857,3418.2,-38.42857142857143,106.47767857142857,3527.9,-38.42857142857143,106.47767857142857,3628.3,-38.42857142857143,106.47767857142857,3729.6,-38.42857142857143,106.47767857142857,3832.4,-38.42857142857143,106.47767857142857,3934.6,-38.42857142857143,106.47767857142857,4037,-38.42857142857143,106.47767857142857,4138.3,-38.42857142857143,106.47767857142857,4243.9,-38.42857142857143,106.47767857142857,4348.3,-38.42857142857143,106.47767857142857,4453.5,-38.42857142857143,106.47767857142857,4559,-38.42857142857143,106.47767857142857,4663.2,-38.42857142857143,106.47767857142857,4763.3,-38.42857142857143,106.47767857142857,4864.4,-38.42857142857143,106.47767857142857,4967.7]","[423.6,423.6,1000,0,-576.4,""error"",""-"",""-"",""no_move"",4626.8,4203,2628.6,1428.3,569.9,""smooth"",""up"",""up"",""good_move"",7838.3,3211.3,2771.3,4627,440,""smooth"",""up"",""up"",""good_move"",10850.9,3012.2,2570.5,7838.7,441.7,""smooth"",""left"",""left"",""good_move"",13638.4,2787.3,2342.2,10851.1,445.1,""oops"",""left"",""right"",""bad_move"",17020.3,3381.3,2914.3,13639,467,""smooth"",""left"",""left"",""good_move"",19448,2427.5,1944.1,17020.5,483.4,""smooth"",""left"",""left"",""good_move""]"
"2345","","<div style=""width:500px;"">
  <p>What determined the result of this run?</p>
  </div>","81","html-slider-response","74","815388","0.0-7.0-1.12","144","1","2025-08-06 08:55:03","36c45c0696341be0efffe67d72a12abb","5.206.180.140","Mozilla/5.0 (Windows NT 10.0; Win64; x64) AppleWebKit/537.36 (KHTML, like Gecko) Chrome/138.0.0.0 Safari/537.36","WebKit","Chrome","138.0.0.0","Windows","10.0","https://app.prolific.com/","en-US,en;q=0.9","5c59ceb27e554c0001257ff4","687a1a965b9f5b85a264363e","689317a93d0ed7606b249f4e","1","5c59ceb27e554c0001257ff4","1","2025-08-06T09:08:51.529Z","","","","AttribQ","","","","","","","","","","","50","","","","","","","","","","","","","","","","","","","","","","","","","","",""
"3092","","<div style=""width:500px;"">
  <p>How much control did you have over the ball?</p>
  </div>","58","html-slider-response","75","818484","0.0-7.0-2.12","144","1","2025-08-06 08:55:03","36c45c0696341be0efffe67d72a12abb","5.206.180.140","Mozilla/5.0 (Windows NT 10.0; Win64; x64) AppleWebKit/537.36 (KHTML, like Gecko) Chrome/138.0.0.0 Safari/537.36","WebKit","Chrome","138.0.0.0","Windows","10.0","https://app.prolific.com/","en-US,en;q=0.9","5c59ceb27e554c0001257ff4","687a1a965b9f5b85a264363e","689317a93d0ed7606b249f4e","1","5c59ceb27e554c0001257ff4","1","2025-08-06T09:08:54.625Z","","","","ControlQ","","","","","","","","","","","50","","","","","","","","","","","","","","","","","","","","","","","","","","",""
"2659","","<div style=""width:500px;"">
  <p>How would you describe your current emotional state?</p>
  </div>","66","html-slider-response","76","821147","0.0-7.0-3.12","144","1","2025-08-06 08:55:03","36c45c0696341be0efffe67d72a12abb","5.206.180.140","Mozilla/5.0 (Windows NT 10.0; Win64; x64) AppleWebKit/537.36 (KHTML, like Gecko) Chrome/138.0.0.0 Safari/537.36","WebKit","Chrome","138.0.0.0","Windows","10.0","https://app.prolific.com/","en-US,en;q=0.9","5c59ceb27e554c0001257ff4","687a1a965b9f5b85a264363e","689317a93d0ed7606b249f4e","1","5c59ceb27e554c0001257ff4","1","2025-08-06T09:08:57.288Z","","","","StressQ","","","","","","","","","","","50","","","","","","","","","","","","","","","","","","","","","","","","","","",""
"3570","","<div style=""width:500px;"">
  <p>What best describes how you currently feel?</p>
  </div>","66","html-slider-response","77","824721","0.0-7.0-4.12","144","1","2025-08-06 08:55:03","36c45c0696341be0efffe67d72a12abb","5.206.180.140","Mozilla/5.0 (Windows NT 10.0; Win64; x64) AppleWebKit/537.36 (KHTML, like Gecko) Chrome/138.0.0.0 Safari/537.36","WebKit","Chrome","138.0.0.0","Windows","10.0","https://app.prolific.com/","en-US,en;q=0.9","5c59ceb27e554c0001257ff4","687a1a965b9f5b85a264363e","689317a93d0ed7606b249f4e","1","5c59ceb27e554c0001257ff4","1","2025-08-06T09:09:00.862Z","","","","MotivationQ","","","","","","","","","","","50","","","","","","","","","","","","","","","","","","","","","","","","","","",""
"","","","","ctl-task-cpt","78","844171","0.0-7.0-0.13","144","1","2025-08-06 08:55:03","36c45c0696341be0efffe67d72a12abb","5.206.180.140","Mozilla/5.0 (Windows NT 10.0; Win64; x64) AppleWebKit/537.36 (KHTML, like Gecko) Chrome/138.0.0.0 Safari/537.36","WebKit","Chrome","138.0.0.0","Windows","10.0","https://app.prolific.com/","en-US,en;q=0.9","5c59ceb27e554c0001257ff4","687a1a965b9f5b85a264363e","689317a93d0ed7606b249f4e","1","5c59ceb27e554c0001257ff4","1","2025-08-06T09:09:20.312Z","","","","","","","","","","","","","","","","win-only","0","g1:NW,g2:SE","0.9","14","0","826995.5","1097.7","6100.8","16426","1","4","8","6","1","1","1","5","4","0.03787878787878788","846.7","3000","1520","[""left"",""up""]","{""num_key_presses"":4,""num_perfect"":4,""num_errors"":0,""num_randdir"":0,""num_randdir_good_moves"":0,""num_whilered"":0,""num_whileblue"":0,""num_blue"":0,""num_good_moves"":4}","[410.57142857142856,427.47767857142856,0.2,410.57142857142856,427.47767857142856,105.6,410.57142857142856,427.47767857142856,217.4,410.57142857142856,427.47767857142856,318,410.57142857142856,427.47767857142856,425.7,404.57142857142856,419.47767857142856,528.5,198.57142857142856,202.47767857142856,634.1,127.57142857142857,118.47767857142857,739.3,123.57142857142857,113.47767857142857,849.1,123.57142857142857,113.47767857142857,963.4,100.57142857142857,110.47767857142857,1064.6,-66.42857142857143,102.47767857142857,1165.8,-78.42857142857143,99.47767857142857,1268.3,-78.42857142857143,99.47767857142857,1371,-78.42857142857143,99.47767857142857,1480.2,-78.42857142857143,99.47767857142857,1580.7,-78.42857142857143,99.47767857142857,1684.6,-78.42857142857143,99.47767857142857,1793.6,-78.42857142857143,99.47767857142857,1895.4,-78.42857142857143,99.47767857142857,1996.2,-78.42857142857143,99.47767857142857,2098,-78.42857142857143,99.47767857142857,2198,-78.42857142857143,99.47767857142857,2299.2,-78.42857142857143,99.47767857142857,2411.3,-78.42857142857143,99.47767857142857,2511.8,-78.42857142857143,99.47767857142857,2614.1,-78.42857142857143,99.47767857142857,2715.4,-78.42857142857143,99.47767857142857,2819.5,-78.42857142857143,99.47767857142857,2928.5,-78.42857142857143,99.47767857142857,3030.8,-78.42857142857143,99.47767857142857,3134.4,-78.42857142857143,99.47767857142857,3246.5,-78.42857142857143,99.47767857142857,3349.2,-78.42857142857143,99.47767857142857,3454.5,-78.42857142857143,99.47767857142857,3564.1,-78.42857142857143,99.47767857142857,3671.2,-78.42857142857143,99.47767857142857,3774.2,-78.42857142857143,99.47767857142857,3882.7,-78.42857142857143,99.47767857142857,3983.6,-78.42857142857143,99.47767857142857,4089.1,-78.42857142857143,99.47767857142857,4194.8,-78.42857142857143,99.47767857142857,4297,-78.42857142857143,99.47767857142857,4398.6,-78.42857142857143,99.47767857142857,4501,-78.42857142857143,99.47767857142857,4611,-78.42857142857143,99.47767857142857,4713.7,-78.42857142857143,99.47767857142857,4813.8,-78.42857142857143,99.47767857142857,4918.3]","[1459.7,1459.7,1000,0,459.7,""smooth"",""left"",""left"",""good_move"",4172.2,2712.2,2257.9,1460,454.3,""smooth"",""left"",""left"",""good_move"",7887.8,3715.4,3106.5,4172.4,608.9,""smooth"",""up"",""up"",""good_move"",10213.5,2324.6,1906.5,7889,418.1,""smooth"",""up"",""up"",""good_move""]"
"2894","","<div style=""width:500px;"">
  <p>What determined the result of this run?</p>
  </div>","69","html-slider-response","79","847066","0.0-7.0-1.13","144","1","2025-08-06 08:55:03","36c45c0696341be0efffe67d72a12abb","5.206.180.140","Mozilla/5.0 (Windows NT 10.0; Win64; x64) AppleWebKit/537.36 (KHTML, like Gecko) Chrome/138.0.0.0 Safari/537.36","WebKit","Chrome","138.0.0.0","Windows","10.0","https://app.prolific.com/","en-US,en;q=0.9","5c59ceb27e554c0001257ff4","687a1a965b9f5b85a264363e","689317a93d0ed7606b249f4e","1","5c59ceb27e554c0001257ff4","1","2025-08-06T09:09:23.208Z","","","","AttribQ","","","","","","","","","","","50","","","","","","","","","","","","","","","","","","","","","","","","","","",""
"2548","","<div style=""width:500px;"">
  <p>How much control did you have over the ball?</p>
