"rt","response_timestamp","stimulus","response","trial_type","trial_index","time_elapsed","internal_node_id","run_id","condition","recorded_at","source_code_version","ip","user_agent","device","browser","browser_version","platform","platform_version","referer","accept_language","PROLIFIC_PID","STUDY_ID","SESSION_ID","BATCH","prolific_id","batch","realtime","success","question_order","question_id","eventType","responses","item_order","radio_event_ids","radio_event_times","key_event_times","mouse_event_times","straightlining","zigzagging","honeypot","view_history","slider_start","which_type","canvas_config","goals_layout","control_level","trial_number","tutorial_trial_number","trial_start_time","phase1_start_time","phase2_start_time","phase3_start_time","goal_1_value","goal_1_distance","goal_2_value","goal_2_distance","goal_selected","outcome","outcome_total","participant_final_score","participant_initial_score","participant_final_score_prop","goal_choice_rt","allocated_time","allocated_time_remaining","goal_direction","counts","mouse_movements","key_presses"
"5826","1753865272808","<p style='font-size:40px;line-height:1.25'><strong>Welcome to the experiment!</strong></p><p style='font-size:1.1em;line-height:1.25'>Thank you for participanting in our experiment again! You will be asked to play the Dysfunctional Ball Game again. We will briefly recap the rules before we start.</p><p style='font-size:1.1em;line-height:1.25'>Press <strong>Next</strong> to continue.</p>","0","custom-html-button-response","0","5828","0.0-0.0","55","1","2025-07-30 08:47:44","36c45c0696341be0efffe67d72a12abb","84.15.221.88","Mozilla/5.0 (Windows NT 10.0; Win64; x64) AppleWebKit/537.36 (KHTML, like Gecko) Chrome/138.0.0.0 Safari/537.36","WebKit","Chrome","138.0.0.0","Windows","10.0","https://app.prolific.com/","ru-RU,ru;q=0.9,en-US;q=0.8,en;q=0.7","5c629b836e03a00001d47bdd","687a19d2168e237449fb8af4","6889db47c72472259205ee4a","0","5c629b836e03a00001d47bdd","0","2025-07-30T08:47:52.809Z","","","","","","","","","","","","","","","","","","","","","","","","","","","","","","","","","","","","","","","","","",""
"2878","","","","fullscreen","1","9725","0.0-1.0","55","1","2025-07-30 08:47:44","36c45c0696341be0efffe67d72a12abb","84.15.221.88","Mozilla/5.0 (Windows NT 10.0; Win64; x64) AppleWebKit/537.36 (KHTML, like Gecko) Chrome/138.0.0.0 Safari/537.36","WebKit","Chrome","138.0.0.0","Windows","10.0","https://app.prolific.com/","ru-RU,ru;q=0.9,en-US;q=0.8,en;q=0.7","5c629b836e03a00001d47bdd","687a19d2168e237449fb8af4","6889db47c72472259205ee4a","0","5c629b836e03a00001d47bdd","0","","true","","","","","","","","","","","","","","","","","","","","","","","","","","","","","","","","","","","","","","","","",""
"2324","1753865279032"," <p style='font-size:1.1em;line-height:1.25'>Thank you for closing all other tabs.</p><p style='font-size:1.1em;line-height:1.25'>We will now invite you to fill in some questionnaires, before starting the game.<br>This will take about 5 minutes.<br></p><p style='font-size:1.1em;line-height:1.25'>Press the <strong>Next</strong> button to continue.</p>","0","custom-html-button-response","2","12051","0.0-2.0","55","1","2025-07-30 08:47:44","36c45c0696341be0efffe67d72a12abb","84.15.221.88","Mozilla/5.0 (Windows NT 10.0; Win64; x64) AppleWebKit/537.36 (KHTML, like Gecko) Chrome/138.0.0.0 Safari/537.36","WebKit","Chrome","138.0.0.0","Windows","10.0","https://app.prolific.com/","ru-RU,ru;q=0.9,en-US;q=0.8,en;q=0.7","5c629b836e03a00001d47bdd","687a19d2168e237449fb8af4","6889db47c72472259205ee4a","0","5c629b836e03a00001d47bdd","0","2025-07-30T08:47:59.032Z","","","","","","","","","","","","","","","","","","","","","","","","","","","","","","","","","","","","","","","","","",""
"2266","","","{""assigned_sex"":""male""}","survey-multi-choice","3","14319","0.0-3.0-0.0","55","1","2025-07-30 08:47:44","36c45c0696341be0efffe67d72a12abb","84.15.221.88","Mozilla/5.0 (Windows NT 10.0; Win64; x64) AppleWebKit/537.36 (KHTML, like Gecko) Chrome/138.0.0.0 Safari/537.36","WebKit","Chrome","138.0.0.0","Windows","10.0","https://app.prolific.com/","ru-RU,ru;q=0.9,en-US;q=0.8,en;q=0.7","5c629b836e03a00001d47bdd","687a19d2168e237449fb8af4","6889db47c72472259205ee4a","0","5c629b836e03a00001d47bdd","0","","","[0]","0","demographics","","","","","","","","","","","","","","","","","","","","","","","","","","","","","","","","","","","","","",""
"1107","1753865282408","<p style='font-size:1.1em;line-height:1.25'>In the following, we will perform a baseline assessment. This means that we will ask you a few questions relating to your experiences over the past month.<br></p><p style='font-size:1.1em;line-height:1.25'>Press the <strong>Next</strong> button to continue.</p>","0","custom-html-button-response","4","15427","0.0-4.0-0.0","55","1","2025-07-30 08:47:44","36c45c0696341be0efffe67d72a12abb","84.15.221.88","Mozilla/5.0 (Windows NT 10.0; Win64; x64) AppleWebKit/537.36 (KHTML, like Gecko) Chrome/138.0.0.0 Safari/537.36","WebKit","Chrome","138.0.0.0","Windows","10.0","https://app.prolific.com/","ru-RU,ru;q=0.9,en-US;q=0.8,en;q=0.7","5c629b836e03a00001d47bdd","687a19d2168e237449fb8af4","6889db47c72472259205ee4a","0","5c629b836e03a00001d47bdd","0","2025-07-30T08:48:02.408Z","","","","","","","","","","","","","","","","","","","","","","","","","","","","","","","","","","","","","","","","","",""
"27813.799999952316","","","","survey-template","5","43246","0.0-4.0-1.0","55","1","2025-07-30 08:47:44","36c45c0696341be0efffe67d72a12abb","84.15.221.88","Mozilla/5.0 (Windows NT 10.0; Win64; x64) AppleWebKit/537.36 (KHTML, like Gecko) Chrome/138.0.0.0 Safari/537.36","WebKit","Chrome","138.0.0.0","Windows","10.0","https://app.prolific.com/","ru-RU,ru;q=0.9,en-US;q=0.8,en;q=0.7","5c629b836e03a00001d47bdd","687a19d2168e237449fb8af4","6889db47c72472259205ee4a","0","5c629b836e03a00001d47bdd","0","2025-07-30T08:48:30.227Z","","","","pss","{""Q01"":""0"",""Q02"":""0"",""Q03"":""0"",""Q04"":""4"",""Q05"":""4"",""Q06"":""0"",""Q07"":""4"",""Q08"":""4"",""Q09"":""0"",""Q10"":""0""}","[0,1,2,3,4,5,6,7,8,9]","[""Q01"",""Q02"",""Q03"",""Q04"",""Q05"",""Q06"",""Q07"",""Q08"",""Q09"",""Q10""]","[3859.399999976158,5043.699999928474,5571.5,8627.899999976158,9475.600000023842,12427.399999976158,13147.799999952316,14443.699999928474,15035.5,16635.699999928474]","[]","[0,3859.399999976158,4267.399999976158,5043.699999928474,5571.5,8627.899999976158,9475.600000023842,11827.899999976158,12427.399999976158,13147.799999952316,13715.5,14443.699999928474,15035.5,16635.699999928474,27811.399999976158]","1","0","0","","","","","","","","","","","","","","","","","","","","","","","","","","","","",""
"3242","1753865313471","<p style='font-size:1.1em;line-height:1.25'>Thank you for your answers! Now we will ask you a few more questions relating to your feelings in the last 24 hours.<br></p><p style='font-size:1.1em;line-height:1.25'>Press the <strong>Next</strong> button to continue.</p>","0","custom-html-button-response","6","46491","0.0-4.0-2.0","55","1","2025-07-30 08:47:44","36c45c0696341be0efffe67d72a12abb","84.15.221.88","Mozilla/5.0 (Windows NT 10.0; Win64; x64) AppleWebKit/537.36 (KHTML, like Gecko) Chrome/138.0.0.0 Safari/537.36","WebKit","Chrome","138.0.0.0","Windows","10.0","https://app.prolific.com/","ru-RU,ru;q=0.9,en-US;q=0.8,en;q=0.7","5c629b836e03a00001d47bdd","687a19d2168e237449fb8af4","6889db47c72472259205ee4a","0","5c629b836e03a00001d47bdd","0","2025-07-30T08:48:33.472Z","","","","","","","","","","","","","","","","","","","","","","","","","","","","","","","","","","","","","","","","","",""
"63609.60000002384","","","","survey-template","7","110103","0.0-4.0-3.0","55","1","2025-07-30 08:47:44","36c45c0696341be0efffe67d72a12abb","84.15.221.88","Mozilla/5.0 (Windows NT 10.0; Win64; x64) AppleWebKit/537.36 (KHTML, like Gecko) Chrome/138.0.0.0 Safari/537.36","WebKit","Chrome","138.0.0.0","Windows","10.0","https://app.prolific.com/","ru-RU,ru;q=0.9,en-US;q=0.8,en;q=0.7","5c629b836e03a00001d47bdd","687a19d2168e237449fb8af4","6889db47c72472259205ee4a","0","5c629b836e03a00001d47bdd","0","2025-07-30T08:49:37.084Z","","","","drsp","{""Q01"":""0"",""Q02"":""0"",""Q03"":""0"",""Q04"":""0"",""Q05"":""0"",""Q06"":""0"",""Q07"":""0"",""Q08"":""0"",""Q09"":""0"",""Q10"":""0"",""Q11"":""0"",""Q12"":""0"",""Q13"":""5"",""Q14"":""0"",""Q15"":""0"",""Q16"":""1"",""Q17"":""0"",""Q18"":""0"",""Q19"":""0"",""Q20"":""0"",""Q21"":""0"",""Q22"":""0""}","[0,1,2,3,4,5,6,7,8,9,10,11,12,13,14,15,16,17,18,19,20,21]","[""Q01"",""Q02"",""Q03"",""Q04"",""Q05"",""Q06"",""Q07"",""Q08"",""Q09"",""Q10"",""Q11"",""Q12"",""Q13"",""Q14"",""Q13"",""Q15"",""Q16"",""Q16"",""Q17"",""Q18"",""Q19"",""Q20"",""Q21"",""Q22""]","[5718.5,6662.600000023842,7414.300000071526,8542.200000047684,9574.5,10462.300000071526,17654.300000071526,20622.800000071526,21230.800000071526,23406,25879.100000023842,28222.300000071526,30342.200000047684,32358.100000023842,33582.300000071526,37702.200000047684,39414.40000009537,44902.10000002384,47782.40000009537,48358.5,53686.10000002384,54606.10000002384,60366.60000002384,61006.10000002384]","[]","[0.10000002384185791,5718.5,6662.600000023842,7414.300000071526,8542.200000047684,9574.5,10462.300000071526,17654.300000071526,20622.800000071526,21230.800000071526,23406,24862.300000071526,25879.100000023842,28222.300000071526,28902.300000071526,29838.600000023842,30342.200000047684,32358.100000023842,33582.300000071526,37702.200000047684,39414.40000009537,44406.40000009537,44902.10000002384,47782.40000009537,48358.5,51326.200000047684,53686.10000002384,54606.10000002384,60366.60000002384,61006.10000002384,63606.300000071526]","0.9090909090909091","0.19047619047619047","0","","","","","","","","","","","","","","","","","","","","","","","","","","","","",""
"22163.700000047684","","","","survey-template","8","132268","0.0-4.0-4.0","55","1","2025-07-30 08:47:44","36c45c0696341be0efffe67d72a12abb","84.15.221.88","Mozilla/5.0 (Windows NT 10.0; Win64; x64) AppleWebKit/537.36 (KHTML, like Gecko) Chrome/138.0.0.0 Safari/537.36","WebKit","Chrome","138.0.0.0","Windows","10.0","https://app.prolific.com/","ru-RU,ru;q=0.9,en-US;q=0.8,en;q=0.7","5c629b836e03a00001d47bdd","687a19d2168e237449fb8af4","6889db47c72472259205ee4a","0","5c629b836e03a00001d47bdd","0","2025-07-30T08:49:59.249Z","","","","stress","{""Q01"":""0"",""Q02"":""2"",""Q03"":""0""}","[0,1,2]","[""Q01"",""Q02"",""Q03"",""Q02"",""Q02""]","[3314.7999999523163,4107,6362.5,8444.700000047684,14002.600000023842]","[]","[3314.7999999523163,4107,6362.5,8444.700000047684,14002.600000023842,22163]","0.6666666666666666","0","0","","","","","","","","","","","","","","","","","","","","","","","","","","","","",""
"63191","","","","instructions","9","195460","0.0-5.0-0.0","55","1","2025-07-30 08:47:44","36c45c0696341be0efffe67d72a12abb","84.15.221.88","Mozilla/5.0 (Windows NT 10.0; Win64; x64) AppleWebKit/537.36 (KHTML, like Gecko) Chrome/138.0.0.0 Safari/537.36","WebKit","Chrome","138.0.0.0","Windows","10.0","https://app.prolific.com/","ru-RU,ru;q=0.9,en-US;q=0.8,en;q=0.7","5c629b836e03a00001d47bdd","687a19d2168e237449fb8af4","6889db47c72472259205ee4a","0","5c629b836e03a00001d47bdd","0","","","","","","","","","","","","","","","[{""page_index"":0,""viewing_time"":63191}]","","","","","","","","","","","","","","","","","","","","","","","","","","","",""
"7954","","<p>Before you start with this game please answer the following three questions yourself. </p>
  <p>Through this game, we measure several aspects of your cognitive performance, such as reaction times, multi-tasking capabilities </p>
  <p>and the ability to assess the situation you are in.</p>
  <p></p>
  <p><b>How good do you usually are in such tasks?</b></p>","70","html-slider-response","10","203419","0.0-6.0-0.0","55","1","2025-07-30 08:47:44","36c45c0696341be0efffe67d72a12abb","84.15.221.88","Mozilla/5.0 (Windows NT 10.0; Win64; x64) AppleWebKit/537.36 (KHTML, like Gecko) Chrome/138.0.0.0 Safari/537.36","WebKit","Chrome","138.0.0.0","Windows","10.0","https://app.prolific.com/","ru-RU,ru;q=0.9,en-US;q=0.8,en;q=0.7","5c629b836e03a00001d47bdd","687a19d2168e237449fb8af4","6889db47c72472259205ee4a","0","5c629b836e03a00001d47bdd","0","2025-07-30T08:51:10.400Z","","","","PreSkillQ","","","","","","","","","","","50","","","","","","","","","","","","","","","","","","","","","","","","","","",""
"4447","","<div style=""width:500px;"">
  <p>How well do you think you will perform in this task compared to other participants?</p>
  </div>","81","html-slider-response","11","207867","0.0-6.0-1.0","55","1","2025-07-30 08:47:44","36c45c0696341be0efffe67d72a12abb","84.15.221.88","Mozilla/5.0 (Windows NT 10.0; Win64; x64) AppleWebKit/537.36 (KHTML, like Gecko) Chrome/138.0.0.0 Safari/537.36","WebKit","Chrome","138.0.0.0","Windows","10.0","https://app.prolific.com/","ru-RU,ru;q=0.9,en-US;q=0.8,en;q=0.7","5c629b836e03a00001d47bdd","687a19d2168e237449fb8af4","6889db47c72472259205ee4a","0","5c629b836e03a00001d47bdd","0","2025-07-30T08:51:14.848Z","","","","PrePerfQ","","","","","","","","","","","50","","","","","","","","","","","","","","","","","","","","","","","","","","",""
"5439","","<div style=""width:500px;"">
  <p>What best describes how you currently feel?</p>
  </div>","88","html-slider-response","12","213307","0.0-6.0-2.0","55","1","2025-07-30 08:47:44","36c45c0696341be0efffe67d72a12abb","84.15.221.88","Mozilla/5.0 (Windows NT 10.0; Win64; x64) AppleWebKit/537.36 (KHTML, like Gecko) Chrome/138.0.0.0 Safari/537.36","WebKit","Chrome","138.0.0.0","Windows","10.0","https://app.prolific.com/","ru-RU,ru;q=0.9,en-US;q=0.8,en;q=0.7","5c629b836e03a00001d47bdd","687a19d2168e237449fb8af4","6889db47c72472259205ee4a","0","5c629b836e03a00001d47bdd","0","2025-07-30T08:51:20.288Z","","","","PreMotivationQ","","","","","","","","","","","50","","","","","","","","","","","","","","","","","","","","","","","","","","",""
"","","","","ctl-task-cpt","13","239927","0.0-7.0-0.0","55","1","2025-07-30 08:47:44","36c45c0696341be0efffe67d72a12abb","84.15.221.88","Mozilla/5.0 (Windows NT 10.0; Win64; x64) AppleWebKit/537.36 (KHTML, like Gecko) Chrome/138.0.0.0 Safari/537.36","WebKit","Chrome","138.0.0.0","Windows","10.0","https://app.prolific.com/","ru-RU,ru;q=0.9,en-US;q=0.8,en;q=0.7","5c629b836e03a00001d47bdd","687a19d2168e237449fb8af4","6889db47c72472259205ee4a","0","5c629b836e03a00001d47bdd","0","2025-07-30T08:51:46.908Z","","","","","","","","","","","","","","","","win-only","2","g1:SE,g2:NW","1","1","0","216229.8","3980.6","8986.2","23612.4","1","4","4","6","1","1","1","1","0","0.007575757575757576","2127.8","3000","1350","[""down"",""right""]","{""num_key_presses"":4,""num_perfect"":4,""num_errors"":0,""num_randdir"":0,""num_randdir_good_moves"":0,""num_whilered"":0,""num_whileblue"":0,""num_blue"":1,""num_good_moves"":4}","[411.5714133126395,417.82142761775424,0.6,411.5714133126395,417.82142761775424,105.2,411.5714133126395,417.82142761775424,206.5,411.5714133126395,417.82142761775424,309.8,411.5714133126395,417.82142761775424,410.8,411.5714133126395,417.82142761775424,515.8,411.5714133126395,417.82142761775424,616,411.5714133126395,417.82142761775424,721,411.5714133126395,417.82142761775424,821.4,411.5714133126395,417.82142761775424,925.6,411.5714133126395,417.82142761775424,1030.3,411.5714133126395,417.82142761775424,1130.6,411.5714133126395,417.82142761775424,1235.7,411.5714133126395,417.82142761775424,1340,411.5714133126395,417.82142761775424,1441.2,411.5714133126395,417.82142761775424,1545.6,411.5714133126395,417.82142761775424,1649.9,415.3214133126395,430.32142761775424,1751.2,731.5714133126395,741.5714276177542,1855.9,736.5714133126395,744.0714276177542,1960.4,736.5714133126395,745.3214276177542,2066.6,736.5714133126395,745.3214276177542,2170.7,736.5714133126395,745.3214276177542,2271,736.5714133126395,745.3214276177542,2375.1,714.0714133126395,741.5714276177542,2475.8,716.5714133126395,724.0714276177542,2576.2,921.5714133126395,567.8214276177542,2680.7,927.8214133126395,557.8214276177542,2780.8,927.8214133126395,557.8214276177542,2885.6,927.8214133126395,557.8214276177542,2987.1,927.8214133126395,557.8214276177542,3090.4,927.8214133126395,557.8214276177542,3190.7,927.8214133126395,557.8214276177542,3290.9,927.8214133126395,557.8214276177542,3395.2,927.8214133126395,557.8214276177542,3495.2,927.8214133126395,557.8214276177542,3595.9,927.8214133126395,557.8214276177542,3700.8,927.8214133126395,557.8214276177542,3805.9,927.8214133126395,557.8214276177542,3910.5,927.8214133126395,557.8214276177542,4016,927.8214133126395,557.8214276177542,4120.1,927.8214133126395,557.8214276177542,4220.1,927.8214133126395,557.8214276177542,4320.6,927.8214133126395,557.8214276177542,4425.7,927.8214133126395,557.8214276177542,4526,927.8214133126395,557.8214276177542,4630.2,927.8214133126395,557.8214276177542,4731.7,927.8214133126395,557.8214276177542,4835.1,927.8214133126395,557.8214276177542,4936.1]","[1481.9,1481.9,1000,0,481.9,""smooth"",""right"",""right"",""good_move"",9077.9,7595.8,2926,5628.3,523.6,""smooth"",""right"",""right"",""good_move"",11567.8,2489.7,1974.9,9078.1,514.8,""smooth"",""down"",""down"",""good_move"",14532.2,2964.2,2619.4,11568.1,344.8,""smooth"",""down"",""down"",""good_move""]"
"6763","","<div style=""width:500px;"">
  <p>What determined the result of this run?</p>
  </div>","100","html-slider-response","14","246691","0.0-7.0-1.0","55","1","2025-07-30 08:47:44","36c45c0696341be0efffe67d72a12abb","84.15.221.88","Mozilla/5.0 (Windows NT 10.0; Win64; x64) AppleWebKit/537.36 (KHTML, like Gecko) Chrome/138.0.0.0 Safari/537.36","WebKit","Chrome","138.0.0.0","Windows","10.0","https://app.prolific.com/","ru-RU,ru;q=0.9,en-US;q=0.8,en;q=0.7","5c629b836e03a00001d47bdd","687a19d2168e237449fb8af4","6889db47c72472259205ee4a","0","5c629b836e03a00001d47bdd","0","2025-07-30T08:51:53.672Z","","","","AttribQ","","","","","","","","","","","50","","","","","","","","","","","","","","","","","","","","","","","","","","",""
"8984","","<div style=""width:500px;"">
  <p>How much control did you have over the ball?</p>
  </div>","100","html-slider-response","15","255676","0.0-7.0-2.0","55","1","2025-07-30 08:47:44","36c45c0696341be0efffe67d72a12abb","84.15.221.88","Mozilla/5.0 (Windows NT 10.0; Win64; x64) AppleWebKit/537.36 (KHTML, like Gecko) Chrome/138.0.0.0 Safari/537.36","WebKit","Chrome","138.0.0.0","Windows","10.0","https://app.prolific.com/","ru-RU,ru;q=0.9,en-US;q=0.8,en;q=0.7","5c629b836e03a00001d47bdd","687a19d2168e237449fb8af4","6889db47c72472259205ee4a","0","5c629b836e03a00001d47bdd","0","2025-07-30T08:52:02.657Z","","","","ControlQ","","","","","","","","","","","50","","","","","","","","","","","","","","","","","","","","","","","","","","",""
"3390","","<div style=""width:500px;"">
  <p>How would you describe your current emotional state?</p>
  </div>","100","html-slider-response","16","259067","0.0-7.0-3.0","55","1","2025-07-30 08:47:44","36c45c0696341be0efffe67d72a12abb","84.15.221.88","Mozilla/5.0 (Windows NT 10.0; Win64; x64) AppleWebKit/537.36 (KHTML, like Gecko) Chrome/138.0.0.0 Safari/537.36","WebKit","Chrome","138.0.0.0","Windows","10.0","https://app.prolific.com/","ru-RU,ru;q=0.9,en-US;q=0.8,en;q=0.7","5c629b836e03a00001d47bdd","687a19d2168e237449fb8af4","6889db47c72472259205ee4a","0","5c629b836e03a00001d47bdd","0","2025-07-30T08:52:06.048Z","","","","StressQ","","","","","","","","","","","50","","","","","","","","","","","","","","","","","","","","","","","","","","",""
"3063","","<div style=""width:500px;"">
  <p>What best describes how you currently feel?</p>
  </div>","94","html-slider-response","17","262131","0.0-7.0-4.0","55","1","2025-07-30 08:47:44","36c45c0696341be0efffe67d72a12abb","84.15.221.88","Mozilla/5.0 (Windows NT 10.0; Win64; x64) AppleWebKit/537.36 (KHTML, like Gecko) Chrome/138.0.0.0 Safari/537.36","WebKit","Chrome","138.0.0.0","Windows","10.0","https://app.prolific.com/","ru-RU,ru;q=0.9,en-US;q=0.8,en;q=0.7","5c629b836e03a00001d47bdd","687a19d2168e237449fb8af4","6889db47c72472259205ee4a","0","5c629b836e03a00001d47bdd","0","2025-07-30T08:52:09.112Z","","","","MotivationQ","","","","","","","","","","","50","","","","","","","","","","","","","","","","","","","","","","","","","","",""
"","","","","ctl-task-cpt","18","296859","0.0-7.0-0.1","55","1","2025-07-30 08:47:44","36c45c0696341be0efffe67d72a12abb","84.15.221.88","Mozilla/5.0 (Windows NT 10.0; Win64; x64) AppleWebKit/537.36 (KHTML, like Gecko) Chrome/138.0.0.0 Safari/537.36","WebKit","Chrome","138.0.0.0","Windows","10.0","https://app.prolific.com/","ru-RU,ru;q=0.9,en-US;q=0.8,en;q=0.7","5c629b836e03a00001d47bdd","687a19d2168e237449fb8af4","6889db47c72472259205ee4a","0","5c629b836e03a00001d47bdd","0","2025-07-30T08:52:43.840Z","","","","","","","","","","","","","","","","win-only","0","g1:NW,g2:SE","0.9","2","0","265050.5","3578.6","8581.3","31716.7","1","4","8","6","2","8","7","8","1","0.06060606060606061","1252.8","3000","515","[""down"",""right""]","{""num_key_presses"":8,""num_perfect"":6,""num_errors"":1,""num_randdir"":1,""num_randdir_good_moves"":1,""num_whilered"":0,""num_whileblue"":1,""num_blue"":1,""num_good_moves"":7}","[411.5714133126395,419.07142761775424,0.4,411.5714133126395,419.07142761775424,100.2,411.5714133126395,419.07142761775424,200.3,411.5714133126395,419.07142761775424,302.4,411.5714133126395,419.07142761775424,402.5,411.5714133126395,419.07142761775424,502.7,411.5714133126395,419.07142761775424,606.6,411.5714133126395,419.07142761775424,707.6,597.8214133126395,591.5714276177542,816.6,851.5714133126395,736.5714276177542,922.4,850.3214133126395,736.5714276177542,1026.9,805.3214133126395,736.5714276177542,1128.8,801.5714133126395,736.5714276177542,1233.2,801.5714133126395,736.5714276177542,1333.3,801.5714133126395,736.5714276177542,1438.8,801.5714133126395,736.5714276177542,1541.6,801.5714133126395,736.5714276177542,1642.5,801.5714133126395,736.5714276177542,1749.6,801.5714133126395,736.5714276177542,1849.8,801.5714133126395,736.5714276177542,1952.4,801.5714133126395,736.5714276177542,2052.4,801.5714133126395,736.5714276177542,2157.5,801.5714133126395,736.5714276177542,2266.1,801.5714133126395,736.5714276177542,2367.5,801.5714133126395,736.5714276177542,2467.5,801.5714133126395,736.5714276177542,2567.5,801.5714133126395,736.5714276177542,2668.6,801.5714133126395,736.5714276177542,2772.5,801.5714133126395,736.5714276177542,2872.8,801.5714133126395,736.5714276177542,2982.6,801.5714133126395,736.5714276177542,3082.8,801.5714133126395,736.5714276177542,3184.4,801.5714133126395,736.5714276177542,3286.9,801.5714133126395,736.5714276177542,3387.6,801.5714133126395,736.5714276177542,3492.5,801.5714133126395,736.5714276177542,3600.6,801.5714133126395,736.5714276177542,3702.6,801.5714133126395,736.5714276177542,3808.5,801.5714133126395,736.5714276177542,3915.8,801.5714133126395,736.5714276177542,4019.1,801.5714133126395,736.5714276177542,4122.3,801.5714133126395,736.5714276177542,4222.4,801.5714133126395,736.5714276177542,4322.4,801.5714133126395,736.5714276177542,4422.4,801.5714133126395,736.5714276177542,4532.9,801.5714133126395,736.5714276177542,4633,801.5714133126395,736.5714276177542,4733.1,801.5714133126395,736.5714276177542,4837.8,801.5714133126395,736.5714276177542,4942.7]","[1417.4,1417.4,1000,0,417.4,""smooth"",""right"",""right"",""good_move"",4347,2929.4,2561.7,1417.7,367.6,""smooth"",""right"",""right"",""good_move"",7812.8,3465.5,3115.8,4347.3,349.7,""while_blue"",""right"",""left"",""bad_move"",11048.4,3235.2,2788,7813.2,447.2,""smooth"",""right"",""right"",""good_move"",14179.9,3131.4,2658.5,11048.5,472.9,""smooth"",""right"",""right"",""good_move"",17104.1,2923.9,2522.8,14180.3,401,""smooth"",""down"",""down"",""good_move"",19681.3,2577,2240.3,17104.3,336.7,""oops"",""down"",""down"",""good_move"",23029.5,3348.1,2978.9,19681.4,369.2,""smooth"",""down"",""down"",""good_move""]"
"2711","","<div style=""width:500px;"">
  <p>What determined the result of this run?</p>
  </div>","84","html-slider-response","19","299570","0.0-7.0-1.1","55","1","2025-07-30 08:47:44","36c45c0696341be0efffe67d72a12abb","84.15.221.88","Mozilla/5.0 (Windows NT 10.0; Win64; x64) AppleWebKit/537.36 (KHTML, like Gecko) Chrome/138.0.0.0 Safari/537.36","WebKit","Chrome","138.0.0.0","Windows","10.0","https://app.prolific.com/","ru-RU,ru;q=0.9,en-US;q=0.8,en;q=0.7","5c629b836e03a00001d47bdd","687a19d2168e237449fb8af4","6889db47c72472259205ee4a","0","5c629b836e03a00001d47bdd","0","2025-07-30T08:52:46.551Z","","","","AttribQ","","","","","","","","","","","50","","","","","","","","","","","","","","","","","","","","","","","","","","",""
"1559","","<div style=""width:500px;"">
  <p>How much control did you have over the ball?</p>
  </div>","79","html-slider-response","20","301130","0.0-7.0-2.1","55","1","2025-07-30 08:47:44","36c45c0696341be0efffe67d72a12abb","84.15.221.88","Mozilla/5.0 (Windows NT 10.0; Win64; x64) AppleWebKit/537.36 (KHTML, like Gecko) Chrome/138.0.0.0 Safari/537.36","WebKit","Chrome","138.0.0.0","Windows","10.0","https://app.prolific.com/","ru-RU,ru;q=0.9,en-US;q=0.8,en;q=0.7","5c629b836e03a00001d47bdd","687a19d2168e237449fb8af4","6889db47c72472259205ee4a","0","5c629b836e03a00001d47bdd","0","2025-07-30T08:52:48.112Z","","","","ControlQ","","","","","","","","","","","50","","","","","","","","","","","","","","","","","","","","","","","","","","",""
"1407","","<div style=""width:500px;"">
  <p>How would you describe your current emotional state?</p>
  </div>","94","html-slider-response","21","302539","0.0-7.0-3.1","55","1","2025-07-30 08:47:44","36c45c0696341be0efffe67d72a12abb","84.15.221.88","Mozilla/5.0 (Windows NT 10.0; Win64; x64) AppleWebKit/537.36 (KHTML, like Gecko) Chrome/138.0.0.0 Safari/537.36","WebKit","Chrome","138.0.0.0","Windows","10.0","https://app.prolific.com/","ru-RU,ru;q=0.9,en-US;q=0.8,en;q=0.7","5c629b836e03a00001d47bdd","687a19d2168e237449fb8af4","6889db47c72472259205ee4a","0","5c629b836e03a00001d47bdd","0","2025-07-30T08:52:49.520Z","","","","StressQ","","","","","","","","","","","50","","","","","","","","","","","","","","","","","","","","","","","","","","",""
"2841","","<div style=""width:500px;"">
  <p>What best describes how you currently feel?</p>
  </div>","87","html-slider-response","22","305383","0.0-7.0-4.1","55","1","2025-07-30 08:47:44","36c45c0696341be0efffe67d72a12abb","84.15.221.88","Mozilla/5.0 (Windows NT 10.0; Win64; x64) AppleWebKit/537.36 (KHTML, like Gecko) Chrome/138.0.0.0 Safari/537.36","WebKit","Chrome","138.0.0.0","Windows","10.0","https://app.prolific.com/","ru-RU,ru;q=0.9,en-US;q=0.8,en;q=0.7","5c629b836e03a00001d47bdd","687a19d2168e237449fb8af4","6889db47c72472259205ee4a","0","5c629b836e03a00001d47bdd","0","2025-07-30T08:52:52.365Z","","","","MotivationQ","","","","","","","","","","","50","","","","","","","","","","","","","","","","","","","","","","","","","","",""
"","","","","ctl-task-cpt","23","335757","0.0-7.0-0.2","55","1","2025-07-30 08:47:44","36c45c0696341be0efffe67d72a12abb","84.15.221.88","Mozilla/5.0 (Windows NT 10.0; Win64; x64) AppleWebKit/537.36 (KHTML, like Gecko) Chrome/138.0.0.0 Safari/537.36","WebKit","Chrome","138.0.0.0","Windows","10.0","https://app.prolific.com/","ru-RU,ru;q=0.9,en-US;q=0.8,en;q=0.7","5c629b836e03a00001d47bdd","687a19d2168e237449fb8af4","6889db47c72472259205ee4a","0","5c629b836e03a00001d47bdd","0","2025-07-30T08:53:22.738Z","","","","","","","","","","","","","","","","win-only","1","g1:NE,g2:SW","0.8","3","0","308320.7","1958.1","6962.1","27350.3","1","4","4","6","1","1","1","9","8","0.06818181818181818","2033.3","3000","760","[""up"",""right""]","{""num_key_presses"":6,""num_perfect"":5,""num_errors"":0,""num_randdir"":1,""num_randdir_good_moves"":0,""num_whilered"":0,""num_whileblue"":0,""num_blue"":1,""num_good_moves"":5}","[415.3214133126395,420.32142761775424,0.5,415.3214133126395,420.32142761775424,100.6,415.3214133126395,420.32142761775424,204.1,415.3214133126395,420.32142761775424,310.2,415.3214133126395,420.32142761775424,411.5,415.3214133126395,420.32142761775424,518.6,415.3214133126395,420.32142761775424,632.2,415.3214133126395,420.32142761775424,733.9,415.3214133126395,420.32142761775424,838.5,400.3214133126395,430.32142761775424,939.4,152.8214133126395,671.5714276177542,1040,147.8214133126395,686.5714276177542,1143.9,111.5714133126395,736.5714276177542,1246.2,110.3214133126395,737.8214276177542,1351.9,110.3214133126395,737.8214276177542,1454.1,562.8214133126395,291.57142761775424,1566.1,697.8214133126395,171.57142761775424,1666.9,711.5714133126395,160.32142761775424,1768.7,761.5714133126395,121.57142761775425,1868.8,756.5714133126395,109.07142761775425,1973.2,756.5714133126395,109.07142761775425,2075.6,756.5714133126395,109.07142761775425,2182.5,756.5714133126395,109.07142761775425,2284.5,756.5714133126395,109.07142761775425,2388.4,756.5714133126395,109.07142761775425,2489.1,756.5714133126395,109.07142761775425,2599.1,756.5714133126395,109.07142761775425,2699.2,756.5714133126395,109.07142761775425,2800.1,756.5714133126395,109.07142761775425,2904.3,756.5714133126395,109.07142761775425,3017.1,756.5714133126395,109.07142761775425,3118.6,756.5714133126395,109.07142761775425,3218.6,756.5714133126395,109.07142761775425,3332.3,756.5714133126395,109.07142761775425,3433.5,756.5714133126395,109.07142761775425,3533.6,756.5714133126395,109.07142761775425,3633.6,756.5714133126395,109.07142761775425,3733.6,756.5714133126395,109.07142761775425,3833.9,756.5714133126395,109.07142761775425,3938.7,756.5714133126395,109.07142761775425,4043.5,756.5714133126395,109.07142761775425,4148,756.5714133126395,109.07142761775425,4251,756.5714133126395,109.07142761775425,4351.3,756.5714133126395,109.07142761775425,4453.8,756.5714133126395,109.07142761775425,4553.8,756.5714133126395,109.07142761775425,4653.8,756.5714133126395,106.57142761775425,4753.9,756.5714133126395,106.57142761775425,4859.1,756.5714133126395,106.57142761775425,4960.7]","[1485.8,1485.8,1000,0,485.8,""smooth"",""right"",""right"",""good_move"",4729.6,3243.5,2375.2,1486.1,868.3,""smooth"",""right"",""right"",""good_move"",7512.9,2783,2396,4729.9,387,""smooth"",""up"",""up"",""good_move"",10178.4,2665.2,2319.4,7513.2,345.8,""oops"",""up"",""down"",""bad_move"",16715.8,6537.1,2315.1,14028.3,372.4,""smooth"",""up"",""up"",""good_move"",20267.6,3551.7,3170,16715.9,381.7,""smooth"",""up"",""up"",""good_move""]"
"5223","","<div style=""width:500px;"">
  <p>What determined the result of this run?</p>
  </div>","92","html-slider-response","24","340983","0.0-7.0-1.2","55","1","2025-07-30 08:47:44","36c45c0696341be0efffe67d72a12abb","84.15.221.88","Mozilla/5.0 (Windows NT 10.0; Win64; x64) AppleWebKit/537.36 (KHTML, like Gecko) Chrome/138.0.0.0 Safari/537.36","WebKit","Chrome","138.0.0.0","Windows","10.0","https://app.prolific.com/","ru-RU,ru;q=0.9,en-US;q=0.8,en;q=0.7","5c629b836e03a00001d47bdd","687a19d2168e237449fb8af4","6889db47c72472259205ee4a","0","5c629b836e03a00001d47bdd","0","2025-07-30T08:53:27.966Z","","","","AttribQ","","","","","","","","","","","50","","","","","","","","","","","","","","","","","","","","","","","","","","",""
"3060","","<div style=""width:500px;"">
  <p>How much control did you have over the ball?</p>
  </div>","71","html-slider-response","25","344059","0.0-7.0-2.2","55","1","2025-07-30 08:47:44","36c45c0696341be0efffe67d72a12abb","84.15.221.88","Mozilla/5.0 (Windows NT 10.0; Win64; x64) AppleWebKit/537.36 (KHTML, like Gecko) Chrome/138.0.0.0 Safari/537.36","WebKit","Chrome","138.0.0.0","Windows","10.0","https://app.prolific.com/","ru-RU,ru;q=0.9,en-US;q=0.8,en;q=0.7","5c629b836e03a00001d47bdd","687a19d2168e237449fb8af4","6889db47c72472259205ee4a","0","5c629b836e03a00001d47bdd","0","2025-07-30T08:53:31.041Z","","","","ControlQ","","","","","","","","","","","50","","","","","","","","","","","","","","","","","","","","","","","","","","",""
"2421","","<div style=""width:500px;"">
  <p>How would you describe your current emotional state?</p>
  </div>","83","html-slider-response","26","346495","0.0-7.0-3.2","55","1","2025-07-30 08:47:44","36c45c0696341be0efffe67d72a12abb","84.15.221.88","Mozilla/5.0 (Windows NT 10.0; Win64; x64) AppleWebKit/537.36 (KHTML, like Gecko) Chrome/138.0.0.0 Safari/537.36","WebKit","Chrome","138.0.0.0","Windows","10.0","https://app.prolific.com/","ru-RU,ru;q=0.9,en-US;q=0.8,en;q=0.7","5c629b836e03a00001d47bdd","687a19d2168e237449fb8af4","6889db47c72472259205ee4a","0","5c629b836e03a00001d47bdd","0","2025-07-30T08:53:33.478Z","","","","StressQ","","","","","","","","","","","50","","","","","","","","","","","","","","","","","","","","","","","","","","",""
"1694","","<div style=""width:500px;"">
  <p>What best describes how you currently feel?</p>
  </div>","85","html-slider-response","27","348203","0.0-7.0-4.2","55","1","2025-07-30 08:47:44","36c45c0696341be0efffe67d72a12abb","84.15.221.88","Mozilla/5.0 (Windows NT 10.0; Win64; x64) AppleWebKit/537.36 (KHTML, like Gecko) Chrome/138.0.0.0 Safari/537.36","WebKit","Chrome","138.0.0.0","Windows","10.0","https://app.prolific.com/","ru-RU,ru;q=0.9,en-US;q=0.8,en;q=0.7","5c629b836e03a00001d47bdd","687a19d2168e237449fb8af4","6889db47c72472259205ee4a","0","5c629b836e03a00001d47bdd","0","2025-07-30T08:53:35.184Z","","","","MotivationQ","","","","","","","","","","","50","","","","","","","","","","","","","","","","","","","","","","","","","","",""
"","","","","ctl-task-cpt","28","398089","0.0-7.0-0.3","55","1","2025-07-30 08:47:44","36c45c0696341be0efffe67d72a12abb","84.15.221.88","Mozilla/5.0 (Windows NT 10.0; Win64; x64) AppleWebKit/537.36 (KHTML, like Gecko) Chrome/138.0.0.0 Safari/537.36","WebKit","Chrome","138.0.0.0","Windows","10.0","https://app.prolific.com/","ru-RU,ru;q=0.9,en-US;q=0.8,en;q=0.7","5c629b836e03a00001d47bdd","687a19d2168e237449fb8af4","6889db47c72472259205ee4a","0","5c629b836e03a00001d47bdd","0","2025-07-30T08:54:25.070Z","","","","","","","","","","","","","","","","win-only","2","g1:SE,g2:NW","0.7","4","0","351123.2","1489.5","6491.4","46855.6","1","4","8","6","2","-8","-9","0","9","0","1450.6","3000","-2305","[""left"",""up""]","{""num_key_presses"":10,""num_perfect"":6,""num_errors"":1,""num_randdir"":3,""num_randdir_good_moves"":0,""num_whilered"":0,""num_whileblue"":1,""num_blue"":4,""num_good_moves"":6}","[412.8214133126395,409.07142761775424,0.2,412.8214133126395,409.07142761775424,110.6,412.8214133126395,409.07142761775424,213.5,412.8214133126395,409.07142761775424,315.2,412.8214133126395,409.07142761775424,415.3,412.8214133126395,409.07142761775424,515.9,412.8214133126395,409.07142761775424,616.5,412.8214133126395,409.07142761775424,721.9,412.8214133126395,409.07142761775424,831.1,256.5714133126395,326.57142761775424,931.3,-53.42858668736049,82.82142761775425,1031.9,-53.42858668736049,81.57142761775425,1136,-3.428586687360493,60.32142761775425,1237,50.32141331263951,62.82142761775425,1340.9,51.57141331263951,62.82142761775425,1443.1,51.57141331263951,62.82142761775425,1543.2,51.57141331263951,62.82142761775425,1643.6,51.57141331263951,62.82142761775425,1746,86.5714133126395,124.07142761775425,1850.4,237.8214133126395,251.57142761775424,1951.1,241.5714133126395,252.82142761775424,2051.9,241.5714133126395,252.82142761775424,2165.2,241.5714133126395,252.82142761775424,2266.6,241.5714133126395,252.82142761775424,2367,241.5714133126395,252.82142761775424,2471.9,241.5714133126395,252.82142761775424,2572.7,307.8214133126395,381.57142761775424,2680.6,271.5714133126395,410.32142761775424,2782,31.571413312639507,486.57142761775424,2886.2,-108.4285866873605,511.57142761775424,2986.5,-130.9285866873605,511.57142761775424,3086.7,-128.4285866873605,506.57142761775424,3193.2,-128.4285866873605,506.57142761775424,3293.6,-128.4285866873605,506.57142761775424,3399.1,-128.4285866873605,506.57142761775424,3499.6,-128.4285866873605,506.57142761775424,3601.7,-128.4285866873605,506.57142761775424,3716.5,-128.4285866873605,506.57142761775424,3817.2,-128.4285866873605,506.57142761775424,3922,-128.4285866873605,506.57142761775424,4034.7,-128.4285866873605,506.57142761775424,4137,-128.4285866873605,506.57142761775424,4241.2,-128.4285866873605,506.57142761775424,4343.6,-128.4285866873605,506.57142761775424,4449.5,-128.4285866873605,506.57142761775424,4550.6,-128.4285866873605,506.57142761775424,4650.7,-128.4285866873605,506.57142761775424,4751.9,-128.4285866873605,506.57142761775424,4864.4,-128.4285866873605,506.57142761775424,4967.1]","[5113.6,5113.6,2718.4,2013.7,381.5,""oops"",""left"",""right"",""bad_move"",14954.6,9840.6,2387.3,12128.3,439,""oops"",""up"",""down"",""bad_move"",18187.8,3232.8,2652,14955,580.8,""smooth"",""up"",""up"",""good_move"",20477.5,2289.2,1879.1,18188.3,410.1,""smooth"",""up"",""up"",""good_move"",23234,2756.1,2374,20477.9,382.1,""smooth"",""up"",""up"",""good_move"",25882.6,2648.4,2178.4,23234.2,470,""smooth"",""up"",""up"",""good_move"",28977,3094.3,2732.3,25882.7,362,""oops"",""left"",""right"",""bad_move"",31351.1,2373.7,1976,28977.4,397.7,""smooth"",""left"",""left"",""good_move"",34086.6,2734.2,2417,31352.4,317.2,""while_blue"",""left"",""right"",""bad_move"",37513.7,3426.6,3055.3,34087.1,371.3,""smooth"",""left"",""left"",""good_move""]"
"4051","","<div style=""width:500px;"">
  <p>What determined the result of this run?</p>
  </div>","100","html-slider-response","29","402141","0.0-7.0-1.3","55","1","2025-07-30 08:47:44","36c45c0696341be0efffe67d72a12abb","84.15.221.88","Mozilla/5.0 (Windows NT 10.0; Win64; x64) AppleWebKit/537.36 (KHTML, like Gecko) Chrome/138.0.0.0 Safari/537.36","WebKit","Chrome","138.0.0.0","Windows","10.0","https://app.prolific.com/","ru-RU,ru;q=0.9,en-US;q=0.8,en;q=0.7","5c629b836e03a00001d47bdd","687a19d2168e237449fb8af4","6889db47c72472259205ee4a","0","5c629b836e03a00001d47bdd","0","2025-07-30T08:54:29.122Z","","","","AttribQ","","","","","","","","","","","50","","","","","","","","","","","","","","","","","","","","","","","","","","",""
"4383","","<div style=""width:500px;"">
  <p>How much control did you have over the ball?</p>
  </div>","33","html-slider-response","30","406528","0.0-7.0-2.3","55","1","2025-07-30 08:47:44","36c45c0696341be0efffe67d72a12abb","84.15.221.88","Mozilla/5.0 (Windows NT 10.0; Win64; x64) AppleWebKit/537.36 (KHTML, like Gecko) Chrome/138.0.0.0 Safari/537.36","WebKit","Chrome","138.0.0.0","Windows","10.0","https://app.prolific.com/","ru-RU,ru;q=0.9,en-US;q=0.8,en;q=0.7","5c629b836e03a00001d47bdd","687a19d2168e237449fb8af4","6889db47c72472259205ee4a","0","5c629b836e03a00001d47bdd","0","2025-07-30T08:54:33.516Z","","","","ControlQ","","","","","","","","","","","50","","","","","","","","","","","","","","","","","","","","","","","","","","",""
"3274","","<div style=""width:500px;"">
  <p>How would you describe your current emotional state?</p>
  </div>","10","html-slider-response","31","409819","0.0-7.0-3.3","55","1","2025-07-30 08:47:44","36c45c0696341be0efffe67d72a12abb","84.15.221.88","Mozilla/5.0 (Windows NT 10.0; Win64; x64) AppleWebKit/537.36 (KHTML, like Gecko) Chrome/138.0.0.0 Safari/537.36","WebKit","Chrome","138.0.0.0","Windows","10.0","https://app.prolific.com/","ru-RU,ru;q=0.9,en-US;q=0.8,en;q=0.7","5c629b836e03a00001d47bdd","687a19d2168e237449fb8af4","6889db47c72472259205ee4a","0","5c629b836e03a00001d47bdd","0","2025-07-30T08:54:36.800Z","","","","StressQ","","","","","","","","","","","50","","","","","","","","","","","","","","","","","","","","","","","","","","",""
"2407","","<div style=""width:500px;"">
  <p>What best describes how you currently feel?</p>
  </div>","100","html-slider-response","32","412229","0.0-7.0-4.3","55","1","2025-07-30 08:47:44","36c45c0696341be0efffe67d72a12abb","84.15.221.88","Mozilla/5.0 (Windows NT 10.0; Win64; x64) AppleWebKit/537.36 (KHTML, like Gecko) Chrome/138.0.0.0 Safari/537.36","WebKit","Chrome","138.0.0.0","Windows","10.0","https://app.prolific.com/","ru-RU,ru;q=0.9,en-US;q=0.8,en;q=0.7","5c629b836e03a00001d47bdd","687a19d2168e237449fb8af4","6889db47c72472259205ee4a","0","5c629b836e03a00001d47bdd","0","2025-07-30T08:54:39.215Z","","","","MotivationQ","","","","","","","","","","","50","","","","","","","","","","","","","","","","","","","","","","","","","","",""
"","","","","ctl-task-cpt","33","458154","0.0-7.0-0.4","55","1","2025-07-30 08:47:44","36c45c0696341be0efffe67d72a12abb","84.15.221.88","Mozilla/5.0 (Windows NT 10.0; Win64; x64) AppleWebKit/537.36 (KHTML, like Gecko) Chrome/138.0.0.0 Safari/537.36","WebKit","Chrome","138.0.0.0","Windows","10.0","https://app.prolific.com/","ru-RU,ru;q=0.9,en-US;q=0.8,en;q=0.7","5c629b836e03a00001d47bdd","687a19d2168e237449fb8af4","6889db47c72472259205ee4a","0","5c629b836e03a00001d47bdd","0","2025-07-30T08:55:25.135Z","","","","","","","","","","","","","","","","win-only","2","g1:SE,g2:NW","0.6","5","0","415170.4","1066.1","6071","42887","1","4","4","6","2","-4","-4","0","0","0","1908.7","3000","-2145","[""left"",""up""]","{""num_key_presses"":8,""num_perfect"":5,""num_errors"":0,""num_randdir"":3,""num_randdir_good_moves"":0,""num_whilered"":0,""num_whileblue"":0,""num_blue"":3,""num_good_moves"":5}","[417.8214133126395,414.07142761775424,4,417.8214133126395,414.07142761775424,106,417.8214133126395,414.07142761775424,206,417.8214133126395,414.07142761775424,307.8,417.8214133126395,414.07142761775424,409.7,417.8214133126395,414.07142761775424,517.3,417.8214133126395,414.07142761775424,619.9,417.8214133126395,414.07142761775424,722.5,417.8214133126395,414.07142761775424,824.6,417.8214133126395,414.07142761775424,925.4,417.8214133126395,414.07142761775424,1040,417.8214133126395,414.07142761775424,1140.2,417.8214133126395,414.07142761775424,1240.2,417.8214133126395,414.07142761775424,1345.2,417.8214133126395,414.07142761775424,1455.9,415.3214133126395,405.32142761775424,1557.1,116.5714133126395,146.57142761775424,1659.6,91.5714133126395,115.32142761775425,1768.2,82.8214133126395,91.57142761775425,1869.6,81.5714133126395,90.32142761775425,1971.7,81.5714133126395,90.32142761775425,2074.4,96.5714133126395,136.57142761775424,2180.4,116.5714133126395,250.32142761775424,2286.9,1.571413312639507,294.07142761775424,2390.3,-88.4285866873605,321.57142761775424,2506.4,-88.4285866873605,321.57142761775424,2607.3,-88.4285866873605,321.57142761775424,2710.4,-88.4285866873605,321.57142761775424,2823.4,-88.4285866873605,321.57142761775424,2925.4,-88.4285866873605,321.57142761775424,3029.4,-88.4285866873605,321.57142761775424,3139.8,-88.4285866873605,321.57142761775424,3244.8,-88.4285866873605,321.57142761775424,3345.3,-88.4285866873605,321.57142761775424,3455.2,-88.4285866873605,321.57142761775424,3555.2,-88.4285866873605,321.57142761775424,3655.9,-88.4285866873605,321.57142761775424,3761.8,-88.4285866873605,321.57142761775424,3869.8,-88.4285866873605,321.57142761775424,3974.7,-88.4285866873605,321.57142761775424,4074.7,-88.4285866873605,321.57142761775424,4175.8,-88.4285866873605,321.57142761775424,4289.1,-88.4285866873605,321.57142761775424,4389.7,-88.4285866873605,321.57142761775424,4505.4,-88.4285866873605,321.57142761775424,4610,-88.4285866873605,321.57142761775424,4719.2,-88.4285866873605,321.57142761775424,4821.5,-88.4285866873605,321.57142761775424,4922.3]","[1405.1,1405.1,1000,0,405.1,""smooth"",""up"",""up"",""good_move"",4865.6,3460,3087.8,1405.6,372.2,""oops"",""up"",""right"",""bad_move"",12283.8,7417.6,2896.6,8954.3,432.9,""smooth"",""up"",""up"",""good_move"",15652.9,3368.9,2648.8,12284,720.1,""smooth"",""up"",""up"",""good_move"",18564.6,2911.4,2446.5,15653.2,464.9,""oops"",""left"",""right"",""bad_move"",24797.7,6232.9,2607.9,21800.4,389.4,""smooth"",""left"",""left"",""good_move"",27930.8,3132.8,2589.1,24798,543.7,""smooth"",""left"",""left"",""good_move"",30733,2801.9,2377.4,27931.1,424.5,""oops"",""left"",""down"",""bad_move""]"
"4289","","<div style=""width:500px;"">
  <p>What determined the result of this run?</p>
  </div>","23","html-slider-response","34","462449","0.0-7.0-1.4","55","1","2025-07-30 08:47:44","36c45c0696341be0efffe67d72a12abb","84.15.221.88","Mozilla/5.0 (Windows NT 10.0; Win64; x64) AppleWebKit/537.36 (KHTML, like Gecko) Chrome/138.0.0.0 Safari/537.36","WebKit","Chrome","138.0.0.0","Windows","10.0","https://app.prolific.com/","ru-RU,ru;q=0.9,en-US;q=0.8,en;q=0.7","5c629b836e03a00001d47bdd","687a19d2168e237449fb8af4","6889db47c72472259205ee4a","0","5c629b836e03a00001d47bdd","0","2025-07-30T08:55:29.431Z","","","","AttribQ","","","","","","","","","","","50","","","","","","","","","","","","","","","","","","","","","","","","","","",""
"3309","","<div style=""width:500px;"">
  <p>How much control did you have over the ball?</p>
  </div>","29","html-slider-response","35","465765","0.0-7.0-2.4","55","1","2025-07-30 08:47:44","36c45c0696341be0efffe67d72a12abb","84.15.221.88","Mozilla/5.0 (Windows NT 10.0; Win64; x64) AppleWebKit/537.36 (KHTML, like Gecko) Chrome/138.0.0.0 Safari/537.36","WebKit","Chrome","138.0.0.0","Windows","10.0","https://app.prolific.com/","ru-RU,ru;q=0.9,en-US;q=0.8,en;q=0.7","5c629b836e03a00001d47bdd","687a19d2168e237449fb8af4","6889db47c72472259205ee4a","0","5c629b836e03a00001d47bdd","0","2025-07-30T08:55:32.747Z","","","","ControlQ","","","","","","","","","","","50","","","","","","","","","","","","","","","","","","","","","","","","","","",""
"2492","","<div style=""width:500px;"">
  <p>How would you describe your current emotional state?</p>
  </div>","15","html-slider-response","36","468258","0.0-7.0-3.4","55","1","2025-07-30 08:47:44","36c45c0696341be0efffe67d72a12abb","84.15.221.88","Mozilla/5.0 (Windows NT 10.0; Win64; x64) AppleWebKit/537.36 (KHTML, like Gecko) Chrome/138.0.0.0 Safari/537.36","WebKit","Chrome","138.0.0.0","Windows","10.0","https://app.prolific.com/","ru-RU,ru;q=0.9,en-US;q=0.8,en;q=0.7","5c629b836e03a00001d47bdd","687a19d2168e237449fb8af4","6889db47c72472259205ee4a","0","5c629b836e03a00001d47bdd","0","2025-07-30T08:55:35.239Z","","","","StressQ","","","","","","","","","","","50","","","","","","","","","","","","","","","","","","","","","","","","","","",""
"2148","","<div style=""width:500px;"">
  <p>What best describes how you currently feel?</p>
  </div>","85","html-slider-response","37","470411","0.0-7.0-4.4","55","1","2025-07-30 08:47:44","36c45c0696341be0efffe67d72a12abb","84.15.221.88","Mozilla/5.0 (Windows NT 10.0; Win64; x64) AppleWebKit/537.36 (KHTML, like Gecko) Chrome/138.0.0.0 Safari/537.36","WebKit","Chrome","138.0.0.0","Windows","10.0","https://app.prolific.com/","ru-RU,ru;q=0.9,en-US;q=0.8,en;q=0.7","5c629b836e03a00001d47bdd","687a19d2168e237449fb8af4","6889db47c72472259205ee4a","0","5c629b836e03a00001d47bdd","0","2025-07-30T08:55:37.394Z","","","","MotivationQ","","","","","","","","","","","50","","","","","","","","","","","","","","","","","","","","","","","","","","",""
"","","","","ctl-task-cpt","38","517038","0.0-7.0-0.5","55","1","2025-07-30 08:47:44","36c45c0696341be0efffe67d72a12abb","84.15.221.88","Mozilla/5.0 (Windows NT 10.0; Win64; x64) AppleWebKit/537.36 (KHTML, like Gecko) Chrome/138.0.0.0 Safari/537.36","WebKit","Chrome","138.0.0.0","Windows","10.0","https://app.prolific.com/","ru-RU,ru;q=0.9,en-US;q=0.8,en;q=0.7","5c629b836e03a00001d47bdd","687a19d2168e237449fb8af4","6889db47c72472259205ee4a","0","5c629b836e03a00001d47bdd","0","2025-07-30T08:56:24.019Z","","","","","","","","","","","","","","","","win-only","3","g1:SW,g2:NE","0.5","6","0","473342.8","1234.5","6245.6","43583.7","1","4","8","6","2","8","8","8","0","0.06060606060606061","1845.9","3000","200","[""up"",""right""]","{""num_key_presses"":10,""num_perfect"":5,""num_errors"":0,""num_randdir"":5,""num_randdir_good_moves"":3,""num_whilered"":0,""num_whileblue"":0,""num_blue"":3,""num_good_moves"":8}","[411.5714133126395,416.57142761775424,1.3,411.5714133126395,416.57142761775424,115,411.5714133126395,416.57142761775424,216.1,411.5714133126395,416.57142761775424,316.5,411.5714133126395,416.57142761775424,416.5,411.5714133126395,416.57142761775424,517,411.5714133126395,416.57142761775424,630.3,411.5714133126395,416.57142761775424,730.4,411.5714133126395,416.57142761775424,831.3,411.5714133126395,416.57142761775424,931.8,411.5714133126395,416.57142761775424,1036.1,666.5714133126395,195.32142761775424,1148.2,766.5714133126395,110.32142761775425,1262.5,771.5714133126395,100.32142761775425,1362.6,771.5714133126395,92.82142761775425,1464.9,771.5714133126395,92.82142761775425,1565.6,771.5714133126395,92.82142761775425,1666.4,771.5714133126395,92.82142761775425,1770.7,771.5714133126395,92.82142761775425,1873,771.5714133126395,92.82142761775425,1976.6,771.5714133126395,92.82142761775425,2078.3,826.5714133126395,257.82142761775424,2181.4,875.3214133126395,316.57142761775424,2283.1,875.3214133126395,316.57142761775424,2386.3,875.3214133126395,316.57142761775424,2490.6,875.3214133126395,316.57142761775424,2591.1,875.3214133126395,316.57142761775424,2691.9,875.3214133126395,365.32142761775424,2792.9,875.3214133126395,366.57142761775424,2899.8,875.3214133126395,366.57142761775424,3004.8,875.3214133126395,366.57142761775424,3112.7,875.3214133126395,367.82142761775424,3227.2,875.3214133126395,367.82142761775424,3328.4,875.3214133126395,367.82142761775424,3432.1,875.3214133126395,367.82142761775424,3532.6,875.3214133126395,367.82142761775424,3636.3,875.3214133126395,367.82142761775424,3745.7,875.3214133126395,367.82142761775424,3848.1,875.3214133126395,367.82142761775424,3948.8,875.3214133126395,367.82142761775424,4062.2,875.3214133126395,367.82142761775424,4170.6,875.3214133126395,367.82142761775424,4274,875.3214133126395,367.82142761775424,4381.5,875.3214133126395,367.82142761775424,4494.1,875.3214133126395,367.82142761775424,4600.8,875.3214133126395,367.82142761775424,4704.7,875.3214133126395,367.82142761775424,4809.1,875.3214133126395,367.82142761775424,4912.6]","[1462.7,1462.7,1000,0,462.7,""smooth"",""right"",""right"",""good_move"",4795.5,3332.4,2923.7,1463.1,408.7,""oops"",""right"",""right"",""good_move"",7531,2735.1,2315.4,4795.9,419.7,""oops"",""right"",""left"",""bad_move"",10251.5,2719.1,2336.7,7532.4,382.4,""oops"",""right"",""up"",""good_move"",15618.6,5366.7,2028.8,13232.1,357.7,""oops"",""right"",""right"",""good_move"",26428.9,10810.2,3183.8,22835.5,409.7,""smooth"",""right"",""right"",""good_move"",29862.4,3431.1,3021.6,26431.3,409.5,""smooth"",""up"",""up"",""good_move"",32558.7,2695.8,2317.9,29862.9,377.9,""oops"",""up"",""left"",""bad_move"",34564.2,2005.1,1494.2,32559.1,510.9,""smooth"",""up"",""up"",""good_move"",37214.5,2650.2,2312.7,34564.3,337.5,""smooth"",""right"",""right"",""good_move""]"
"3291","","<div style=""width:500px;"">
  <p>What determined the result of this run?</p>
  </div>","17","html-slider-response","39","520333","0.0-7.0-1.5","55","1","2025-07-30 08:47:44","36c45c0696341be0efffe67d72a12abb","84.15.221.88","Mozilla/5.0 (Windows NT 10.0; Win64; x64) AppleWebKit/537.36 (KHTML, like Gecko) Chrome/138.0.0.0 Safari/537.36","WebKit","Chrome","138.0.0.0","Windows","10.0","https://app.prolific.com/","ru-RU,ru;q=0.9,en-US;q=0.8,en;q=0.7","5c629b836e03a00001d47bdd","687a19d2168e237449fb8af4","6889db47c72472259205ee4a","0","5c629b836e03a00001d47bdd","0","2025-07-30T08:56:27.315Z","","","","AttribQ","","","","","","","","","","","50","","","","","","","","","","","","","","","","","","","","","","","","","","",""
"4006","","<div style=""width:500px;"">
  <p>How much control did you have over the ball?</p>
  </div>","30","html-slider-response","40","524362","0.0-7.0-2.5","55","1","2025-07-30 08:47:44","36c45c0696341be0efffe67d72a12abb","84.15.221.88","Mozilla/5.0 (Windows NT 10.0; Win64; x64) AppleWebKit/537.36 (KHTML, like Gecko) Chrome/138.0.0.0 Safari/537.36","WebKit","Chrome","138.0.0.0","Windows","10.0","https://app.prolific.com/","ru-RU,ru;q=0.9,en-US;q=0.8,en;q=0.7","5c629b836e03a00001d47bdd","687a19d2168e237449fb8af4","6889db47c72472259205ee4a","0","5c629b836e03a00001d47bdd","0","2025-07-30T08:56:31.345Z","","","","ControlQ","","","","","","","","","","","50","","","","","","","","","","","","","","","","","","","","","","","","","","",""
"4311","","<div style=""width:500px;"">
  <p>How would you describe your current emotional state?</p>
  </div>","11","html-slider-response","41","528684","0.0-7.0-3.5","55","1","2025-07-30 08:47:44","36c45c0696341be0efffe67d72a12abb","84.15.221.88","Mozilla/5.0 (Windows NT 10.0; Win64; x64) AppleWebKit/537.36 (KHTML, like Gecko) Chrome/138.0.0.0 Safari/537.36","WebKit","Chrome","138.0.0.0","Windows","10.0","https://app.prolific.com/","ru-RU,ru;q=0.9,en-US;q=0.8,en;q=0.7","5c629b836e03a00001d47bdd","687a19d2168e237449fb8af4","6889db47c72472259205ee4a","0","5c629b836e03a00001d47bdd","0","2025-07-30T08:56:35.666Z","","","","StressQ","","","","","","","","","","","50","","","","","","","","","","","","","","","","","","","","","","","","","","",""
"2872","","<div style=""width:500px;"">
  <p>What best describes how you currently feel?</p>
  </div>","90","html-slider-response","42","531580","0.0-7.0-4.5","55","1","2025-07-30 08:47:44","36c45c0696341be0efffe67d72a12abb","84.15.221.88","Mozilla/5.0 (Windows NT 10.0; Win64; x64) AppleWebKit/537.36 (KHTML, like Gecko) Chrome/138.0.0.0 Safari/537.36","WebKit","Chrome","138.0.0.0","Windows","10.0","https://app.prolific.com/","ru-RU,ru;q=0.9,en-US;q=0.8,en;q=0.7","5c629b836e03a00001d47bdd","687a19d2168e237449fb8af4","6889db47c72472259205ee4a","0","5c629b836e03a00001d47bdd","0","2025-07-30T08:56:38.562Z","","","","MotivationQ","","","","","","","","","","","50","","","","","","","","","","","","","","","","","","","","","","","","","","",""
"","","","","ctl-task-cpt","43","588878","0.0-7.0-0.6","55","1","2025-07-30 08:47:44","36c45c0696341be0efffe67d72a12abb","84.15.221.88","Mozilla/5.0 (Windows NT 10.0; Win64; x64) AppleWebKit/537.36 (KHTML, like Gecko) Chrome/138.0.0.0 Safari/537.36","WebKit","Chrome","138.0.0.0","Windows","10.0","https://app.prolific.com/","ru-RU,ru;q=0.9,en-US;q=0.8,en;q=0.7","5c629b836e03a00001d47bdd","687a19d2168e237449fb8af4","6889db47c72472259205ee4a","0","5c629b836e03a00001d47bdd","0","2025-07-30T08:57:35.859Z","","","","","","","","","","","","","","","","win-only","3","g1:SW,g2:NE","0.4","7","0","534516.4","2320.1","7324.2","54263.5","1","4","8","6","2","8","8","16","8","0.12121212121212122","1488.2","3000","640","[""up"",""right""]","{""num_key_presses"":10,""num_perfect"":4,""num_errors"":0,""num_randdir"":6,""num_randdir_good_moves"":4,""num_whilered"":0,""num_whileblue"":0,""num_blue"":6,""num_good_moves"":8}","[420.3214133126395,414.07142761775424,0.3,420.3214133126395,414.07142761775424,106.6,420.3214133126395,414.07142761775424,208.5,420.3214133126395,414.07142761775424,311.5,420.3214133126395,414.07142761775424,421.6,420.3214133126395,414.07142761775424,522.2,420.3214133126395,414.07142761775424,625,420.3214133126395,414.07142761775424,734.8,589.0714133126395,291.57142761775424,842,696.5714133126395,162.82142761775424,959.2,740.3214133126395,131.57142761775424,1064.9,741.5714133126395,124.07142761775425,1165.2,741.5714133126395,110.32142761775425,1268.2,741.5714133126395,106.57142761775425,1379,741.5714133126395,106.57142761775425,1480.2,741.5714133126395,106.57142761775425,1583.1,741.5714133126395,106.57142761775425,1686.7,741.5714133126395,106.57142761775425,1800.8,725.3214133126395,159.07142761775424,1909.2,640.3214133126395,524.0714276177542,2010.9,640.3214133126395,525.3214276177542,2114.7,640.3214133126395,525.3214276177542,2214.8,621.5714133126395,537.8214276177542,2317.7,617.8214133126395,541.5714276177542,2423.4,617.8214133126395,541.5714276177542,2528.8,617.8214133126395,541.5714276177542,2642,617.8214133126395,541.5714276177542,2755.9,860.3214133126395,457.82142761775424,2870.6,1065.3214133126396,410.32142761775424,2971.6,1065.3214133126396,410.32142761775424,3085.2,1065.3214133126396,410.32142761775424,3185.5,1065.3214133126396,410.32142761775424,3289.4,1065.3214133126396,410.32142761775424,3403.3,1065.3214133126396,410.32142761775424,3505.4,1065.3214133126396,410.32142761775424,3615.6,1065.3214133126396,410.32142761775424,3715.8,1065.3214133126396,410.32142761775424,3819.2,1065.3214133126396,410.32142761775424,3921.4,1065.3214133126396,410.32142761775424,4024.5,1065.3214133126396,410.32142761775424,4132.6,1065.3214133126396,410.32142761775424,4233.4,1065.3214133126396,410.32142761775424,4342.5,1065.3214133126396,410.32142761775424,4443.5,1065.3214133126396,410.32142761775424,4546.9,1065.3214133126396,410.32142761775424,4650.8,1065.3214133126396,410.32142761775424,4752.8,1065.3214133126396,410.32142761775424,4861,1065.3214133126396,410.32142761775424,4968.5]","[1406.5,1406.5,1000,0,406.5,""oops"",""right"",""up"",""good_move"",6888.2,5481,1996.3,4499.3,392.6,""oops"",""right"",""up"",""good_move"",20076.4,13188.1,2286.9,17387.8,401.8,""smooth"",""right"",""right"",""good_move"",26909.9,6833.1,2796.7,23712.2,401,""oops"",""right"",""up"",""good_move"",32480,5569.8,2002,30132.5,345.5,""oops"",""right"",""left"",""bad_move"",35658.4,3178,2758.3,32480.4,419.7,""oops"",""right"",""right"",""good_move"",38062.7,2403,1997.9,35659.7,405.1,""smooth"",""right"",""right"",""good_move"",40433.5,2370.4,2002.2,38063.1,368.2,""oops"",""right"",""down"",""bad_move"",43782.4,3348.2,3006.1,40434.2,342.1,""smooth"",""right"",""right"",""good_move"",46795.6,3012.8,2644.9,43782.9,367.8,""smooth"",""up"",""up"",""good_move""]"
"25051","","<div style=""width:500px;"">
  <p>What determined the result of this run?</p>
  </div>","0","html-slider-response","44","613942","0.0-7.0-1.6","55","1","2025-07-30 08:47:44","36c45c0696341be0efffe67d72a12abb","84.15.221.88","Mozilla/5.0 (Windows NT 10.0; Win64; x64) AppleWebKit/537.36 (KHTML, like Gecko) Chrome/138.0.0.0 Safari/537.36","WebKit","Chrome","138.0.0.0","Windows","10.0","https://app.prolific.com/","ru-RU,ru;q=0.9,en-US;q=0.8,en;q=0.7","5c629b836e03a00001d47bdd","687a19d2168e237449fb8af4","6889db47c72472259205ee4a","0","5c629b836e03a00001d47bdd","0","2025-07-30T08:58:00.924Z","","","","AttribQ","","","","","","","","","","","50","","","","","","","","","","","","","","","","","","","","","","","","","","",""
"9081","","<div style=""width:500px;"">
  <p>How much control did you have over the ball?</p>
  </div>","50","html-slider-response","45","623043","0.0-7.0-2.6","55","1","2025-07-30 08:47:44","36c45c0696341be0efffe67d72a12abb","84.15.221.88","Mozilla/5.0 (Windows NT 10.0; Win64; x64) AppleWebKit/537.36 (KHTML, like Gecko) Chrome/138.0.0.0 Safari/537.36","WebKit","Chrome","138.0.0.0","Windows","10.0","https://app.prolific.com/","ru-RU,ru;q=0.9,en-US;q=0.8,en;q=0.7","5c629b836e03a00001d47bdd","687a19d2168e237449fb8af4","6889db47c72472259205ee4a","0","5c629b836e03a00001d47bdd","0","2025-07-30T08:58:10.024Z","","","","ControlQ","","","","","","","","","","","50","","","","","","","","","","","","","","","","","","","","","","","","","","",""
"1311","","<div style=""width:500px;"">
  <p>How would you describe your current emotional state?</p>
  </div>","50","html-slider-response","46","624356","0.0-7.0-3.6","55","1","2025-07-30 08:47:44","36c45c0696341be0efffe67d72a12abb","84.15.221.88","Mozilla/5.0 (Windows NT 10.0; Win64; x64) AppleWebKit/537.36 (KHTML, like Gecko) Chrome/138.0.0.0 Safari/537.36","WebKit","Chrome","138.0.0.0","Windows","10.0","https://app.prolific.com/","ru-RU,ru;q=0.9,en-US;q=0.8,en;q=0.7","5c629b836e03a00001d47bdd","687a19d2168e237449fb8af4","6889db47c72472259205ee4a","0","5c629b836e03a00001d47bdd","0","2025-07-30T08:58:11.337Z","","","","StressQ","","","","","","","","","","","50","","","","","","","","","","","","","","","","","","","","","","","","","","",""
"1031","","<div style=""width:500px;"">
  <p>What best describes how you currently feel?</p>
  </div>","50","html-slider-response","47","625387","0.0-7.0-4.6","55","1","2025-07-30 08:47:44","36c45c0696341be0efffe67d72a12abb","84.15.221.88","Mozilla/5.0 (Windows NT 10.0; Win64; x64) AppleWebKit/537.36 (KHTML, like Gecko) Chrome/138.0.0.0 Safari/537.36","WebKit","Chrome","138.0.0.0","Windows","10.0","https://app.prolific.com/","ru-RU,ru;q=0.9,en-US;q=0.8,en;q=0.7","5c629b836e03a00001d47bdd","687a19d2168e237449fb8af4","6889db47c72472259205ee4a","0","5c629b836e03a00001d47bdd","0","2025-07-30T08:58:12.369Z","","","","MotivationQ","","","","","","","","","","","50","","","","","","","","","","","","","","","","","","","","","","","","","","",""
"","","","","ctl-task-cpt","48","648371","0.0-7.0-0.7","55","1","2025-07-30 08:47:44","36c45c0696341be0efffe67d72a12abb","84.15.221.88","Mozilla/5.0 (Windows NT 10.0; Win64; x64) AppleWebKit/537.36 (KHTML, like Gecko) Chrome/138.0.0.0 Safari/537.36","WebKit","Chrome","138.0.0.0","Windows","10.0","https://app.prolific.com/","ru-RU,ru;q=0.9,en-US;q=0.8,en;q=0.7","5c629b836e03a00001d47bdd","687a19d2168e237449fb8af4","6889db47c72472259205ee4a","0","5c629b836e03a00001d47bdd","0","2025-07-30T08:58:35.352Z","","","","","","","","","","","","","","","","win-only","1","g1:NE,g2:SW","0.3","8","0","628308","838.9","5841.6","19957.9","1","4","4","6","1","1","1","17","16","0.12878787878787878","2065.8","3000","2140","[""up"",""right""]","{""num_key_presses"":4,""num_perfect"":1,""num_errors"":0,""num_randdir"":3,""num_randdir_good_moves"":3,""num_whilered"":0,""num_whileblue"":0,""num_blue"":1,""num_good_moves"":4}","[411.5714133126395,421.57142761775424,0.6,411.5714133126395,421.57142761775424,104.5,411.5714133126395,421.57142761775424,211.2,411.5714133126395,421.57142761775424,315.3,411.5714133126395,421.57142761775424,420.9,411.5714133126395,424.07142761775424,521.4,410.3214133126395,446.57142761775424,632.4,476.5714133126395,386.57142761775424,736.1,506.5714133126395,366.57142761775424,844.5,647.8214133126395,170.32142761775424,948.3,675.3214133126395,136.57142761775424,1054.6,685.3214133126395,129.07142761775424,1157.5,749.0714133126395,111.57142761775425,1265.5,749.0714133126395,110.32142761775425,1366.4,726.5714133126395,112.82142761775425,1474.5,641.5714133126395,207.82142761775424,1575.3,629.0714133126395,244.07142761775424,1677.7,626.5714133126395,255.32142761775424,1782.4,782.8214133126395,104.07142761775425,1883.8,785.3214133126395,91.57142761775425,1990,785.3214133126395,91.57142761775425,2094,785.3214133126395,91.57142761775425,2195.4,785.3214133126395,91.57142761775425,2297.8,696.5714133126395,236.57142761775424,2398,696.5714133126395,236.57142761775424,2501.2,684.0714133126395,240.32142761775424,2602.6,642.8214133126395,291.57142761775424,2702.6,641.5714133126395,290.32142761775424,2810.6,641.5714133126395,290.32142761775424,2917.2,641.5714133126395,290.32142761775424,3022.2,631.5714133126395,290.32142761775424,3125.7,629.0714133126395,290.32142761775424,3234,627.8214133126395,290.32142761775424,3341.1,627.8214133126395,290.32142761775424,3448.3,597.8214133126395,295.32142761775424,3550.5,597.8214133126395,295.32142761775424,3653.6,597.8214133126395,295.32142761775424,3763.2,597.8214133126395,295.32142761775424,3864.7,617.8214133126395,292.82142761775424,3967.7,632.8214133126395,322.82142761775424,4067.9,632.8214133126395,322.82142761775424,4168.7,632.8214133126395,322.82142761775424,4276.8,632.8214133126395,322.82142761775424,4385.7,632.8214133126395,322.82142761775424,4487.5,632.8214133126395,322.82142761775424,4593.1,632.8214133126395,322.82142761775424,4702.7,632.8214133126395,322.82142761775424,4813.9,632.8214133126395,322.82142761775424,4915.6]","[1430.5,1430.5,1000,0,430.5,""oops"",""right"",""right"",""good_move"",7512.1,6081.2,2833.3,4283.4,395.5,""oops"",""right"",""right"",""good_move"",10954.8,3442.5,2992.9,7512.3,449.6,""smooth"",""up"",""up"",""good_move"",13933.7,2978.6,2584,10955.1,394.6,""oops"",""up"",""up"",""good_move""]"
"3577","","<div style=""width:500px;"">
  <p>What determined the result of this run?</p>
  </div>","68","html-slider-response","49","651948","0.0-7.0-1.7","55","1","2025-07-30 08:47:44","36c45c0696341be0efffe67d72a12abb","84.15.221.88","Mozilla/5.0 (Windows NT 10.0; Win64; x64) AppleWebKit/537.36 (KHTML, like Gecko) Chrome/138.0.0.0 Safari/537.36","WebKit","Chrome","138.0.0.0","Windows","10.0","https://app.prolific.com/","ru-RU,ru;q=0.9,en-US;q=0.8,en;q=0.7","5c629b836e03a00001d47bdd","687a19d2168e237449fb8af4","6889db47c72472259205ee4a","0","5c629b836e03a00001d47bdd","0","2025-07-30T08:58:38.930Z","","","","AttribQ","","","","","","","","","","","50","","","","","","","","","","","","","","","","","","","","","","","","","","",""
"4469","","<div style=""width:500px;"">
  <p>How much control did you have over the ball?</p>
  </div>","64","html-slider-response","50","656419","0.0-7.0-2.7","55","1","2025-07-30 08:47:44","36c45c0696341be0efffe67d72a12abb","84.15.221.88","Mozilla/5.0 (Windows NT 10.0; Win64; x64) AppleWebKit/537.36 (KHTML, like Gecko) Chrome/138.0.0.0 Safari/537.36","WebKit","Chrome","138.0.0.0","Windows","10.0","https://app.prolific.com/","ru-RU,ru;q=0.9,en-US;q=0.8,en;q=0.7","5c629b836e03a00001d47bdd","687a19d2168e237449fb8af4","6889db47c72472259205ee4a","0","5c629b836e03a00001d47bdd","0","2025-07-30T08:58:43.400Z","","","","ControlQ","","","","","","","","","","","50","","","","","","","","","","","","","","","","","","","","","","","","","","",""
"2399","","<div style=""width:500px;"">
  <p>How would you describe your current emotional state?</p>
  </div>","24","html-slider-response","51","658820","0.0-7.0-3.7","55","1","2025-07-30 08:47:44","36c45c0696341be0efffe67d72a12abb","84.15.221.88","Mozilla/5.0 (Windows NT 10.0; Win64; x64) AppleWebKit/537.36 (KHTML, like Gecko) Chrome/138.0.0.0 Safari/537.36","WebKit","Chrome","138.0.0.0","Windows","10.0","https://app.prolific.com/","ru-RU,ru;q=0.9,en-US;q=0.8,en;q=0.7","5c629b836e03a00001d47bdd","687a19d2168e237449fb8af4","6889db47c72472259205ee4a","0","5c629b836e03a00001d47bdd","0","2025-07-30T08:58:45.801Z","","","","StressQ","","","","","","","","","","","50","","","","","","","","","","","","","","","","","","","","","","","","","","",""
"2934","","<div style=""width:500px;"">
  <p>What best describes how you currently feel?</p>
  </div>","87","html-slider-response","52","661756","0.0-7.0-4.7","55","1","2025-07-30 08:47:44","36c45c0696341be0efffe67d72a12abb","84.15.221.88","Mozilla/5.0 (Windows NT 10.0; Win64; x64) AppleWebKit/537.36 (KHTML, like Gecko) Chrome/138.0.0.0 Safari/537.36","WebKit","Chrome","138.0.0.0","Windows","10.0","https://app.prolific.com/","ru-RU,ru;q=0.9,en-US;q=0.8,en;q=0.7","5c629b836e03a00001d47bdd","687a19d2168e237449fb8af4","6889db47c72472259205ee4a","0","5c629b836e03a00001d47bdd","0","2025-07-30T08:58:48.737Z","","","","MotivationQ","","","","","","","","","","","50","","","","","","","","","","","","","","","","","","","","","","","","","","",""
"","","","","ctl-task-cpt","53","757955","0.0-7.0-0.8","55","1","2025-07-30 08:47:44","36c45c0696341be0efffe67d72a12abb","84.15.221.88","Mozilla/5.0 (Windows NT 10.0; Win64; x64) AppleWebKit/537.36 (KHTML, like Gecko) Chrome/138.0.0.0 Safari/537.36","WebKit","Chrome","138.0.0.0","Windows","10.0","https://app.prolific.com/","ru-RU,ru;q=0.9,en-US;q=0.8,en;q=0.7","5c629b836e03a00001d47bdd","687a19d2168e237449fb8af4","6889db47c72472259205ee4a","0","5c629b836e03a00001d47bdd","0","2025-07-30T09:00:24.936Z","","","","","","","","","","","","","","","","win-only","3","g1:SW,g2:NE","0.4","9","0","664676.5","1446.9","6447.2","93171.4","1","4","4","6","2","-4","-4","13","17","0.09848484848484848","1866","3000","-1725","[""up"",""right""]","{""num_key_presses"":18,""num_perfect"":7,""num_errors"":0,""num_randdir"":11,""num_randdir_good_moves"":4,""num_whilered"":0,""num_whileblue"":0,""num_blue"":7,""num_good_moves"":11}","[420.3214133126395,412.82142761775424,0.1,420.3214133126395,412.82142761775424,105.8,420.3214133126395,412.82142761775424,206.6,420.3214133126395,412.82142761775424,313.2,420.3214133126395,412.82142761775424,431.2,420.3214133126395,412.82142761775424,533.9,420.3214133126395,412.82142761775424,635.7,420.3214133126395,412.82142761775424,737.8,420.3214133126395,412.82142761775424,841.1,544.0714133126395,186.57142761775424,948.2,557.8214133126395,157.82142761775424,1066.5,594.0714133126395,157.82142761775424,1173.2,706.5714133126395,121.57142761775425,1280.6,706.5714133126395,117.82142761775425,1383.2,711.5714133126395,115.32142761775425,1487.1,721.5714133126395,110.32142761775425,1592.8,721.5714133126395,110.32142761775425,1699,721.5714133126395,110.32142761775425,1801.3,721.5714133126395,110.32142761775425,1914.6,721.5714133126395,110.32142761775425,2021.7,706.5714133126395,216.57142761775424,2130.1,652.8214133126395,386.57142761775424,2237.3,651.5714133126395,392.82142761775424,2345.5,651.5714133126395,392.82142761775424,2452.3,651.5714133126395,392.82142761775424,2557.8,651.5714133126395,392.82142761775424,2665.3,651.5714133126395,392.82142761775424,2775.9,651.5714133126395,392.82142761775424,2877.6,651.5714133126395,392.82142761775424,2982.2,651.5714133126395,392.82142761775424,3090.9,651.5714133126395,392.82142761775424,3197,651.5714133126395,392.82142761775424,3302.7,651.5714133126395,392.82142761775424,3408.2,651.5714133126395,392.82142761775424,3512.8,651.5714133126395,392.82142761775424,3618.7,651.5714133126395,392.82142761775424,3722.9,651.5714133126395,392.82142761775424,3828.5,651.5714133126395,392.82142761775424,3929.5,651.5714133126395,392.82142761775424,4050.7,651.5714133126395,392.82142761775424,4158.5,651.5714133126395,392.82142761775424,4261.5,651.5714133126395,392.82142761775424,4366.6,651.5714133126395,392.82142761775424,4469.7,646.5714133126395,411.57142761775424,4578.9,645.3214133126395,406.57142761775424,4683.9,646.5714133126395,404.07142761775424,4788.8,646.5714133126395,404.07142761775424,4890.9]","[1468,1468,1000,0,468,""smooth"",""right"",""right"",""good_move"",4636.1,3167.7,2596.8,1468.4,570.9,""smooth"",""right"",""right"",""good_move"",7314.4,2678.1,2252.4,4636.3,425.7,""smooth"",""right"",""right"",""good_move"",10156.8,2842.2,2411.3,7314.6,430.9,""oops"",""up"",""down"",""bad_move"",13385.5,3228.5,2808.3,10157.1,420.1,""oops"",""up"",""down"",""bad_move"",27778.7,14393,3065.2,24248.4,465.1,""oops"",""up"",""left"",""bad_move"",32138.6,4359.6,2632.1,27779,1727.5,""smooth"",""up"",""up"",""good_move"",41626.5,9487.6,2603.4,38428.9,594.2,""oops"",""right"",""down"",""bad_move"",48409.7,6783.1,2663.1,45317.5,429.1,""oops"",""right"",""right"",""good_move"",51446.9,3036.6,2591.4,48410.3,445.2,""oops"",""up"",""up"",""good_move"",58113.8,6666.8,2689,55008.7,416.1,""smooth"",""up"",""up"",""good_move"",60623,2508.7,2076.9,58114.3,431.8,""smooth"",""up"",""up"",""good_move"",67382.4,6758.9,2457.6,64518.5,406.3,""smooth"",""up"",""up"",""good_move"",70842.3,3459.8,3040.5,67382.5,419.3,""oops"",""up"",""down"",""bad_move"",73900.4,3057.8,2658.1,70842.6,399.7,""oops"",""up"",""left"",""bad_move"",77352.3,3451.5,3055.5,73900.8,396,""oops"",""right"",""up"",""good_move"",80352.4,2999.8,2592.3,77352.6,407.5,""oops"",""right"",""up"",""good_move"",84092.2,3738.8,3347.9,80353.4,390.9,""oops"",""right"",""down"",""bad_move""]"
"3695","","<div style=""width:500px;"">
  <p>What determined the result of this run?</p>
  </div>","6","html-slider-response","54","761651","0.0-7.0-1.8","55","1","2025-07-30 08:47:44","36c45c0696341be0efffe67d72a12abb","84.15.221.88","Mozilla/5.0 (Windows NT 10.0; Win64; x64) AppleWebKit/537.36 (KHTML, like Gecko) Chrome/138.0.0.0 Safari/537.36","WebKit","Chrome","138.0.0.0","Windows","10.0","https://app.prolific.com/","ru-RU,ru;q=0.9,en-US;q=0.8,en;q=0.7","5c629b836e03a00001d47bdd","687a19d2168e237449fb8af4","6889db47c72472259205ee4a","0","5c629b836e03a00001d47bdd","0","2025-07-30T09:00:28.632Z","","","","AttribQ","","","","","","","","","","","50","","","","","","","","","","","","","","","","","","","","","","","","","","",""
"4727","","<div style=""width:500px;"">
  <p>How much control did you have over the ball?</p>
  </div>","1","html-slider-response","55","766379","0.0-7.0-2.8","55","1","2025-07-30 08:47:44","36c45c0696341be0efffe67d72a12abb","84.15.221.88","Mozilla/5.0 (Windows NT 10.0; Win64; x64) AppleWebKit/537.36 (KHTML, like Gecko) Chrome/138.0.0.0 Safari/537.36","WebKit","Chrome","138.0.0.0","Windows","10.0","https://app.prolific.com/","ru-RU,ru;q=0.9,en-US;q=0.8,en;q=0.7","5c629b836e03a00001d47bdd","687a19d2168e237449fb8af4","6889db47c72472259205ee4a","0","5c629b836e03a00001d47bdd","0","2025-07-30T09:00:33.360Z","","","","ControlQ","","","","","","","","","","","50","","","","","","","","","","","","","","","","","","","","","","","","","","",""
"1711","","<div style=""width:500px;"">
  <p>How would you describe your current emotional state?</p>
  </div>","10","html-slider-response","56","768091","0.0-7.0-3.8","55","1","2025-07-30 08:47:44","36c45c0696341be0efffe67d72a12abb","84.15.221.88","Mozilla/5.0 (Windows NT 10.0; Win64; x64) AppleWebKit/537.36 (KHTML, like Gecko) Chrome/138.0.0.0 Safari/537.36","WebKit","Chrome","138.0.0.0","Windows","10.0","https://app.prolific.com/","ru-RU,ru;q=0.9,en-US;q=0.8,en;q=0.7","5c629b836e03a00001d47bdd","687a19d2168e237449fb8af4","6889db47c72472259205ee4a","0","5c629b836e03a00001d47bdd","0","2025-07-30T09:00:35.072Z","","","","StressQ","","","","","","","","","","","50","","","","","","","","","","","","","","","","","","","","","","","","","","",""
"3679","","<div style=""width:500px;"">
  <p>What best describes how you currently feel?</p>
  </div>","81","html-slider-response","57","771772","0.0-7.0-4.8","55","1","2025-07-30 08:47:44","36c45c0696341be0efffe67d72a12abb","84.15.221.88","Mozilla/5.0 (Windows NT 10.0; Win64; x64) AppleWebKit/537.36 (KHTML, like Gecko) Chrome/138.0.0.0 Safari/537.36","WebKit","Chrome","138.0.0.0","Windows","10.0","https://app.prolific.com/","ru-RU,ru;q=0.9,en-US;q=0.8,en;q=0.7","5c629b836e03a00001d47bdd","687a19d2168e237449fb8af4","6889db47c72472259205ee4a","0","5c629b836e03a00001d47bdd","0","2025-07-30T09:00:38.753Z","","","","MotivationQ","","","","","","","","","","","50","","","","","","","","","","","","","","","","","","","","","","","","","","",""
"","","","","ctl-task-cpt","58","839444","0.0-7.0-0.9","55","1","2025-07-30 08:47:44","36c45c0696341be0efffe67d72a12abb","84.15.221.88","Mozilla/5.0 (Windows NT 10.0; Win64; x64) AppleWebKit/537.36 (KHTML, like Gecko) Chrome/138.0.0.0 Safari/537.36","WebKit","Chrome","138.0.0.0","Windows","10.0","https://app.prolific.com/","ru-RU,ru;q=0.9,en-US;q=0.8,en;q=0.7","5c629b836e03a00001d47bdd","687a19d2168e237449fb8af4","6889db47c72472259205ee4a","0","5c629b836e03a00001d47bdd","0","2025-07-30T09:01:46.425Z","","","","","","","","","","","","","","","","win-only","1","g1:NE,g2:SW","0.5","10","0","774692.4","3462.5","8478.2","64646.6","1","4","8","6","2","-8","-8","5","13","0.03787878787878788","1240.3","3000","-1420","[""down"",""left""]","{""num_key_presses"":17,""num_perfect"":8,""num_errors"":0,""num_randdir"":9,""num_randdir_good_moves"":3,""num_whilered"":0,""num_whileblue"":0,""num_blue"":2,""num_good_moves"":11}","[416.5714133126395,416.57142761775424,0.1,416.5714133126395,416.57142761775424,110.9,416.5714133126395,416.57142761775424,217.3,416.5714133126395,416.57142761775424,317.7,416.5714133126395,416.57142761775424,428.3,416.5714133126395,416.57142761775424,532.9,416.5714133126395,416.57142761775424,641.6,400.3214133126395,434.07142761775424,752.9,185.3214133126395,576.5714276177542,866.7,95.3214133126395,641.5714276177542,977.1,46.57141331263951,719.0714276177542,1077.7,45.32141331263951,737.8214276177542,1186.2,45.32141331263951,737.8214276177542,1295.5,45.32141331263951,737.8214276177542,1399.8,45.32141331263951,737.8214276177542,1501.7,45.32141331263951,737.8214276177542,1608,45.32141331263951,737.8214276177542,1708.7,45.32141331263951,737.8214276177542,1820.5,45.32141331263951,737.8214276177542,1933.9,45.32141331263951,737.8214276177542,2034.6,45.32141331263951,737.8214276177542,2144.5,45.32141331263951,737.8214276177542,2253,45.32141331263951,737.8214276177542,2361.9,46.57141331263951,736.5714276177542,2466.9,46.57141331263951,736.5714276177542,2568.9,50.32141331263951,736.5714276177542,2687.9,50.32141331263951,736.5714276177542,2791.4,50.32141331263951,736.5714276177542,2899.1,50.32141331263951,736.5714276177542,3009.2,50.32141331263951,736.5714276177542,3120.6,50.32141331263951,736.5714276177542,3222.1,50.32141331263951,736.5714276177542,3326.4,50.32141331263951,736.5714276177542,3429.4,50.32141331263951,736.5714276177542,3531.2,50.32141331263951,736.5714276177542,3637.6,50.32141331263951,736.5714276177542,3742.5,50.32141331263951,736.5714276177542,3849.1,50.32141331263951,736.5714276177542,3956.2,50.32141331263951,736.5714276177542,4067.7,50.32141331263951,736.5714276177542,4172.8,50.32141331263951,736.5714276177542,4279.1,50.32141331263951,736.5714276177542,4383,50.32141331263951,736.5714276177542,4486.4,50.32141331263951,736.5714276177542,4590,50.32141331263951,736.5714276177542,4702.8,50.32141331263951,736.5714276177542,4816.4,50.32141331263951,736.5714276177542,4923.3]","[1453.4,1453.4,1000,0,453.4,""smooth"",""left"",""left"",""good_move"",4601,3147.4,2736.8,1453.6,410.6,""oops"",""left"",""up"",""bad_move"",7216.9,2615.6,2185.8,4601.3,429.8,""smooth"",""left"",""left"",""good_move"",9680.5,2463.3,1582,7217.2,881.3,""smooth"",""left"",""left"",""good_move"",12009.3,2328.3,1924.7,9681,403.6,""oops"",""down"",""up"",""bad_move"",14168.5,2158.9,1485.7,12009.6,673.2,""oops"",""down"",""right"",""bad_move"",17874.4,3705.4,3169.4,14169,536,""smooth"",""down"",""down"",""good_move"",20658.7,2784,2413.1,17874.7,370.9,""oops"",""left"",""right"",""bad_move"",23690.4,3031.3,2701.1,20659.1,330.2,""smooth"",""left"",""left"",""good_move"",30204.3,6513.4,2801.9,26908.4,494,""oops"",""left"",""left"",""good_move"",32991.5,2786.4,2050.7,30205.1,735.7,""smooth"",""down"",""down"",""good_move"",36243.5,3251.7,2838.4,32991.8,413.3,""oops"",""down"",""down"",""good_move"",38870.5,2626.8,2234.3,36243.7,392.6,""oops"",""down"",""up"",""bad_move"",44543.4,5670.8,1861.1,42227.5,454.8,""smooth"",""down"",""down"",""good_move"",47507.1,2963.3,2369.8,44543.8,593.5,""oops"",""down"",""right"",""bad_move"",50558.7,3051.2,2653,47507.5,398.2,""smooth"",""left"",""left"",""good_move"",53650.2,3091.2,2694.1,50559,397.1,""oops"",""down"",""down"",""good_move""]"
"11510","","<div style=""width:500px;"">
  <p>What determined the result of this run?</p>
  </div>","11","html-slider-response","59","850956","0.0-7.0-1.9","55","1","2025-07-30 08:47:44","36c45c0696341be0efffe67d72a12abb","84.15.221.88","Mozilla/5.0 (Windows NT 10.0; Win64; x64) AppleWebKit/537.36 (KHTML, like Gecko) Chrome/138.0.0.0 Safari/537.36","WebKit","Chrome","138.0.0.0","Windows","10.0","https://app.prolific.com/","ru-RU,ru;q=0.9,en-US;q=0.8,en;q=0.7","5c629b836e03a00001d47bdd","687a19d2168e237449fb8af4","6889db47c72472259205ee4a","0","5c629b836e03a00001d47bdd","0","2025-07-30T09:01:57.937Z","","","","AttribQ","","","","","","","","","","","50","","","","","","","","","","","","","","","","","","","","","","","","","","",""
"3677","","<div style=""width:500px;"">
  <p>How much control did you have over the ball?</p>
  </div>","21","html-slider-response","60","854635","0.0-7.0-2.9","55","1","2025-07-30 08:47:44","36c45c0696341be0efffe67d72a12abb","84.15.221.88","Mozilla/5.0 (Windows NT 10.0; Win64; x64) AppleWebKit/537.36 (KHTML, like Gecko) Chrome/138.0.0.0 Safari/537.36","WebKit","Chrome","138.0.0.0","Windows","10.0","https://app.prolific.com/","ru-RU,ru;q=0.9,en-US;q=0.8,en;q=0.7","5c629b836e03a00001d47bdd","687a19d2168e237449fb8af4","6889db47c72472259205ee4a","0","5c629b836e03a00001d47bdd","0","2025-07-30T09:02:01.616Z","","","","ControlQ","","","","","","","","","","","50","","","","","","","","","","","","","","","","","","","","","","","","","","",""
"2351","","<div style=""width:500px;"">
  <p>How would you describe your current emotional state?</p>
  </div>","29","html-slider-response","61","856988","0.0-7.0-3.9","55","1","2025-07-30 08:47:44","36c45c0696341be0efffe67d72a12abb","84.15.221.88","Mozilla/5.0 (Windows NT 10.0; Win64; x64) AppleWebKit/537.36 (KHTML, like Gecko) Chrome/138.0.0.0 Safari/537.36","WebKit","Chrome","138.0.0.0","Windows","10.0","https://app.prolific.com/","ru-RU,ru;q=0.9,en-US;q=0.8,en;q=0.7","5c629b836e03a00001d47bdd","687a19d2168e237449fb8af4","6889db47c72472259205ee4a","0","5c629b836e03a00001d47bdd","0","2025-07-30T09:02:03.969Z","","","","StressQ","","","","","","","","","","","50","","","","","","","","","","","","","","","","","","","","","","","","","","",""
"1724","","<div style=""width:500px;"">
  <p>What best describes how you currently feel?</p>
  </div>","80","html-slider-response","62","858714","0.0-7.0-4.9","55","1","2025-07-30 08:47:44","36c45c0696341be0efffe67d72a12abb","84.15.221.88","Mozilla/5.0 (Windows NT 10.0; Win64; x64) AppleWebKit/537.36 (KHTML, like Gecko) Chrome/138.0.0.0 Safari/537.36","WebKit","Chrome","138.0.0.0","Windows","10.0","https://app.prolific.com/","ru-RU,ru;q=0.9,en-US;q=0.8,en;q=0.7","5c629b836e03a00001d47bdd","687a19d2168e237449fb8af4","6889db47c72472259205ee4a","0","5c629b836e03a00001d47bdd","0","2025-07-30T09:02:05.696Z","","","","MotivationQ","","","","","","","","","","","50","","","","","","","","","","","","","","","","","","","","","","","","","","",""
"","","","","ctl-task-cpt","63","941777","0.0-7.0-0.10","55","1","2025-07-30 08:47:44","36c45c0696341be0efffe67d72a12abb","84.15.221.88","Mozilla/5.0 (Windows NT 10.0; Win64; x64) AppleWebKit/537.36 (KHTML, like Gecko) Chrome/138.0.0.0 Safari/537.36","WebKit","Chrome","138.0.0.0","Windows","10.0","https://app.prolific.com/","ru-RU,ru;q=0.9,en-US;q=0.8,en;q=0.7","5c629b836e03a00001d47bdd","687a19d2168e237449fb8af4","6889db47c72472259205ee4a","0","5c629b836e03a00001d47bdd","0","2025-07-30T09:03:28.759Z","","","","","","","","","","","","","","","","win-only","1","g1:NE,g2:SW","0.6","11","0","861635.4","1304.5","6315.6","80037.2","1","4","4","6","2","4","3","8","5","0.06060606060606061","1334.6","3000","1540","[""down"",""left""]","{""num_key_presses"":14,""num_perfect"":9,""num_errors"":1,""num_randdir"":4,""num_randdir_good_moves"":1,""num_whilered"":0,""num_whileblue"":1,""num_blue"":7,""num_good_moves"":10}","[419.0714133126395,416.57142761775424,0.2,419.0714133126395,416.57142761775424,107.5,419.0714133126395,416.57142761775424,224.2,419.0714133126395,416.57142761775424,325,419.0714133126395,416.57142761775424,447.6,419.0714133126395,416.57142761775424,549,387.8214133126395,436.57142761775424,652,281.5714133126395,586.5714276177542,778.1,224.0714133126395,675.3214276177542,881.6,167.8214133126395,706.5714276177542,987.4,126.5714133126395,722.8214276177542,1093.8,121.5714133126395,724.0714276177542,1215.4,92.8214133126395,724.0714276177542,1335.1,92.8214133126395,724.0714276177542,1439.7,92.8214133126395,724.0714276177542,1558.2,92.8214133126395,724.0714276177542,1662,92.8214133126395,724.0714276177542,1762.6,92.8214133126395,724.0714276177542,1863.6,92.8214133126395,724.0714276177542,1985.4,92.8214133126395,724.0714276177542,2087,92.8214133126395,724.0714276177542,2187,92.8214133126395,724.0714276177542,2311.4,92.8214133126395,724.0714276177542,2430.4,92.8214133126395,724.0714276177542,2547.4,92.8214133126395,724.0714276177542,2664.9,92.8214133126395,724.0714276177542,2786,92.8214133126395,724.0714276177542,2907.2,92.8214133126395,724.0714276177542,3027.8,92.8214133126395,724.0714276177542,3152.6,92.8214133126395,724.0714276177542,3276.4,92.8214133126395,724.0714276177542,3377.5,92.8214133126395,724.0714276177542,3500.7,92.8214133126395,724.0714276177542,3619.5,92.8214133126395,724.0714276177542,3721.5,92.8214133126395,724.0714276177542,3841.8,92.8214133126395,724.0714276177542,3955.8,92.8214133126395,724.0714276177542,4058.6,92.8214133126395,724.0714276177542,4161.9,92.8214133126395,724.0714276177542,4284.7,92.8214133126395,724.0714276177542,4404,92.8214133126395,724.0714276177542,4519.1,92.8214133126395,724.0714276177542,4643.3,92.8214133126395,724.0714276177542,4743.9,92.8214133126395,724.0714276177542,4868.3,92.8214133126395,724.0714276177542,4987.5]","[1469.1,1469.1,1000,0,469.1,""smooth"",""down"",""down"",""good_move"",10598.6,9129.2,1598.3,8503.5,496.8,""oops"",""down"",""right"",""bad_move"",13989.1,3390.2,2903.5,10598.9,486.7,""smooth"",""down"",""down"",""good_move"",19170.4,5181.2,1567.8,16886.4,716.2,""oops"",""down"",""down"",""good_move"",22346.5,3175.5,2598.1,19171,577.4,""smooth"",""left"",""left"",""good_move"",28071.1,5724.3,2829.1,22346.8,2895.2,""smooth"",""left"",""left"",""good_move"",33673.8,5602.5,2747,28071.3,2855.5,""smooth"",""left"",""left"",""good_move"",43350.5,9676.5,1885.2,41042.3,423,""while_blue"",""left"",""right"",""bad_move"",46769.9,3418.7,2861.6,43351.2,557.1,""smooth"",""left"",""left"",""good_move"",53881.6,7111.4,2414,46770.2,4697.4,""oops"",""left"",""right"",""bad_move"",57183.3,3301.5,2694,53881.8,607.5,""oops"",""left"",""right"",""bad_move"",60272.1,3088.4,2734.2,57183.7,354.2,""smooth"",""left"",""left"",""good_move"",66562.6,6290.4,2272.4,63893.6,396.6,""smooth"",""left"",""left"",""good_move"",73555,6992.3,2742.1,70443.3,369.6,""smooth"",""left"",""left"",""good_move""]"
"4009","","<div style=""width:500px;"">
  <p>What determined the result of this run?</p>
  </div>","7","html-slider-response","64","945788","0.0-7.0-1.10","55","1","2025-07-30 08:47:44","36c45c0696341be0efffe67d72a12abb","84.15.221.88","Mozilla/5.0 (Windows NT 10.0; Win64; x64) AppleWebKit/537.36 (KHTML, like Gecko) Chrome/138.0.0.0 Safari/537.36","WebKit","Chrome","138.0.0.0","Windows","10.0","https://app.prolific.com/","ru-RU,ru;q=0.9,en-US;q=0.8,en;q=0.7","5c629b836e03a00001d47bdd","687a19d2168e237449fb8af4","6889db47c72472259205ee4a","0","5c629b836e03a00001d47bdd","0","2025-07-30T09:03:32.769Z","","","","AttribQ","","","","","","","","","","","50","","","","","","","","","","","","","","","","","","","","","","","","","","",""
"3135","","<div style=""width:500px;"">
  <p>How much control did you have over the ball?</p>
  </div>","11","html-slider-response","65","948923","0.0-7.0-2.10","55","1","2025-07-30 08:47:44","36c45c0696341be0efffe67d72a12abb","84.15.221.88","Mozilla/5.0 (Windows NT 10.0; Win64; x64) AppleWebKit/537.36 (KHTML, like Gecko) Chrome/138.0.0.0 Safari/537.36","WebKit","Chrome","138.0.0.0","Windows","10.0","https://app.prolific.com/","ru-RU,ru;q=0.9,en-US;q=0.8,en;q=0.7","5c629b836e03a00001d47bdd","687a19d2168e237449fb8af4","6889db47c72472259205ee4a","0","5c629b836e03a00001d47bdd","0","2025-07-30T09:03:35.905Z","","","","ControlQ","","","","","","","","","","","50","","","","","","","","","","","","","","","","","","","","","","","","","","",""
"2687","","<div style=""width:500px;"">
  <p>How would you describe your current emotional state?</p>
  </div>","22","html-slider-response","66","951611","0.0-7.0-3.10","55","1","2025-07-30 08:47:44","36c45c0696341be0efffe67d72a12abb","84.15.221.88","Mozilla/5.0 (Windows NT 10.0; Win64; x64) AppleWebKit/537.36 (KHTML, like Gecko) Chrome/138.0.0.0 Safari/537.36","WebKit","Chrome","138.0.0.0","Windows","10.0","https://app.prolific.com/","ru-RU,ru;q=0.9,en-US;q=0.8,en;q=0.7","5c629b836e03a00001d47bdd","687a19d2168e237449fb8af4","6889db47c72472259205ee4a","0","5c629b836e03a00001d47bdd","0","2025-07-30T09:03:38.593Z","","","","StressQ","","","","","","","","","","","50","","","","","","","","","","","","","","","","","","","","","","","","","","",""
"1366","","<div style=""width:500px;"">
  <p>What best describes how you currently feel?</p>
  </div>","82","html-slider-response","67","952979","0.0-7.0-4.10","55","1","2025-07-30 08:47:44","36c45c0696341be0efffe67d72a12abb","84.15.221.88","Mozilla/5.0 (Windows NT 10.0; Win64; x64) AppleWebKit/537.36 (KHTML, like Gecko) Chrome/138.0.0.0 Safari/537.36","WebKit","Chrome","138.0.0.0","Windows","10.0","https://app.prolific.com/","ru-RU,ru;q=0.9,en-US;q=0.8,en;q=0.7","5c629b836e03a00001d47bdd","687a19d2168e237449fb8af4","6889db47c72472259205ee4a","0","5c629b836e03a00001d47bdd","0","2025-07-30T09:03:39.960Z","","","","MotivationQ","","","","","","","","","","","50","","","","","","","","","","","","","","","","","","","","","","","","","","",""
"","","","","ctl-task-cpt","68","1011958","0.0-7.0-0.11","55","1","2025-07-30 08:47:44","36c45c0696341be0efffe67d72a12abb","84.15.221.88","Mozilla/5.0 (Windows NT 10.0; Win64; x64) AppleWebKit/537.36 (KHTML, like Gecko) Chrome/138.0.0.0 Safari/537.36","WebKit","Chrome","138.0.0.0","Windows","10.0","https://app.prolific.com/","ru-RU,ru;q=0.9,en-US;q=0.8,en;q=0.7","5c629b836e03a00001d47bdd","687a19d2168e237449fb8af4","6889db47c72472259205ee4a","0","5c629b836e03a00001d47bdd","0","2025-07-30T09:04:38.940Z","","","","","","","","","","","","","","","","win-only","2","g1:SE,g2:NW","0.7","12","0","955899","911.6","5916.3","55963.2","1","4","8","6","2","8","8","16","8","0.12121212121212122","1625.2","3000","1030","[""left"",""up""]","{""num_key_presses"":12,""num_perfect"":9,""num_errors"":0,""num_randdir"":3,""num_randdir_good_moves"":0,""num_whilered"":0,""num_whileblue"":0,""num_blue"":5,""num_good_moves"":9}","[425.3214133126395,410.32142761775424,0.2,425.3214133126395,410.32142761775424,101,425.3214133126395,410.32142761775424,203.1,425.3214133126395,410.32142761775424,309.2,5.321413312639507,410.32142761775424,413,-447.1785866873605,424.07142761775424,520.9,-447.1785866873605,424.07142761775424,626.2,-447.1785866873605,424.07142761775424,736.6,-447.1785866873605,424.07142761775424,836.9,-434.6785866873605,396.57142761775424,945.1,-212.1785866873605,145.32142761775424,1049.1,-182.1785866873605,126.57142761775425,1154.2,171.5714133126395,116.57142761775425,1256.8,201.5714133126395,101.57142761775425,1368,129.0714133126395,84.07142761775425,1477,121.5714133126395,81.57142761775425,1580.2,117.8214133126395,80.32142761775425,1684.1,117.8214133126395,80.32142761775425,1789.6,117.8214133126395,80.32142761775425,1890.8,117.8214133126395,80.32142761775425,1993.8,117.8214133126395,80.32142761775425,2103.5,117.8214133126395,80.32142761775425,2205.3,117.8214133126395,80.32142761775425,2311.5,117.8214133126395,80.32142761775425,2422.7,117.8214133126395,80.32142761775425,2529.3,117.8214133126395,80.32142761775425,2634.1,117.8214133126395,80.32142761775425,2735.3,117.8214133126395,80.32142761775425,2837.8,117.8214133126395,80.32142761775425,2939.4,117.8214133126395,80.32142761775425,3051.9,117.8214133126395,80.32142761775425,3155.7,117.8214133126395,80.32142761775425,3262.6,117.8214133126395,80.32142761775425,3370.6,117.8214133126395,80.32142761775425,3479.8,117.8214133126395,80.32142761775425,3586.1,117.8214133126395,80.32142761775425,3696.7,117.8214133126395,80.32142761775425,3804,117.8214133126395,80.32142761775425,3906.8,117.8214133126395,80.32142761775425,4016,117.8214133126395,80.32142761775425,4120.2,117.8214133126395,80.32142761775425,4220.6,117.8214133126395,80.32142761775425,4330.2,117.8214133126395,80.32142761775425,4437.2,117.8214133126395,80.32142761775425,4547.5,117.8214133126395,80.32142761775425,4648.2,117.8214133126395,80.32142761775425,4749.9,117.8214133126395,80.32142761775425,4853,117.8214133126395,80.32142761775425,4958.5]","[4619.2,4619.2,2192.2,2010.8,416.2,""smooth"",""up"",""up"",""good_move"",7476.2,2856.1,1980.9,4620.2,875.2,""oops"",""up"",""down"",""bad_move"",10864.5,3387.5,2914,7477,473.5,""smooth"",""up"",""up"",""good_move"",23769.8,12905.1,2287.8,21048.8,433.2,""smooth"",""up"",""up"",""good_move"",26656.3,2886.3,2184.5,23770,701.8,""smooth"",""up"",""up"",""good_move"",32759,6102.6,2170.4,30117.7,470.9,""oops"",""left"",""down"",""bad_move"",35707.3,2948,2524.3,32759.3,423.7,""smooth"",""up"",""up"",""good_move"",38280.5,2572.8,2072.5,35707.7,500.3,""smooth"",""left"",""left"",""good_move"",41068.3,2787.5,2401.2,38280.9,386.2,""smooth"",""left"",""left"",""good_move"",44499.5,3430.8,3040.3,41068.7,390.5,""oops"",""left"",""down"",""bad_move"",47279.6,2779.8,2392.8,44499.8,387,""smooth"",""left"",""left"",""good_move"",49830,2550.3,2145.5,47279.7,404.8,""smooth"",""up"",""up"",""good_move""]"
"2917","","<div style=""width:500px;"">
  <p>What determined the result of this run?</p>
  </div>","19","html-slider-response","69","1014876","0.0-7.0-1.11","55","1","2025-07-30 08:47:44","36c45c0696341be0efffe67d72a12abb","84.15.221.88","Mozilla/5.0 (Windows NT 10.0; Win64; x64) AppleWebKit/537.36 (KHTML, like Gecko) Chrome/138.0.0.0 Safari/537.36","WebKit","Chrome","138.0.0.0","Windows","10.0","https://app.prolific.com/","ru-RU,ru;q=0.9,en-US;q=0.8,en;q=0.7","5c629b836e03a00001d47bdd","687a19d2168e237449fb8af4","6889db47c72472259205ee4a","0","5c629b836e03a00001d47bdd","0","2025-07-30T09:04:41.857Z","","","","AttribQ","","","","","","","","","","","50","","","","","","","","","","","","","","","","","","","","","","","","","","",""
"3310","","<div style=""width:500px;"">
  <p>How much control did you have over the ball?</p>
  </div>","26","html-slider-response","70","1018187","0.0-7.0-2.11","55","1","2025-07-30 08:47:44","36c45c0696341be0efffe67d72a12abb","84.15.221.88","Mozilla/5.0 (Windows NT 10.0; Win64; x64) AppleWebKit/537.36 (KHTML, like Gecko) Chrome/138.0.0.0 Safari/537.36","WebKit","Chrome","138.0.0.0","Windows","10.0","https://app.prolific.com/","ru-RU,ru;q=0.9,en-US;q=0.8,en;q=0.7","5c629b836e03a00001d47bdd","687a19d2168e237449fb8af4","6889db47c72472259205ee4a","0","5c629b836e03a00001d47bdd","0","2025-07-30T09:04:45.168Z","","","","ControlQ","","","","","","","","","","","50","","","","","","","","","","","","","","","","","","","","","","","","","","",""
"2760","","<div style=""width:500px;"">
  <p>How would you describe your current emotional state?</p>
  </div>","26","html-slider-response","71","1020947","0.0-7.0-3.11","55","1","2025-07-30 08:47:44","36c45c0696341be0efffe67d72a12abb","84.15.221.88","Mozilla/5.0 (Windows NT 10.0; Win64; x64) AppleWebKit/537.36 (KHTML, like Gecko) Chrome/138.0.0.0 Safari/537.36","WebKit","Chrome","138.0.0.0","Windows","10.0","https://app.prolific.com/","ru-RU,ru;q=0.9,en-US;q=0.8,en;q=0.7","5c629b836e03a00001d47bdd","687a19d2168e237449fb8af4","6889db47c72472259205ee4a","0","5c629b836e03a00001d47bdd","0","2025-07-30T09:04:47.929Z","","","","StressQ","","","","","","","","","","","50","","","","","","","","","","","","","","","","","","","","","","","","","","",""
"1439","","<div style=""width:500px;"">
  <p>What best describes how you currently feel?</p>
  </div>","75","html-slider-response","72","1022387","0.0-7.0-4.11","55","1","2025-07-30 08:47:44","36c45c0696341be0efffe67d72a12abb","84.15.221.88","Mozilla/5.0 (Windows NT 10.0; Win64; x64) AppleWebKit/537.36 (KHTML, like Gecko) Chrome/138.0.0.0 Safari/537.36","WebKit","Chrome","138.0.0.0","Windows","10.0","https://app.prolific.com/","ru-RU,ru;q=0.9,en-US;q=0.8,en;q=0.7","5c629b836e03a00001d47bdd","687a19d2168e237449fb8af4","6889db47c72472259205ee4a","0","5c629b836e03a00001d47bdd","0","2025-07-30T09:04:49.368Z","","","","MotivationQ","","","","","","","","","","","50","","","","","","","","","","","","","","","","","","","","","","","","","","",""
"","","","","ctl-task-cpt","73","1050491","0.0-7.0-0.12","55","1","2025-07-30 08:47:44","36c45c0696341be0efffe67d72a12abb","84.15.221.88","Mozilla/5.0 (Windows NT 10.0; Win64; x64) AppleWebKit/537.36 (KHTML, like Gecko) Chrome/138.0.0.0 Safari/537.36","WebKit","Chrome","138.0.0.0","Windows","10.0","https://app.prolific.com/","ru-RU,ru;q=0.9,en-US;q=0.8,en;q=0.7","5c629b836e03a00001d47bdd","687a19d2168e237449fb8af4","6889db47c72472259205ee4a","0","5c629b836e03a00001d47bdd","0","2025-07-30T09:05:17.472Z","","","","","","","","","","","","","","","","win-only","3","g1:SW,g2:NE","0.8","13","0","1025306.9","1831.5","6837.9","25085.2","1","4","4","6","1","1","1","17","16","0.12878787878787878","1783.9","3000","2365","[""down"",""left""]","{""num_key_presses"":4,""num_perfect"":4,""num_errors"":0,""num_randdir"":0,""num_randdir_good_moves"":0,""num_whilered"":0,""num_whileblue"":0,""num_blue"":2,""num_good_moves"":4}","[421.5714133126395,419.07142761775424,0.3,421.5714133126395,419.07142761775424,102.3,421.5714133126395,419.07142761775424,211.8,322.8214133126395,416.57142761775424,319.7,-239.6785866873605,407.82142761775424,420.4,-239.6785866873605,407.82142761775424,532.5,-53.42858668736049,515.3214276177542,633.4,-5.928586687360493,581.5714276177542,734,4.071413312639507,661.5714276177542,835.2,7.821413312639507,671.5714276177542,949.2,446.5714133126395,431.57142761775424,1051.1,737.8214133126395,187.82142761775424,1163.4,689.0714133126395,241.57142761775424,1270.4,160.3214133126395,601.5714276177542,1370.7,106.5714133126395,671.5714276177542,1473.3,116.5714133126395,712.8214276177542,1575,104.0714133126395,744.0714276177542,1677.7,99.0714133126395,747.8214276177542,1795.9,99.0714133126395,747.8214276177542,1900.6,99.0714133126395,747.8214276177542,2012.9,99.0714133126395,747.8214276177542,2129.6,99.0714133126395,747.8214276177542,2229.7,99.0714133126395,747.8214276177542,2339.7,99.0714133126395,747.8214276177542,2446.3,99.0714133126395,747.8214276177542,2558.9,99.0714133126395,747.8214276177542,2672.8,99.0714133126395,747.8214276177542,2786.8,99.0714133126395,747.8214276177542,2901.1,99.0714133126395,747.8214276177542,3006.8,99.0714133126395,747.8214276177542,3122.6,99.0714133126395,747.8214276177542,3228.2,99.0714133126395,747.8214276177542,3341.8,99.0714133126395,747.8214276177542,3455.3,99.0714133126395,747.8214276177542,3568.7,99.0714133126395,747.8214276177542,3678.3,99.0714133126395,747.8214276177542,3787.4,99.0714133126395,747.8214276177542,3903.9,99.0714133126395,747.8214276177542,4012.2,99.0714133126395,747.8214276177542,4112.3,99.0714133126395,747.8214276177542,4217.6,99.0714133126395,747.8214276177542,4332.5,99.0714133126395,747.8214276177542,4439.7,99.0714133126395,747.8214276177542,4548.4,99.0714133126395,747.8214276177542,4656.5,99.0714133126395,747.8214276177542,4767.7,99.0714133126395,747.8214276177542,4878.1,99.0714133126395,747.8214276177542,4989.6]","[4238.4,4238.4,1773.9,2028.6,435.9,""smooth"",""left"",""left"",""good_move"",7654.3,3415.5,3014.5,4238.8,401,""smooth"",""left"",""left"",""good_move"",14506.6,6852.2,2885.9,11199.4,421.3,""smooth"",""down"",""down"",""good_move"",17986.7,3479.7,2987.4,14507,492.3,""smooth"",""down"",""down"",""good_move""]"
"1967","","<div style=""width:500px;"">
  <p>What determined the result of this run?</p>
  </div>","21","html-slider-response","74","1052459","0.0-7.0-1.12","55","1","2025-07-30 08:47:44","36c45c0696341be0efffe67d72a12abb","84.15.221.88","Mozilla/5.0 (Windows NT 10.0; Win64; x64) AppleWebKit/537.36 (KHTML, like Gecko) Chrome/138.0.0.0 Safari/537.36","WebKit","Chrome","138.0.0.0","Windows","10.0","https://app.prolific.com/","ru-RU,ru;q=0.9,en-US;q=0.8,en;q=0.7","5c629b836e03a00001d47bdd","687a19d2168e237449fb8af4","6889db47c72472259205ee4a","0","5c629b836e03a00001d47bdd","0","2025-07-30T09:05:19.440Z","","","","AttribQ","","","","","","","","","","","50","","","","","","","","","","","","","","","","","","","","","","","","","","",""
"1399","","<div style=""width:500px;"">
  <p>How much control did you have over the ball?</p>
  </div>","50","html-slider-response","75","1053860","0.0-7.0-2.12","55","1","2025-07-30 08:47:44","36c45c0696341be0efffe67d72a12abb","84.15.221.88","Mozilla/5.0 (Windows NT 10.0; Win64; x64) AppleWebKit/537.36 (KHTML, like Gecko) Chrome/138.0.0.0 Safari/537.36","WebKit","Chrome","138.0.0.0","Windows","10.0","https://app.prolific.com/","ru-RU,ru;q=0.9,en-US;q=0.8,en;q=0.7","5c629b836e03a00001d47bdd","687a19d2168e237449fb8af4","6889db47c72472259205ee4a","0","5c629b836e03a00001d47bdd","0","2025-07-30T09:05:20.841Z","","","","ControlQ","","","","","","","","","","","50","","","","","","","","","","","","","","","","","","","","","","","","","","",""
"1423","","<div style=""width:500px;"">
  <p>How would you describe your current emotional state?</p>
