"rt","response_timestamp","stimulus","response","trial_type","trial_index","time_elapsed","internal_node_id","run_id","condition","recorded_at","source_code_version","ip","user_agent","device","browser","browser_version","platform","platform_version","referer","accept_language","PROLIFIC_PID","STUDY_ID","SESSION_ID","BATCH","prolific_id","batch","realtime","success","question_order","question_id","eventType","responses","item_order","radio_event_ids","radio_event_times","key_event_times","mouse_event_times","straightlining","zigzagging","honeypot","view_history","slider_start","which_type","canvas_config","goals_layout","control_level","trial_number","tutorial_trial_number","trial_start_time","phase1_start_time","phase2_start_time","phase3_start_time","goal_1_value","goal_1_distance","goal_2_value","goal_2_distance","goal_selected","outcome","outcome_total","participant_final_score","participant_initial_score","participant_final_score_prop","goal_choice_rt","allocated_time","allocated_time_remaining","goal_direction","counts","mouse_movements","key_presses"
"4524","1753864565906","<p style='font-size:40px;line-height:1.25'><strong>Welcome to the experiment!</strong></p><p style='font-size:1.1em;line-height:1.25'>Thank you for participanting in our experiment again! You will be asked to play the Dysfunctional Ball Game again. We will briefly recap the rules before we start.</p><p style='font-size:1.1em;line-height:1.25'>Press <strong>Next</strong> to continue.</p>","0","custom-html-button-response","0","4527","0.0-0.0","12","1","2025-07-30 08:38:26","36c45c0696341be0efffe67d72a12abb","134.255.57.120","Mozilla/5.0 (Windows NT 10.0; Win64; x64) AppleWebKit/537.36 (KHTML, like Gecko) Chrome/138.0.0.0 Safari/537.36","WebKit","Chrome","138.0.0.0","Windows","10.0","https://app.prolific.com/","hu-HU,hu;q=0.9,en-US;q=0.8,en;q=0.7","5c66cc9246bfc200019044b8","687a19d2168e237449fb8af4","6889d9fe66ae07a4534c3355","0","5c66cc9246bfc200019044b8","0","2025-07-30T08:36:05.906Z","","","","","","","","","","","","","","","","","","","","","","","","","","","","","","","","","","","","","","","","","",""
"3422","","","","fullscreen","1","8954","0.0-1.0","12","1","2025-07-30 08:38:26","36c45c0696341be0efffe67d72a12abb","134.255.57.120","Mozilla/5.0 (Windows NT 10.0; Win64; x64) AppleWebKit/537.36 (KHTML, like Gecko) Chrome/138.0.0.0 Safari/537.36","WebKit","Chrome","138.0.0.0","Windows","10.0","https://app.prolific.com/","hu-HU,hu;q=0.9,en-US;q=0.8,en;q=0.7","5c66cc9246bfc200019044b8","687a19d2168e237449fb8af4","6889d9fe66ae07a4534c3355","0","5c66cc9246bfc200019044b8","0","","true","","","","","","","","","","","","","","","","","","","","","","","","","","","","","","","","","","","","","","","","",""
"2379","1753864572713"," <p style='font-size:1.1em;line-height:1.25'>Thank you for closing all other tabs.</p><p style='font-size:1.1em;line-height:1.25'>We will now invite you to fill in some questionnaires, before starting the game.<br>This will take about 5 minutes.<br></p><p style='font-size:1.1em;line-height:1.25'>Press the <strong>Next</strong> button to continue.</p>","0","custom-html-button-response","2","11335","0.0-2.0","12","1","2025-07-30 08:38:26","36c45c0696341be0efffe67d72a12abb","134.255.57.120","Mozilla/5.0 (Windows NT 10.0; Win64; x64) AppleWebKit/537.36 (KHTML, like Gecko) Chrome/138.0.0.0 Safari/537.36","WebKit","Chrome","138.0.0.0","Windows","10.0","https://app.prolific.com/","hu-HU,hu;q=0.9,en-US;q=0.8,en;q=0.7","5c66cc9246bfc200019044b8","687a19d2168e237449fb8af4","6889d9fe66ae07a4534c3355","0","5c66cc9246bfc200019044b8","0","2025-07-30T08:36:12.714Z","","","","","","","","","","","","","","","","","","","","","","","","","","","","","","","","","","","","","","","","","",""
"3264","","","{""assigned_sex"":""male""}","survey-multi-choice","3","14600","0.0-3.0-0.0","12","1","2025-07-30 08:38:26","36c45c0696341be0efffe67d72a12abb","134.255.57.120","Mozilla/5.0 (Windows NT 10.0; Win64; x64) AppleWebKit/537.36 (KHTML, like Gecko) Chrome/138.0.0.0 Safari/537.36","WebKit","Chrome","138.0.0.0","Windows","10.0","https://app.prolific.com/","hu-HU,hu;q=0.9,en-US;q=0.8,en;q=0.7","5c66cc9246bfc200019044b8","687a19d2168e237449fb8af4","6889d9fe66ae07a4534c3355","0","5c66cc9246bfc200019044b8","0","","","[0]","0","demographics","","","","","","","","","","","","","","","","","","","","","","","","","","","","","","","","","","","","","",""
"1838","1753864577817","<p style='font-size:1.1em;line-height:1.25'>In the following, we will perform a baseline assessment. This means that we will ask you a few questions relating to your experiences over the past month.<br></p><p style='font-size:1.1em;line-height:1.25'>Press the <strong>Next</strong> button to continue.</p>","0","custom-html-button-response","4","16439","0.0-4.0-0.0","12","1","2025-07-30 08:38:26","36c45c0696341be0efffe67d72a12abb","134.255.57.120","Mozilla/5.0 (Windows NT 10.0; Win64; x64) AppleWebKit/537.36 (KHTML, like Gecko) Chrome/138.0.0.0 Safari/537.36","WebKit","Chrome","138.0.0.0","Windows","10.0","https://app.prolific.com/","hu-HU,hu;q=0.9,en-US;q=0.8,en;q=0.7","5c66cc9246bfc200019044b8","687a19d2168e237449fb8af4","6889d9fe66ae07a4534c3355","0","5c66cc9246bfc200019044b8","0","2025-07-30T08:36:17.818Z","","","","","","","","","","","","","","","","","","","","","","","","","","","","","","","","","","","","","","","","","",""
"44392.60000002384","","","","survey-template","5","60834","0.0-4.0-1.0","12","1","2025-07-30 08:38:26","36c45c0696341be0efffe67d72a12abb","134.255.57.120","Mozilla/5.0 (Windows NT 10.0; Win64; x64) AppleWebKit/537.36 (KHTML, like Gecko) Chrome/138.0.0.0 Safari/537.36","WebKit","Chrome","138.0.0.0","Windows","10.0","https://app.prolific.com/","hu-HU,hu;q=0.9,en-US;q=0.8,en;q=0.7","5c66cc9246bfc200019044b8","687a19d2168e237449fb8af4","6889d9fe66ae07a4534c3355","0","5c66cc9246bfc200019044b8","0","2025-07-30T08:37:02.213Z","","","","pss","{""Q01"":""2"",""Q02"":""4"",""Q03"":""3"",""Q04"":""3"",""Q05"":""3"",""Q06"":""2"",""Q07"":""2"",""Q08"":""4"",""Q09"":""0"",""Q10"":""4""}","[0,1,2,3,4,5,6,7,8,9]","[""Q01"",""Q02"",""Q03"",""Q04"",""Q05"",""Q06"",""Q07"",""Q08"",""Q08"",""Q09"",""Q10""]","[7958.399999976158,11374.399999976158,14694.5,18582.5,20902.5,25270.5,31102.5,33390.39999997616,35598.39999997616,38198.60000002384,42350.39999997616]","[]","[0,7958.399999976158,11374.399999976158,14006.399999976158,14694.5,18582.5,20902.5,24686.5,25270.5,29566.5,30630.299999952316,31102.5,33390.39999997616,35598.39999997616,38198.60000002384,41639,42350.39999997616,44390.5]","0.3","0.3333333333333333","0","","","","","","","","","","","","","","","","","","","","","","","","","","","","",""
"3748","1753864625961","<p style='font-size:1.1em;line-height:1.25'>Thank you for your answers! Now we will ask you a few more questions relating to your feelings in the last 24 hours.<br></p><p style='font-size:1.1em;line-height:1.25'>Press the <strong>Next</strong> button to continue.</p>","0","custom-html-button-response","6","64583","0.0-4.0-2.0","12","1","2025-07-30 08:38:26","36c45c0696341be0efffe67d72a12abb","134.255.57.120","Mozilla/5.0 (Windows NT 10.0; Win64; x64) AppleWebKit/537.36 (KHTML, like Gecko) Chrome/138.0.0.0 Safari/537.36","WebKit","Chrome","138.0.0.0","Windows","10.0","https://app.prolific.com/","hu-HU,hu;q=0.9,en-US;q=0.8,en;q=0.7","5c66cc9246bfc200019044b8","687a19d2168e237449fb8af4","6889d9fe66ae07a4534c3355","0","5c66cc9246bfc200019044b8","0","2025-07-30T08:37:05.962Z","","","","","","","","","","","","","","","","","","","","","","","","","","","","","","","","","","","","","","","","","",""
"82914","","","","survey-template","7","147499","0.0-4.0-3.0","12","1","2025-07-30 08:38:26","36c45c0696341be0efffe67d72a12abb","134.255.57.120","Mozilla/5.0 (Windows NT 10.0; Win64; x64) AppleWebKit/537.36 (KHTML, like Gecko) Chrome/138.0.0.0 Safari/537.36","WebKit","Chrome","138.0.0.0","Windows","10.0","https://app.prolific.com/","hu-HU,hu;q=0.9,en-US;q=0.8,en;q=0.7","5c66cc9246bfc200019044b8","687a19d2168e237449fb8af4","6889d9fe66ae07a4534c3355","0","5c66cc9246bfc200019044b8","0","2025-07-30T08:38:28.878Z","","","","drsp","{""Q01"":""4"",""Q02"":""3"",""Q03"":""2"",""Q04"":""4"",""Q05"":""1"",""Q06"":""0"",""Q07"":""0"",""Q08"":""0"",""Q09"":""5"",""Q10"":""2"",""Q11"":""4"",""Q12"":""0"",""Q13"":""5"",""Q14"":""1"",""Q15"":""0"",""Q16"":""3"",""Q17"":""1"",""Q18"":""4"",""Q19"":""0"",""Q20"":""3"",""Q21"":""3"",""Q22"":""3""}","[0,1,2,3,4,5,6,7,8,9,10,11,12,13,14,15,16,17,18,19,20,21]","[""Q01"",""Q02"",""Q03"",""Q04"",""Q05"",""Q05"",""Q06"",""Q07"",""Q08"",""Q09"",""Q10"",""Q11"",""Q12"",""Q13"",""Q14"",""Q15"",""Q16"",""Q17"",""Q18"",""Q19"",""Q20"",""Q21"",""Q22""]","[3422.5,5334.5,6926.600000023842,9518.199999928474,11350.5,13694.399999976158,17270.5,19342.399999976158,22566.299999952316,25590.399999976158,27878.399999976158,30126.899999976158,33958.39999997616,36110.39999997616,38062.39999997616,42774.39999997616,44998.699999928474,48270.39999997616,49478.39999997616,54342.39999997616,59054.39999997616,62774.39999997616,66222.39999997616]","[]","[0,3422.5,5334.5,6926.600000023842,9518.199999928474,11350.5,12582.600000023842,13694.399999976158,17270.5,19342.399999976158,22150.799999952316,22566.299999952316,25590.399999976158,27878.399999976158,30126.899999976158,33958.39999997616,36110.39999997616,38062.39999997616,42774.39999997616,44998.699999928474,47582.60000002384,48270.39999997616,49478.39999997616,54342.39999997616,59054.39999997616,62774.39999997616,65670.60000002384,66222.39999997616,82910.60000002384]","0.2727272727272727","0.2857142857142857","0","","","","","","","","","","","","","","","","","","","","","","","","","","","","",""
"18515.199999928474","","","","survey-template","8","166016","0.0-4.0-4.0","12","1","2025-07-30 08:38:26","36c45c0696341be0efffe67d72a12abb","134.255.57.120","Mozilla/5.0 (Windows NT 10.0; Win64; x64) AppleWebKit/537.36 (KHTML, like Gecko) Chrome/138.0.0.0 Safari/537.36","WebKit","Chrome","138.0.0.0","Windows","10.0","https://app.prolific.com/","hu-HU,hu;q=0.9,en-US;q=0.8,en;q=0.7","5c66cc9246bfc200019044b8","687a19d2168e237449fb8af4","6889d9fe66ae07a4534c3355","0","5c66cc9246bfc200019044b8","0","2025-07-30T08:38:47.395Z","","","","stress","{""Q01"":""4"",""Q02"":""5"",""Q03"":""2""}","[0,1,2]","[""Q01"",""Q02"",""Q03"",""Q03""]","[4602.399999976158,7290.399999976158,10002.399999976158,14226.5]","[]","[4602.399999976158,7290.399999976158,10002.399999976158,14226.5,18514.399999976158]","0.3333333333333333","0","0","","","","","","","","","","","","","","","","","","","","","","","","","","","","",""
"16655","","","","instructions","9","182671","0.0-5.0-0.0","12","1","2025-07-30 08:38:26","36c45c0696341be0efffe67d72a12abb","134.255.57.120","Mozilla/5.0 (Windows NT 10.0; Win64; x64) AppleWebKit/537.36 (KHTML, like Gecko) Chrome/138.0.0.0 Safari/537.36","WebKit","Chrome","138.0.0.0","Windows","10.0","https://app.prolific.com/","hu-HU,hu;q=0.9,en-US;q=0.8,en;q=0.7","5c66cc9246bfc200019044b8","687a19d2168e237449fb8af4","6889d9fe66ae07a4534c3355","0","5c66cc9246bfc200019044b8","0","","","","","","","","","","","","","","","[{""page_index"":0,""viewing_time"":16654}]","","","","","","","","","","","","","","","","","","","","","","","","","","","",""
"15431","","<p>Before you start with this game please answer the following three questions yourself. </p>
  <p>Through this game, we measure several aspects of your cognitive performance, such as reaction times, multi-tasking capabilities </p>
  <p>and the ability to assess the situation you are in.</p>
  <p></p>
  <p><b>How good do you usually are in such tasks?</b></p>","16","html-slider-response","10","198103","0.0-6.0-0.0","12","1","2025-07-30 08:38:26","36c45c0696341be0efffe67d72a12abb","134.255.57.120","Mozilla/5.0 (Windows NT 10.0; Win64; x64) AppleWebKit/537.36 (KHTML, like Gecko) Chrome/138.0.0.0 Safari/537.36","WebKit","Chrome","138.0.0.0","Windows","10.0","https://app.prolific.com/","hu-HU,hu;q=0.9,en-US;q=0.8,en;q=0.7","5c66cc9246bfc200019044b8","687a19d2168e237449fb8af4","6889d9fe66ae07a4534c3355","0","5c66cc9246bfc200019044b8","0","2025-07-30T08:39:19.482Z","","","","PreSkillQ","","","","","","","","","","","50","","","","","","","","","","","","","","","","","","","","","","","","","","",""
"4671","","<div style=""width:500px;"">
  <p>How well do you think you will perform in this task compared to other participants?</p>
  </div>","10","html-slider-response","11","202775","0.0-6.0-1.0","12","1","2025-07-30 08:38:26","36c45c0696341be0efffe67d72a12abb","134.255.57.120","Mozilla/5.0 (Windows NT 10.0; Win64; x64) AppleWebKit/537.36 (KHTML, like Gecko) Chrome/138.0.0.0 Safari/537.36","WebKit","Chrome","138.0.0.0","Windows","10.0","https://app.prolific.com/","hu-HU,hu;q=0.9,en-US;q=0.8,en;q=0.7","5c66cc9246bfc200019044b8","687a19d2168e237449fb8af4","6889d9fe66ae07a4534c3355","0","5c66cc9246bfc200019044b8","0","2025-07-30T08:39:24.154Z","","","","PrePerfQ","","","","","","","","","","","50","","","","","","","","","","","","","","","","","","","","","","","","","","",""
"5119","","<div style=""width:500px;"">
  <p>What best describes how you currently feel?</p>
  </div>","35","html-slider-response","12","207895","0.0-6.0-2.0","12","1","2025-07-30 08:38:26","36c45c0696341be0efffe67d72a12abb","134.255.57.120","Mozilla/5.0 (Windows NT 10.0; Win64; x64) AppleWebKit/537.36 (KHTML, like Gecko) Chrome/138.0.0.0 Safari/537.36","WebKit","Chrome","138.0.0.0","Windows","10.0","https://app.prolific.com/","hu-HU,hu;q=0.9,en-US;q=0.8,en;q=0.7","5c66cc9246bfc200019044b8","687a19d2168e237449fb8af4","6889d9fe66ae07a4534c3355","0","5c66cc9246bfc200019044b8","0","2025-07-30T08:39:29.274Z","","","","PreMotivationQ","","","","","","","","","","","50","","","","","","","","","","","","","","","","","","","","","","","","","","",""
"","","","","ctl-task-cpt","13","235599","0.0-7.0-0.0","12","1","2025-07-30 08:38:26","36c45c0696341be0efffe67d72a12abb","134.255.57.120","Mozilla/5.0 (Windows NT 10.0; Win64; x64) AppleWebKit/537.36 (KHTML, like Gecko) Chrome/138.0.0.0 Safari/537.36","WebKit","Chrome","138.0.0.0","Windows","10.0","https://app.prolific.com/","hu-HU,hu;q=0.9,en-US;q=0.8,en;q=0.7","5c66cc9246bfc200019044b8","687a19d2168e237449fb8af4","6889d9fe66ae07a4534c3355","0","5c66cc9246bfc200019044b8","0","2025-07-30T08:39:56.978Z","","","","","","","","","","","","","","","","win-only","1","g1:NE,g2:SW","1","1","0","209639.1","3479.3","8481.9","24696.2","1","4","4","6","2","4","4","4","0","0.030303030303030304","5002.6","3000","805","[""down"",""left""]","{""num_key_presses"":6,""num_perfect"":6,""num_errors"":0,""num_randdir"":0,""num_randdir_good_moves"":0,""num_whilered"":0,""num_whileblue"":0,""num_blue"":0,""num_good_moves"":6}","[837.6428571428571,822.2522245134626,0.2,837.6428571428571,822.2522245134626,101.3,1160.142857142857,817.7522245134626,201.3,2751.6428571428573,766.7522245134626,301.9,2751.6428571428573,760.7522245134626,406.9,2751.6428571428573,760.7522245134626,511.6,2751.6428571428573,760.7522245134626,612.1,2751.6428571428573,760.7522245134626,712.1,2751.6428571428573,760.7522245134626,816.9,2751.6428571428573,760.7522245134626,921.4,2751.6428571428573,760.7522245134626,1023.2,2751.6428571428573,760.7522245134626,1127,2751.6428571428573,760.7522245134626,1232.5,2751.6428571428573,760.7522245134626,1336.4,2751.6428571428573,760.7522245134626,1436.8,2751.6428571428573,760.7522245134626,1537.8,2751.6428571428573,760.7522245134626,1642.5,2751.6428571428573,760.7522245134626,1746.5,2751.6428571428573,760.7522245134626,1851.3,2751.6428571428573,760.7522245134626,1952.1,2751.6428571428573,760.7522245134626,2056.8,2751.6428571428573,760.7522245134626,2162.4,2751.6428571428573,760.7522245134626,2267,2751.6428571428573,760.7522245134626,2371.5,2751.6428571428573,760.7522245134626,2472.1,2751.6428571428573,760.7522245134626,2577,2751.6428571428573,760.7522245134626,2682.3,2751.6428571428573,760.7522245134626,2782.4,2751.6428571428573,760.7522245134626,2882.7,2751.6428571428573,760.7522245134626,2986.4,2751.6428571428573,760.7522245134626,3091.6,2751.6428571428573,760.7522245134626,3196,2751.6428571428573,760.7522245134626,3296.2,2751.6428571428573,760.7522245134626,3401.5,2751.6428571428573,760.7522245134626,3506.4,2751.6428571428573,760.7522245134626,3606.5,2751.6428571428573,760.7522245134626,3711.3,2751.6428571428573,760.7522245134626,3811.4,2751.6428571428573,760.7522245134626,3911.8,2751.6428571428573,760.7522245134626,4016.9,2751.6428571428573,760.7522245134626,4117,2751.6428571428573,760.7522245134626,4217,2751.6428571428573,760.7522245134626,4320.9,2751.6428571428573,760.7522245134626,4421.1,2751.6428571428573,760.7522245134626,4521.2,2751.6428571428573,760.7522245134626,4621.3,2751.6428571428573,760.7522245134626,4726.6,2751.6428571428573,760.7522245134626,4834.3,2751.6428571428573,760.7522245134626,4936.7]","[1520.2,1520.2,1000,0,520.2,""smooth"",""down"",""down"",""good_move"",4172.3,2651.8,2198.5,1520.7,453.2,""smooth"",""down"",""down"",""good_move"",7372.5,3199.9,2764.8,4172.6,435.1,""smooth"",""left"",""left"",""good_move"",10098.1,2725.1,2293.1,7373,432,""smooth"",""left"",""left"",""good_move"",12989.2,2890.9,2528.6,10098.3,362.3,""smooth"",""left"",""left"",""good_move"",16100.4,3110.7,2701.1,12989.8,409.5,""smooth"",""down"",""down"",""good_move""]"
"4462","","<div style=""width:500px;"">
  <p>What determined the result of this run?</p>
  </div>","94","html-slider-response","14","240063","0.0-7.0-1.0","12","1","2025-07-30 08:38:26","36c45c0696341be0efffe67d72a12abb","134.255.57.120","Mozilla/5.0 (Windows NT 10.0; Win64; x64) AppleWebKit/537.36 (KHTML, like Gecko) Chrome/138.0.0.0 Safari/537.36","WebKit","Chrome","138.0.0.0","Windows","10.0","https://app.prolific.com/","hu-HU,hu;q=0.9,en-US;q=0.8,en;q=0.7","5c66cc9246bfc200019044b8","687a19d2168e237449fb8af4","6889d9fe66ae07a4534c3355","0","5c66cc9246bfc200019044b8","0","2025-07-30T08:40:01.442Z","","","","AttribQ","","","","","","","","","","","50","","","","","","","","","","","","","","","","","","","","","","","","","","",""
"3607","","<div style=""width:500px;"">
  <p>How much control did you have over the ball?</p>
  </div>","100","html-slider-response","15","243671","0.0-7.0-2.0","12","1","2025-07-30 08:38:26","36c45c0696341be0efffe67d72a12abb","134.255.57.120","Mozilla/5.0 (Windows NT 10.0; Win64; x64) AppleWebKit/537.36 (KHTML, like Gecko) Chrome/138.0.0.0 Safari/537.36","WebKit","Chrome","138.0.0.0","Windows","10.0","https://app.prolific.com/","hu-HU,hu;q=0.9,en-US;q=0.8,en;q=0.7","5c66cc9246bfc200019044b8","687a19d2168e237449fb8af4","6889d9fe66ae07a4534c3355","0","5c66cc9246bfc200019044b8","0","2025-07-30T08:40:05.050Z","","","","ControlQ","","","","","","","","","","","50","","","","","","","","","","","","","","","","","","","","","","","","","","",""
"6383","","<div style=""width:500px;"">
  <p>How would you describe your current emotional state?</p>
  </div>","4","html-slider-response","16","250055","0.0-7.0-3.0","12","1","2025-07-30 08:38:26","36c45c0696341be0efffe67d72a12abb","134.255.57.120","Mozilla/5.0 (Windows NT 10.0; Win64; x64) AppleWebKit/537.36 (KHTML, like Gecko) Chrome/138.0.0.0 Safari/537.36","WebKit","Chrome","138.0.0.0","Windows","10.0","https://app.prolific.com/","hu-HU,hu;q=0.9,en-US;q=0.8,en;q=0.7","5c66cc9246bfc200019044b8","687a19d2168e237449fb8af4","6889d9fe66ae07a4534c3355","0","5c66cc9246bfc200019044b8","0","2025-07-30T08:40:11.434Z","","","","StressQ","","","","","","","","","","","50","","","","","","","","","","","","","","","","","","","","","","","","","","",""
"4559","","<div style=""width:500px;"">
  <p>What best describes how you currently feel?</p>
  </div>","32","html-slider-response","17","254615","0.0-7.0-4.0","12","1","2025-07-30 08:38:26","36c45c0696341be0efffe67d72a12abb","134.255.57.120","Mozilla/5.0 (Windows NT 10.0; Win64; x64) AppleWebKit/537.36 (KHTML, like Gecko) Chrome/138.0.0.0 Safari/537.36","WebKit","Chrome","138.0.0.0","Windows","10.0","https://app.prolific.com/","hu-HU,hu;q=0.9,en-US;q=0.8,en;q=0.7","5c66cc9246bfc200019044b8","687a19d2168e237449fb8af4","6889d9fe66ae07a4534c3355","0","5c66cc9246bfc200019044b8","0","2025-07-30T08:40:15.994Z","","","","MotivationQ","","","","","","","","","","","50","","","","","","","","","","","","","","","","","","","","","","","","","","",""
"","","","","ctl-task-cpt","18","288000","0.0-7.0-0.1","12","1","2025-07-30 08:38:26","36c45c0696341be0efffe67d72a12abb","134.255.57.120","Mozilla/5.0 (Windows NT 10.0; Win64; x64) AppleWebKit/537.36 (KHTML, like Gecko) Chrome/138.0.0.0 Safari/537.36","WebKit","Chrome","138.0.0.0","Windows","10.0","https://app.prolific.com/","hu-HU,hu;q=0.9,en-US;q=0.8,en;q=0.7","5c66cc9246bfc200019044b8","687a19d2168e237449fb8af4","6889d9fe66ae07a4534c3355","0","5c66cc9246bfc200019044b8","0","2025-07-30T08:40:49.379Z","","","","","","","","","","","","","","","","win-only","2","g1:SE,g2:NW","0.9","2","0","256358.1","1464.9","6466.8","30375.6","1","4","8","6","1","-1","-2","2","4","0.015151515151515152","5001.8","3000","-2500","[""down"",""right""]","{""num_key_presses"":8,""num_perfect"":6,""num_errors"":1,""num_randdir"":1,""num_randdir_good_moves"":0,""num_whilered"":0,""num_whileblue"":0,""num_blue"":0,""num_good_moves"":1}","[830.1428571428571,841.7522245134626,0.2,872.1428571428571,841.7522245134626,100.7,2751.6428571428573,895.7522245134626,200.9,2751.6428571428573,886.7522245134626,305.8,2751.6428571428573,886.7522245134626,415.8,2751.6428571428573,886.7522245134626,516.8,2751.6428571428573,886.7522245134626,620.9,2751.6428571428573,886.7522245134626,725.7,2751.6428571428573,886.7522245134626,833.7,2751.6428571428573,886.7522245134626,935.5,2751.6428571428573,886.7522245134626,1036.7,2751.6428571428573,886.7522245134626,1141.8,2751.6428571428573,886.7522245134626,1250.2,2751.6428571428573,886.7522245134626,1351,2751.6428571428573,886.7522245134626,1451,2751.6428571428573,886.7522245134626,1552.3,2751.6428571428573,886.7522245134626,1656.1,2751.6428571428573,886.7522245134626,1756.4,2751.6428571428573,886.7522245134626,1867,2751.6428571428573,886.7522245134626,1967.1,2751.6428571428573,886.7522245134626,2070.5,2751.6428571428573,886.7522245134626,2170.6,2751.6428571428573,886.7522245134626,2272.1,2751.6428571428573,886.7522245134626,2377.1,2751.6428571428573,886.7522245134626,2484.4,2751.6428571428573,886.7522245134626,2585.6,2751.6428571428573,886.7522245134626,2685.6,2751.6428571428573,886.7522245134626,2786,2751.6428571428573,886.7522245134626,2886.1,2751.6428571428573,886.7522245134626,2987.2,2751.6428571428573,886.7522245134626,3090.6,2751.6428571428573,886.7522245134626,3190.8,2751.6428571428573,886.7522245134626,3290.9,2751.6428571428573,886.7522245134626,3391.3,2751.6428571428573,886.7522245134626,3499.4,2751.6428571428573,886.7522245134626,3599.6,2751.6428571428573,886.7522245134626,3700.9,2751.6428571428573,886.7522245134626,3801,2751.6428571428573,886.7522245134626,3905.9,2751.6428571428573,886.7522245134626,4006.1,2751.6428571428573,886.7522245134626,4106.9,2751.6428571428573,886.7522245134626,4215.8,2751.6428571428573,886.7522245134626,4316,2751.6428571428573,886.7522245134626,4416.9,2751.6428571428573,886.7522245134626,4521.8,2751.6428571428573,886.7522245134626,4626.1,2751.6428571428573,886.7522245134626,4733,2751.6428571428573,886.7522245134626,4833.2,2751.6428571428573,886.7522245134626,4933.5]","[1956.4,1956.4,1000,0,956.5,""smooth"",""up"",""up"",""bad_move"",4697.2,2740.2,2303.2,1957,437,""smooth"",""left"",""left"",""bad_move"",6730.9,2033,1593.7,4697.9,439.3,""smooth"",""left"",""left"",""bad_move"",9881.2,3150.1,2741.7,6731.1,408.4,""smooth"",""left"",""left"",""bad_move"",12897.6,3016,2684,9881.6,332,""smooth"",""up"",""up"",""bad_move"",15949,3051.2,2693.6,12897.8,357.6,""oops"",""up"",""up"",""bad_move"",18509.6,2560.2,2244.2,15949.4,316.1,""smooth"",""down"",""down"",""good_move"",20616.4,2105.3,2222.1,18511.1,-116.8,""error"",""-"",""-"",""no_move""]"
"7870","","<div style=""width:500px;"">
  <p>What determined the result of this run?</p>
  </div>","36","html-slider-response","19","295871","0.0-7.0-1.1","12","1","2025-07-30 08:38:26","36c45c0696341be0efffe67d72a12abb","134.255.57.120","Mozilla/5.0 (Windows NT 10.0; Win64; x64) AppleWebKit/537.36 (KHTML, like Gecko) Chrome/138.0.0.0 Safari/537.36","WebKit","Chrome","138.0.0.0","Windows","10.0","https://app.prolific.com/","hu-HU,hu;q=0.9,en-US;q=0.8,en;q=0.7","5c66cc9246bfc200019044b8","687a19d2168e237449fb8af4","6889d9fe66ae07a4534c3355","0","5c66cc9246bfc200019044b8","0","2025-07-30T08:40:57.250Z","","","","AttribQ","","","","","","","","","","","50","","","","","","","","","","","","","","","","","","","","","","","","","","",""
"3303","","<div style=""width:500px;"">
  <p>How much control did you have over the ball?</p>
  </div>","81","html-slider-response","20","299175","0.0-7.0-2.1","12","1","2025-07-30 08:38:26","36c45c0696341be0efffe67d72a12abb","134.255.57.120","Mozilla/5.0 (Windows NT 10.0; Win64; x64) AppleWebKit/537.36 (KHTML, like Gecko) Chrome/138.0.0.0 Safari/537.36","WebKit","Chrome","138.0.0.0","Windows","10.0","https://app.prolific.com/","hu-HU,hu;q=0.9,en-US;q=0.8,en;q=0.7","5c66cc9246bfc200019044b8","687a19d2168e237449fb8af4","6889d9fe66ae07a4534c3355","0","5c66cc9246bfc200019044b8","0","2025-07-30T08:41:00.554Z","","","","ControlQ","","","","","","","","","","","50","","","","","","","","","","","","","","","","","","","","","","","","","","",""
"2951","","<div style=""width:500px;"">
  <p>How would you describe your current emotional state?</p>
  </div>","62","html-slider-response","21","302127","0.0-7.0-3.1","12","1","2025-07-30 08:38:26","36c45c0696341be0efffe67d72a12abb","134.255.57.120","Mozilla/5.0 (Windows NT 10.0; Win64; x64) AppleWebKit/537.36 (KHTML, like Gecko) Chrome/138.0.0.0 Safari/537.36","WebKit","Chrome","138.0.0.0","Windows","10.0","https://app.prolific.com/","hu-HU,hu;q=0.9,en-US;q=0.8,en;q=0.7","5c66cc9246bfc200019044b8","687a19d2168e237449fb8af4","6889d9fe66ae07a4534c3355","0","5c66cc9246bfc200019044b8","0","2025-07-30T08:41:03.506Z","","","","StressQ","","","","","","","","","","","50","","","","","","","","","","","","","","","","","","","","","","","","","","",""
"3391","","<div style=""width:500px;"">
  <p>What best describes how you currently feel?</p>
  </div>","33","html-slider-response","22","305519","0.0-7.0-4.1","12","1","2025-07-30 08:38:26","36c45c0696341be0efffe67d72a12abb","134.255.57.120","Mozilla/5.0 (Windows NT 10.0; Win64; x64) AppleWebKit/537.36 (KHTML, like Gecko) Chrome/138.0.0.0 Safari/537.36","WebKit","Chrome","138.0.0.0","Windows","10.0","https://app.prolific.com/","hu-HU,hu;q=0.9,en-US;q=0.8,en;q=0.7","5c66cc9246bfc200019044b8","687a19d2168e237449fb8af4","6889d9fe66ae07a4534c3355","0","5c66cc9246bfc200019044b8","0","2025-07-30T08:41:06.898Z","","","","MotivationQ","","","","","","","","","","","50","","","","","","","","","","","","","","","","","","","","","","","","","","",""
"","","","","ctl-task-cpt","23","324053","0.0-7.0-0.2","12","1","2025-07-30 08:38:26","36c45c0696341be0efffe67d72a12abb","134.255.57.120","Mozilla/5.0 (Windows NT 10.0; Win64; x64) AppleWebKit/537.36 (KHTML, like Gecko) Chrome/138.0.0.0 Safari/537.36","WebKit","Chrome","138.0.0.0","Windows","10.0","https://app.prolific.com/","hu-HU,hu;q=0.9,en-US;q=0.8,en;q=0.7","5c66cc9246bfc200019044b8","687a19d2168e237449fb8af4","6889d9fe66ae07a4534c3355","0","5c66cc9246bfc200019044b8","0","2025-07-30T08:41:25.432Z","","","","","","","","","","","","","","","","win-only","1","g1:NE,g2:SW","0.8","3","0","307263","1178.3","6180.8","15514","1","4","4","6","1","1","0","2","2","0.015151515151515152","5002.5","3000","2005","[""up"",""right""]","{""num_key_presses"":4,""num_perfect"":3,""num_errors"":1,""num_randdir"":0,""num_randdir_good_moves"":0,""num_whilered"":0,""num_whileblue"":1,""num_blue"":1,""num_good_moves"":4}","[837.6428571428571,844.7522245134626,0.2,837.6428571428571,844.7522245134626,101,1491.642857142857,889.7522245134626,201,2751.6428571428573,906.2522245134626,301.4,2751.6428571428573,904.7522245134626,401.9,2751.6428571428573,904.7522245134626,503,2751.6428571428573,904.7522245134626,607.2,2751.6428571428573,904.7522245134626,707.6,2751.6428571428573,904.7522245134626,812.1,2751.6428571428573,904.7522245134626,912.2,2751.6428571428573,904.7522245134626,1012.2,2751.6428571428573,904.7522245134626,1117.7,2751.6428571428573,904.7522245134626,1222.8,2751.6428571428573,904.7522245134626,1339.9,2751.6428571428573,904.7522245134626,1442.7,2751.6428571428573,904.7522245134626,1553,2751.6428571428573,904.7522245134626,1653.4,2751.6428571428573,904.7522245134626,1753.9,2751.6428571428573,904.7522245134626,1857.7,2751.6428571428573,904.7522245134626,1968,2751.6428571428573,904.7522245134626,2068.2,2751.6428571428573,904.7522245134626,2172.8,2751.6428571428573,904.7522245134626,2272.8,2751.6428571428573,904.7522245134626,2372.9,2751.6428571428573,904.7522245134626,2473,2751.6428571428573,904.7522245134626,2577.7,2751.6428571428573,904.7522245134626,2684.3,2751.6428571428573,904.7522245134626,2787.6,2751.6428571428573,904.7522245134626,2887.7,2751.6428571428573,904.7522245134626,2987.7,2751.6428571428573,904.7522245134626,3093,2751.6428571428573,904.7522245134626,3202.5,2751.6428571428573,904.7522245134626,3308.1,2751.6428571428573,904.7522245134626,3411.9,2751.6428571428573,904.7522245134626,3511.9,2751.6428571428573,904.7522245134626,3612,2751.6428571428573,904.7522245134626,3712,2751.6428571428573,904.7522245134626,3812,2751.6428571428573,904.7522245134626,3912,2751.6428571428573,904.7522245134626,4018.2,2751.6428571428573,904.7522245134626,4118.4,2751.6428571428573,904.7522245134626,4218.7,2751.6428571428573,904.7522245134626,4322.5,2751.6428571428573,904.7522245134626,4434.6,2751.6428571428573,904.7522245134626,4535.8,2751.6428571428573,904.7522245134626,4638.2,2751.6428571428573,904.7522245134626,4742.6,2751.6428571428573,904.7522245134626,4843.6,2751.6428571428573,904.7522245134626,4952]","[1457.5,1457.5,1000,0,457.5,""smooth"",""up"",""up"",""good_move"",4432.6,2974.9,2593.3,1457.7,381.6,""smooth"",""right"",""right"",""good_move"",6448.4,2015.4,1591.5,4433,423.9,""while_blue"",""right"",""right"",""good_move"",9217.5,2768.8,2305.4,6448.7,463.4,""smooth"",""up"",""up"",""good_move""]"
"3017","","<div style=""width:500px;"">
  <p>What determined the result of this run?</p>
  </div>","82","html-slider-response","24","327071","0.0-7.0-1.2","12","1","2025-07-30 08:38:26","36c45c0696341be0efffe67d72a12abb","134.255.57.120","Mozilla/5.0 (Windows NT 10.0; Win64; x64) AppleWebKit/537.36 (KHTML, like Gecko) Chrome/138.0.0.0 Safari/537.36","WebKit","Chrome","138.0.0.0","Windows","10.0","https://app.prolific.com/","hu-HU,hu;q=0.9,en-US;q=0.8,en;q=0.7","5c66cc9246bfc200019044b8","687a19d2168e237449fb8af4","6889d9fe66ae07a4534c3355","0","5c66cc9246bfc200019044b8","0","2025-07-30T08:41:28.450Z","","","","AttribQ","","","","","","","","","","","50","","","","","","","","","","","","","","","","","","","","","","","","","","",""
"2696","","<div style=""width:500px;"">
  <p>How much control did you have over the ball?</p>
  </div>","85","html-slider-response","25","329767","0.0-7.0-2.2","12","1","2025-07-30 08:38:26","36c45c0696341be0efffe67d72a12abb","134.255.57.120","Mozilla/5.0 (Windows NT 10.0; Win64; x64) AppleWebKit/537.36 (KHTML, like Gecko) Chrome/138.0.0.0 Safari/537.36","WebKit","Chrome","138.0.0.0","Windows","10.0","https://app.prolific.com/","hu-HU,hu;q=0.9,en-US;q=0.8,en;q=0.7","5c66cc9246bfc200019044b8","687a19d2168e237449fb8af4","6889d9fe66ae07a4534c3355","0","5c66cc9246bfc200019044b8","0","2025-07-30T08:41:31.146Z","","","","ControlQ","","","","","","","","","","","50","","","","","","","","","","","","","","","","","","","","","","","","","","",""
"2663","","<div style=""width:500px;"">
  <p>How would you describe your current emotional state?</p>
  </div>","59","html-slider-response","26","332431","0.0-7.0-3.2","12","1","2025-07-30 08:38:26","36c45c0696341be0efffe67d72a12abb","134.255.57.120","Mozilla/5.0 (Windows NT 10.0; Win64; x64) AppleWebKit/537.36 (KHTML, like Gecko) Chrome/138.0.0.0 Safari/537.36","WebKit","Chrome","138.0.0.0","Windows","10.0","https://app.prolific.com/","hu-HU,hu;q=0.9,en-US;q=0.8,en;q=0.7","5c66cc9246bfc200019044b8","687a19d2168e237449fb8af4","6889d9fe66ae07a4534c3355","0","5c66cc9246bfc200019044b8","0","2025-07-30T08:41:33.811Z","","","","StressQ","","","","","","","","","","","50","","","","","","","","","","","","","","","","","","","","","","","","","","",""
"4535","","<div style=""width:500px;"">
  <p>What best describes how you currently feel?</p>
  </div>","28","html-slider-response","27","336967","0.0-7.0-4.2","12","1","2025-07-30 08:38:26","36c45c0696341be0efffe67d72a12abb","134.255.57.120","Mozilla/5.0 (Windows NT 10.0; Win64; x64) AppleWebKit/537.36 (KHTML, like Gecko) Chrome/138.0.0.0 Safari/537.36","WebKit","Chrome","138.0.0.0","Windows","10.0","https://app.prolific.com/","hu-HU,hu;q=0.9,en-US;q=0.8,en;q=0.7","5c66cc9246bfc200019044b8","687a19d2168e237449fb8af4","6889d9fe66ae07a4534c3355","0","5c66cc9246bfc200019044b8","0","2025-07-30T08:41:38.346Z","","","","MotivationQ","","","","","","","","","","","50","","","","","","","","","","","","","","","","","","","","","","","","","","",""
"","","","","ctl-task-cpt","28","384544","0.0-7.0-0.3","12","1","2025-07-30 08:38:26","36c45c0696341be0efffe67d72a12abb","134.255.57.120","Mozilla/5.0 (Windows NT 10.0; Win64; x64) AppleWebKit/537.36 (KHTML, like Gecko) Chrome/138.0.0.0 Safari/537.36","WebKit","Chrome","138.0.0.0","Windows","10.0","https://app.prolific.com/","hu-HU,hu;q=0.9,en-US;q=0.8,en;q=0.7","5c66cc9246bfc200019044b8","687a19d2168e237449fb8af4","6889d9fe66ae07a4534c3355","0","5c66cc9246bfc200019044b8","0","2025-07-30T08:42:25.923Z","","","","","","","","","","","","","","","","win-only","2","g1:SE,g2:NW","0.7","4","0","338710.9","1216.6","6221.2","44546.5","1","4","8","6","2","8","7","9","2","0.06818181818181818","5004.6","3000","180","[""left"",""up""]","{""num_key_presses"":10,""num_perfect"":6,""num_errors"":1,""num_randdir"":3,""num_randdir_good_moves"":1,""num_whilered"":0,""num_whileblue"":1,""num_blue"":4,""num_good_moves"":8}","[842.1428571428571,817.7522245134626,0.3,840.6428571428571,819.2522245134626,104.5,839.1428571428571,820.7522245134626,208.6,1820.142857142857,817.7522245134626,308.9,2751.6428571428573,793.7522245134626,414.1,2751.6428571428573,793.7522245134626,514.6,2751.6428571428573,793.7522245134626,619.1,2751.6428571428573,793.7522245134626,724.5,2751.6428571428573,793.7522245134626,829.2,2751.6428571428573,793.7522245134626,933.8,2751.6428571428573,793.7522245134626,1034.3,2751.6428571428573,793.7522245134626,1139,2751.6428571428573,793.7522245134626,1243.9,2751.6428571428573,793.7522245134626,1344.8,2751.6428571428573,793.7522245134626,1447.1,2751.6428571428573,793.7522245134626,1548.7,2751.6428571428573,793.7522245134626,1649.4,2751.6428571428573,793.7522245134626,1750.2,2751.6428571428573,793.7522245134626,1852.6,2751.6428571428573,793.7522245134626,1955.1,2751.6428571428573,793.7522245134626,2060.7,2751.6428571428573,793.7522245134626,2166.8,2751.6428571428573,793.7522245134626,2267.9,2751.6428571428573,793.7522245134626,2369.3,2751.6428571428573,793.7522245134626,2469.4,2751.6428571428573,793.7522245134626,2569.5,2751.6428571428573,793.7522245134626,2673.7,2751.6428571428573,793.7522245134626,2774.7,2751.6428571428573,793.7522245134626,2883.4,2751.6428571428573,793.7522245134626,2983.9,2751.6428571428573,793.7522245134626,3084.3,2751.6428571428573,793.7522245134626,3184.6,2751.6428571428573,793.7522245134626,3285.6,2751.6428571428573,793.7522245134626,3389.9,2751.6428571428573,793.7522245134626,3498.2,2751.6428571428573,793.7522245134626,3598.3,2751.6428571428573,793.7522245134626,3700.3,2751.6428571428573,793.7522245134626,3804.6,2751.6428571428573,793.7522245134626,3910,2751.6428571428573,793.7522245134626,4012.5,2751.6428571428573,793.7522245134626,4118,2751.6428571428573,793.7522245134626,4220.1,2751.6428571428573,793.7522245134626,4320.3,2751.6428571428573,793.7522245134626,4424.8,2751.6428571428573,793.7522245134626,4525.6,2751.6428571428573,793.7522245134626,4629.5,2751.6428571428573,793.7522245134626,4733.4,2751.6428571428573,793.7522245134626,4833.5,2751.6428571428573,793.7522245134626,4934]","[1353.1,1353.1,1000,0,353.1,""smooth"",""up"",""up"",""good_move"",3801.1,2447.7,2095.5,1353.4,352.2,""oops"",""up"",""left"",""good_move"",6181.4,2380,2009.8,3801.4,370.2,""smooth"",""up"",""up"",""good_move"",13417.6,7236,2716.8,10333.1,367.8,""smooth"",""left"",""left"",""good_move"",19465.6,6047.7,2172,16864.2,429.5,""oops"",""up"",""down"",""bad_move"",22769.2,3303.2,2923.4,19466.1,379.8,""while_blue"",""left"",""left"",""good_move"",25761.1,2991.6,2479.7,22769.6,511.9,""smooth"",""up"",""up"",""good_move"",31397.2,5635.7,2514.6,28499.7,382.9,""oops"",""up"",""down"",""bad_move"",34531.8,3134.4,2732.2,31397.4,402.2,""smooth"",""up"",""up"",""good_move"",38201,3669,3296.9,34532,372.1,""smooth"",""up"",""up"",""good_move""]"
"3838","","<div style=""width:500px;"">
  <p>What determined the result of this run?</p>
  </div>","41","html-slider-response","29","388383","0.0-7.0-1.3","12","1","2025-07-30 08:38:26","36c45c0696341be0efffe67d72a12abb","134.255.57.120","Mozilla/5.0 (Windows NT 10.0; Win64; x64) AppleWebKit/537.36 (KHTML, like Gecko) Chrome/138.0.0.0 Safari/537.36","WebKit","Chrome","138.0.0.0","Windows","10.0","https://app.prolific.com/","hu-HU,hu;q=0.9,en-US;q=0.8,en;q=0.7","5c66cc9246bfc200019044b8","687a19d2168e237449fb8af4","6889d9fe66ae07a4534c3355","0","5c66cc9246bfc200019044b8","0","2025-07-30T08:42:29.762Z","","","","AttribQ","","","","","","","","","","","50","","","","","","","","","","","","","","","","","","","","","","","","","","",""
"3543","","<div style=""width:500px;"">
  <p>How much control did you have over the ball?</p>
  </div>","65","html-slider-response","30","391927","0.0-7.0-2.3","12","1","2025-07-30 08:38:26","36c45c0696341be0efffe67d72a12abb","134.255.57.120","Mozilla/5.0 (Windows NT 10.0; Win64; x64) AppleWebKit/537.36 (KHTML, like Gecko) Chrome/138.0.0.0 Safari/537.36","WebKit","Chrome","138.0.0.0","Windows","10.0","https://app.prolific.com/","hu-HU,hu;q=0.9,en-US;q=0.8,en;q=0.7","5c66cc9246bfc200019044b8","687a19d2168e237449fb8af4","6889d9fe66ae07a4534c3355","0","5c66cc9246bfc200019044b8","0","2025-07-30T08:42:33.306Z","","","","ControlQ","","","","","","","","","","","50","","","","","","","","","","","","","","","","","","","","","","","","","","",""
"2591","","<div style=""width:500px;"">
  <p>How would you describe your current emotional state?</p>
  </div>","62","html-slider-response","31","394519","0.0-7.0-3.3","12","1","2025-07-30 08:38:26","36c45c0696341be0efffe67d72a12abb","134.255.57.120","Mozilla/5.0 (Windows NT 10.0; Win64; x64) AppleWebKit/537.36 (KHTML, like Gecko) Chrome/138.0.0.0 Safari/537.36","WebKit","Chrome","138.0.0.0","Windows","10.0","https://app.prolific.com/","hu-HU,hu;q=0.9,en-US;q=0.8,en;q=0.7","5c66cc9246bfc200019044b8","687a19d2168e237449fb8af4","6889d9fe66ae07a4534c3355","0","5c66cc9246bfc200019044b8","0","2025-07-30T08:42:35.898Z","","","","StressQ","","","","","","","","","","","50","","","","","","","","","","","","","","","","","","","","","","","","","","",""
"3159","","<div style=""width:500px;"">
  <p>What best describes how you currently feel?</p>
  </div>","43","html-slider-response","32","397679","0.0-7.0-4.3","12","1","2025-07-30 08:38:26","36c45c0696341be0efffe67d72a12abb","134.255.57.120","Mozilla/5.0 (Windows NT 10.0; Win64; x64) AppleWebKit/537.36 (KHTML, like Gecko) Chrome/138.0.0.0 Safari/537.36","WebKit","Chrome","138.0.0.0","Windows","10.0","https://app.prolific.com/","hu-HU,hu;q=0.9,en-US;q=0.8,en;q=0.7","5c66cc9246bfc200019044b8","687a19d2168e237449fb8af4","6889d9fe66ae07a4534c3355","0","5c66cc9246bfc200019044b8","0","2025-07-30T08:42:39.058Z","","","","MotivationQ","","","","","","","","","","","50","","","","","","","","","","","","","","","","","","","","","","","","","","",""
"","","","","ctl-task-cpt","33","434068","0.0-7.0-0.4","12","1","2025-07-30 08:38:26","36c45c0696341be0efffe67d72a12abb","134.255.57.120","Mozilla/5.0 (Windows NT 10.0; Win64; x64) AppleWebKit/537.36 (KHTML, like Gecko) Chrome/138.0.0.0 Safari/537.36","WebKit","Chrome","138.0.0.0","Windows","10.0","https://app.prolific.com/","hu-HU,hu;q=0.9,en-US;q=0.8,en;q=0.7","5c66cc9246bfc200019044b8","687a19d2168e237449fb8af4","6889d9fe66ae07a4534c3355","0","5c66cc9246bfc200019044b8","0","2025-07-30T08:43:15.447Z","","","","","","","","","","","","","","","","win-only","3","g1:SW,g2:NE","0.6","5","0","399422.8","1473.2","6477","33371","1","4","4","6","2","4","4","13","9","0.09848484848484848","5003.8","3000","835","[""up"",""right""]","{""num_key_presses"":6,""num_perfect"":4,""num_errors"":0,""num_randdir"":2,""num_randdir_good_moves"":2,""num_whilered"":0,""num_whileblue"":0,""num_blue"":3,""num_good_moves"":6}","[849.6428571428571,823.7522245134626,0.5,848.1428571428571,823.7522245134626,103,1055.142857142857,904.7522245134626,207.2,2571.6428571428573,970.7522245134626,307.7,2751.6428571428573,964.7522245134626,408.2,2751.6428571428573,964.7522245134626,512.1,2751.6428571428573,964.7522245134626,612.5,2751.6428571428573,964.7522245134626,721.4,2751.6428571428573,964.7522245134626,823.4,2751.6428571428573,964.7522245134626,923.4,2751.6428571428573,964.7522245134626,1027.6,2751.6428571428573,964.7522245134626,1137.1,2751.6428571428573,964.7522245134626,1237.5,2751.6428571428573,964.7522245134626,1337.5,2751.6428571428573,964.7522245134626,1437.8,2751.6428571428573,964.7522245134626,1542.8,2751.6428571428573,964.7522245134626,1656.5,2751.6428571428573,964.7522245134626,1759,2751.6428571428573,964.7522245134626,1871.1,2751.6428571428573,964.7522245134626,1971.4,2751.6428571428573,964.7522245134626,2072.9,2751.6428571428573,964.7522245134626,2177.9,2751.6428571428573,964.7522245134626,2283.7,2751.6428571428573,964.7522245134626,2388.1,2751.6428571428573,964.7522245134626,2492.6,2751.6428571428573,964.7522245134626,2592.9,2751.6428571428573,964.7522245134626,2707.1,2751.6428571428573,964.7522245134626,2808.6,2751.6428571428573,964.7522245134626,2912.1,2751.6428571428573,964.7522245134626,3020.6,2751.6428571428573,964.7522245134626,3123,2751.6428571428573,964.7522245134626,3227.6,2751.6428571428573,964.7522245134626,3328.5,2751.6428571428573,964.7522245134626,3437.7,2751.6428571428573,964.7522245134626,3538.8,2751.6428571428573,964.7522245134626,3642.7,2751.6428571428573,964.7522245134626,3747.5,2751.6428571428573,964.7522245134626,3847.7,2751.6428571428573,964.7522245134626,3953,2751.6428571428573,964.7522245134626,4058.4,2751.6428571428573,964.7522245134626,4158.7,2751.6428571428573,964.7522245134626,4270.9,2751.6428571428573,964.7522245134626,4373,2751.6428571428573,964.7522245134626,4477.8,2751.6428571428573,964.7522245134626,4582.8,2751.6428571428573,964.7522245134626,4684,2751.6428571428573,964.7522245134626,4788.5,2751.6428571428573,964.7522245134626,4892.7,2751.6428571428573,964.7522245134626,4992.7]","[1369.9,1369.9,1000,0,369.9,""smooth"",""right"",""right"",""good_move"",4945.4,3575,2988.2,1370.4,586.8,""oops"",""right"",""up"",""good_move"",13834.6,8888.9,1990.1,11389.1,455.4,""smooth"",""right"",""right"",""good_move"",21441.3,7606.6,3212.8,17848.6,379.9,""smooth"",""up"",""up"",""good_move"",24097.7,2656.2,2271.3,21441.5,384.9,""oops"",""up"",""up"",""good_move"",26801.4,2703.4,2342.4,24098,361,""smooth"",""right"",""right"",""good_move""]"
"3530","","<div style=""width:500px;"">
  <p>What determined the result of this run?</p>
  </div>","60","html-slider-response","34","437599","0.0-7.0-1.4","12","1","2025-07-30 08:38:26","36c45c0696341be0efffe67d72a12abb","134.255.57.120","Mozilla/5.0 (Windows NT 10.0; Win64; x64) AppleWebKit/537.36 (KHTML, like Gecko) Chrome/138.0.0.0 Safari/537.36","WebKit","Chrome","138.0.0.0","Windows","10.0","https://app.prolific.com/","hu-HU,hu;q=0.9,en-US;q=0.8,en;q=0.7","5c66cc9246bfc200019044b8","687a19d2168e237449fb8af4","6889d9fe66ae07a4534c3355","0","5c66cc9246bfc200019044b8","0","2025-07-30T08:43:18.978Z","","","","AttribQ","","","","","","","","","","","50","","","","","","","","","","","","","","","","","","","","","","","","","","",""
"4047","","<div style=""width:500px;"">
  <p>How much control did you have over the ball?</p>
  </div>","85","html-slider-response","35","441647","0.0-7.0-2.4","12","1","2025-07-30 08:38:26","36c45c0696341be0efffe67d72a12abb","134.255.57.120","Mozilla/5.0 (Windows NT 10.0; Win64; x64) AppleWebKit/537.36 (KHTML, like Gecko) Chrome/138.0.0.0 Safari/537.36","WebKit","Chrome","138.0.0.0","Windows","10.0","https://app.prolific.com/","hu-HU,hu;q=0.9,en-US;q=0.8,en;q=0.7","5c66cc9246bfc200019044b8","687a19d2168e237449fb8af4","6889d9fe66ae07a4534c3355","0","5c66cc9246bfc200019044b8","0","2025-07-30T08:43:23.026Z","","","","ControlQ","","","","","","","","","","","50","","","","","","","","","","","","","","","","","","","","","","","","","","",""
"2463","","<div style=""width:500px;"">
  <p>How would you describe your current emotional state?</p>
  </div>","40","html-slider-response","36","444111","0.0-7.0-3.4","12","1","2025-07-30 08:38:26","36c45c0696341be0efffe67d72a12abb","134.255.57.120","Mozilla/5.0 (Windows NT 10.0; Win64; x64) AppleWebKit/537.36 (KHTML, like Gecko) Chrome/138.0.0.0 Safari/537.36","WebKit","Chrome","138.0.0.0","Windows","10.0","https://app.prolific.com/","hu-HU,hu;q=0.9,en-US;q=0.8,en;q=0.7","5c66cc9246bfc200019044b8","687a19d2168e237449fb8af4","6889d9fe66ae07a4534c3355","0","5c66cc9246bfc200019044b8","0","2025-07-30T08:43:25.490Z","","","","StressQ","","","","","","","","","","","50","","","","","","","","","","","","","","","","","","","","","","","","","","",""
"6399","","<div style=""width:500px;"">
  <p>What best describes how you currently feel?</p>
  </div>","60","html-slider-response","37","450511","0.0-7.0-4.4","12","1","2025-07-30 08:38:26","36c45c0696341be0efffe67d72a12abb","134.255.57.120","Mozilla/5.0 (Windows NT 10.0; Win64; x64) AppleWebKit/537.36 (KHTML, like Gecko) Chrome/138.0.0.0 Safari/537.36","WebKit","Chrome","138.0.0.0","Windows","10.0","https://app.prolific.com/","hu-HU,hu;q=0.9,en-US;q=0.8,en;q=0.7","5c66cc9246bfc200019044b8","687a19d2168e237449fb8af4","6889d9fe66ae07a4534c3355","0","5c66cc9246bfc200019044b8","0","2025-07-30T08:43:31.890Z","","","","MotivationQ","","","","","","","","","","","50","","","","","","","","","","","","","","","","","","","","","","","","","","",""
"","","","","ctl-task-cpt","38","493065","0.0-7.0-0.5","12","1","2025-07-30 08:38:26","36c45c0696341be0efffe67d72a12abb","134.255.57.120","Mozilla/5.0 (Windows NT 10.0; Win64; x64) AppleWebKit/537.36 (KHTML, like Gecko) Chrome/138.0.0.0 Safari/537.36","WebKit","Chrome","138.0.0.0","Windows","10.0","https://app.prolific.com/","hu-HU,hu;q=0.9,en-US;q=0.8,en;q=0.7","5c66cc9246bfc200019044b8","687a19d2168e237449fb8af4","6889d9fe66ae07a4534c3355","0","5c66cc9246bfc200019044b8","0","2025-07-30T08:44:14.444Z","","","","","","","","","","","","","","","","win-only","0","g1:NW,g2:SE","0.5","6","0","452255","1148","6152.3","39529.7","1","4","8","6","2","-8","-8","5","13","0.03787878787878788","5004.3","3000","-2270","[""down"",""right""]","{""num_key_presses"":10,""num_perfect"":5,""num_errors"":0,""num_randdir"":5,""num_randdir_good_moves"":2,""num_whilered"":0,""num_whileblue"":0,""num_blue"":1,""num_good_moves"":7}","[842.1428571428571,834.2522245134626,0.2,842.1428571428571,834.2522245134626,101.4,1325.142857142857,843.2522245134626,202.5,2751.6428571428573,843.2522245134626,307.5,2751.6428571428573,843.2522245134626,417.8,2751.6428571428573,843.2522245134626,519,2751.6428571428573,843.2522245134626,619.1,2751.6428571428573,843.2522245134626,722.7,2751.6428571428573,843.2522245134626,823.3,2751.6428571428573,843.2522245134626,933.2,2751.6428571428573,843.2522245134626,1037.5,2751.6428571428573,843.2522245134626,1142.3,2751.6428571428573,843.2522245134626,1242.7,2751.6428571428573,843.2522245134626,1342.8,2751.6428571428573,843.2522245134626,1447.8,2751.6428571428573,843.2522245134626,1551.3,2751.6428571428573,843.2522245134626,1653.1,2751.6428571428573,843.2522245134626,1753.4,2751.6428571428573,843.2522245134626,1857.9,2751.6428571428573,843.2522245134626,1958.4,2751.6428571428573,843.2522245134626,2068.3,2751.6428571428573,843.2522245134626,2172.7,2751.6428571428573,843.2522245134626,2283,2751.6428571428573,843.2522245134626,2385.5,2751.6428571428573,843.2522245134626,2487.2,2751.6428571428573,843.2522245134626,2587.8,2751.6428571428573,843.2522245134626,2701.1,2751.6428571428573,843.2522245134626,2802.1,2751.6428571428573,843.2522245134626,2902.3,2751.6428571428573,843.2522245134626,3007.2,2751.6428571428573,843.2522245134626,3107.8,2751.6428571428573,843.2522245134626,3208.8,2751.6428571428573,843.2522245134626,3317.1,2751.6428571428573,843.2522245134626,3418.4,2751.6428571428573,843.2522245134626,3522.8,2751.6428571428573,843.2522245134626,3635.8,2751.6428571428573,843.2522245134626,3736.2,2751.6428571428573,843.2522245134626,3837.3,2751.6428571428573,843.2522245134626,3937.6,2751.6428571428573,843.2522245134626,4037.7,2751.6428571428573,843.2522245134626,4142.5,2751.6428571428573,843.2522245134626,4242.6,2751.6428571428573,843.2522245134626,4342.6,2751.6428571428573,843.2522245134626,4447.7,2751.6428571428573,843.2522245134626,4551.4,2751.6428571428573,843.2522245134626,4653.1,2751.6428571428573,843.2522245134626,4759,2751.6428571428573,843.2522245134626,4862.9,2751.6428571428573,843.2522245134626,4967.3]","[1365.9,1365.9,1000,0,365.9,""oops"",""down"",""left"",""bad_move"",4246.3,2880.1,2531.4,1366.2,348.7,""smooth"",""down"",""down"",""good_move"",7125.9,2879.3,2520.4,4246.6,358.9,""oops"",""down"",""down"",""good_move"",10061.8,2935.9,2563.7,7126,372.1,""oops"",""right"",""left"",""bad_move"",13798.1,3736.1,3334.2,10062,401.9,""smooth"",""down"",""down"",""good_move"",20326.1,6527.8,2875.3,17064.5,386.3,""smooth"",""right"",""right"",""good_move"",22837.8,2511.5,2106.2,20326.3,405.3,""oops"",""right"",""left"",""bad_move"",25598.2,2760.2,2335,22838,425.2,""oops"",""right"",""right"",""good_move"",27997.9,2399.4,2033.1,25598.5,366.3,""smooth"",""right"",""right"",""good_move"",30966,2967.8,2606.1,27998.2,361.7,""smooth"",""right"",""right"",""good_move""]"
"3101","","<div style=""width:500px;"">
  <p>What determined the result of this run?</p>
  </div>","9","html-slider-response","39","496167","0.0-7.0-1.5","12","1","2025-07-30 08:38:26","36c45c0696341be0efffe67d72a12abb","134.255.57.120","Mozilla/5.0 (Windows NT 10.0; Win64; x64) AppleWebKit/537.36 (KHTML, like Gecko) Chrome/138.0.0.0 Safari/537.36","WebKit","Chrome","138.0.0.0","Windows","10.0","https://app.prolific.com/","hu-HU,hu;q=0.9,en-US;q=0.8,en;q=0.7","5c66cc9246bfc200019044b8","687a19d2168e237449fb8af4","6889d9fe66ae07a4534c3355","0","5c66cc9246bfc200019044b8","0","2025-07-30T08:44:17.546Z","","","","AttribQ","","","","","","","","","","","50","","","","","","","","","","","","","","","","","","","","","","","","","","",""
"5471","","<div style=""width:500px;"">
  <p>How much control did you have over the ball?</p>
  </div>","12","html-slider-response","40","501639","0.0-7.0-2.5","12","1","2025-07-30 08:38:26","36c45c0696341be0efffe67d72a12abb","134.255.57.120","Mozilla/5.0 (Windows NT 10.0; Win64; x64) AppleWebKit/537.36 (KHTML, like Gecko) Chrome/138.0.0.0 Safari/537.36","WebKit","Chrome","138.0.0.0","Windows","10.0","https://app.prolific.com/","hu-HU,hu;q=0.9,en-US;q=0.8,en;q=0.7","5c66cc9246bfc200019044b8","687a19d2168e237449fb8af4","6889d9fe66ae07a4534c3355","0","5c66cc9246bfc200019044b8","0","2025-07-30T08:44:23.018Z","","","","ControlQ","","","","","","","","","","","50","","","","","","","","","","","","","","","","","","","","","","","","","","",""
"2855","","<div style=""width:500px;"">
  <p>How would you describe your current emotional state?</p>
  </div>","58","html-slider-response","41","504495","0.0-7.0-3.5","12","1","2025-07-30 08:38:26","36c45c0696341be0efffe67d72a12abb","134.255.57.120","Mozilla/5.0 (Windows NT 10.0; Win64; x64) AppleWebKit/537.36 (KHTML, like Gecko) Chrome/138.0.0.0 Safari/537.36","WebKit","Chrome","138.0.0.0","Windows","10.0","https://app.prolific.com/","hu-HU,hu;q=0.9,en-US;q=0.8,en;q=0.7","5c66cc9246bfc200019044b8","687a19d2168e237449fb8af4","6889d9fe66ae07a4534c3355","0","5c66cc9246bfc200019044b8","0","2025-07-30T08:44:25.874Z","","","","StressQ","","","","","","","","","","","50","","","","","","","","","","","","","","","","","","","","","","","","","","",""
"2199","","<div style=""width:500px;"">
  <p>What best describes how you currently feel?</p>
  </div>","12","html-slider-response","42","506695","0.0-7.0-4.5","12","1","2025-07-30 08:38:26","36c45c0696341be0efffe67d72a12abb","134.255.57.120","Mozilla/5.0 (Windows NT 10.0; Win64; x64) AppleWebKit/537.36 (KHTML, like Gecko) Chrome/138.0.0.0 Safari/537.36","WebKit","Chrome","138.0.0.0","Windows","10.0","https://app.prolific.com/","hu-HU,hu;q=0.9,en-US;q=0.8,en;q=0.7","5c66cc9246bfc200019044b8","687a19d2168e237449fb8af4","6889d9fe66ae07a4534c3355","0","5c66cc9246bfc200019044b8","0","2025-07-30T08:44:28.074Z","","","","MotivationQ","","","","","","","","","","","50","","","","","","","","","","","","","","","","","","","","","","","","","","",""
"","","","","ctl-task-cpt","43","533679","0.0-7.0-0.6","12","1","2025-07-30 08:38:26","36c45c0696341be0efffe67d72a12abb","134.255.57.120","Mozilla/5.0 (Windows NT 10.0; Win64; x64) AppleWebKit/537.36 (KHTML, like Gecko) Chrome/138.0.0.0 Safari/537.36","WebKit","Chrome","138.0.0.0","Windows","10.0","https://app.prolific.com/","hu-HU,hu;q=0.9,en-US;q=0.8,en;q=0.7","5c66cc9246bfc200019044b8","687a19d2168e237449fb8af4","6889d9fe66ae07a4534c3355","0","5c66cc9246bfc200019044b8","0","2025-07-30T08:44:55.058Z","","","","","","","","","","","","","","","","win-only","2","g1:SE,g2:NW","0.4","7","0","508439","1232.2","6236.6","23967.6","1","4","8","6","1","1","0","5","5","0.03787878787878788","5004.4","3000","1760","[""down"",""right""]","{""num_key_presses"":4,""num_perfect"":3,""num_errors"":1,""num_randdir"":0,""num_randdir_good_moves"":0,""num_whilered"":0,""num_whileblue"":1,""num_blue"":3,""num_good_moves"":4}","[836.1428571428571,838.7522245134626,0.2,836.1428571428571,838.7522245134626,101.9,1094.142857142857,862.7522245134626,204.3,2751.6428571428573,865.7522245134626,304.4,2751.6428571428573,865.7522245134626,408.8,2751.6428571428573,865.7522245134626,517.2,2751.6428571428573,865.7522245134626,618.7,2751.6428571428573,865.7522245134626,720.6,2751.6428571428573,865.7522245134626,823.2,2751.6428571428573,865.7522245134626,929.7,2751.6428571428573,865.7522245134626,1033.4,2751.6428571428573,865.7522245134626,1138.2,2751.6428571428573,865.7522245134626,1238.6,2751.6428571428573,865.7522245134626,1343.6,2751.6428571428573,865.7522245134626,1446,2751.6428571428573,865.7522245134626,1550.4,2751.6428571428573,865.7522245134626,1653.3,2751.6428571428573,865.7522245134626,1754.4,2751.6428571428573,865.7522245134626,1858.4,2751.6428571428573,865.7522245134626,1958.5,2751.6428571428573,865.7522245134626,2058.9,2751.6428571428573,865.7522245134626,2168.5,2751.6428571428573,865.7522245134626,2268.7,2751.6428571428573,865.7522245134626,2373.5,2751.6428571428573,865.7522245134626,2478,2751.6428571428573,865.7522245134626,2581.6,2751.6428571428573,865.7522245134626,2684.1,2751.6428571428573,865.7522245134626,2788.3,2751.6428571428573,865.7522245134626,2888.5,2751.6428571428573,865.7522245134626,2989.3,2751.6428571428573,865.7522245134626,3093.1,2751.6428571428573,865.7522245134626,3194.1,2751.6428571428573,865.7522245134626,3298.5,2751.6428571428573,865.7522245134626,3398.5,2751.6428571428573,865.7522245134626,3498.7,2751.6428571428573,865.7522245134626,3604.3,2751.6428571428573,865.7522245134626,3708.6,2751.6428571428573,865.7522245134626,3813.3,2751.6428571428573,865.7522245134626,3914.2,2751.6428571428573,865.7522245134626,4018.3,2751.6428571428573,865.7522245134626,4119.9,2751.6428571428573,865.7522245134626,4223.3,2751.6428571428573,865.7522245134626,4328.2,2751.6428571428573,865.7522245134626,4433.4,2751.6428571428573,865.7522245134626,4533.9,2751.6428571428573,865.7522245134626,4634.5,2751.6428571428573,865.7522245134626,4735.1,2751.6428571428573,865.7522245134626,4838,2751.6428571428573,865.7522245134626,4938.5]","[5281.6,5281.6,2918.7,2010.1,352.8,""smooth"",""right"",""right"",""good_move"",8577.5,3295.5,2743.3,5282,552.3,""smooth"",""right"",""right"",""good_move"",10817.6,2239.8,1892,8577.8,347.8,""while_blue"",""down"",""down"",""good_move"",17641.7,6823.8,2819.6,14458.7,363.4,""smooth"",""down"",""down"",""good_move""]"
"5751","","<div style=""width:500px;"">
  <p>What determined the result of this run?</p>
  </div>","98","html-slider-response","44","539431","0.0-7.0-1.6","12","1","2025-07-30 08:38:26","36c45c0696341be0efffe67d72a12abb","134.255.57.120","Mozilla/5.0 (Windows NT 10.0; Win64; x64) AppleWebKit/537.36 (KHTML, like Gecko) Chrome/138.0.0.0 Safari/537.36","WebKit","Chrome","138.0.0.0","Windows","10.0","https://app.prolific.com/","hu-HU,hu;q=0.9,en-US;q=0.8,en;q=0.7","5c66cc9246bfc200019044b8","687a19d2168e237449fb8af4","6889d9fe66ae07a4534c3355","0","5c66cc9246bfc200019044b8","0","2025-07-30T08:45:00.810Z","","","","AttribQ","","","","","","","","","","","50","","","","","","","","","","","","","","","","","","","","","","","","","","",""
"3167","","<div style=""width:500px;"">
  <p>How much control did you have over the ball?</p>
  </div>","98","html-slider-response","45","542599","0.0-7.0-2.6","12","1","2025-07-30 08:38:26","36c45c0696341be0efffe67d72a12abb","134.255.57.120","Mozilla/5.0 (Windows NT 10.0; Win64; x64) AppleWebKit/537.36 (KHTML, like Gecko) Chrome/138.0.0.0 Safari/537.36","WebKit","Chrome","138.0.0.0","Windows","10.0","https://app.prolific.com/","hu-HU,hu;q=0.9,en-US;q=0.8,en;q=0.7","5c66cc9246bfc200019044b8","687a19d2168e237449fb8af4","6889d9fe66ae07a4534c3355","0","5c66cc9246bfc200019044b8","0","2025-07-30T08:45:03.978Z","","","","ControlQ","","","","","","","","","","","50","","","","","","","","","","","","","","","","","","","","","","","","","","",""
"2583","","<div style=""width:500px;"">
  <p>How would you describe your current emotional state?</p>
  </div>","79","html-slider-response","46","545183","0.0-7.0-3.6","12","1","2025-07-30 08:38:26","36c45c0696341be0efffe67d72a12abb","134.255.57.120","Mozilla/5.0 (Windows NT 10.0; Win64; x64) AppleWebKit/537.36 (KHTML, like Gecko) Chrome/138.0.0.0 Safari/537.36","WebKit","Chrome","138.0.0.0","Windows","10.0","https://app.prolific.com/","hu-HU,hu;q=0.9,en-US;q=0.8,en;q=0.7","5c66cc9246bfc200019044b8","687a19d2168e237449fb8af4","6889d9fe66ae07a4534c3355","0","5c66cc9246bfc200019044b8","0","2025-07-30T08:45:06.562Z","","","","StressQ","","","","","","","","","","","50","","","","","","","","","","","","","","","","","","","","","","","","","","",""
"2615","","<div style=""width:500px;"">
  <p>What best describes how you currently feel?</p>
  </div>","19","html-slider-response","47","547799","0.0-7.0-4.6","12","1","2025-07-30 08:38:26","36c45c0696341be0efffe67d72a12abb","134.255.57.120","Mozilla/5.0 (Windows NT 10.0; Win64; x64) AppleWebKit/537.36 (KHTML, like Gecko) Chrome/138.0.0.0 Safari/537.36","WebKit","Chrome","138.0.0.0","Windows","10.0","https://app.prolific.com/","hu-HU,hu;q=0.9,en-US;q=0.8,en;q=0.7","5c66cc9246bfc200019044b8","687a19d2168e237449fb8af4","6889d9fe66ae07a4534c3355","0","5c66cc9246bfc200019044b8","0","2025-07-30T08:45:09.178Z","","","","MotivationQ","","","","","","","","","","","50","","","","","","","","","","","","","","","","","","","","","","","","","","",""
"","","","","ctl-task-cpt","48","589668","0.0-7.0-0.7","12","1","2025-07-30 08:38:26","36c45c0696341be0efffe67d72a12abb","134.255.57.120","Mozilla/5.0 (Windows NT 10.0; Win64; x64) AppleWebKit/537.36 (KHTML, like Gecko) Chrome/138.0.0.0 Safari/537.36","WebKit","Chrome","138.0.0.0","Windows","10.0","https://app.prolific.com/","hu-HU,hu;q=0.9,en-US;q=0.8,en;q=0.7","5c66cc9246bfc200019044b8","687a19d2168e237449fb8af4","6889d9fe66ae07a4534c3355","0","5c66cc9246bfc200019044b8","0","2025-07-30T08:45:51.047Z","","","","","","","","","","","","","","","","win-only","2","g1:SE,g2:NW","0.3","8","0","549543.2","915.4","5916.5","38851.3","1","4","4","6","2","-4","-5","0","5","0","5001.1","3000","-2965","[""left"",""up""]","{""num_key_presses"":9,""num_perfect"":3,""num_errors"":1,""num_randdir"":5,""num_randdir_good_moves"":2,""num_whilered"":0,""num_whileblue"":1,""num_blue"":2,""num_good_moves"":6}","[845.1428571428571,834.2522245134626,0.4,848.1428571428571,835.7522245134626,100.9,1763.142857142857,820.7522245134626,206.2,2751.6428571428573,723.2522245134626,320.4,2751.6428571428573,723.2522245134626,426.1,2751.6428571428573,723.2522245134626,526.4,2751.6428571428573,723.2522245134626,630.6,2751.6428571428573,723.2522245134626,734.8,2751.6428571428573,723.2522245134626,835.7,2751.6428571428573,723.2522245134626,936.9,2751.6428571428573,723.2522245134626,1039.9,2751.6428571428573,723.2522245134626,1141.4,2751.6428571428573,723.2522245134626,1250.7,2751.6428571428573,723.2522245134626,1352.9,2751.6428571428573,723.2522245134626,1456.6,2751.6428571428573,723.2522245134626,1569.8,2751.6428571428573,723.2522245134626,1670.1,2751.6428571428573,723.2522245134626,1770.2,2751.6428571428573,723.2522245134626,1871.4,2751.6428571428573,723.2522245134626,1984.8,2751.6428571428573,723.2522245134626,2087.5,2751.6428571428573,723.2522245134626,2190.9,2751.6428571428573,723.2522245134626,2291.2,2751.6428571428573,723.2522245134626,2395.5,2751.6428571428573,723.2522245134626,2500.6,2751.6428571428573,723.2522245134626,2601.8,2751.6428571428573,723.2522245134626,2704.4,2751.6428571428573,723.2522245134626,2805.2,2751.6428571428573,723.2522245134626,2905.6,2751.6428571428573,723.2522245134626,3018.3,2751.6428571428573,723.2522245134626,3120.6,2751.6428571428573,723.2522245134626,3234.8,2751.6428571428573,723.2522245134626,3335.3,2751.6428571428573,723.2522245134626,3435.4,2751.6428571428573,723.2522245134626,3540,2751.6428571428573,723.2522245134626,3641.3,2751.6428571428573,723.2522245134626,3741.7,2751.6428571428573,723.2522245134626,3845.5,2751.6428571428573,723.2522245134626,3954.2,2751.6428571428573,723.2522245134626,4056.2,2751.6428571428573,723.2522245134626,4160.7,2751.6428571428573,723.2522245134626,4268.2,2751.6428571428573,723.2522245134626,4371.1,2751.6428571428573,723.2522245134626,4475.2,2751.6428571428573,723.2522245134626,4576.1,2751.6428571428573,723.2522245134626,4676.2,2751.6428571428573,723.2522245134626,4780.8,2751.6428571428573,723.2522245134626,4885.8,2751.6428571428573,723.2522245134626,4991.2]","[1337.7,1337.7,1000,0,337.7,""smooth"",""up"",""up"",""good_move"",4273.5,2935.6,2557.7,1337.9,377.9,""smooth"",""up"",""up"",""good_move"",7225.9,2952.3,2554.6,4273.7,397.7,""oops"",""left"",""up"",""good_move"",10316.9,3090.7,2678.4,7226.2,412.3,""oops"",""left"",""down"",""bad_move"",13033.8,2716.4,2400.2,10317.4,316.2,""while_blue"",""left"",""left"",""good_move"",20481.8,7447.7,2919,17024.5,538.3,""oops"",""left"",""down"",""bad_move"",23617.7,3135.6,2768.7,20482.1,366.9,""oops"",""up"",""left"",""good_move"",26409.9,2792,2419.8,23617.9,372.2,""oops"",""up"",""right"",""bad_move"",29657.6,3247.4,2886.9,26410.2,360.5,""smooth"",""up"",""up"",""good_move""]"
"2651","","<div style=""width:500px;"">
  <p>What determined the result of this run?</p>
  </div>","0","html-slider-response","49","592319","0.0-7.0-1.7","12","1","2025-07-30 08:38:26","36c45c0696341be0efffe67d72a12abb","134.255.57.120","Mozilla/5.0 (Windows NT 10.0; Win64; x64) AppleWebKit/537.36 (KHTML, like Gecko) Chrome/138.0.0.0 Safari/537.36","WebKit","Chrome","138.0.0.0","Windows","10.0","https://app.prolific.com/","hu-HU,hu;q=0.9,en-US;q=0.8,en;q=0.7","5c66cc9246bfc200019044b8","687a19d2168e237449fb8af4","6889d9fe66ae07a4534c3355","0","5c66cc9246bfc200019044b8","0","2025-07-30T08:45:53.698Z","","","","AttribQ","","","","","","","","","","","50","","","","","","","","","","","","","","","","","","","","","","","","","","",""
"3175","","<div style=""width:500px;"">
  <p>How much control did you have over the ball?</p>
  </div>","1","html-slider-response","50","595495","0.0-7.0-2.7","12","1","2025-07-30 08:38:26","36c45c0696341be0efffe67d72a12abb","134.255.57.120","Mozilla/5.0 (Windows NT 10.0; Win64; x64) AppleWebKit/537.36 (KHTML, like Gecko) Chrome/138.0.0.0 Safari/537.36","WebKit","Chrome","138.0.0.0","Windows","10.0","https://app.prolific.com/","hu-HU,hu;q=0.9,en-US;q=0.8,en;q=0.7","5c66cc9246bfc200019044b8","687a19d2168e237449fb8af4","6889d9fe66ae07a4534c3355","0","5c66cc9246bfc200019044b8","0","2025-07-30T08:45:56.874Z","","","","ControlQ","","","","","","","","","","","50","","","","","","","","","","","","","","","","","","","","","","","","","","",""
"2711","","<div style=""width:500px;"">
  <p>How would you describe your current emotional state?</p>
  </div>","89","html-slider-response","51","598207","0.0-7.0-3.7","12","1","2025-07-30 08:38:26","36c45c0696341be0efffe67d72a12abb","134.255.57.120","Mozilla/5.0 (Windows NT 10.0; Win64; x64) AppleWebKit/537.36 (KHTML, like Gecko) Chrome/138.0.0.0 Safari/537.36","WebKit","Chrome","138.0.0.0","Windows","10.0","https://app.prolific.com/","hu-HU,hu;q=0.9,en-US;q=0.8,en;q=0.7","5c66cc9246bfc200019044b8","687a19d2168e237449fb8af4","6889d9fe66ae07a4534c3355","0","5c66cc9246bfc200019044b8","0","2025-07-30T08:45:59.586Z","","","","StressQ","","","","","","","","","","","50","","","","","","","","","","","","","","","","","","","","","","","","","","",""
"4615","","<div style=""width:500px;"">
  <p>What best describes how you currently feel?</p>
  </div>","0","html-slider-response","52","602823","0.0-7.0-4.7","12","1","2025-07-30 08:38:26","36c45c0696341be0efffe67d72a12abb","134.255.57.120","Mozilla/5.0 (Windows NT 10.0; Win64; x64) AppleWebKit/537.36 (KHTML, like Gecko) Chrome/138.0.0.0 Safari/537.36","WebKit","Chrome","138.0.0.0","Windows","10.0","https://app.prolific.com/","hu-HU,hu;q=0.9,en-US;q=0.8,en;q=0.7","5c66cc9246bfc200019044b8","687a19d2168e237449fb8af4","6889d9fe66ae07a4534c3355","0","5c66cc9246bfc200019044b8","0","2025-07-30T08:46:04.202Z","","","","MotivationQ","","","","","","","","","","","50","","","","","","","","","","","","","","","","","","","","","","","","","","",""
"","","","","ctl-task-cpt","53","625583","0.0-7.0-0.8","12","1","2025-07-30 08:38:26","36c45c0696341be0efffe67d72a12abb","134.255.57.120","Mozilla/5.0 (Windows NT 10.0; Win64; x64) AppleWebKit/537.36 (KHTML, like Gecko) Chrome/138.0.0.0 Safari/537.36","WebKit","Chrome","138.0.0.0","Windows","10.0","https://app.prolific.com/","hu-HU,hu;q=0.9,en-US;q=0.8,en;q=0.7","5c66cc9246bfc200019044b8","687a19d2168e237449fb8af4","6889d9fe66ae07a4534c3355","0","5c66cc9246bfc200019044b8","0","2025-07-30T08:46:26.962Z","","","","","","","","","","","","","","","","win-only","2","g1:SE,g2:NW","0.4","9","0","604567","1199.5","6200.6","19742.2","1","4","4","6","1","1","1","1","0","0.007575757575757576","5001.1","3000","1415","[""down"",""right""]","{""num_key_presses"":4,""num_perfect"":0,""num_errors"":0,""num_randdir"":4,""num_randdir_good_moves"":4,""num_whilered"":0,""num_whileblue"":0,""num_blue"":1,""num_good_moves"":4}","[843.6428571428571,832.7522245134626,0.2,843.6428571428571,832.7522245134626,100.9,1029.642857142857,853.7522245134626,206.2,2751.6428571428573,843.2522245134626,308.2,2751.6428571428573,843.2522245134626,412.2,2751.6428571428573,843.2522245134626,516.3,2751.6428571428573,843.2522245134626,617.1,2751.6428571428573,843.2522245134626,721.2,2751.6428571428573,843.2522245134626,823.6,2751.6428571428573,843.2522245134626,924.1,2751.6428571428573,843.2522245134626,1027.4,2751.6428571428573,843.2522245134626,1131.3,2751.6428571428573,843.2522245134626,1236.8,2751.6428571428573,843.2522245134626,1341.5,2751.6428571428573,843.2522245134626,1441.7,2751.6428571428573,843.2522245134626,1544.5,2751.6428571428573,843.2522245134626,1646.4,2751.6428571428573,843.2522245134626,1746.6,2751.6428571428573,843.2522245134626,1847.6,2751.6428571428573,843.2522245134626,1951.1,2751.6428571428573,843.2522245134626,2051.2,2751.6428571428573,843.2522245134626,2157.7,2751.6428571428573,843.2522245134626,2261.3,2751.6428571428573,843.2522245134626,2361.7,2751.6428571428573,843.2522245134626,2466,2751.6428571428573,843.2522245134626,2571,2751.6428571428573,843.2522245134626,2671.6,2751.6428571428573,843.2522245134626,2776.7,2751.6428571428573,843.2522245134626,2881.3,2751.6428571428573,843.2522245134626,2986,2751.6428571428573,843.2522245134626,3086.1,2751.6428571428573,843.2522245134626,3186.3,2751.6428571428573,843.2522245134626,3286.5,2751.6428571428573,843.2522245134626,3386.7,2751.6428571428573,843.2522245134626,3487.3,2751.6428571428573,843.2522245134626,3587.3,2751.6428571428573,843.2522245134626,3690.9,2751.6428571428573,843.2522245134626,3791.1,2751.6428571428573,843.2522245134626,3891.2,2751.6428571428573,843.2522245134626,3991.5,2751.6428571428573,843.2522245134626,4093.8,2751.6428571428573,843.2522245134626,4196.6,2751.6428571428573,843.2522245134626,4302.6,2751.6428571428573,843.2522245134626,4406.5,2751.6428571428573,843.2522245134626,4510.9,2751.6428571428573,843.2522245134626,4611,2751.6428571428573,843.2522245134626,4711.4,2751.6428571428573,843.2522245134626,4816.2,2751.6428571428573,843.2522245134626,4921]","[1373.8,1373.8,1000,0,373.8,""oops"",""right"",""down"",""good_move"",4606.4,3232.3,2822.7,1374.2,409.6,""oops"",""right"",""right"",""good_move"",7224.5,2617.6,2244.5,4606.9,373.1,""oops"",""right"",""right"",""good_move"",13453.9,6229.2,1986.7,11005.8,461.4,""oops"",""down"",""down"",""good_move""]"
"4495","","<div style=""width:500px;"">
  <p>What determined the result of this run?</p>
  </div>","93","html-slider-response","54","630079","0.0-7.0-1.8","12","1","2025-07-30 08:38:26","36c45c0696341be0efffe67d72a12abb","134.255.57.120","Mozilla/5.0 (Windows NT 10.0; Win64; x64) AppleWebKit/537.36 (KHTML, like Gecko) Chrome/138.0.0.0 Safari/537.36","WebKit","Chrome","138.0.0.0","Windows","10.0","https://app.prolific.com/","hu-HU,hu;q=0.9,en-US;q=0.8,en;q=0.7","5c66cc9246bfc200019044b8","687a19d2168e237449fb8af4","6889d9fe66ae07a4534c3355","0","5c66cc9246bfc200019044b8","0","2025-07-30T08:46:31.458Z","","","","AttribQ","","","","","","","","","","","50","","","","","","","","","","","","","","","","","","","","","","","","","","",""
"2767","","<div style=""width:500px;"">
  <p>How much control did you have over the ball?</p>
  </div>","78","html-slider-response","55","632847","0.0-7.0-2.8","12","1","2025-07-30 08:38:26","36c45c0696341be0efffe67d72a12abb","134.255.57.120","Mozilla/5.0 (Windows NT 10.0; Win64; x64) AppleWebKit/537.36 (KHTML, like Gecko) Chrome/138.0.0.0 Safari/537.36","WebKit","Chrome","138.0.0.0","Windows","10.0","https://app.prolific.com/","hu-HU,hu;q=0.9,en-US;q=0.8,en;q=0.7","5c66cc9246bfc200019044b8","687a19d2168e237449fb8af4","6889d9fe66ae07a4534c3355","0","5c66cc9246bfc200019044b8","0","2025-07-30T08:46:34.226Z","","","","ControlQ","","","","","","","","","","","50","","","","","","","","","","","","","","","","","","","","","","","","","","",""
"2983","","<div style=""width:500px;"">
  <p>How would you describe your current emotional state?</p>
  </div>","36","html-slider-response","56","635831","0.0-7.0-3.8","12","1","2025-07-30 08:38:26","36c45c0696341be0efffe67d72a12abb","134.255.57.120","Mozilla/5.0 (Windows NT 10.0; Win64; x64) AppleWebKit/537.36 (KHTML, like Gecko) Chrome/138.0.0.0 Safari/537.36","WebKit","Chrome","138.0.0.0","Windows","10.0","https://app.prolific.com/","hu-HU,hu;q=0.9,en-US;q=0.8,en;q=0.7","5c66cc9246bfc200019044b8","687a19d2168e237449fb8af4","6889d9fe66ae07a4534c3355","0","5c66cc9246bfc200019044b8","0","2025-07-30T08:46:37.210Z","","","","StressQ","","","","","","","","","","","50","","","","","","","","","","","","","","","","","","","","","","","","","","",""
"3551","","<div style=""width:500px;"">
  <p>What best describes how you currently feel?</p>
  </div>","25","html-slider-response","57","639383","0.0-7.0-4.8","12","1","2025-07-30 08:38:26","36c45c0696341be0efffe67d72a12abb","134.255.57.120","Mozilla/5.0 (Windows NT 10.0; Win64; x64) AppleWebKit/537.36 (KHTML, like Gecko) Chrome/138.0.0.0 Safari/537.36","WebKit","Chrome","138.0.0.0","Windows","10.0","https://app.prolific.com/","hu-HU,hu;q=0.9,en-US;q=0.8,en;q=0.7","5c66cc9246bfc200019044b8","687a19d2168e237449fb8af4","6889d9fe66ae07a4534c3355","0","5c66cc9246bfc200019044b8","0","2025-07-30T08:46:40.762Z","","","","MotivationQ","","","","","","","","","","","50","","","","","","","","","","","","","","","","","","","","","","","","","","",""
"","","","","ctl-task-cpt","58","661802","0.0-7.0-0.9","12","1","2025-07-30 08:38:26","36c45c0696341be0efffe67d72a12abb","134.255.57.120","Mozilla/5.0 (Windows NT 10.0; Win64; x64) AppleWebKit/537.36 (KHTML, like Gecko) Chrome/138.0.0.0 Safari/537.36","WebKit","Chrome","138.0.0.0","Windows","10.0","https://app.prolific.com/","hu-HU,hu;q=0.9,en-US;q=0.8,en;q=0.7","5c66cc9246bfc200019044b8","687a19d2168e237449fb8af4","6889d9fe66ae07a4534c3355","0","5c66cc9246bfc200019044b8","0","2025-07-30T08:47:03.181Z","","","","","","","","","","","","","","","","win-only","3","g1:SW,g2:NE","0.5","10","0","641127.3","1175.1","6176.6","19400.3","1","4","8","6","1","1","1","2","1","0.015151515151515152","5001.5","3000","1560","[""down"",""left""]","{""num_key_presses"":4,""num_perfect"":3,""num_errors"":0,""num_randdir"":1,""num_randdir_good_moves"":1,""num_whilered"":0,""num_whileblue"":0,""num_blue"":1,""num_good_moves"":4}","[846.6428571428571,850.7522245134626,0.2,846.6428571428571,850.7522245134626,116,854.1428571428571,846.2522245134626,217,2366.1428571428573,825.2522245134626,321,2751.6428571428573,837.2522245134626,421.5,2751.6428571428573,844.7522245134626,527.8,2751.6428571428573,844.7522245134626,630.4,2751.6428571428573,844.7522245134626,730.7,2751.6428571428573,844.7522245134626,835.3,2751.6428571428573,844.7522245134626,935.5,2751.6428571428573,844.7522245134626,1036.6,2751.6428571428573,844.7522245134626,1144,2751.6428571428573,844.7522245134626,1245.1,2751.6428571428573,844.7522245134626,1350.8,2751.6428571428573,844.7522245134626,1461.3,2751.6428571428573,844.7522245134626,1565.3,2751.6428571428573,844.7522245134626,1665.9,2751.6428571428573,844.7522245134626,1766.2,2751.6428571428573,844.7522245134626,1876.4,2751.6428571428573,844.7522245134626,1979.5,2751.6428571428573,844.7522245134626,2079.6,2751.6428571428573,844.7522245134626,2180,2751.6428571428573,844.7522245134626,2280.7,2751.6428571428573,844.7522245134626,2382.1,2751.6428571428573,844.7522245134626,2486.7,2751.6428571428573,844.7522245134626,2590.4,2751.6428571428573,844.7522245134626,2690.9,2751.6428571428573,844.7522245134626,2796.5,2751.6428571428573,844.7522245134626,2900.4,2751.6428571428573,844.7522245134626,3014.2,2751.6428571428573,844.7522245134626,3116.7,2751.6428571428573,844.7522245134626,3220.3,2751.6428571428573,844.7522245134626,3321.5,2751.6428571428573,844.7522245134626,3427,2751.6428571428573,844.7522245134626,3531,2751.6428571428573,844.7522245134626,3636.3,2751.6428571428573,844.7522245134626,3744.1,2751.6428571428573,844.7522245134626,3845.2,2751.6428571428573,844.7522245134626,3945.3,2751.6428571428573,844.7522245134626,4045.3,2751.6428571428573,844.7522245134626,4146.1,2751.6428571428573,844.7522245134626,4250.7,2751.6428571428573,844.7522245134626,4359.7,2751.6428571428573,844.7522245134626,4460.7,2751.6428571428573,844.7522245134626,4561.1,2751.6428571428573,844.7522245134626,4662,2751.6428571428573,844.7522245134626,4765.2,2751.6428571428573,844.7522245134626,4865.2,2751.6428571428573,844.7522245134626,4965.5]","[1445.5,1445.5,1000,0,445.5,""smooth"",""down"",""down"",""good_move"",4512.3,3066.5,2657.2,1445.8,409.3,""smooth"",""left"",""left"",""good_move"",9675.5,5162.9,850.1,8315.6,509.8,""oops"",""left"",""left"",""good_move"",13125.4,3449.8,3018.1,9675.6,431.7,""smooth"",""down"",""down"",""good_move""]"
"3005","","<div style=""width:500px;"">
  <p>What determined the result of this run?</p>
  </div>","98","html-slider-response","59","664807","0.0-7.0-1.9","12","1","2025-07-30 08:38:26","36c45c0696341be0efffe67d72a12abb","134.255.57.120","Mozilla/5.0 (Windows NT 10.0; Win64; x64) AppleWebKit/537.36 (KHTML, like Gecko) Chrome/138.0.0.0 Safari/537.36","WebKit","Chrome","138.0.0.0","Windows","10.0","https://app.prolific.com/","hu-HU,hu;q=0.9,en-US;q=0.8,en;q=0.7","5c66cc9246bfc200019044b8","687a19d2168e237449fb8af4","6889d9fe66ae07a4534c3355","0","5c66cc9246bfc200019044b8","0","2025-07-30T08:47:06.186Z","","","","AttribQ","","","","","","","","","","","50","","","","","","","","","","","","","","","","","","","","","","","","","","",""
"2255","","<div style=""width:500px;"">
  <p>How much control did you have over the ball?</p>
  </div>","97","html-slider-response","60","667063","0.0-7.0-2.9","12","1","2025-07-30 08:38:26","36c45c0696341be0efffe67d72a12abb","134.255.57.120","Mozilla/5.0 (Windows NT 10.0; Win64; x64) AppleWebKit/537.36 (KHTML, like Gecko) Chrome/138.0.0.0 Safari/537.36","WebKit","Chrome","138.0.0.0","Windows","10.0","https://app.prolific.com/","hu-HU,hu;q=0.9,en-US;q=0.8,en;q=0.7","5c66cc9246bfc200019044b8","687a19d2168e237449fb8af4","6889d9fe66ae07a4534c3355","0","5c66cc9246bfc200019044b8","0","2025-07-30T08:47:08.442Z","","","","ControlQ","","","","","","","","","","","50","","","","","","","","","","","","","","","","","","","","","","","","","","",""
"3760","","<div style=""width:500px;"">
  <p>How would you describe your current emotional state?</p>
  </div>","2","html-slider-response","61","670824","0.0-7.0-3.9","12","1","2025-07-30 08:38:26","36c45c0696341be0efffe67d72a12abb","134.255.57.120","Mozilla/5.0 (Windows NT 10.0; Win64; x64) AppleWebKit/537.36 (KHTML, like Gecko) Chrome/138.0.0.0 Safari/537.36","WebKit","Chrome","138.0.0.0","Windows","10.0","https://app.prolific.com/","hu-HU,hu;q=0.9,en-US;q=0.8,en;q=0.7","5c66cc9246bfc200019044b8","687a19d2168e237449fb8af4","6889d9fe66ae07a4534c3355","0","5c66cc9246bfc200019044b8","0","2025-07-30T08:47:12.203Z","","","","StressQ","","","","","","","","","","","50","","","","","","","","","","","","","","","","","","","","","","","","","","",""
"3975","","<div style=""width:500px;"">
  <p>What best describes how you currently feel?</p>
  </div>","19","html-slider-response","62","674799","0.0-7.0-4.9","12","1","2025-07-30 08:38:26","36c45c0696341be0efffe67d72a12abb","134.255.57.120","Mozilla/5.0 (Windows NT 10.0; Win64; x64) AppleWebKit/537.36 (KHTML, like Gecko) Chrome/138.0.0.0 Safari/537.36","WebKit","Chrome","138.0.0.0","Windows","10.0","https://app.prolific.com/","hu-HU,hu;q=0.9,en-US;q=0.8,en;q=0.7","5c66cc9246bfc200019044b8","687a19d2168e237449fb8af4","6889d9fe66ae07a4534c3355","0","5c66cc9246bfc200019044b8","0","2025-07-30T08:47:16.178Z","","","","MotivationQ","","","","","","","","","","","50","","","","","","","","","","","","","","","","","","","","","","","","","","",""
"","","","","ctl-task-cpt","63","705170","0.0-7.0-0.10","12","1","2025-07-30 08:38:26","36c45c0696341be0efffe67d72a12abb","134.255.57.120","Mozilla/5.0 (Windows NT 10.0; Win64; x64) AppleWebKit/537.36 (KHTML, like Gecko) Chrome/138.0.0.0 Safari/537.36","WebKit","Chrome","138.0.0.0","Windows","10.0","https://app.prolific.com/","hu-HU,hu;q=0.9,en-US;q=0.8,en;q=0.7","5c66cc9246bfc200019044b8","687a19d2168e237449fb8af4","6889d9fe66ae07a4534c3355","0","5c66cc9246bfc200019044b8","0","2025-07-30T08:47:46.550Z","","","","","","","","","","","","","","","","win-only","3","g1:SW,g2:NE","0.6","11","0","676543.4","663.8","5665.7","27352.1","1","4","4","6","1","1","1","3","2","0.022727272727272728","5001.9","3000","385","[""down"",""left""]","{""num_key_presses"":6,""num_perfect"":4,""num_errors"":0,""num_randdir"":2,""num_randdir_good_moves"":1,""num_whilered"":0,""num_whileblue"":0,""num_blue"":1,""num_good_moves"":5}","[806.1428571428571,826.7522245134626,0.2,806.1428571428571,826.7522245134626,103.3,867.6428571428571,846.2522245134626,206.7,2252.1428571428573,867.2522245134626,307.8,2751.6428571428573,874.7522245134626,408.3,2751.6428571428573,874.7522245134626,512.9,2751.6428571428573,874.7522245134626,618,2751.6428571428573,874.7522245134626,721.5,2751.6428571428573,874.7522245134626,822.4,2751.6428571428573,874.7522245134626,927.9,2751.6428571428573,874.7522245134626,1028,2751.6428571428573,874.7522245134626,1129,2751.6428571428573,874.7522245134626,1231.6,2751.6428571428573,874.7522245134626,1331.8,2751.6428571428573,874.7522245134626,1432.6,2751.6428571428573,874.7522245134626,1537,2751.6428571428573,874.7522245134626,1641.9,2751.6428571428573,874.7522245134626,1742.7,2751.6428571428573,874.7522245134626,1847,2751.6428571428573,874.7522245134626,1952.6,2751.6428571428573,874.7522245134626,2053.3,2751.6428571428573,874.7522245134626,2153.8,2751.6428571428573,874.7522245134626,2254.1,2751.6428571428573,874.7522245134626,2355.2,2751.6428571428573,874.7522245134626,2457,2751.6428571428573,874.7522245134626,2557.2,2751.6428571428573,874.7522245134626,2657.5,2751.6428571428573,874.7522245134626,2763,2751.6428571428573,874.7522245134626,2867.8,2751.6428571428573,874.7522245134626,2968.8,2751.6428571428573,874.7522245134626,3071,2751.6428571428573,874.7522245134626,3174.5,2751.6428571428573,874.7522245134626,3276.8,2751.6428571428573,874.7522245134626,3377,2751.6428571428573,874.7522245134626,3477.5,2751.6428571428573,874.7522245134626,3583.4,2751.6428571428573,874.7522245134626,3684.1,2751.6428571428573,874.7522245134626,3786.4,2751.6428571428573,874.7522245134626,3888.2,2751.6428571428573,874.7522245134626,3991.6,2751.6428571428573,874.7522245134626,4092.9,2751.6428571428573,874.7522245134626,4197.9,2751.6428571428573,874.7522245134626,4298.6,2751.6428571428573,874.7522245134626,4401.9,2751.6428571428573,874.7522245134626,4507.1,2751.6428571428573,874.7522245134626,4611.5,2751.6428571428573,874.7522245134626,4712.6,2751.6428571428573,874.7522245134626,4813.2,2751.6428571428573,874.7522245134626,4920.7]","[1404.2,1404.2,1000,0,404.2,""smooth"",""down"",""down"",""good_move"",8644.4,7239.8,3005.1,5189.7,449.6,""smooth"",""left"",""left"",""good_move"",12508.4,3863.7,3215.5,8644.7,648.2,""oops"",""left"",""up"",""bad_move"",15300.4,2791.7,2357.5,12508.7,434.2,""oops"",""left"",""down"",""good_move"",18348.5,3047.2,2646.8,15301.3,400.4,""smooth"",""left"",""left"",""good_move"",21598.7,3250,2868.8,18348.7,381.2,""smooth"",""down"",""down"",""good_move""]"
"3068","","<div style=""width:500px;"">
  <p>What determined the result of this run?</p>
  </div>","82","html-slider-response","64","708239","0.0-7.0-1.10","12","1","2025-07-30 08:38:26","36c45c0696341be0efffe67d72a12abb","134.255.57.120","Mozilla/5.0 (Windows NT 10.0; Win64; x64) AppleWebKit/537.36 (KHTML, like Gecko) Chrome/138.0.0.0 Safari/537.36","WebKit","Chrome","138.0.0.0","Windows","10.0","https://app.prolific.com/","hu-HU,hu;q=0.9,en-US;q=0.8,en;q=0.7","5c66cc9246bfc200019044b8","687a19d2168e237449fb8af4","6889d9fe66ae07a4534c3355","0","5c66cc9246bfc200019044b8","0","2025-07-30T08:47:49.618Z","","","","AttribQ","","","","","","","","","","","50","","","","","","","","","","","","","","","","","","","","","","","","","","",""
"3663","","<div style=""width:500px;"">
  <p>How much control did you have over the ball?</p>
  </div>","74","html-slider-response","65","711903","0.0-7.0-2.10","12","1","2025-07-30 08:38:26","36c45c0696341be0efffe67d72a12abb","134.255.57.120","Mozilla/5.0 (Windows NT 10.0; Win64; x64) AppleWebKit/537.36 (KHTML, like Gecko) Chrome/138.0.0.0 Safari/537.36","WebKit","Chrome","138.0.0.0","Windows","10.0","https://app.prolific.com/","hu-HU,hu;q=0.9,en-US;q=0.8,en;q=0.7","5c66cc9246bfc200019044b8","687a19d2168e237449fb8af4","6889d9fe66ae07a4534c3355","0","5c66cc9246bfc200019044b8","0","2025-07-30T08:47:53.282Z","","","","ControlQ","","","","","","","","","","","50","","","","","","","","","","","","","","","","","","","","","","","","","","",""
"4327","","<div style=""width:500px;"">
  <p>How would you describe your current emotional state?</p>
  </div>","45","html-slider-response","66","716231","0.0-7.0-3.10","12","1","2025-07-30 08:38:26","36c45c0696341be0efffe67d72a12abb","134.255.57.120","Mozilla/5.0 (Windows NT 10.0; Win64; x64) AppleWebKit/537.36 (KHTML, like Gecko) Chrome/138.0.0.0 Safari/537.36","WebKit","Chrome","138.0.0.0","Windows","10.0","https://app.prolific.com/","hu-HU,hu;q=0.9,en-US;q=0.8,en;q=0.7","5c66cc9246bfc200019044b8","687a19d2168e237449fb8af4","6889d9fe66ae07a4534c3355","0","5c66cc9246bfc200019044b8","0","2025-07-30T08:47:57.610Z","","","","StressQ","","","","","","","","","","","50","","","","","","","","","","","","","","","","","","","","","","","","","","",""
"2679","","<div style=""width:500px;"">
  <p>What best describes how you currently feel?</p>
  </div>","20","html-slider-response","67","718911","0.0-7.0-4.10","12","1","2025-07-30 08:38:26","36c45c0696341be0efffe67d72a12abb","134.255.57.120","Mozilla/5.0 (Windows NT 10.0; Win64; x64) AppleWebKit/537.36 (KHTML, like Gecko) Chrome/138.0.0.0 Safari/537.36","WebKit","Chrome","138.0.0.0","Windows","10.0","https://app.prolific.com/","hu-HU,hu;q=0.9,en-US;q=0.8,en;q=0.7","5c66cc9246bfc200019044b8","687a19d2168e237449fb8af4","6889d9fe66ae07a4534c3355","0","5c66cc9246bfc200019044b8","0","2025-07-30T08:48:00.290Z","","","","MotivationQ","","","","","","","","","","","50","","","","","","","","","","","","","","","","","","","","","","","","","","",""
"","","","","ctl-task-cpt","68","738663","0.0-7.0-0.11","12","1","2025-07-30 08:38:26","36c45c0696341be0efffe67d72a12abb","134.255.57.120","Mozilla/5.0 (Windows NT 10.0; Win64; x64) AppleWebKit/537.36 (KHTML, like Gecko) Chrome/138.0.0.0 Safari/537.36","WebKit","Chrome","138.0.0.0","Windows","10.0","https://app.prolific.com/","hu-HU,hu;q=0.9,en-US;q=0.8,en;q=0.7","5c66cc9246bfc200019044b8","687a19d2168e237449fb8af4","6889d9fe66ae07a4534c3355","0","5c66cc9246bfc200019044b8","0","2025-07-30T08:48:20.042Z","","","","","","","","","","","","","","","","win-only","0","g1:NW,g2:SE","0.7","12","0","720655.1","735.6","5736.8","16740.7","1","4","8","6","1","1","1","4","3","0.030303030303030304","5001.2","3000","1445","[""left"",""up""]","{""num_key_presses"":4,""num_perfect"":3,""num_errors"":0,""num_randdir"":1,""num_randdir_good_moves"":1,""num_whilered"":0,""num_whileblue"":0,""num_blue"":0,""num_good_moves"":4}","[824.1428571428571,825.2522245134626,0.3,824.1428571428571,825.2522245134626,100,860.1428571428571,858.2522245134626,200.5,1527.642857142857,865.7522245134626,300.6,2751.6428571428573,882.2522245134626,406.5,2751.6428571428573,882.2522245134626,510.6,2751.6428571428573,882.2522245134626,615.2,2751.6428571428573,882.2522245134626,715.2,2751.6428571428573,882.2522245134626,820.6,2751.6428571428573,882.2522245134626,923.8,2751.6428571428573,882.2522245134626,1025,2751.6428571428573,882.2522245134626,1125,2751.6428571428573,882.2522245134626,1226.5,2751.6428571428573,882.2522245134626,1330,2751.6428571428573,882.2522245134626,1432,2751.6428571428573,882.2522245134626,1534.9,2751.6428571428573,882.2522245134626,1635.6,2751.6428571428573,882.2522245134626,1741.4,2751.6428571428573,882.2522245134626,1844.8,2751.6428571428573,882.2522245134626,1945.4,2751.6428571428573,882.2522245134626,2051.6,2751.6428571428573,882.2522245134626,2155.9,2751.6428571428573,882.2522245134626,2259.6,2751.6428571428573,882.2522245134626,2360.3,2751.6428571428573,882.2522245134626,2465.4,2751.6428571428573,882.2522245134626,2569.7,2751.6428571428573,882.2522245134626,2671.6,2751.6428571428573,882.2522245134626,2771.7,2751.6428571428573,882.2522245134626,2877.3,2751.6428571428573,882.2522245134626,2979.8,2751.6428571428573,882.2522245134626,3079.8,2751.6428571428573,882.2522245134626,3185,2751.6428571428573,882.2522245134626,3285.5,2751.6428571428573,882.2522245134626,3391.5,2751.6428571428573,882.2522245134626,3494.2,2751.6428571428573,882.2522245134626,3594.8,2751.6428571428573,882.2522245134626,3695.5,2751.6428571428573,882.2522245134626,3800.5,2751.6428571428573,882.2522245134626,3906.5,2751.6428571428573,882.2522245134626,4010.4,2751.6428571428573,882.2522245134626,4110.7,2751.6428571428573,882.2522245134626,4215.5,2751.6428571428573,882.2522245134626,4321.3,2751.6428571428573,882.2522245134626,4426.2,2751.6428571428573,882.2522245134626,4526.2,2751.6428571428573,882.2522245134626,4630.4,2751.6428571428573,882.2522245134626,4730.5,2751.6428571428573,882.2522245134626,4831.2,2751.6428571428573,882.2522245134626,4936.3]","[1397.9,1397.9,1000,0,397.9,""oops"",""up"",""left"",""good_move"",4541.7,3143.4,2767.5,1398.3,375.9,""smooth"",""up"",""up"",""good_move"",7725.7,3183.7,2701.3,4542,482.4,""smooth"",""up"",""up"",""good_move"",10909.5,3183.6,2828.5,7725.9,355.1,""smooth"",""left"",""left"",""good_move""]"
"2600","","<div style=""width:500px;"">
  <p>What determined the result of this run?</p>
  </div>","87","html-slider-response","69","741263","0.0-7.0-1.11","12","1","2025-07-30 08:38:26","36c45c0696341be0efffe67d72a12abb","134.255.57.120","Mozilla/5.0 (Windows NT 10.0; Win64; x64) AppleWebKit/537.36 (KHTML, like Gecko) Chrome/138.0.0.0 Safari/537.36","WebKit","Chrome","138.0.0.0","Windows","10.0","https://app.prolific.com/","hu-HU,hu;q=0.9,en-US;q=0.8,en;q=0.7","5c66cc9246bfc200019044b8","687a19d2168e237449fb8af4","6889d9fe66ae07a4534c3355","0","5c66cc9246bfc200019044b8","0","2025-07-30T08:48:22.643Z","","","","AttribQ","","","","","","","","","","","50","","","","","","","","","","","","","","","","","","","","","","","","","","",""
"1687","","<div style=""width:500px;"">
  <p>How much control did you have over the ball?</p>
  </div>","83","html-slider-response","70","742951","0.0-7.0-2.11","12","1","2025-07-30 08:38:26","36c45c0696341be0efffe67d72a12abb","134.255.57.120","Mozilla/5.0 (Windows NT 10.0; Win64; x64) AppleWebKit/537.36 (KHTML, like Gecko) Chrome/138.0.0.0 Safari/537.36","WebKit","Chrome","138.0.0.0","Windows","10.0","https://app.prolific.com/","hu-HU,hu;q=0.9,en-US;q=0.8,en;q=0.7","5c66cc9246bfc200019044b8","687a19d2168e237449fb8af4","6889d9fe66ae07a4534c3355","0","5c66cc9246bfc200019044b8","0","2025-07-30T08:48:24.330Z","","","","ControlQ","","","","","","","","","","","50","","","","","","","","","","","","","","","","","","","","","","","","","","",""
"2319","","<div style=""width:500px;"">
  <p>How would you describe your current emotional state?</p>
  </div>","6","html-slider-response","71","745271","0.0-7.0-3.11","12","1","2025-07-30 08:38:26","36c45c0696341be0efffe67d72a12abb","134.255.57.120","Mozilla/5.0 (Windows NT 10.0; Win64; x64) AppleWebKit/537.36 (KHTML, like Gecko) Chrome/138.0.0.0 Safari/537.36","WebKit","Chrome","138.0.0.0","Windows","10.0","https://app.prolific.com/","hu-HU,hu;q=0.9,en-US;q=0.8,en;q=0.7","5c66cc9246bfc200019044b8","687a19d2168e237449fb8af4","6889d9fe66ae07a4534c3355","0","5c66cc9246bfc200019044b8","0","2025-07-30T08:48:26.650Z","","","","StressQ","","","","","","","","","","","50","","","","","","","","","","","","","","","","","","","","","","","","","","",""
"2703","","<div style=""width:500px;"">
  <p>What best describes how you currently feel?</p>
  </div>","57","html-slider-response","72","747975","0.0-7.0-4.11","12","1","2025-07-30 08:38:26","36c45c0696341be0efffe67d72a12abb","134.255.57.120","Mozilla/5.0 (Windows NT 10.0; Win64; x64) AppleWebKit/537.36 (KHTML, like Gecko) Chrome/138.0.0.0 Safari/537.36","WebKit","Chrome","138.0.0.0","Windows","10.0","https://app.prolific.com/","hu-HU,hu;q=0.9,en-US;q=0.8,en;q=0.7","5c66cc9246bfc200019044b8","687a19d2168e237449fb8af4","6889d9fe66ae07a4534c3355","0","5c66cc9246bfc200019044b8","0","2025-07-30T08:48:29.354Z","","","","MotivationQ","","","","","","","","","","","50","","","","","","","","","","","","","","","","","","","","","","","","","","",""
"","","","","ctl-task-cpt","73","771094","0.0-7.0-0.12","12","1","2025-07-30 08:38:26","36c45c0696341be0efffe67d72a12abb","134.255.57.120","Mozilla/5.0 (Windows NT 10.0; Win64; x64) AppleWebKit/537.36 (KHTML, like Gecko) Chrome/138.0.0.0 Safari/537.36","WebKit","Chrome","138.0.0.0","Windows","10.0","https://app.prolific.com/","hu-HU,hu;q=0.9,en-US;q=0.8,en;q=0.7","5c66cc9246bfc200019044b8","687a19d2168e237449fb8af4","6889d9fe66ae07a4534c3355","0","5c66cc9246bfc200019044b8","0","2025-07-30T08:48:52.473Z","","","","","","","","","","","","","","","","win-only","0","g1:NW,g2:SE","0.8","13","0","749719.3","895","5897.7","20101","1","4","4","6","2","4","4","8","4","0.06060606060606061","5002.6","3000","880","[""down"",""right""]","{""num_key_presses"":6,""num_perfect"":4,""num_errors"":0,""num_randdir"":2,""num_randdir_good_moves"":2,""num_whilered"":0,""num_whileblue"":0,""num_blue"":0,""num_good_moves"":6}","[831.6428571428571,844.7522245134626,0.5,831.6428571428571,844.7522245134626,100.4,881.1428571428571,844.7522245134626,203,2396.1428571428573,844.7522245134626,305.4,2751.6428571428573,844.7522245134626,411.4,2751.6428571428573,844.7522245134626,511.8,2751.6428571428573,844.7522245134626,616,2751.6428571428573,844.7522245134626,717,2751.6428571428573,844.7522245134626,820.9,2751.6428571428573,844.7522245134626,926.5,2751.6428571428573,844.7522245134626,1031.6,2751.6428571428573,844.7522245134626,1131.7,2751.6428571428573,844.7522245134626,1232.4,2751.6428571428573,844.7522245134626,1335.7,2751.6428571428573,844.7522245134626,1440.9,2751.6428571428573,844.7522245134626,1545.2,2751.6428571428573,844.7522245134626,1646.1,2751.6428571428573,844.7522245134626,1746.5,2751.6428571428573,844.7522245134626,1847.4,2751.6428571428573,844.7522245134626,1950.6,2751.6428571428573,844.7522245134626,2051.2,2751.6428571428573,844.7522245134626,2151.4,2751.6428571428573,844.7522245134626,2257.2,2751.6428571428573,844.7522245134626,2361.5,2751.6428571428573,844.7522245134626,2462.6,2751.6428571428573,844.7522245134626,2565.7,2751.6428571428573,844.7522245134626,2665.8,2751.6428571428573,844.7522245134626,2766.3,2751.6428571428573,844.7522245134626,2870.2,2751.6428571428573,844.7522245134626,2972.6,2751.6428571428573,844.7522245134626,3077.2,2751.6428571428573,844.7522245134626,3182.4,2751.6428571428573,844.7522245134626,3285.1,2751.6428571428573,844.7522245134626,3386.5,2751.6428571428573,844.7522245134626,3487.1,2751.6428571428573,844.7522245134626,3591.8,2751.6428571428573,844.7522245134626,3695.2,2751.6428571428573,844.7522245134626,3796.3,2751.6428571428573,844.7522245134626,3900.3,2751.6428571428573,844.7522245134626,4005.9,2751.6428571428573,844.7522245134626,4105.9,2751.6428571428573,844.7522245134626,4207.8,2751.6428571428573,844.7522245134626,4310.4,2751.6428571428573,844.7522245134626,4411.2,2751.6428571428573,844.7522245134626,4515.9,2751.6428571428573,844.7522245134626,4615.9,2751.6428571428573,844.7522245134626,4717.3,2751.6428571428573,844.7522245134626,4821,2751.6428571428573,844.7522245134626,4921.4]","[1333.1,1333.1,1000,0,333.1,""smooth"",""right"",""right"",""good_move"",4076.6,2743.1,2368.9,1333.5,374.2,""smooth"",""down"",""down"",""good_move"",6244.6,2167.7,1750.2,4076.9,417.5,""oops"",""right"",""down"",""good_move"",8924.4,2679.5,2332.3,6244.9,347.2,""smooth"",""right"",""right"",""good_move"",11548.6,2624,2225.9,8924.6,398.1,""oops"",""right"",""right"",""good_move"",14116.7,2567.8,2224.1,11548.9,343.7,""smooth"",""down"",""down"",""good_move""]"
"6481","","<div style=""width:500px;"">
  <p>What determined the result of this run?</p>
  </div>","92","html-slider-response","74","777576","0.0-7.0-1.12","12","1","2025-07-30 08:38:26","36c45c0696341be0efffe67d72a12abb","134.255.57.120","Mozilla/5.0 (Windows NT 10.0; Win64; x64) AppleWebKit/537.36 (KHTML, like Gecko) Chrome/138.0.0.0 Safari/537.36","WebKit","Chrome","138.0.0.0","Windows","10.0","https://app.prolific.com/","hu-HU,hu;q=0.9,en-US;q=0.8,en;q=0.7","5c66cc9246bfc200019044b8","687a19d2168e237449fb8af4","6889d9fe66ae07a4534c3355","0","5c66cc9246bfc200019044b8","0","2025-07-30T08:48:58.955Z","","","","AttribQ","","","","","","","","","","","50","","","","","","","","","","","","","","","","","","","","","","","","","","",""
"1664","","<div style=""width:500px;"">
  <p>How much control did you have over the ball?</p>
  </div>","91","html-slider-response","75","779240","0.0-7.0-2.12","12","1","2025-07-30 08:38:26","36c45c0696341be0efffe67d72a12abb","134.255.57.120","Mozilla/5.0 (Windows NT 10.0; Win64; x64) AppleWebKit/537.36 (KHTML, like Gecko) Chrome/138.0.0.0 Safari/537.36","WebKit","Chrome","138.0.0.0","Windows","10.0","https://app.prolific.com/","hu-HU,hu;q=0.9,en-US;q=0.8,en;q=0.7","5c66cc9246bfc200019044b8","687a19d2168e237449fb8af4","6889d9fe66ae07a4534c3355","0","5c66cc9246bfc200019044b8","0","2025-07-30T08:49:00.619Z","","","","ControlQ","","","","","","","","","","","50","","","","","","","","","","","","","","","","","","","","","","","","","","",""
"2167","","<div style=""width:500px;"">
  <p>How would you describe your current emotional state?</p>
  </div>","1","html-slider-response","76","781407","0.0-7.0-3.12","12","1","2025-07-30 08:38:26","36c45c0696341be0efffe67d72a12abb","134.255.57.120","Mozilla/5.0 (Windows NT 10.0; Win64; x64) AppleWebKit/537.36 (KHTML, like Gecko) Chrome/138.0.0.0 Safari/537.36","WebKit","Chrome","138.0.0.0","Windows","10.0","https://app.prolific.com/","hu-HU,hu;q=0.9,en-US;q=0.8,en;q=0.7","5c66cc9246bfc200019044b8","687a19d2168e237449fb8af4","6889d9fe66ae07a4534c3355","0","5c66cc9246bfc200019044b8","0","2025-07-30T08:49:02.787Z","","","","StressQ","","","","","","","","","","","50","","","","","","","","","","","","","","","","","","","","","","","","","","",""
"2439","","<div style=""width:500px;"">
  <p>What best describes how you currently feel?</p>
  </div>","43","html-slider-response","77","783848","0.0-7.0-4.12","12","1","2025-07-30 08:38:26","36c45c0696341be0efffe67d72a12abb","134.255.57.120","Mozilla/5.0 (Windows NT 10.0; Win64; x64) AppleWebKit/537.36 (KHTML, like Gecko) Chrome/138.0.0.0 Safari/537.36","WebKit","Chrome","138.0.0.0","Windows","10.0","https://app.prolific.com/","hu-HU,hu;q=0.9,en-US;q=0.8,en;q=0.7","5c66cc9246bfc200019044b8","687a19d2168e237449fb8af4","6889d9fe66ae07a4534c3355","0","5c66cc9246bfc200019044b8","0","2025-07-30T08:49:05.227Z","","","","MotivationQ","","","","","","","","","","","50","","","","","","","","","","","","","","","","","","","","","","","","","","",""
