"rt","response_timestamp","stimulus","response","trial_type","trial_index","time_elapsed","internal_node_id","run_id","condition","recorded_at","source_code_version","ip","user_agent","device","browser","browser_version","platform","platform_version","referer","accept_language","PROLIFIC_PID","STUDY_ID","SESSION_ID","BATCH","prolific_id","batch","realtime","success","question_order","question_id","eventType","responses","item_order","radio_event_ids","radio_event_times","key_event_times","mouse_event_times","straightlining","zigzagging","honeypot","view_history","slider_start","which_type","canvas_config","goals_layout","control_level","trial_number","tutorial_trial_number","trial_start_time","phase1_start_time","phase2_start_time","phase3_start_time","goal_1_value","goal_1_distance","goal_2_value","goal_2_distance","goal_selected","outcome","outcome_total","participant_final_score","participant_initial_score","participant_final_score_prop","goal_choice_rt","allocated_time","allocated_time_remaining","goal_direction","counts","mouse_movements","key_presses"
"6731","1753864852380","<p style='font-size:40px;line-height:1.25'><strong>Welcome to the experiment!</strong></p><p style='font-size:1.1em;line-height:1.25'>Thank you for participanting in our experiment again! You will be asked to play the Dysfunctional Ball Game again. We will briefly recap the rules before we start.</p><p style='font-size:1.1em;line-height:1.25'>Press <strong>Next</strong> to continue.</p>","0","custom-html-button-response","0","6733","0.0-0.0","28","1","2025-07-30 08:40:42","36c45c0696341be0efffe67d72a12abb","81.107.28.63","Mozilla/5.0 (Windows NT 10.0; Win64; x64) AppleWebKit/537.36 (KHTML, like Gecko) Chrome/138.0.0.0 Safari/537.36","WebKit","Chrome","138.0.0.0","Windows","10.0","https://app.prolific.com/","en-GB,en-US;q=0.9,en;q=0.8","5c9d88bb2b3c77001744ec1c","687a19d2168e237449fb8af4","6889da33871baaad909979b2","0","5c9d88bb2b3c77001744ec1c","0","2025-07-30T08:40:52.381Z","","","","","","","","","","","","","","","","","","","","","","","","","","","","","","","","","","","","","","","","","",""
"13345","","","","fullscreen","1","21081","0.0-1.0","28","1","2025-07-30 08:40:42","36c45c0696341be0efffe67d72a12abb","81.107.28.63","Mozilla/5.0 (Windows NT 10.0; Win64; x64) AppleWebKit/537.36 (KHTML, like Gecko) Chrome/138.0.0.0 Safari/537.36","WebKit","Chrome","138.0.0.0","Windows","10.0","https://app.prolific.com/","en-GB,en-US;q=0.9,en;q=0.8","5c9d88bb2b3c77001744ec1c","687a19d2168e237449fb8af4","6889da33871baaad909979b2","0","5c9d88bb2b3c77001744ec1c","0","","true","","","","","","","","","","","","","","","","","","","","","","","","","","","","","","","","","","","","","","","","",""
"2361","1753864869091"," <p style='font-size:1.1em;line-height:1.25'>Thank you for closing all other tabs.</p><p style='font-size:1.1em;line-height:1.25'>We will now invite you to fill in some questionnaires, before starting the game.<br>This will take about 5 minutes.<br></p><p style='font-size:1.1em;line-height:1.25'>Press the <strong>Next</strong> button to continue.</p>","0","custom-html-button-response","2","23443","0.0-2.0","28","1","2025-07-30 08:40:42","36c45c0696341be0efffe67d72a12abb","81.107.28.63","Mozilla/5.0 (Windows NT 10.0; Win64; x64) AppleWebKit/537.36 (KHTML, like Gecko) Chrome/138.0.0.0 Safari/537.36","WebKit","Chrome","138.0.0.0","Windows","10.0","https://app.prolific.com/","en-GB,en-US;q=0.9,en;q=0.8","5c9d88bb2b3c77001744ec1c","687a19d2168e237449fb8af4","6889da33871baaad909979b2","0","5c9d88bb2b3c77001744ec1c","0","2025-07-30T08:41:09.092Z","","","","","","","","","","","","","","","","","","","","","","","","","","","","","","","","","","","","","","","","","",""
"3886","","","{""assigned_sex"":""male""}","survey-multi-choice","3","27332","0.0-3.0-0.0","28","1","2025-07-30 08:40:42","36c45c0696341be0efffe67d72a12abb","81.107.28.63","Mozilla/5.0 (Windows NT 10.0; Win64; x64) AppleWebKit/537.36 (KHTML, like Gecko) Chrome/138.0.0.0 Safari/537.36","WebKit","Chrome","138.0.0.0","Windows","10.0","https://app.prolific.com/","en-GB,en-US;q=0.9,en;q=0.8","5c9d88bb2b3c77001744ec1c","687a19d2168e237449fb8af4","6889da33871baaad909979b2","0","5c9d88bb2b3c77001744ec1c","0","","","[0]","0","demographics","","","","","","","","","","","","","","","","","","","","","","","","","","","","","","","","","","","","","",""
"14071","1753864887051","<p style='font-size:1.1em;line-height:1.25'>In the following, we will perform a baseline assessment. This means that we will ask you a few questions relating to your experiences over the past month.<br></p><p style='font-size:1.1em;line-height:1.25'>Press the <strong>Next</strong> button to continue.</p>","0","custom-html-button-response","4","41404","0.0-4.0-0.0","28","1","2025-07-30 08:40:42","36c45c0696341be0efffe67d72a12abb","81.107.28.63","Mozilla/5.0 (Windows NT 10.0; Win64; x64) AppleWebKit/537.36 (KHTML, like Gecko) Chrome/138.0.0.0 Safari/537.36","WebKit","Chrome","138.0.0.0","Windows","10.0","https://app.prolific.com/","en-GB,en-US;q=0.9,en;q=0.8","5c9d88bb2b3c77001744ec1c","687a19d2168e237449fb8af4","6889da33871baaad909979b2","0","5c9d88bb2b3c77001744ec1c","0","2025-07-30T08:41:27.052Z","","","","","","","","","","","","","","","","","","","","","","","","","","","","","","","","","","","","","","","","","",""
"52517.80000000028","","","","survey-template","5","93933","0.0-4.0-1.0","28","1","2025-07-30 08:40:42","36c45c0696341be0efffe67d72a12abb","81.107.28.63","Mozilla/5.0 (Windows NT 10.0; Win64; x64) AppleWebKit/537.36 (KHTML, like Gecko) Chrome/138.0.0.0 Safari/537.36","WebKit","Chrome","138.0.0.0","Windows","10.0","https://app.prolific.com/","en-GB,en-US;q=0.9,en;q=0.8","5c9d88bb2b3c77001744ec1c","687a19d2168e237449fb8af4","6889da33871baaad909979b2","0","5c9d88bb2b3c77001744ec1c","0","2025-07-30T08:42:19.581Z","","","","pss","{""Q01"":""1"",""Q02"":""1"",""Q03"":""1"",""Q04"":""0"",""Q05"":""1"",""Q06"":""0"",""Q07"":""0"",""Q08"":""0"",""Q09"":""1"",""Q10"":""0""}","[0,1,2,3,4,5,6,7,8,9]","[""Q01"",""Q01"",""Q02"",""Q03"",""Q04"",""Q05"",""Q06"",""Q07"",""Q08"",""Q09"",""Q10""]","[9744.100000000093,14616.80000000028,18130.700000000186,21854.5,24500.5,26151.100000000093,34756.5,36348.39999999991,47554.39999999991,48783.10000000009,51054.700000000186]","[]","[0.10000000009313226,8296.700000000186,9744.100000000093,11258.80000000028,12426.5,13143,13840.200000000186,14262.700000000186,14616.80000000028,15562.80000000028,16002.600000000093,16970.600000000093,18130.700000000186,21046.700000000186,21854.5,24500.5,26151.100000000093,31406.399999999907,32552.5,33278.60000000009,34756.5,36068.60000000009,36348.39999999991,43640.60000000009,44538.700000000186,46320.60000000009,47160.39999999991,47554.39999999991,48783.10000000009,51054.700000000186,52515.200000000186]","0.4","0.3333333333333333","0","","","","","","","","","","","","","","","","","","","","","","","","","","","","",""
"2046","1753864941628","<p style='font-size:1.1em;line-height:1.25'>Thank you for your answers! Now we will ask you a few more questions relating to your feelings in the last 24 hours.<br></p><p style='font-size:1.1em;line-height:1.25'>Press the <strong>Next</strong> button to continue.</p>","0","custom-html-button-response","6","95980","0.0-4.0-2.0","28","1","2025-07-30 08:40:42","36c45c0696341be0efffe67d72a12abb","81.107.28.63","Mozilla/5.0 (Windows NT 10.0; Win64; x64) AppleWebKit/537.36 (KHTML, like Gecko) Chrome/138.0.0.0 Safari/537.36","WebKit","Chrome","138.0.0.0","Windows","10.0","https://app.prolific.com/","en-GB,en-US;q=0.9,en;q=0.8","5c9d88bb2b3c77001744ec1c","687a19d2168e237449fb8af4","6889da33871baaad909979b2","0","5c9d88bb2b3c77001744ec1c","0","2025-07-30T08:42:21.628Z","","","","","","","","","","","","","","","","","","","","","","","","","","","","","","","","","","","","","","","","","",""
"78372.3999999999","","","","survey-template","7","174356","0.0-4.0-3.0","28","1","2025-07-30 08:40:42","36c45c0696341be0efffe67d72a12abb","81.107.28.63","Mozilla/5.0 (Windows NT 10.0; Win64; x64) AppleWebKit/537.36 (KHTML, like Gecko) Chrome/138.0.0.0 Safari/537.36","WebKit","Chrome","138.0.0.0","Windows","10.0","https://app.prolific.com/","en-GB,en-US;q=0.9,en;q=0.8","5c9d88bb2b3c77001744ec1c","687a19d2168e237449fb8af4","6889da33871baaad909979b2","0","5c9d88bb2b3c77001744ec1c","0","2025-07-30T08:43:40.004Z","","","","drsp","{""Q01"":""0"",""Q02"":""0"",""Q03"":""0"",""Q04"":""1"",""Q05"":""1"",""Q06"":""0"",""Q07"":""1"",""Q08"":""0"",""Q09"":""0"",""Q10"":""0"",""Q11"":""0"",""Q12"":""0"",""Q13"":""5"",""Q14"":""0"",""Q15"":""0"",""Q16"":""2"",""Q17"":""0"",""Q18"":""0"",""Q19"":""0"",""Q20"":""0"",""Q21"":""0"",""Q22"":""0""}","[0,1,2,3,4,5,6,7,8,9,10,11,12,13,14,15,16,17,18,19,20,21]","[""Q01"",""Q02"",""Q03"",""Q04"",""Q05"",""Q05"",""Q06"",""Q07"",""Q04"",""Q08"",""Q09"",""Q10"",""Q11"",""Q12"",""Q13"",""Q15"",""Q14"",""Q15"",""Q15"",""Q16"",""Q17"",""Q18"",""Q19"",""Q20"",""Q21"",""Q22""]","[2399.399999999907,4817,6448.799999999814,7729,9667.5,16237.5,20574.799999999814,21335.399999999907,26005.299999999814,31583.299999999814,32102.69999999972,33153.39999999991,34344.60000000009,35121.60000000009,38473.19999999972,41379.39999999991,50589.39999999991,55326.799999999814,57089.19999999972,60123,66073,68230.6000000001,69430.6000000001,72625,73424.8999999999,74357.1000000001]","[]","[0,2399.399999999907,4395.399999999907,4817,5635.399999999907,6448.799999999814,7336.899999999907,7729,9667.5,11081,16237.5,17109.899999999907,18143.100000000093,19243.399999999907,20213.100000000093,20574.799999999814,21335.399999999907,25623.899999999907,26005.299999999814,28464.299999999814,29169.299999999814,30171,31583.299999999814,32102.69999999972,32816.89999999991,33153.39999999991,34344.60000000009,35121.60000000009,36387,37976.5,38473.19999999972,40075,41379.39999999991,45179.39999999991,46066.89999999991,47238.69999999972,48300.799999999814,49810.799999999814,50589.39999999991,51630.69999999972,55326.799999999814,57089.19999999972,60123,62267,63860.89999999991,65215.10000000009,66073,67109.3999999999,67623,68230.6000000001,68823.1000000001,69430.6000000001,70217.19999999972,71184.8999999999,71673,72321,72625,73424.8999999999,74357.1000000001,77921.1000000001,78368.6000000001]","0.7727272727272727","0.2857142857142857","0","","","","","","","","","","","","","","","","","","","","","","","","","","","","",""
"16289.899999999907","","","","survey-template","8","190648","0.0-4.0-4.0","28","1","2025-07-30 08:40:42","36c45c0696341be0efffe67d72a12abb","81.107.28.63","Mozilla/5.0 (Windows NT 10.0; Win64; x64) AppleWebKit/537.36 (KHTML, like Gecko) Chrome/138.0.0.0 Safari/537.36","WebKit","Chrome","138.0.0.0","Windows","10.0","https://app.prolific.com/","en-GB,en-US;q=0.9,en;q=0.8","5c9d88bb2b3c77001744ec1c","687a19d2168e237449fb8af4","6889da33871baaad909979b2","0","5c9d88bb2b3c77001744ec1c","0","2025-07-30T08:43:56.296Z","","","","stress","{""Q01"":""1"",""Q02"":""2"",""Q03"":""0""}","[0,1,2]","[""Q01"",""Q02"",""Q03""]","[3435.100000000093,9561.100000000093,15209.600000000093]","[]","[3435.100000000093,9561.100000000093,13707,14237.5,14701.200000000186,15209.600000000093,16289]","0.3333333333333333","0","0","","","","","","","","","","","","","","","","","","","","","","","","","","","","",""
"32888","","","","instructions","9","223537","0.0-5.0-0.0","28","1","2025-07-30 08:40:42","36c45c0696341be0efffe67d72a12abb","81.107.28.63","Mozilla/5.0 (Windows NT 10.0; Win64; x64) AppleWebKit/537.36 (KHTML, like Gecko) Chrome/138.0.0.0 Safari/537.36","WebKit","Chrome","138.0.0.0","Windows","10.0","https://app.prolific.com/","en-GB,en-US;q=0.9,en;q=0.8","5c9d88bb2b3c77001744ec1c","687a19d2168e237449fb8af4","6889da33871baaad909979b2","0","5c9d88bb2b3c77001744ec1c","0","","","","","","","","","","","","","","","[{""page_index"":0,""viewing_time"":32888}]","","","","","","","","","","","","","","","","","","","","","","","","","","","",""
"6537","","<p>Before you start with this game please answer the following three questions yourself. </p>
  <p>Through this game, we measure several aspects of your cognitive performance, such as reaction times, multi-tasking capabilities </p>
  <p>and the ability to assess the situation you are in.</p>
  <p></p>
  <p><b>How good do you usually are in such tasks?</b></p>","72","html-slider-response","10","230075","0.0-6.0-0.0","28","1","2025-07-30 08:40:42","36c45c0696341be0efffe67d72a12abb","81.107.28.63","Mozilla/5.0 (Windows NT 10.0; Win64; x64) AppleWebKit/537.36 (KHTML, like Gecko) Chrome/138.0.0.0 Safari/537.36","WebKit","Chrome","138.0.0.0","Windows","10.0","https://app.prolific.com/","en-GB,en-US;q=0.9,en;q=0.8","5c9d88bb2b3c77001744ec1c","687a19d2168e237449fb8af4","6889da33871baaad909979b2","0","5c9d88bb2b3c77001744ec1c","0","2025-07-30T08:44:35.723Z","","","","PreSkillQ","","","","","","","","","","","50","","","","","","","","","","","","","","","","","","","","","","","","","","",""
"6461","","<div style=""width:500px;"">
  <p>How well do you think you will perform in this task compared to other participants?</p>
  </div>","50","html-slider-response","11","236537","0.0-6.0-1.0","28","1","2025-07-30 08:40:42","36c45c0696341be0efffe67d72a12abb","81.107.28.63","Mozilla/5.0 (Windows NT 10.0; Win64; x64) AppleWebKit/537.36 (KHTML, like Gecko) Chrome/138.0.0.0 Safari/537.36","WebKit","Chrome","138.0.0.0","Windows","10.0","https://app.prolific.com/","en-GB,en-US;q=0.9,en;q=0.8","5c9d88bb2b3c77001744ec1c","687a19d2168e237449fb8af4","6889da33871baaad909979b2","0","5c9d88bb2b3c77001744ec1c","0","2025-07-30T08:44:42.185Z","","","","PrePerfQ","","","","","","","","","","","50","","","","","","","","","","","","","","","","","","","","","","","","","","",""
"3839","","<div style=""width:500px;"">
  <p>What best describes how you currently feel?</p>
  </div>","88","html-slider-response","12","240376","0.0-6.0-2.0","28","1","2025-07-30 08:40:42","36c45c0696341be0efffe67d72a12abb","81.107.28.63","Mozilla/5.0 (Windows NT 10.0; Win64; x64) AppleWebKit/537.36 (KHTML, like Gecko) Chrome/138.0.0.0 Safari/537.36","WebKit","Chrome","138.0.0.0","Windows","10.0","https://app.prolific.com/","en-GB,en-US;q=0.9,en;q=0.8","5c9d88bb2b3c77001744ec1c","687a19d2168e237449fb8af4","6889da33871baaad909979b2","0","5c9d88bb2b3c77001744ec1c","0","2025-07-30T08:44:46.024Z","","","","PreMotivationQ","","","","","","","","","","","50","","","","","","","","","","","","","","","","","","","","","","","","","","",""
"","","","","ctl-task-cpt","13","268113","0.0-7.0-0.0","28","1","2025-07-30 08:40:42","36c45c0696341be0efffe67d72a12abb","81.107.28.63","Mozilla/5.0 (Windows NT 10.0; Win64; x64) AppleWebKit/537.36 (KHTML, like Gecko) Chrome/138.0.0.0 Safari/537.36","WebKit","Chrome","138.0.0.0","Windows","10.0","https://app.prolific.com/","en-GB,en-US;q=0.9,en;q=0.8","5c9d88bb2b3c77001744ec1c","687a19d2168e237449fb8af4","6889da33871baaad909979b2","0","5c9d88bb2b3c77001744ec1c","0","2025-07-30T08:45:13.761Z","","","","","","","","","","","","","","","","win-only","3","g1:SW,g2:NE","1","1","0","241180.2","1882.4","6886.3","24727.5","1","4","4","6","2","4","2","2","0","0.015151515151515152","5003.9","3000","1040","[""up"",""right""]","{""num_key_presses"":7,""num_perfect"":5,""num_errors"":2,""num_randdir"":0,""num_randdir_good_moves"":0,""num_whilered"":0,""num_whileblue"":1,""num_blue"":1,""num_good_moves"":6}","[418.57142857142856,410.47767857142856,0.3,418.57142857142856,410.47767857142856,104,418.57142857142856,410.47767857142856,211,418.57142857142856,410.47767857142856,313.8,418.57142857142856,410.47767857142856,418.8,418.57142857142856,410.47767857142856,519.5,418.57142857142856,410.47767857142856,629.2,418.57142857142856,410.47767857142856,733.7,418.57142857142856,410.47767857142856,838.9,442.57142857142856,372.47767857142856,939.4,446.57142857142856,375.47767857142856,1043.3,446.57142857142856,375.47767857142856,1143.4,446.57142857142856,375.47767857142856,1244.3,446.57142857142856,375.47767857142856,1345.9,446.57142857142856,375.47767857142856,1450.7,446.57142857142856,375.47767857142856,1553.7,446.57142857142856,375.47767857142856,1658.4,443.57142857142856,378.47767857142856,1763.9,443.57142857142856,378.47767857142856,1868,443.57142857142856,378.47767857142856,1968.4,443.57142857142856,378.47767857142856,2069.8,443.57142857142856,378.47767857142856,2169.8,443.57142857142856,378.47767857142856,2273.6,443.57142857142856,378.47767857142856,2380,443.57142857142856,378.47767857142856,2480,443.57142857142856,378.47767857142856,2580.3,443.57142857142856,378.47767857142856,2684,443.57142857142856,378.47767857142856,2788.5,443.57142857142856,378.47767857142856,2894.2,443.57142857142856,378.47767857142856,2998.8,443.57142857142856,378.47767857142856,3103.4,443.57142857142856,378.47767857142856,3203.6,443.57142857142856,378.47767857142856,3309.2,443.57142857142856,378.47767857142856,3409.4,449.57142857142856,375.47767857142856,3513.7,456.57142857142856,375.47767857142856,3619.2,481.57142857142856,375.47767857142856,3723.1,512.5714285714286,375.47767857142856,3823.2,568.5714285714286,389.47767857142856,3923.6,589.5714285714286,410.47767857142856,4024.2,600.5714285714286,431.47767857142856,4130.6,600.5714285714286,431.47767857142856,4230.9,600.5714285714286,431.47767857142856,4333.3,600.5714285714286,431.47767857142856,4433.8,600.5714285714286,431.47767857142856,4538.5,600.5714285714286,431.47767857142856,4639.3,600.5714285714286,431.47767857142856,4743.3,600.5714285714286,431.47767857142856,4848.1,600.5714285714286,431.47767857142856,4949.8]","[43.7,43.6,1000,0.1,-956.4,""error"",""-"",""-"",""no_move"",3989.6,3945.8,2580.8,1045.4,363.4,""smooth"",""right"",""right"",""good_move"",6609.4,2619.3,2221.1,3990.1,398.2,""smooth"",""right"",""right"",""good_move"",8907.7,2298.1,1537.8,6609.6,760.3,""smooth"",""up"",""up"",""good_move"",12248.9,3340.9,2970.9,8908,370,""smooth"",""up"",""up"",""good_move"",15644,3394.9,3006.2,12249.1,388.7,""smooth"",""right"",""right"",""good_move"",17747.8,2103.6,1686.1,15644.3,417.5,""while_blue"",""up"",""up"",""good_move""]"
"18422","","<div style=""width:500px;"">
  <p>What determined the result of this run?</p>
  </div>","100","html-slider-response","14","286537","0.0-7.0-1.0","28","1","2025-07-30 08:40:42","36c45c0696341be0efffe67d72a12abb","81.107.28.63","Mozilla/5.0 (Windows NT 10.0; Win64; x64) AppleWebKit/537.36 (KHTML, like Gecko) Chrome/138.0.0.0 Safari/537.36","WebKit","Chrome","138.0.0.0","Windows","10.0","https://app.prolific.com/","en-GB,en-US;q=0.9,en;q=0.8","5c9d88bb2b3c77001744ec1c","687a19d2168e237449fb8af4","6889da33871baaad909979b2","0","5c9d88bb2b3c77001744ec1c","0","2025-07-30T08:45:32.185Z","","","","AttribQ","","","","","","","","","","","50","","","","","","","","","","","","","","","","","","","","","","","","","","",""
"3813","","<div style=""width:500px;"">
  <p>How much control did you have over the ball?</p>
  </div>","100","html-slider-response","15","290351","0.0-7.0-2.0","28","1","2025-07-30 08:40:42","36c45c0696341be0efffe67d72a12abb","81.107.28.63","Mozilla/5.0 (Windows NT 10.0; Win64; x64) AppleWebKit/537.36 (KHTML, like Gecko) Chrome/138.0.0.0 Safari/537.36","WebKit","Chrome","138.0.0.0","Windows","10.0","https://app.prolific.com/","en-GB,en-US;q=0.9,en;q=0.8","5c9d88bb2b3c77001744ec1c","687a19d2168e237449fb8af4","6889da33871baaad909979b2","0","5c9d88bb2b3c77001744ec1c","0","2025-07-30T08:45:35.999Z","","","","ControlQ","","","","","","","","","","","50","","","","","","","","","","","","","","","","","","","","","","","","","","",""
"6793","","<div style=""width:500px;"">
  <p>How would you describe your current emotional state?</p>
  </div>","16","html-slider-response","16","297145","0.0-7.0-3.0","28","1","2025-07-30 08:40:42","36c45c0696341be0efffe67d72a12abb","81.107.28.63","Mozilla/5.0 (Windows NT 10.0; Win64; x64) AppleWebKit/537.36 (KHTML, like Gecko) Chrome/138.0.0.0 Safari/537.36","WebKit","Chrome","138.0.0.0","Windows","10.0","https://app.prolific.com/","en-GB,en-US;q=0.9,en;q=0.8","5c9d88bb2b3c77001744ec1c","687a19d2168e237449fb8af4","6889da33871baaad909979b2","0","5c9d88bb2b3c77001744ec1c","0","2025-07-30T08:45:42.793Z","","","","StressQ","","","","","","","","","","","50","","","","","","","","","","","","","","","","","","","","","","","","","","",""
"12870","","<div style=""width:500px;"">
  <p>What best describes how you currently feel?</p>
  </div>","100","html-slider-response","17","310016","0.0-7.0-4.0","28","1","2025-07-30 08:40:42","36c45c0696341be0efffe67d72a12abb","81.107.28.63","Mozilla/5.0 (Windows NT 10.0; Win64; x64) AppleWebKit/537.36 (KHTML, like Gecko) Chrome/138.0.0.0 Safari/537.36","WebKit","Chrome","138.0.0.0","Windows","10.0","https://app.prolific.com/","en-GB,en-US;q=0.9,en;q=0.8","5c9d88bb2b3c77001744ec1c","687a19d2168e237449fb8af4","6889da33871baaad909979b2","0","5c9d88bb2b3c77001744ec1c","0","2025-07-30T08:45:55.664Z","","","","MotivationQ","","","","","","","","","","","50","","","","","","","","","","","","","","","","","","","","","","","","","","",""
"","","","","ctl-task-cpt","18","330815","0.0-7.0-0.1","28","1","2025-07-30 08:40:42","36c45c0696341be0efffe67d72a12abb","81.107.28.63","Mozilla/5.0 (Windows NT 10.0; Win64; x64) AppleWebKit/537.36 (KHTML, like Gecko) Chrome/138.0.0.0 Safari/537.36","WebKit","Chrome","138.0.0.0","Windows","10.0","https://app.prolific.com/","en-GB,en-US;q=0.9,en;q=0.8","5c9d88bb2b3c77001744ec1c","687a19d2168e237449fb8af4","6889da33871baaad909979b2","0","5c9d88bb2b3c77001744ec1c","0","2025-07-30T08:46:16.463Z","","","","","","","","","","","","","","","","win-only","1","g1:NE,g2:SW","0.9","2","0","310820","1994.4","6996.2","17791","1","4","8","6","1","1","1","3","2","0.022727272727272728","5001.8","3000","1755","[""up"",""right""]","{""num_key_presses"":4,""num_perfect"":3,""num_errors"":0,""num_randdir"":1,""num_randdir_good_moves"":1,""num_whilered"":0,""num_whileblue"":0,""num_blue"":0,""num_good_moves"":4}","[419.57142857142856,411.47767857142856,0.3,419.57142857142856,411.47767857142856,113.5,423.57142857142856,415.47767857142856,217.2,423.57142857142856,415.47767857142856,317.2,420.57142857142856,415.47767857142856,429.6,420.57142857142856,415.47767857142856,530.4,420.57142857142856,415.47767857142856,630.8,420.57142857142856,415.47767857142856,730.9,413.57142857142856,415.47767857142856,836.6,402.57142857142856,418.47767857142856,947,399.57142857142856,422.47767857142856,1052,399.57142857142856,425.47767857142856,1156,399.57142857142856,425.47767857142856,1256,399.57142857142856,425.47767857142856,1356.2,399.57142857142856,425.47767857142856,1464.6,399.57142857142856,425.47767857142856,1566.6,399.57142857142856,425.47767857142856,1666.6,399.57142857142856,425.47767857142856,1767.4,395.57142857142856,436.47767857142856,1883.5,395.57142857142856,436.47767857142856,1986.9,395.57142857142856,436.47767857142856,2087.6,395.57142857142856,436.47767857142856,2191,395.57142857142856,436.47767857142856,2291,395.57142857142856,436.47767857142856,2391.8,395.57142857142856,436.47767857142856,2498,395.57142857142856,436.47767857142856,2598.1,395.57142857142856,436.47767857142856,2701.1,395.57142857142856,436.47767857142856,2801.1,388.57142857142856,443.47767857142856,2903.2,381.57142857142856,446.47767857142856,3016.3,381.57142857142856,446.47767857142856,3121.6,381.57142857142856,446.47767857142856,3221.6,381.57142857142856,446.47767857142856,3327.7,381.57142857142856,446.47767857142856,3432.2,381.57142857142856,446.47767857142856,3532.3,381.57142857142856,446.47767857142856,3650.2,381.57142857142856,446.47767857142856,3750.2,384.57142857142856,433.47767857142856,3850.2,384.57142857142856,433.47767857142856,3950.5,371.57142857142856,439.47767857142856,4051.2,339.57142857142856,474.47767857142856,4156.1,339.57142857142856,474.47767857142856,4256.2,339.57142857142856,474.47767857142856,4361.7,339.57142857142856,474.47767857142856,4461.8,339.57142857142856,474.47767857142856,4566.8,339.57142857142856,474.47767857142856,4666.9,349.57142857142856,485.47767857142856,4784.9,349.57142857142856,485.47767857142856,4885,349.57142857142856,485.47767857142856,4986.9]","[1453.9,1453.9,1000,0,453.9,""smooth"",""right"",""right"",""good_move"",4737.1,3282.7,2904.6,1454.4,378.1,""smooth"",""up"",""up"",""good_move"",7689.4,2952,2518.8,4737.4,433.2,""smooth"",""right"",""right"",""good_move"",10680.2,2990.7,2636.8,7689.5,353.9,""oops"",""up"",""up"",""good_move""]"
"8119","","<div style=""width:500px;"">
  <p>What determined the result of this run?</p>
  </div>","88","html-slider-response","19","338935","0.0-7.0-1.1","28","1","2025-07-30 08:40:42","36c45c0696341be0efffe67d72a12abb","81.107.28.63","Mozilla/5.0 (Windows NT 10.0; Win64; x64) AppleWebKit/537.36 (KHTML, like Gecko) Chrome/138.0.0.0 Safari/537.36","WebKit","Chrome","138.0.0.0","Windows","10.0","https://app.prolific.com/","en-GB,en-US;q=0.9,en;q=0.8","5c9d88bb2b3c77001744ec1c","687a19d2168e237449fb8af4","6889da33871baaad909979b2","0","5c9d88bb2b3c77001744ec1c","0","2025-07-30T08:46:24.583Z","","","","AttribQ","","","","","","","","","","","50","","","","","","","","","","","","","","","","","","","","","","","","","","",""
"2576","","<div style=""width:500px;"">
  <p>How much control did you have over the ball?</p>
  </div>","100","html-slider-response","20","341513","0.0-7.0-2.1","28","1","2025-07-30 08:40:42","36c45c0696341be0efffe67d72a12abb","81.107.28.63","Mozilla/5.0 (Windows NT 10.0; Win64; x64) AppleWebKit/537.36 (KHTML, like Gecko) Chrome/138.0.0.0 Safari/537.36","WebKit","Chrome","138.0.0.0","Windows","10.0","https://app.prolific.com/","en-GB,en-US;q=0.9,en;q=0.8","5c9d88bb2b3c77001744ec1c","687a19d2168e237449fb8af4","6889da33871baaad909979b2","0","5c9d88bb2b3c77001744ec1c","0","2025-07-30T08:46:27.161Z","","","","ControlQ","","","","","","","","","","","50","","","","","","","","","","","","","","","","","","","","","","","","","","",""
"3587","","<div style=""width:500px;"">
  <p>How would you describe your current emotional state?</p>
  </div>","9","html-slider-response","21","345101","0.0-7.0-3.1","28","1","2025-07-30 08:40:42","36c45c0696341be0efffe67d72a12abb","81.107.28.63","Mozilla/5.0 (Windows NT 10.0; Win64; x64) AppleWebKit/537.36 (KHTML, like Gecko) Chrome/138.0.0.0 Safari/537.36","WebKit","Chrome","138.0.0.0","Windows","10.0","https://app.prolific.com/","en-GB,en-US;q=0.9,en;q=0.8","5c9d88bb2b3c77001744ec1c","687a19d2168e237449fb8af4","6889da33871baaad909979b2","0","5c9d88bb2b3c77001744ec1c","0","2025-07-30T08:46:30.749Z","","","","StressQ","","","","","","","","","","","50","","","","","","","","","","","","","","","","","","","","","","","","","","",""
"2479","","<div style=""width:500px;"">
  <p>What best describes how you currently feel?</p>
  </div>","100","html-slider-response","22","347580","0.0-7.0-4.1","28","1","2025-07-30 08:40:42","36c45c0696341be0efffe67d72a12abb","81.107.28.63","Mozilla/5.0 (Windows NT 10.0; Win64; x64) AppleWebKit/537.36 (KHTML, like Gecko) Chrome/138.0.0.0 Safari/537.36","WebKit","Chrome","138.0.0.0","Windows","10.0","https://app.prolific.com/","en-GB,en-US;q=0.9,en;q=0.8","5c9d88bb2b3c77001744ec1c","687a19d2168e237449fb8af4","6889da33871baaad909979b2","0","5c9d88bb2b3c77001744ec1c","0","2025-07-30T08:46:33.228Z","","","","MotivationQ","","","","","","","","","","","50","","","","","","","","","","","","","","","","","","","","","","","","","","",""
"","","","","ctl-task-cpt","23","373488","0.0-7.0-0.2","28","1","2025-07-30 08:40:42","36c45c0696341be0efffe67d72a12abb","81.107.28.63","Mozilla/5.0 (Windows NT 10.0; Win64; x64) AppleWebKit/537.36 (KHTML, like Gecko) Chrome/138.0.0.0 Safari/537.36","WebKit","Chrome","138.0.0.0","Windows","10.0","https://app.prolific.com/","en-GB,en-US;q=0.9,en;q=0.8","5c9d88bb2b3c77001744ec1c","687a19d2168e237449fb8af4","6889da33871baaad909979b2","0","5c9d88bb2b3c77001744ec1c","0","2025-07-30T08:46:59.136Z","","","","","","","","","","","","","","","","win-only","1","g1:NE,g2:SW","0.8","3","0","348383.7","3154.5","8155.5","22888.9","1","4","4","6","1","1","1","4","3","0.030303030303030304","5001","3000","1535","[""up"",""right""]","{""num_key_presses"":4,""num_perfect"":4,""num_errors"":0,""num_randdir"":0,""num_randdir_good_moves"":0,""num_whilered"":0,""num_whileblue"":0,""num_blue"":1,""num_good_moves"":4}","[416.57142857142856,425.47767857142856,0.2,416.57142857142856,425.47767857142856,101.8,416.57142857142856,425.47767857142856,202.5,416.57142857142856,425.47767857142856,303.2,416.57142857142856,425.47767857142856,406.6,416.57142857142856,425.47767857142856,512.3,416.57142857142856,425.47767857142856,612.4,416.57142857142856,425.47767857142856,716.2,416.57142857142856,425.47767857142856,816.6,416.57142857142856,425.47767857142856,929.4,416.57142857142856,425.47767857142856,1029.4,416.57142857142856,425.47767857142856,1132.4,416.57142857142856,425.47767857142856,1236.8,416.57142857142856,425.47767857142856,1341.9,416.57142857142856,425.47767857142856,1446.7,416.57142857142856,425.47767857142856,1546.7,416.57142857142856,425.47767857142856,1646.7,416.57142857142856,425.47767857142856,1751.5,416.57142857142856,425.47767857142856,1856.7,416.57142857142856,425.47767857142856,1956.8,416.57142857142856,425.47767857142856,2057,416.57142857142856,425.47767857142856,2157.7,416.57142857142856,425.47767857142856,2264.6,416.57142857142856,425.47767857142856,2365.2,416.57142857142856,425.47767857142856,2466.8,416.57142857142856,425.47767857142856,2566.8,416.57142857142856,425.47767857142856,2670.9,416.57142857142856,425.47767857142856,2771,416.57142857142856,425.47767857142856,2871.1,416.57142857142856,425.47767857142856,2976,416.57142857142856,425.47767857142856,3076.4,416.57142857142856,425.47767857142856,3181,416.57142857142856,425.47767857142856,3299,416.57142857142856,425.47767857142856,3402.6,416.57142857142856,425.47767857142856,3505.9,416.57142857142856,425.47767857142856,3606.2,416.57142857142856,425.47767857142856,3707.3,416.57142857142856,425.47767857142856,3807.5,416.57142857142856,425.47767857142856,3912.4,416.57142857142856,425.47767857142856,4016.6,416.57142857142856,425.47767857142856,4132.8,416.57142857142856,425.47767857142856,4236,416.57142857142856,425.47767857142856,4342,416.57142857142856,425.47767857142856,4446.2,416.57142857142856,425.47767857142856,4546.4,416.57142857142856,425.47767857142856,4646.5,416.57142857142856,425.47767857142856,4746.8,416.57142857142856,425.47767857142856,4852.2,416.57142857142856,425.47767857142856,4968.2]","[1430,1430,1000,0,430,""smooth"",""up"",""up"",""good_move"",4192.5,2761.8,2336.1,1430.7,425.7,""smooth"",""right"",""right"",""good_move"",7206.3,3013.5,2622.8,4192.8,390.7,""smooth"",""right"",""right"",""good_move"",14645.8,7439.2,2843.1,11411.1,391.6,""smooth"",""up"",""up"",""good_move""]"
"3448","","<div style=""width:500px;"">
  <p>What determined the result of this run?</p>
  </div>","92","html-slider-response","24","376936","0.0-7.0-1.2","28","1","2025-07-30 08:40:42","36c45c0696341be0efffe67d72a12abb","81.107.28.63","Mozilla/5.0 (Windows NT 10.0; Win64; x64) AppleWebKit/537.36 (KHTML, like Gecko) Chrome/138.0.0.0 Safari/537.36","WebKit","Chrome","138.0.0.0","Windows","10.0","https://app.prolific.com/","en-GB,en-US;q=0.9,en;q=0.8","5c9d88bb2b3c77001744ec1c","687a19d2168e237449fb8af4","6889da33871baaad909979b2","0","5c9d88bb2b3c77001744ec1c","0","2025-07-30T08:47:02.584Z","","","","AttribQ","","","","","","","","","","","50","","","","","","","","","","","","","","","","","","","","","","","","","","",""
"2046","","<div style=""width:500px;"">
  <p>How much control did you have over the ball?</p>
  </div>","100","html-slider-response","25","378982","0.0-7.0-2.2","28","1","2025-07-30 08:40:42","36c45c0696341be0efffe67d72a12abb","81.107.28.63","Mozilla/5.0 (Windows NT 10.0; Win64; x64) AppleWebKit/537.36 (KHTML, like Gecko) Chrome/138.0.0.0 Safari/537.36","WebKit","Chrome","138.0.0.0","Windows","10.0","https://app.prolific.com/","en-GB,en-US;q=0.9,en;q=0.8","5c9d88bb2b3c77001744ec1c","687a19d2168e237449fb8af4","6889da33871baaad909979b2","0","5c9d88bb2b3c77001744ec1c","0","2025-07-30T08:47:04.630Z","","","","ControlQ","","","","","","","","","","","50","","","","","","","","","","","","","","","","","","","","","","","","","","",""
"5961","","<div style=""width:500px;"">
  <p>How would you describe your current emotional state?</p>
  </div>","4","html-slider-response","26","384944","0.0-7.0-3.2","28","1","2025-07-30 08:40:42","36c45c0696341be0efffe67d72a12abb","81.107.28.63","Mozilla/5.0 (Windows NT 10.0; Win64; x64) AppleWebKit/537.36 (KHTML, like Gecko) Chrome/138.0.0.0 Safari/537.36","WebKit","Chrome","138.0.0.0","Windows","10.0","https://app.prolific.com/","en-GB,en-US;q=0.9,en;q=0.8","5c9d88bb2b3c77001744ec1c","687a19d2168e237449fb8af4","6889da33871baaad909979b2","0","5c9d88bb2b3c77001744ec1c","0","2025-07-30T08:47:10.592Z","","","","StressQ","","","","","","","","","","","50","","","","","","","","","","","","","","","","","","","","","","","","","","",""
"3389","","<div style=""width:500px;"">
  <p>What best describes how you currently feel?</p>
  </div>","100","html-slider-response","27","388334","0.0-7.0-4.2","28","1","2025-07-30 08:40:42","36c45c0696341be0efffe67d72a12abb","81.107.28.63","Mozilla/5.0 (Windows NT 10.0; Win64; x64) AppleWebKit/537.36 (KHTML, like Gecko) Chrome/138.0.0.0 Safari/537.36","WebKit","Chrome","138.0.0.0","Windows","10.0","https://app.prolific.com/","en-GB,en-US;q=0.9,en;q=0.8","5c9d88bb2b3c77001744ec1c","687a19d2168e237449fb8af4","6889da33871baaad909979b2","0","5c9d88bb2b3c77001744ec1c","0","2025-07-30T08:47:13.982Z","","","","MotivationQ","","","","","","","","","","","50","","","","","","","","","","","","","","","","","","","","","","","","","","",""
"","","","","ctl-task-cpt","28","424198","0.0-7.0-0.3","28","1","2025-07-30 08:40:42","36c45c0696341be0efffe67d72a12abb","81.107.28.63","Mozilla/5.0 (Windows NT 10.0; Win64; x64) AppleWebKit/537.36 (KHTML, like Gecko) Chrome/138.0.0.0 Safari/537.36","WebKit","Chrome","138.0.0.0","Windows","10.0","https://app.prolific.com/","en-GB,en-US;q=0.9,en;q=0.8","5c9d88bb2b3c77001744ec1c","687a19d2168e237449fb8af4","6889da33871baaad909979b2","0","5c9d88bb2b3c77001744ec1c","0","2025-07-30T08:47:49.846Z","","","","","","","","","","","","","","","","win-only","2","g1:SE,g2:NW","0.7","4","0","389137.6","3204.6","8208.9","32850.6","1","4","8","6","1","1","1","5","4","0.03787878787878788","5004.3","3000","820","[""down"",""right""]","{""num_key_presses"":6,""num_perfect"":5,""num_errors"":0,""num_randdir"":1,""num_randdir_good_moves"":0,""num_whilered"":0,""num_whileblue"":0,""num_blue"":3,""num_good_moves"":5}","[424.57142857142856,415.47767857142856,0.2,424.57142857142856,415.47767857142856,100.6,424.57142857142856,415.47767857142856,200.6,424.57142857142856,415.47767857142856,301.1,424.57142857142856,415.47767857142856,406,424.57142857142856,415.47767857142856,506.2,424.57142857142856,415.47767857142856,606.4,424.57142857142856,415.47767857142856,712.2,424.57142857142856,415.47767857142856,816.7,424.57142857142856,415.47767857142856,934.1,424.57142857142856,415.47767857142856,1034.6,424.57142857142856,415.47767857142856,1136.4,424.57142857142856,415.47767857142856,1241.2,424.57142857142856,415.47767857142856,1346.9,424.57142857142856,415.47767857142856,1451,424.57142857142856,415.47767857142856,1551.2,424.57142857142856,398.47767857142856,1651.3,382.57142857142856,338.47767857142856,1768.3,382.57142857142856,338.47767857142856,1869.4,382.57142857142856,338.47767857142856,1971.3,382.57142857142856,338.47767857142856,2077.5,382.57142857142856,338.47767857142856,2181.5,382.57142857142856,338.47767857142856,2282,382.57142857142856,338.47767857142856,2386.2,382.57142857142856,338.47767857142856,2486.7,382.57142857142856,338.47767857142856,2603.4,382.57142857142856,338.47767857142856,2704.3,382.57142857142856,338.47767857142856,2805.8,354.57142857142856,348.47767857142856,2906.4,305.57142857142856,359.47767857142856,3011.6,301.57142857142856,362.47767857142856,3116.5,301.57142857142856,362.47767857142856,3217.7,301.57142857142856,362.47767857142856,3336.8,301.57142857142856,362.47767857142856,3441.6,301.57142857142856,362.47767857142856,3552.4,301.57142857142856,362.47767857142856,3656.2,301.57142857142856,362.47767857142856,3761.9,301.57142857142856,362.47767857142856,3868.8,301.57142857142856,362.47767857142856,3974.8,301.57142857142856,362.47767857142856,4076.4,301.57142857142856,362.47767857142856,4176.7,301.57142857142856,362.47767857142856,4281,301.57142857142856,362.47767857142856,4386.5,301.57142857142856,362.47767857142856,4487.4,301.57142857142856,362.47767857142856,4590,301.57142857142856,362.47767857142856,4700.4,301.57142857142856,362.47767857142856,4802,301.57142857142856,362.47767857142856,4905.9]","[1505.8,1505.8,1000,0,505.8,""smooth"",""right"",""right"",""good_move"",4556.4,3050.3,2650,1506.2,400.2,""smooth"",""down"",""down"",""good_move"",6923.6,2366.9,1800.3,4556.7,566.6,""smooth"",""right"",""right"",""good_move"",17004.3,10079.9,2331.1,14294.7,378.5,""oops"",""down"",""left"",""bad_move"",21787.9,4783.3,1562.6,19770.3,455,""smooth"",""down"",""down"",""good_move"",24508.6,2720.6,2258.4,21788,462.2,""smooth"",""right"",""right"",""good_move""]"
"4640","","<div style=""width:500px;"">
  <p>What determined the result of this run?</p>
  </div>","89","html-slider-response","29","428841","0.0-7.0-1.3","28","1","2025-07-30 08:40:42","36c45c0696341be0efffe67d72a12abb","81.107.28.63","Mozilla/5.0 (Windows NT 10.0; Win64; x64) AppleWebKit/537.36 (KHTML, like Gecko) Chrome/138.0.0.0 Safari/537.36","WebKit","Chrome","138.0.0.0","Windows","10.0","https://app.prolific.com/","en-GB,en-US;q=0.9,en;q=0.8","5c9d88bb2b3c77001744ec1c","687a19d2168e237449fb8af4","6889da33871baaad909979b2","0","5c9d88bb2b3c77001744ec1c","0","2025-07-30T08:47:54.489Z","","","","AttribQ","","","","","","","","","","","50","","","","","","","","","","","","","","","","","","","","","","","","","","",""
"2020","","<div style=""width:500px;"">
  <p>How much control did you have over the ball?</p>
  </div>","86","html-slider-response","30","430862","0.0-7.0-2.3","28","1","2025-07-30 08:40:42","36c45c0696341be0efffe67d72a12abb","81.107.28.63","Mozilla/5.0 (Windows NT 10.0; Win64; x64) AppleWebKit/537.36 (KHTML, like Gecko) Chrome/138.0.0.0 Safari/537.36","WebKit","Chrome","138.0.0.0","Windows","10.0","https://app.prolific.com/","en-GB,en-US;q=0.9,en;q=0.8","5c9d88bb2b3c77001744ec1c","687a19d2168e237449fb8af4","6889da33871baaad909979b2","0","5c9d88bb2b3c77001744ec1c","0","2025-07-30T08:47:56.510Z","","","","ControlQ","","","","","","","","","","","50","","","","","","","","","","","","","","","","","","","","","","","","","","",""
"3471","","<div style=""width:500px;"">
  <p>How would you describe your current emotional state?</p>
  </div>","0","html-slider-response","31","434334","0.0-7.0-3.3","28","1","2025-07-30 08:40:42","36c45c0696341be0efffe67d72a12abb","81.107.28.63","Mozilla/5.0 (Windows NT 10.0; Win64; x64) AppleWebKit/537.36 (KHTML, like Gecko) Chrome/138.0.0.0 Safari/537.36","WebKit","Chrome","138.0.0.0","Windows","10.0","https://app.prolific.com/","en-GB,en-US;q=0.9,en;q=0.8","5c9d88bb2b3c77001744ec1c","687a19d2168e237449fb8af4","6889da33871baaad909979b2","0","5c9d88bb2b3c77001744ec1c","0","2025-07-30T08:47:59.982Z","","","","StressQ","","","","","","","","","","","50","","","","","","","","","","","","","","","","","","","","","","","","","","",""
"3585","","<div style=""width:500px;"">
  <p>What best describes how you currently feel?</p>
  </div>","100","html-slider-response","32","437920","0.0-7.0-4.3","28","1","2025-07-30 08:40:42","36c45c0696341be0efffe67d72a12abb","81.107.28.63","Mozilla/5.0 (Windows NT 10.0; Win64; x64) AppleWebKit/537.36 (KHTML, like Gecko) Chrome/138.0.0.0 Safari/537.36","WebKit","Chrome","138.0.0.0","Windows","10.0","https://app.prolific.com/","en-GB,en-US;q=0.9,en;q=0.8","5c9d88bb2b3c77001744ec1c","687a19d2168e237449fb8af4","6889da33871baaad909979b2","0","5c9d88bb2b3c77001744ec1c","0","2025-07-30T08:48:03.568Z","","","","MotivationQ","","","","","","","","","","","50","","","","","","","","","","","","","","","","","","","","","","","","","","",""
"","","","","ctl-task-cpt","33","476133","0.0-7.0-0.4","28","1","2025-07-30 08:40:42","36c45c0696341be0efffe67d72a12abb","81.107.28.63","Mozilla/5.0 (Windows NT 10.0; Win64; x64) AppleWebKit/537.36 (KHTML, like Gecko) Chrome/138.0.0.0 Safari/537.36","WebKit","Chrome","138.0.0.0","Windows","10.0","https://app.prolific.com/","en-GB,en-US;q=0.9,en;q=0.8","5c9d88bb2b3c77001744ec1c","687a19d2168e237449fb8af4","6889da33871baaad909979b2","0","5c9d88bb2b3c77001744ec1c","0","2025-07-30T08:48:41.781Z","","","","","","","","","","","","","","","","win-only","3","g1:SW,g2:NE","0.6","5","0","438723.4","1201.1","6205.6","35193.4","1","4","8","6","2","-8","-8","0","5","0","5004.5","3000","-2465","[""up"",""right""]","{""num_key_presses"":7,""num_perfect"":4,""num_errors"":0,""num_randdir"":3,""num_randdir_good_moves"":0,""num_whilered"":0,""num_whileblue"":0,""num_blue"":2,""num_good_moves"":4}","[409.57142857142856,419.47767857142856,0.4,409.57142857142856,419.47767857142856,101.2,409.57142857142856,419.47767857142856,204.8,409.57142857142856,419.47767857142856,314.7,409.57142857142856,419.47767857142856,418.4,409.57142857142856,419.47767857142856,519.7,409.57142857142856,419.47767857142856,619.8,413.57142857142856,419.47767857142856,721.7,413.57142857142856,419.47767857142856,824.4,413.57142857142856,419.47767857142856,924.5,413.57142857142856,419.47767857142856,1029.7,413.57142857142856,419.47767857142856,1136.7,396.57142857142856,401.47767857142856,1241.5,389.57142857142856,398.47767857142856,1345.4,375.57142857142856,404.47767857142856,1450.5,375.57142857142856,404.47767857142856,1554.3,375.57142857142856,404.47767857142856,1656.8,375.57142857142856,404.47767857142856,1759.2,375.57142857142856,404.47767857142856,1868.2,375.57142857142856,404.47767857142856,1968.2,371.57142857142856,418.47767857142856,2069.1,371.57142857142856,418.47767857142856,2175.8,371.57142857142856,418.47767857142856,2285.5,371.57142857142856,418.47767857142856,2390.3,371.57142857142856,418.47767857142856,2494.7,371.57142857142856,418.47767857142856,2600.9,371.57142857142856,418.47767857142856,2702.3,371.57142857142856,418.47767857142856,2804.7,371.57142857142856,418.47767857142856,2904.7,371.57142857142856,418.47767857142856,3005.6,371.57142857142856,418.47767857142856,3119.6,371.57142857142856,418.47767857142856,3224.4,371.57142857142856,418.47767857142856,3329.4,371.57142857142856,418.47767857142856,3429.5,371.57142857142856,418.47767857142856,3535.1,371.57142857142856,418.47767857142856,3639.3,371.57142857142856,418.47767857142856,3740,371.57142857142856,418.47767857142856,3855,371.57142857142856,418.47767857142856,3960.4,361.57142857142856,425.47767857142856,4061,361.57142857142856,425.47767857142856,4166.4,354.57142857142856,446.47767857142856,4267.1,350.57142857142856,453.47767857142856,4369.9,350.57142857142856,453.47767857142856,4470.2,350.57142857142856,453.47767857142856,4587.7,350.57142857142856,453.47767857142856,4689.5,350.57142857142856,453.47767857142856,4789.6,350.57142857142856,453.47767857142856,4889.8,350.57142857142856,453.47767857142856,4995.4]","[1506.8,1506.8,1000,0,506.8,""oops"",""right"",""left"",""bad_move"",8353.4,6846.1,2680,5165.3,508.1,""smooth"",""up"",""up"",""good_move"",11193.1,2838.9,2228.3,8354.2,610.6,""oops"",""right"",""left"",""bad_move"",13896,2702.7,1764.6,11193.3,938.1,""smooth"",""up"",""up"",""good_move"",16740.9,2844.7,2456.6,13896.2,388.1,""smooth"",""right"",""right"",""good_move"",22637.3,5895.5,1777.5,20455.8,404,""smooth"",""up"",""up"",""good_move"",25094.3,2456.9,2041,22637.4,415.9,""oops"",""right"",""down"",""bad_move""]"
"4014","","<div style=""width:500px;"">
  <p>What determined the result of this run?</p>
  </div>","0","html-slider-response","34","480148","0.0-7.0-1.4","28","1","2025-07-30 08:40:42","36c45c0696341be0efffe67d72a12abb","81.107.28.63","Mozilla/5.0 (Windows NT 10.0; Win64; x64) AppleWebKit/537.36 (KHTML, like Gecko) Chrome/138.0.0.0 Safari/537.36","WebKit","Chrome","138.0.0.0","Windows","10.0","https://app.prolific.com/","en-GB,en-US;q=0.9,en;q=0.8","5c9d88bb2b3c77001744ec1c","687a19d2168e237449fb8af4","6889da33871baaad909979b2","0","5c9d88bb2b3c77001744ec1c","0","2025-07-30T08:48:45.796Z","","","","AttribQ","","","","","","","","","","","50","","","","","","","","","","","","","","","","","","","","","","","","","","",""
"3127","","<div style=""width:500px;"">
  <p>How much control did you have over the ball?</p>
  </div>","14","html-slider-response","35","483276","0.0-7.0-2.4","28","1","2025-07-30 08:40:42","36c45c0696341be0efffe67d72a12abb","81.107.28.63","Mozilla/5.0 (Windows NT 10.0; Win64; x64) AppleWebKit/537.36 (KHTML, like Gecko) Chrome/138.0.0.0 Safari/537.36","WebKit","Chrome","138.0.0.0","Windows","10.0","https://app.prolific.com/","en-GB,en-US;q=0.9,en;q=0.8","5c9d88bb2b3c77001744ec1c","687a19d2168e237449fb8af4","6889da33871baaad909979b2","0","5c9d88bb2b3c77001744ec1c","0","2025-07-30T08:48:48.924Z","","","","ControlQ","","","","","","","","","","","50","","","","","","","","","","","","","","","","","","","","","","","","","","",""
"3832","","<div style=""width:500px;"">
  <p>How would you describe your current emotional state?</p>
  </div>","8","html-slider-response","36","487111","0.0-7.0-3.4","28","1","2025-07-30 08:40:42","36c45c0696341be0efffe67d72a12abb","81.107.28.63","Mozilla/5.0 (Windows NT 10.0; Win64; x64) AppleWebKit/537.36 (KHTML, like Gecko) Chrome/138.0.0.0 Safari/537.36","WebKit","Chrome","138.0.0.0","Windows","10.0","https://app.prolific.com/","en-GB,en-US;q=0.9,en;q=0.8","5c9d88bb2b3c77001744ec1c","687a19d2168e237449fb8af4","6889da33871baaad909979b2","0","5c9d88bb2b3c77001744ec1c","0","2025-07-30T08:48:52.759Z","","","","StressQ","","","","","","","","","","","50","","","","","","","","","","","","","","","","","","","","","","","","","","",""
"2558","","<div style=""width:500px;"">
  <p>What best describes how you currently feel?</p>
  </div>","100","html-slider-response","37","489670","0.0-7.0-4.4","28","1","2025-07-30 08:40:42","36c45c0696341be0efffe67d72a12abb","81.107.28.63","Mozilla/5.0 (Windows NT 10.0; Win64; x64) AppleWebKit/537.36 (KHTML, like Gecko) Chrome/138.0.0.0 Safari/537.36","WebKit","Chrome","138.0.0.0","Windows","10.0","https://app.prolific.com/","en-GB,en-US;q=0.9,en;q=0.8","5c9d88bb2b3c77001744ec1c","687a19d2168e237449fb8af4","6889da33871baaad909979b2","0","5c9d88bb2b3c77001744ec1c","0","2025-07-30T08:48:55.318Z","","","","MotivationQ","","","","","","","","","","","50","","","","","","","","","","","","","","","","","","","","","","","","","","",""
"","","","","ctl-task-cpt","38","515054","0.0-7.0-0.5","28","1","2025-07-30 08:40:42","36c45c0696341be0efffe67d72a12abb","81.107.28.63","Mozilla/5.0 (Windows NT 10.0; Win64; x64) AppleWebKit/537.36 (KHTML, like Gecko) Chrome/138.0.0.0 Safari/537.36","WebKit","Chrome","138.0.0.0","Windows","10.0","https://app.prolific.com/","en-GB,en-US;q=0.9,en;q=0.8","5c9d88bb2b3c77001744ec1c","687a19d2168e237449fb8af4","6889da33871baaad909979b2","0","5c9d88bb2b3c77001744ec1c","0","2025-07-30T08:49:20.702Z","","","","","","","","","","","","","","","","win-only","0","g1:NW,g2:SE","0.5","6","0","490474","1127.4","6127.8","22370.3","1","4","4","6","2","4","4","4","0","0.030303030303030304","886.1","3000","1285","[""down"",""right""]","{""num_key_presses"":6,""num_perfect"":3,""num_errors"":0,""num_randdir"":3,""num_randdir_good_moves"":3,""num_whilered"":0,""num_whileblue"":0,""num_blue"":0,""num_good_moves"":6}","[423.57142857142856,425.47767857142856,0.4,423.57142857142856,425.47767857142856,103.5,423.57142857142856,425.47767857142856,203.6,287.57142857142856,516.4776785714286,303.8,322.57142857142856,527.4776785714286,404.3,654.5714285714286,677.4776785714286,511.9,672.5714285714286,698.4776785714286,613.3,700.5714285714286,719.4776785714286,713.8,738.5714285714286,730.4776785714286,818.2,738.5714285714286,730.4776785714286,918.2,738.5714285714286,730.4776785714286,1020.4,738.5714285714286,730.4776785714286,1131,738.5714285714286,730.4776785714286,1243.8,739.5714285714286,828.4776785714286,1347.9,739.5714285714286,887.4776785714286,1449.2,739.5714285714286,887.4776785714286,1549.9,739.5714285714286,887.4776785714286,1661.5,739.5714285714286,887.4776785714286,1763.1,739.5714285714286,887.4776785714286,1864.5,739.5714285714286,884.4776785714286,1974.3,732.5714285714286,863.4776785714286,2079.8,732.5714285714286,863.4776785714286,2179.9,732.5714285714286,863.4776785714286,2283.3,732.5714285714286,863.4776785714286,2394.9,732.5714285714286,863.4776785714286,2498.7,732.5714285714286,863.4776785714286,2612.5,766.5714285714286,804.4776785714286,2713.2,861.5714285714286,748.4776785714286,2813.7,892.5714285714286,692.4776785714286,2915.5,892.5714285714286,681.4776785714286,3018.5,886.5714285714286,678.4776785714286,3129.3,889.5714285714286,650.4776785714286,3229.7,966.5714285714286,580.4776785714286,3331.2,980.5714285714286,573.4776785714286,3434.7,1011.5714285714286,440.47767857142856,3537.9,1015.5714285714286,139.47767857142856,3638.3,1012.5714285714286,-18.52232142857143,3743.6,1012.5714285714286,-18.52232142857143,3848.1,1012.5714285714286,-56.52232142857143,3963.5,1025.5714285714287,-88.52232142857143,4065.7,1022.5714285714286,44.47767857142857,4172.6,1019.5714285714286,215.47767857142856,4282.9,1012.5714285714286,250.47767857142856,4383.5,1012.5714285714286,250.47767857142856,4483.9,1008.5714285714286,250.47767857142856,4588.7,970.5714285714286,250.47767857142856,4691.6,956.5714285714286,250.47767857142856,4796.2,956.5714285714286,250.47767857142856,4896.2,956.5714285714286,250.47767857142856,4996.3]","[1371.3,1371.3,1000,0,371.3,""oops"",""down"",""right"",""good_move"",4662.1,3289.8,2872.6,1372.3,417.2,""smooth"",""down"",""down"",""good_move"",7144.8,2481.5,2118.9,4663.5,362.5,""smooth"",""right"",""right"",""good_move"",10059.3,2913.9,2538.9,7145.4,375,""oops"",""down"",""right"",""good_move"",12627.7,2568,2149.2,10059.7,418.8,""smooth"",""down"",""down"",""good_move"",16142.4,3514.4,3090.6,12628,423.8,""oops"",""down"",""down"",""good_move""]"
"2685","","<div style=""width:500px;"">
  <p>What determined the result of this run?</p>
  </div>","91","html-slider-response","39","517740","0.0-7.0-1.5","28","1","2025-07-30 08:40:42","36c45c0696341be0efffe67d72a12abb","81.107.28.63","Mozilla/5.0 (Windows NT 10.0; Win64; x64) AppleWebKit/537.36 (KHTML, like Gecko) Chrome/138.0.0.0 Safari/537.36","WebKit","Chrome","138.0.0.0","Windows","10.0","https://app.prolific.com/","en-GB,en-US;q=0.9,en;q=0.8","5c9d88bb2b3c77001744ec1c","687a19d2168e237449fb8af4","6889da33871baaad909979b2","0","5c9d88bb2b3c77001744ec1c","0","2025-07-30T08:49:23.388Z","","","","AttribQ","","","","","","","","","","","50","","","","","","","","","","","","","","","","","","","","","","","","","","",""
"3848","","<div style=""width:500px;"">
  <p>How much control did you have over the ball?</p>
  </div>","90","html-slider-response","40","521590","0.0-7.0-2.5","28","1","2025-07-30 08:40:42","36c45c0696341be0efffe67d72a12abb","81.107.28.63","Mozilla/5.0 (Windows NT 10.0; Win64; x64) AppleWebKit/537.36 (KHTML, like Gecko) Chrome/138.0.0.0 Safari/537.36","WebKit","Chrome","138.0.0.0","Windows","10.0","https://app.prolific.com/","en-GB,en-US;q=0.9,en;q=0.8","5c9d88bb2b3c77001744ec1c","687a19d2168e237449fb8af4","6889da33871baaad909979b2","0","5c9d88bb2b3c77001744ec1c","0","2025-07-30T08:49:27.238Z","","","","ControlQ","","","","","","","","","","","50","","","","","","","","","","","","","","","","","","","","","","","","","","",""
"3439","","<div style=""width:500px;"">
  <p>How would you describe your current emotional state?</p>
  </div>","0","html-slider-response","41","525031","0.0-7.0-3.5","28","1","2025-07-30 08:40:42","36c45c0696341be0efffe67d72a12abb","81.107.28.63","Mozilla/5.0 (Windows NT 10.0; Win64; x64) AppleWebKit/537.36 (KHTML, like Gecko) Chrome/138.0.0.0 Safari/537.36","WebKit","Chrome","138.0.0.0","Windows","10.0","https://app.prolific.com/","en-GB,en-US;q=0.9,en;q=0.8","5c9d88bb2b3c77001744ec1c","687a19d2168e237449fb8af4","6889da33871baaad909979b2","0","5c9d88bb2b3c77001744ec1c","0","2025-07-30T08:49:30.679Z","","","","StressQ","","","","","","","","","","","50","","","","","","","","","","","","","","","","","","","","","","","","","","",""
"7369","","<div style=""width:500px;"">
  <p>What best describes how you currently feel?</p>
  </div>","100","html-slider-response","42","532404","0.0-7.0-4.5","28","1","2025-07-30 08:40:42","36c45c0696341be0efffe67d72a12abb","81.107.28.63","Mozilla/5.0 (Windows NT 10.0; Win64; x64) AppleWebKit/537.36 (KHTML, like Gecko) Chrome/138.0.0.0 Safari/537.36","WebKit","Chrome","138.0.0.0","Windows","10.0","https://app.prolific.com/","en-GB,en-US;q=0.9,en;q=0.8","5c9d88bb2b3c77001744ec1c","687a19d2168e237449fb8af4","6889da33871baaad909979b2","0","5c9d88bb2b3c77001744ec1c","0","2025-07-30T08:49:38.052Z","","","","MotivationQ","","","","","","","","","","","50","","","","","","","","","","","","","","","","","","","","","","","","","","",""
"","","","","ctl-task-cpt","43","571361","0.0-7.0-0.6","28","1","2025-07-30 08:40:42","36c45c0696341be0efffe67d72a12abb","81.107.28.63","Mozilla/5.0 (Windows NT 10.0; Win64; x64) AppleWebKit/537.36 (KHTML, like Gecko) Chrome/138.0.0.0 Safari/537.36","WebKit","Chrome","138.0.0.0","Windows","10.0","https://app.prolific.com/","en-GB,en-US;q=0.9,en;q=0.8","5c9d88bb2b3c77001744ec1c","687a19d2168e237449fb8af4","6889da33871baaad909979b2","0","5c9d88bb2b3c77001744ec1c","0","2025-07-30T08:50:17.010Z","","","","","","","","","","","","","","","","win-only","3","g1:SW,g2:NE","0.4","7","0","533207.3","1321.7","6328.1","35936.3","1","4","8","6","2","-8","-8","0","4","0","1392.1","3000","-2350","[""up"",""right""]","{""num_key_presses"":8,""num_perfect"":3,""num_errors"":0,""num_randdir"":5,""num_randdir_good_moves"":0,""num_whilered"":0,""num_whileblue"":0,""num_blue"":1,""num_good_moves"":3}","[423.57142857142856,419.47767857142856,0.3,423.57142857142856,419.47767857142856,104.2,427.57142857142856,429.47767857142856,210.7,410.57142857142856,541.4776785714286,315.3,357.57142857142856,558.4776785714286,419.1,340.57142857142856,576.4776785714286,520,340.57142857142856,576.4776785714286,623.5,340.57142857142856,576.4776785714286,723.8,521.5714285714286,296.47767857142856,830.7,623.5714285714286,121.47767857142857,942.6,623.5714285714286,121.47767857142857,1044,749.5714285714286,124.47767857142857,1144.2,756.5714285714286,104.47767857142857,1250,763.5714285714286,83.47767857142857,1354.1,763.5714285714286,83.47767857142857,1455,763.5714285714286,83.47767857142857,1559.1,725.5714285714286,103.47767857142857,1677.6,697.5714285714286,271.47767857142856,1777.8,693.5714285714286,313.47767857142856,1879.4,693.5714285714286,313.47767857142856,1985.7,693.5714285714286,313.47767857142856,2089.7,693.5714285714286,313.47767857142856,2190.4,683.5714285714286,317.47767857142856,2295.1,658.5714285714286,268.47767857142856,2401.5,658.5714285714286,268.47767857142856,2512.3,658.5714285714286,268.47767857142856,2614,658.5714285714286,268.47767857142856,2727.2,658.5714285714286,268.47767857142856,2843.6,602.5714285714286,334.47767857142856,2944.9,585.5714285714286,331.47767857142856,3054,543.5714285714286,146.47767857142856,3157.1,536.5714285714286,83.47767857142857,3258.9,536.5714285714286,83.47767857142857,3359.2,536.5714285714286,83.47767857142857,3460,511.57142857142856,100.47767857142857,3572.7,487.57142857142856,135.47767857142856,3673.9,487.57142857142856,135.47767857142856,3774.6,487.57142857142856,135.47767857142856,3874.7,487.57142857142856,135.47767857142856,3979.2,483.57142857142856,142.47767857142856,4086.8,480.57142857142856,159.47767857142856,4190.1,480.57142857142856,159.47767857142856,4301.3,480.57142857142856,159.47767857142856,4403.7,480.57142857142856,159.47767857142856,4504.5,480.57142857142856,159.47767857142856,4609.1,480.57142857142856,159.47767857142856,4709.9,480.57142857142856,159.47767857142856,4815,480.57142857142856,159.47767857142856,4924]","[1381.2,1381.2,1000,0,381.2,""smooth"",""right"",""right"",""good_move"",4168.6,2786.8,2425.2,1381.8,361.6,""oops"",""down"",""down"",""bad_move"",7569,3399.4,2953.5,4169.6,445.9,""oops"",""up"",""left"",""bad_move"",10602.6,3032.8,2624,7569.8,408.8,""smooth"",""up"",""up"",""good_move"",13111.9,2508.7,2021.7,10603.2,487,""oops"",""right"",""down"",""bad_move"",19783.8,6671.5,2330,16983,470.8,""oops"",""right"",""left"",""bad_move"",22728.6,2943.9,2546.5,19784.7,397.4,""smooth"",""up"",""up"",""good_move"",25965.5,3236.2,2572.5,22729.3,663.7,""oops"",""right"",""down"",""bad_move""]"
"3766","","<div style=""width:500px;"">
  <p>What determined the result of this run?</p>
  </div>","2","html-slider-response","44","575129","0.0-7.0-1.6","28","1","2025-07-30 08:40:42","36c45c0696341be0efffe67d72a12abb","81.107.28.63","Mozilla/5.0 (Windows NT 10.0; Win64; x64) AppleWebKit/537.36 (KHTML, like Gecko) Chrome/138.0.0.0 Safari/537.36","WebKit","Chrome","138.0.0.0","Windows","10.0","https://app.prolific.com/","en-GB,en-US;q=0.9,en;q=0.8","5c9d88bb2b3c77001744ec1c","687a19d2168e237449fb8af4","6889da33871baaad909979b2","0","5c9d88bb2b3c77001744ec1c","0","2025-07-30T08:50:20.777Z","","","","AttribQ","","","","","","","","","","","50","","","","","","","","","","","","","","","","","","","","","","","","","","",""
"2656","","<div style=""width:500px;"">
  <p>How much control did you have over the ball?</p>
  </div>","4","html-slider-response","45","577788","0.0-7.0-2.6","28","1","2025-07-30 08:40:42","36c45c0696341be0efffe67d72a12abb","81.107.28.63","Mozilla/5.0 (Windows NT 10.0; Win64; x64) AppleWebKit/537.36 (KHTML, like Gecko) Chrome/138.0.0.0 Safari/537.36","WebKit","Chrome","138.0.0.0","Windows","10.0","https://app.prolific.com/","en-GB,en-US;q=0.9,en;q=0.8","5c9d88bb2b3c77001744ec1c","687a19d2168e237449fb8af4","6889da33871baaad909979b2","0","5c9d88bb2b3c77001744ec1c","0","2025-07-30T08:50:23.436Z","","","","ControlQ","","","","","","","","","","","50","","","","","","","","","","","","","","","","","","","","","","","","","","",""
"2618","","<div style=""width:500px;"">
  <p>How would you describe your current emotional state?</p>
  </div>","7","html-slider-response","46","580407","0.0-7.0-3.6","28","1","2025-07-30 08:40:42","36c45c0696341be0efffe67d72a12abb","81.107.28.63","Mozilla/5.0 (Windows NT 10.0; Win64; x64) AppleWebKit/537.36 (KHTML, like Gecko) Chrome/138.0.0.0 Safari/537.36","WebKit","Chrome","138.0.0.0","Windows","10.0","https://app.prolific.com/","en-GB,en-US;q=0.9,en;q=0.8","5c9d88bb2b3c77001744ec1c","687a19d2168e237449fb8af4","6889da33871baaad909979b2","0","5c9d88bb2b3c77001744ec1c","0","2025-07-30T08:50:26.055Z","","","","StressQ","","","","","","","","","","","50","","","","","","","","","","","","","","","","","","","","","","","","","","",""
"5388","","<div style=""width:500px;"">
  <p>What best describes how you currently feel?</p>
  </div>","100","html-slider-response","47","585798","0.0-7.0-4.6","28","1","2025-07-30 08:40:42","36c45c0696341be0efffe67d72a12abb","81.107.28.63","Mozilla/5.0 (Windows NT 10.0; Win64; x64) AppleWebKit/537.36 (KHTML, like Gecko) Chrome/138.0.0.0 Safari/537.36","WebKit","Chrome","138.0.0.0","Windows","10.0","https://app.prolific.com/","en-GB,en-US;q=0.9,en;q=0.8","5c9d88bb2b3c77001744ec1c","687a19d2168e237449fb8af4","6889da33871baaad909979b2","0","5c9d88bb2b3c77001744ec1c","0","2025-07-30T08:50:31.446Z","","","","MotivationQ","","","","","","","","","","","50","","","","","","","","","","","","","","","","","","","","","","","","","","",""
"","","","","ctl-task-cpt","48","636460","0.0-7.0-0.7","28","1","2025-07-30 08:40:42","36c45c0696341be0efffe67d72a12abb","81.107.28.63","Mozilla/5.0 (Windows NT 10.0; Win64; x64) AppleWebKit/537.36 (KHTML, like Gecko) Chrome/138.0.0.0 Safari/537.36","WebKit","Chrome","138.0.0.0","Windows","10.0","https://app.prolific.com/","en-GB,en-US;q=0.9,en;q=0.8","5c9d88bb2b3c77001744ec1c","687a19d2168e237449fb8af4","6889da33871baaad909979b2","0","5c9d88bb2b3c77001744ec1c","0","2025-07-30T08:51:22.108Z","","","","","","","","","","","","","","","","win-only","3","g1:SW,g2:NE","0.3","8","0","586602.7","2071.3","7071.8","47647","1","4","4","6","2","-4","-4","0","0","0","1272.1","3000","-2095","[""up"",""right""]","{""num_key_presses"":9,""num_perfect"":2,""num_errors"":0,""num_randdir"":7,""num_randdir_good_moves"":4,""num_whilered"":0,""num_whileblue"":0,""num_blue"":4,""num_good_moves"":6}","[420.57142857142856,418.47767857142856,0.3,420.57142857142856,418.47767857142856,102.9,420.57142857142856,418.47767857142856,205.9,423.57142857142856,425.47767857142856,306.5,378.57142857142856,446.47767857142856,418.3,357.57142857142856,509.47767857142856,521.7,371.57142857142856,503.47767857142856,621.9,812.5714285714286,314.47767857142856,722.3,871.5714285714286,272.47767857142856,831.1,819.5714285714286,209.47767857142856,932.8,763.5714285714286,111.47767857142857,1042.3,784.5714285714286,69.47767857142857,1159.5,784.5714285714286,69.47767857142857,1263.1,767.5714285714286,79.47767857142857,1364.9,732.5714285714286,96.47767857142857,1477.6,651.5714285714286,271.47767857142856,1581.8,648.5714285714286,285.47767857142856,1696,648.5714285714286,285.47767857142856,1801,648.5714285714286,285.47767857142856,1901.3,648.5714285714286,285.47767857142856,2001.3,648.5714285714286,285.47767857142856,2119.4,634.5714285714286,251.47767857142856,2233.6,630.5714285714286,237.47767857142856,2335,630.5714285714286,237.47767857142856,2441.8,630.5714285714286,237.47767857142856,2551.8,630.5714285714286,237.47767857142856,2654.6,630.5714285714286,237.47767857142856,2770,630.5714285714286,237.47767857142856,2870.9,623.5714285714286,223.47767857142856,2977,623.5714285714286,223.47767857142856,3079.9,623.5714285714286,223.47767857142856,3181.1,599.5714285714286,191.47767857142856,3293.5,595.5714285714286,181.47767857142856,3396.2,595.5714285714286,181.47767857142856,3498.2,578.5714285714286,261.47767857142856,3600.2,574.5714285714286,324.47767857142856,3701,574.5714285714286,324.47767857142856,3804.3,672.5714285714286,254.47767857142856,3913.4,728.5714285714286,233.47767857142856,4020.3,815.5714285714286,261.47767857142856,4134.1,871.5714285714286,268.47767857142856,4237.1,871.5714285714286,268.47767857142856,4343.2,844.5714285714286,296.47767857142856,4446.5,837.5714285714286,296.47767857142856,4548.3,833.5714285714286,299.47767857142856,4660.4,833.5714285714286,299.47767857142856,4764.1,833.5714285714286,299.47767857142856,4864.2,833.5714285714286,299.47767857142856,4967.2]","[1396.1,1396.1,1000,0,396.1,""oops"",""right"",""down"",""bad_move"",7896.4,6499.7,2084.5,5311.6,500.4,""smooth"",""right"",""right"",""good_move"",10839.8,2942.7,2486.5,7897.1,456.2,""oops"",""right"",""down"",""bad_move"",13954.9,3113.9,2628.7,10841.1,485.1,""oops"",""up"",""up"",""good_move"",23460.8,9504.8,2380.5,20594.1,486.2,""oops"",""right"",""up"",""good_move"",29157.8,5696.4,1968.3,26804.9,384.6,""oops"",""up"",""up"",""good_move"",32826.4,3668.1,3182.7,29158.3,485.4,""oops"",""right"",""down"",""bad_move"",35001.3,2174.4,1720.7,32826.9,453.7,""smooth"",""right"",""right"",""good_move"",38181.4,3179,2815.4,35002.4,363.6,""oops"",""up"",""up"",""good_move""]"
"2475","","<div style=""width:500px;"">
  <p>What determined the result of this run?</p>
  </div>","6","html-slider-response","49","638936","0.0-7.0-1.7","28","1","2025-07-30 08:40:42","36c45c0696341be0efffe67d72a12abb","81.107.28.63","Mozilla/5.0 (Windows NT 10.0; Win64; x64) AppleWebKit/537.36 (KHTML, like Gecko) Chrome/138.0.0.0 Safari/537.36","WebKit","Chrome","138.0.0.0","Windows","10.0","https://app.prolific.com/","en-GB,en-US;q=0.9,en;q=0.8","5c9d88bb2b3c77001744ec1c","687a19d2168e237449fb8af4","6889da33871baaad909979b2","0","5c9d88bb2b3c77001744ec1c","0","2025-07-30T08:51:24.585Z","","","","AttribQ","","","","","","","","","","","50","","","","","","","","","","","","","","","","","","","","","","","","","","",""
"4488","","<div style=""width:500px;"">
  <p>How much control did you have over the ball?</p>
  </div>","17","html-slider-response","50","643426","0.0-7.0-2.7","28","1","2025-07-30 08:40:42","36c45c0696341be0efffe67d72a12abb","81.107.28.63","Mozilla/5.0 (Windows NT 10.0; Win64; x64) AppleWebKit/537.36 (KHTML, like Gecko) Chrome/138.0.0.0 Safari/537.36","WebKit","Chrome","138.0.0.0","Windows","10.0","https://app.prolific.com/","en-GB,en-US;q=0.9,en;q=0.8","5c9d88bb2b3c77001744ec1c","687a19d2168e237449fb8af4","6889da33871baaad909979b2","0","5c9d88bb2b3c77001744ec1c","0","2025-07-30T08:51:29.074Z","","","","ControlQ","","","","","","","","","","","50","","","","","","","","","","","","","","","","","","","","","","","","","","",""
"3671","","<div style=""width:500px;"">
  <p>How would you describe your current emotional state?</p>
  </div>","11","html-slider-response","51","647099","0.0-7.0-3.7","28","1","2025-07-30 08:40:42","36c45c0696341be0efffe67d72a12abb","81.107.28.63","Mozilla/5.0 (Windows NT 10.0; Win64; x64) AppleWebKit/537.36 (KHTML, like Gecko) Chrome/138.0.0.0 Safari/537.36","WebKit","Chrome","138.0.0.0","Windows","10.0","https://app.prolific.com/","en-GB,en-US;q=0.9,en;q=0.8","5c9d88bb2b3c77001744ec1c","687a19d2168e237449fb8af4","6889da33871baaad909979b2","0","5c9d88bb2b3c77001744ec1c","0","2025-07-30T08:51:32.747Z","","","","StressQ","","","","","","","","","","","50","","","","","","","","","","","","","","","","","","","","","","","","","","",""
"2139","","<div style=""width:500px;"">
  <p>What best describes how you currently feel?</p>
  </div>","100","html-slider-response","52","649239","0.0-7.0-4.7","28","1","2025-07-30 08:40:42","36c45c0696341be0efffe67d72a12abb","81.107.28.63","Mozilla/5.0 (Windows NT 10.0; Win64; x64) AppleWebKit/537.36 (KHTML, like Gecko) Chrome/138.0.0.0 Safari/537.36","WebKit","Chrome","138.0.0.0","Windows","10.0","https://app.prolific.com/","en-GB,en-US;q=0.9,en;q=0.8","5c9d88bb2b3c77001744ec1c","687a19d2168e237449fb8af4","6889da33871baaad909979b2","0","5c9d88bb2b3c77001744ec1c","0","2025-07-30T08:51:34.887Z","","","","MotivationQ","","","","","","","","","","","50","","","","","","","","","","","","","","","","","","","","","","","","","","",""
"","","","","ctl-task-cpt","53","696989","0.0-7.0-0.8","28","1","2025-07-30 08:40:42","36c45c0696341be0efffe67d72a12abb","81.107.28.63","Mozilla/5.0 (Windows NT 10.0; Win64; x64) AppleWebKit/537.36 (KHTML, like Gecko) Chrome/138.0.0.0 Safari/537.36","WebKit","Chrome","138.0.0.0","Windows","10.0","https://app.prolific.com/","en-GB,en-US;q=0.9,en;q=0.8","5c9d88bb2b3c77001744ec1c","687a19d2168e237449fb8af4","6889da33871baaad909979b2","0","5c9d88bb2b3c77001744ec1c","0","2025-07-30T08:52:22.637Z","","","","","","","","","","","","","","","","win-only","0","g1:NW,g2:SE","0.4","9","0","650044.5","960.3","5963.1","44738","1","4","4","6","2","4","4","4","0","0.030303030303030304","994.6","3000","50","[""down"",""right""]","{""num_key_presses"":10,""num_perfect"":4,""num_errors"":0,""num_randdir"":6,""num_randdir_good_moves"":4,""num_whilered"":0,""num_whileblue"":0,""num_blue"":4,""num_good_moves"":8}","[420.57142857142856,429.47767857142856,0.3,420.57142857142856,422.47767857142856,112.2,420.57142857142856,422.47767857142856,216.6,270.57142857142856,419.47767857142856,319.1,409.57142857142856,422.47767857142856,422.6,781.5714285714286,635.4776785714286,527.4,763.5714285714286,653.4776785714286,627.7,749.5714285714286,695.4776785714286,733,756.5714285714286,723.4776785714286,843.3,749.5714285714286,772.4776785714286,956.7,749.5714285714286,779.4776785714286,1073.8,749.5714285714286,779.4776785714286,1176.8,749.5714285714286,779.4776785714286,1283.4,749.5714285714286,779.4776785714286,1389.3,742.5714285714286,776.4776785714286,1491.1,742.5714285714286,769.4776785714286,1606,742.5714285714286,730.4776785714286,1709.5,742.5714285714286,709.4776785714286,1810.6,742.5714285714286,685.4776785714286,1913.2,742.5714285714286,660.4776785714286,2013.9,742.5714285714286,657.4776785714286,2115.7,742.5714285714286,657.4776785714286,2225.1,742.5714285714286,657.4776785714286,2327.2,742.5714285714286,657.4776785714286,2434.9,742.5714285714286,657.4776785714286,2537,742.5714285714286,657.4776785714286,2643.6,742.5714285714286,657.4776785714286,2759.5,742.5714285714286,657.4776785714286,2870.4,742.5714285714286,657.4776785714286,2975.8,725.5714285714286,622.4776785714286,3089.7,725.5714285714286,622.4776785714286,3191,718.5714285714286,608.4776785714286,3296.6,683.5714285714286,555.4776785714286,3407.2,683.5714285714286,555.4776785714286,3511.4,683.5714285714286,555.4776785714286,3612.9,672.5714285714286,555.4776785714286,3727.7,662.5714285714286,545.4776785714286,3839.6,613.5714285714286,489.47767857142856,3943.3,609.5714285714286,485.47767857142856,4044.6,609.5714285714286,485.47767857142856,4149.8,602.5714285714286,488.47767857142856,4254.6,592.5714285714286,492.47767857142856,4358.8,616.5714285714286,485.47767857142856,4460.8,693.5714285714286,468.47767857142856,4568.1,752.5714285714286,461.47767857142856,4669.3,864.5714285714286,461.47767857142856,4772.4,910.5714285714286,464.47767857142856,4873.3,910.5714285714286,464.47767857142856,4977.2]","[5031.5,5031.5,2564.3,2029.3,437.9,""oops"",""right"",""up"",""bad_move"",11315.1,6282.8,2311.6,8470.2,533.3,""oops"",""right"",""right"",""good_move"",14306.5,2991,2488.2,11315.5,502.8,""oops"",""down"",""right"",""good_move"",16955.2,2648.5,2187.1,14306.8,461.3,""oops"",""down"",""left"",""bad_move"",23438.8,6482.6,2477.6,20276.6,684.6,""oops"",""down"",""right"",""good_move"",28548,5108.7,1790.9,26306.3,450.9,""smooth"",""down"",""down"",""good_move"",30755.6,2206.1,1624.7,28549.5,581.4,""smooth"",""down"",""down"",""good_move"",33385.3,2629.3,2205.6,30756,423.7,""oops"",""down"",""down"",""good_move"",36932.2,3546.6,3205.2,33385.6,341.4,""smooth"",""right"",""right"",""good_move"",38621.4,1688.7,1366.9,36932.8,321.7,""smooth"",""down"",""down"",""good_move""]"
"4169","","<div style=""width:500px;"">
  <p>What determined the result of this run?</p>
  </div>","76","html-slider-response","54","701160","0.0-7.0-1.8","28","1","2025-07-30 08:40:42","36c45c0696341be0efffe67d72a12abb","81.107.28.63","Mozilla/5.0 (Windows NT 10.0; Win64; x64) AppleWebKit/537.36 (KHTML, like Gecko) Chrome/138.0.0.0 Safari/537.36","WebKit","Chrome","138.0.0.0","Windows","10.0","https://app.prolific.com/","en-GB,en-US;q=0.9,en;q=0.8","5c9d88bb2b3c77001744ec1c","687a19d2168e237449fb8af4","6889da33871baaad909979b2","0","5c9d88bb2b3c77001744ec1c","0","2025-07-30T08:52:26.808Z","","","","AttribQ","","","","","","","","","","","50","","","","","","","","","","","","","","","","","","","","","","","","","","",""
"4087","","<div style=""width:500px;"">
  <p>How much control did you have over the ball?</p>
  </div>","52","html-slider-response","55","705249","0.0-7.0-2.8","28","1","2025-07-30 08:40:42","36c45c0696341be0efffe67d72a12abb","81.107.28.63","Mozilla/5.0 (Windows NT 10.0; Win64; x64) AppleWebKit/537.36 (KHTML, like Gecko) Chrome/138.0.0.0 Safari/537.36","WebKit","Chrome","138.0.0.0","Windows","10.0","https://app.prolific.com/","en-GB,en-US;q=0.9,en;q=0.8","5c9d88bb2b3c77001744ec1c","687a19d2168e237449fb8af4","6889da33871baaad909979b2","0","5c9d88bb2b3c77001744ec1c","0","2025-07-30T08:52:30.897Z","","","","ControlQ","","","","","","","","","","","50","","","","","","","","","","","","","","","","","","","","","","","","","","",""
"5780","","<div style=""width:500px;"">
  <p>How would you describe your current emotional state?</p>
  </div>","11","html-slider-response","56","711031","0.0-7.0-3.8","28","1","2025-07-30 08:40:42","36c45c0696341be0efffe67d72a12abb","81.107.28.63","Mozilla/5.0 (Windows NT 10.0; Win64; x64) AppleWebKit/537.36 (KHTML, like Gecko) Chrome/138.0.0.0 Safari/537.36","WebKit","Chrome","138.0.0.0","Windows","10.0","https://app.prolific.com/","en-GB,en-US;q=0.9,en;q=0.8","5c9d88bb2b3c77001744ec1c","687a19d2168e237449fb8af4","6889da33871baaad909979b2","0","5c9d88bb2b3c77001744ec1c","0","2025-07-30T08:52:36.680Z","","","","StressQ","","","","","","","","","","","50","","","","","","","","","","","","","","","","","","","","","","","","","","",""
"1740","","<div style=""width:500px;"">
  <p>What best describes how you currently feel?</p>
  </div>","100","html-slider-response","57","712774","0.0-7.0-4.8","28","1","2025-07-30 08:40:42","36c45c0696341be0efffe67d72a12abb","81.107.28.63","Mozilla/5.0 (Windows NT 10.0; Win64; x64) AppleWebKit/537.36 (KHTML, like Gecko) Chrome/138.0.0.0 Safari/537.36","WebKit","Chrome","138.0.0.0","Windows","10.0","https://app.prolific.com/","en-GB,en-US;q=0.9,en;q=0.8","5c9d88bb2b3c77001744ec1c","687a19d2168e237449fb8af4","6889da33871baaad909979b2","0","5c9d88bb2b3c77001744ec1c","0","2025-07-30T08:52:38.422Z","","","","MotivationQ","","","","","","","","","","","50","","","","","","","","","","","","","","","","","","","","","","","","","","",""
"","","","","ctl-task-cpt","58","757647","0.0-7.0-0.9","28","1","2025-07-30 08:40:42","36c45c0696341be0efffe67d72a12abb","81.107.28.63","Mozilla/5.0 (Windows NT 10.0; Win64; x64) AppleWebKit/537.36 (KHTML, like Gecko) Chrome/138.0.0.0 Safari/537.36","WebKit","Chrome","138.0.0.0","Windows","10.0","https://app.prolific.com/","en-GB,en-US;q=0.9,en;q=0.8","5c9d88bb2b3c77001744ec1c","687a19d2168e237449fb8af4","6889da33871baaad909979b2","0","5c9d88bb2b3c77001744ec1c","0","2025-07-30T08:53:23.295Z","","","","","","","","","","","","","","","","win-only","0","g1:NW,g2:SE","0.5","10","0","713580.3","2758.3","7770.5","41860.1","1","4","8","6","2","8","7","11","4","0.08333333333333333","891.7","3000","1605","[""down"",""right""]","{""num_key_presses"":8,""num_perfect"":3,""num_errors"":1,""num_randdir"":4,""num_randdir_good_moves"":3,""num_whilered"":0,""num_whileblue"":1,""num_blue"":4,""num_good_moves"":7}","[406.57142857142856,415.47767857142856,0.9,406.57142857142856,415.47767857142856,106.2,406.57142857142856,415.47767857142856,208.2,406.57142857142856,425.47767857142856,314.6,518.5714285714286,523.4776785714286,417.2,619.5714285714286,663.4776785714286,518.9,623.5714285714286,677.4776785714286,643.4,714.5714285714286,712.4776785714286,745.7,759.5714285714286,730.4776785714286,849.5,759.5714285714286,730.4776785714286,961,759.5714285714286,730.4776785714286,1061.2,759.5714285714286,730.4776785714286,1162.3,759.5714285714286,730.4776785714286,1266.2,759.5714285714286,730.4776785714286,1374.5,759.5714285714286,730.4776785714286,1477,780.5714285714286,727.4776785714286,1580.4,780.5714285714286,674.4776785714286,1682.9,780.5714285714286,674.4776785714286,1788.6,780.5714285714286,674.4776785714286,1902,780.5714285714286,674.4776785714286,2002.6,780.5714285714286,674.4776785714286,2106.1,767.5714285714286,664.4776785714286,2223.6,756.5714285714286,657.4776785714286,2326.8,746.5714285714286,639.4776785714286,2429.2,739.5714285714286,629.4776785714286,2534,739.5714285714286,629.4776785714286,2639.8,739.5714285714286,629.4776785714286,2743.2,739.5714285714286,629.4776785714286,2843.6,739.5714285714286,629.4776785714286,2956,739.5714285714286,629.4776785714286,3059.5,739.5714285714286,629.4776785714286,3166.3,739.5714285714286,629.4776785714286,3267.3,739.5714285714286,629.4776785714286,3369.3,739.5714285714286,629.4776785714286,3487.4,739.5714285714286,629.4776785714286,3591,739.5714285714286,629.4776785714286,3693.5,739.5714285714286,629.4776785714286,3794.7,739.5714285714286,629.4776785714286,3898.5,739.5714285714286,629.4776785714286,4004.4,739.5714285714286,629.4776785714286,4109.4,739.5714285714286,629.4776785714286,4209.9,739.5714285714286,629.4776785714286,4314.4,739.5714285714286,629.4776785714286,4419.1,739.5714285714286,629.4776785714286,4538.2,739.5714285714286,629.4776785714286,4641.4,739.5714285714286,629.4776785714286,4743.3,739.5714285714286,629.4776785714286,4851.2,739.5714285714286,629.4776785714286,4954.4]","[5157.3,5157.3,2767,2018.3,372,""smooth"",""down"",""down"",""good_move"",8675.7,3517.5,3154,5158.2,363.5,""smooth"",""down"",""down"",""good_move"",15214.3,6538,2780.1,12073.3,360.9,""oops"",""right"",""down"",""good_move"",18710.3,3495.7,3106.9,15214.6,388.8,""oops"",""right"",""right"",""good_move"",21515.7,2804.7,2310.1,18711,494.6,""smooth"",""right"",""right"",""good_move"",23925.1,2408.7,2033.1,21516.4,375.6,""oops"",""right"",""left"",""bad_move"",27432.3,3506.1,3167.2,23926.2,338.9,""while_blue"",""right"",""right"",""good_move"",33936,6503.3,2749.1,30701.4,485.5,""oops"",""right"",""right"",""good_move""]"
"3636","","<div style=""width:500px;"">
  <p>What determined the result of this run?</p>
  </div>","93","html-slider-response","59","761288","0.0-7.0-1.9","28","1","2025-07-30 08:40:42","36c45c0696341be0efffe67d72a12abb","81.107.28.63","Mozilla/5.0 (Windows NT 10.0; Win64; x64) AppleWebKit/537.36 (KHTML, like Gecko) Chrome/138.0.0.0 Safari/537.36","WebKit","Chrome","138.0.0.0","Windows","10.0","https://app.prolific.com/","en-GB,en-US;q=0.9,en;q=0.8","5c9d88bb2b3c77001744ec1c","687a19d2168e237449fb8af4","6889da33871baaad909979b2","0","5c9d88bb2b3c77001744ec1c","0","2025-07-30T08:53:26.936Z","","","","AttribQ","","","","","","","","","","","50","","","","","","","","","","","","","","","","","","","","","","","","","","",""
"4624","","<div style=""width:500px;"">
  <p>How much control did you have over the ball?</p>
  </div>","83","html-slider-response","60","765914","0.0-7.0-2.9","28","1","2025-07-30 08:40:42","36c45c0696341be0efffe67d72a12abb","81.107.28.63","Mozilla/5.0 (Windows NT 10.0; Win64; x64) AppleWebKit/537.36 (KHTML, like Gecko) Chrome/138.0.0.0 Safari/537.36","WebKit","Chrome","138.0.0.0","Windows","10.0","https://app.prolific.com/","en-GB,en-US;q=0.9,en;q=0.8","5c9d88bb2b3c77001744ec1c","687a19d2168e237449fb8af4","6889da33871baaad909979b2","0","5c9d88bb2b3c77001744ec1c","0","2025-07-30T08:53:31.563Z","","","","ControlQ","","","","","","","","","","","50","","","","","","","","","","","","","","","","","","","","","","","","","","",""
"4096","","<div style=""width:500px;"">
  <p>How would you describe your current emotional state?</p>
  </div>","20","html-slider-response","61","770013","0.0-7.0-3.9","28","1","2025-07-30 08:40:42","36c45c0696341be0efffe67d72a12abb","81.107.28.63","Mozilla/5.0 (Windows NT 10.0; Win64; x64) AppleWebKit/537.36 (KHTML, like Gecko) Chrome/138.0.0.0 Safari/537.36","WebKit","Chrome","138.0.0.0","Windows","10.0","https://app.prolific.com/","en-GB,en-US;q=0.9,en;q=0.8","5c9d88bb2b3c77001744ec1c","687a19d2168e237449fb8af4","6889da33871baaad909979b2","0","5c9d88bb2b3c77001744ec1c","0","2025-07-30T08:53:35.661Z","","","","StressQ","","","","","","","","","","","50","","","","","","","","","","","","","","","","","","","","","","","","","","",""
"2274","","<div style=""width:500px;"">
  <p>What best describes how you currently feel?</p>
  </div>","100","html-slider-response","62","772289","0.0-7.0-4.9","28","1","2025-07-30 08:40:42","36c45c0696341be0efffe67d72a12abb","81.107.28.63","Mozilla/5.0 (Windows NT 10.0; Win64; x64) AppleWebKit/537.36 (KHTML, like Gecko) Chrome/138.0.0.0 Safari/537.36","WebKit","Chrome","138.0.0.0","Windows","10.0","https://app.prolific.com/","en-GB,en-US;q=0.9,en;q=0.8","5c9d88bb2b3c77001744ec1c","687a19d2168e237449fb8af4","6889da33871baaad909979b2","0","5c9d88bb2b3c77001744ec1c","0","2025-07-30T08:53:37.937Z","","","","MotivationQ","","","","","","","","","","","50","","","","","","","","","","","","","","","","","","","","","","","","","","",""
"","","","","ctl-task-cpt","63","812911","0.0-7.0-0.10","28","1","2025-07-30 08:40:42","36c45c0696341be0efffe67d72a12abb","81.107.28.63","Mozilla/5.0 (Windows NT 10.0; Win64; x64) AppleWebKit/537.36 (KHTML, like Gecko) Chrome/138.0.0.0 Safari/537.36","WebKit","Chrome","138.0.0.0","Windows","10.0","https://app.prolific.com/","en-GB,en-US;q=0.9,en;q=0.8","5c9d88bb2b3c77001744ec1c","687a19d2168e237449fb8af4","6889da33871baaad909979b2","0","5c9d88bb2b3c77001744ec1c","0","2025-07-30T08:54:18.559Z","","","","","","","","","","","","","","","","win-only","0","g1:NW,g2:SE","0.6","11","0","773093.5","1903.7","6914.4","37596.9","1","4","8","6","2","8","8","19","11","0.14393939393939395","938.2","3000","1070","[""down"",""right""]","{""num_key_presses"":8,""num_perfect"":5,""num_errors"":0,""num_randdir"":3,""num_randdir_good_moves"":2,""num_whilered"":0,""num_whileblue"":0,""num_blue"":2,""num_good_moves"":7}","[410.57142857142856,408.47767857142856,0.7,410.57142857142856,408.47767857142856,105.2,410.57142857142856,408.47767857142856,212.3,413.57142857142856,408.47767857142856,312.3,465.57142857142856,467.47767857142856,421.1,623.5714285714286,565.4776785714286,530.5,696.5714285714286,663.4776785714286,646.4,707.5714285714286,677.4776785714286,751,752.5714285714286,754.4776785714286,853.1,777.5714285714286,775.4776785714286,958.3,777.5714285714286,775.4776785714286,1060.9,777.5714285714286,775.4776785714286,1165.3,760.5714285714286,775.4776785714286,1265.4,760.5714285714286,775.4776785714286,1365.8,760.5714285714286,775.4776785714286,1482.5,756.5714285714286,758.4776785714286,1588.6,756.5714285714286,758.4776785714286,1702.5,756.5714285714286,758.4776785714286,1814.7,756.5714285714286,758.4776785714286,1915.3,756.5714285714286,758.4776785714286,2032.3,756.5714285714286,758.4776785714286,2134,756.5714285714286,758.4776785714286,2238.1,756.5714285714286,758.4776785714286,2347,756.5714285714286,758.4776785714286,2457.2,756.5714285714286,758.4776785714286,2558.4,756.5714285714286,758.4776785714286,2659.1,756.5714285714286,758.4776785714286,2763.8,756.5714285714286,758.4776785714286,2866.6,756.5714285714286,758.4776785714286,2969.1,756.5714285714286,758.4776785714286,3073.1,756.5714285714286,758.4776785714286,3182,756.5714285714286,758.4776785714286,3286.9,756.5714285714286,758.4776785714286,3392.3,756.5714285714286,758.4776785714286,3495.7,756.5714285714286,758.4776785714286,3601.6,756.5714285714286,758.4776785714286,3703.3,756.5714285714286,758.4776785714286,3806.5,756.5714285714286,758.4776785714286,3921.3,756.5714285714286,758.4776785714286,4024.3,756.5714285714286,758.4776785714286,4128,756.5714285714286,758.4776785714286,4241.4,756.5714285714286,758.4776785714286,4346.4,756.5714285714286,758.4776785714286,4463.9,756.5714285714286,758.4776785714286,4564.9,756.5714285714286,758.4776785714286,4672.3,756.5714285714286,758.4776785714286,4774.4,756.5714285714286,758.4776785714286,4878.1,756.5714285714286,758.4776785714286,4985.5]","[4709.8,4709.9,2259.1,2014.5,436.3,""oops"",""right"",""up"",""bad_move"",7396.1,2685.4,2213.6,4710.8,471.7,""smooth"",""right"",""right"",""good_move"",10580.6,3184,2723.8,7396.6,460.2,""smooth"",""right"",""right"",""good_move"",14239.3,3658,3074.7,10581.3,583.3,""smooth"",""right"",""right"",""good_move"",21108.8,6868.9,2985.9,17565.2,557.7,""oops"",""down"",""down"",""good_move"",23714.4,2605,2173.6,21109.4,431.4,""smooth"",""down"",""down"",""good_move"",27434.4,3719.6,3252.6,23714.8,467,""oops"",""down"",""down"",""good_move"",30537.7,3102.6,2610.1,27435.1,492.5,""smooth"",""down"",""down"",""good_move""]"
"3377","","<div style=""width:500px;"">
  <p>What determined the result of this run?</p>
  </div>","86","html-slider-response","64","816290","0.0-7.0-1.10","28","1","2025-07-30 08:40:42","36c45c0696341be0efffe67d72a12abb","81.107.28.63","Mozilla/5.0 (Windows NT 10.0; Win64; x64) AppleWebKit/537.36 (KHTML, like Gecko) Chrome/138.0.0.0 Safari/537.36","WebKit","Chrome","138.0.0.0","Windows","10.0","https://app.prolific.com/","en-GB,en-US;q=0.9,en;q=0.8","5c9d88bb2b3c77001744ec1c","687a19d2168e237449fb8af4","6889da33871baaad909979b2","0","5c9d88bb2b3c77001744ec1c","0","2025-07-30T08:54:21.938Z","","","","AttribQ","","","","","","","","","","","50","","","","","","","","","","","","","","","","","","","","","","","","","","",""
"2972","","<div style=""width:500px;"">
  <p>How much control did you have over the ball?</p>
  </div>","72","html-slider-response","65","819264","0.0-7.0-2.10","28","1","2025-07-30 08:40:42","36c45c0696341be0efffe67d72a12abb","81.107.28.63","Mozilla/5.0 (Windows NT 10.0; Win64; x64) AppleWebKit/537.36 (KHTML, like Gecko) Chrome/138.0.0.0 Safari/537.36","WebKit","Chrome","138.0.0.0","Windows","10.0","https://app.prolific.com/","en-GB,en-US;q=0.9,en;q=0.8","5c9d88bb2b3c77001744ec1c","687a19d2168e237449fb8af4","6889da33871baaad909979b2","0","5c9d88bb2b3c77001744ec1c","0","2025-07-30T08:54:24.913Z","","","","ControlQ","","","","","","","","","","","50","","","","","","","","","","","","","","","","","","","","","","","","","","",""
"3114","","<div style=""width:500px;"">
  <p>How would you describe your current emotional state?</p>
  </div>","3","html-slider-response","66","822380","0.0-7.0-3.10","28","1","2025-07-30 08:40:42","36c45c0696341be0efffe67d72a12abb","81.107.28.63","Mozilla/5.0 (Windows NT 10.0; Win64; x64) AppleWebKit/537.36 (KHTML, like Gecko) Chrome/138.0.0.0 Safari/537.36","WebKit","Chrome","138.0.0.0","Windows","10.0","https://app.prolific.com/","en-GB,en-US;q=0.9,en;q=0.8","5c9d88bb2b3c77001744ec1c","687a19d2168e237449fb8af4","6889da33871baaad909979b2","0","5c9d88bb2b3c77001744ec1c","0","2025-07-30T08:54:28.028Z","","","","StressQ","","","","","","","","","","","50","","","","","","","","","","","","","","","","","","","","","","","","","","",""
"2659","","<div style=""width:500px;"">
  <p>What best describes how you currently feel?</p>
  </div>","100","html-slider-response","67","825042","0.0-7.0-4.10","28","1","2025-07-30 08:40:42","36c45c0696341be0efffe67d72a12abb","81.107.28.63","Mozilla/5.0 (Windows NT 10.0; Win64; x64) AppleWebKit/537.36 (KHTML, like Gecko) Chrome/138.0.0.0 Safari/537.36","WebKit","Chrome","138.0.0.0","Windows","10.0","https://app.prolific.com/","en-GB,en-US;q=0.9,en;q=0.8","5c9d88bb2b3c77001744ec1c","687a19d2168e237449fb8af4","6889da33871baaad909979b2","0","5c9d88bb2b3c77001744ec1c","0","2025-07-30T08:54:30.690Z","","","","MotivationQ","","","","","","","","","","","50","","","","","","","","","","","","","","","","","","","","","","","","","","",""
"","","","","ctl-task-cpt","68","892641","0.0-7.0-0.11","28","1","2025-07-30 08:40:42","36c45c0696341be0efffe67d72a12abb","81.107.28.63","Mozilla/5.0 (Windows NT 10.0; Win64; x64) AppleWebKit/537.36 (KHTML, like Gecko) Chrome/138.0.0.0 Safari/537.36","WebKit","Chrome","138.0.0.0","Windows","10.0","https://app.prolific.com/","en-GB,en-US;q=0.9,en;q=0.8","5c9d88bb2b3c77001744ec1c","687a19d2168e237449fb8af4","6889da33871baaad909979b2","0","5c9d88bb2b3c77001744ec1c","0","2025-07-30T08:55:38.289Z","","","","","","","","","","","","","","","","win-only","3","g1:SW,g2:NE","0.7","12","0","825848.5","1135.7","6146","64570.7","1","4","4","6","2","-4","-4","15","19","0.11363636363636363","1129.8","3000","-1020","[""up"",""right""]","{""num_key_presses"":17,""num_perfect"":11,""num_errors"":0,""num_randdir"":6,""num_randdir_good_moves"":0,""num_whilered"":0,""num_whileblue"":0,""num_blue"":2,""num_good_moves"":11}","[420.57142857142856,419.47767857142856,0.4,420.57142857142856,419.47767857142856,104.4,420.57142857142856,419.47767857142856,206.4,493.57142857142856,520.4776785714286,308.6,207.57142857142856,579.4776785714286,408.6,165.57142857142856,576.4776785714286,511.4,178.57142857142856,590.4776785714286,614,742.5714285714286,321.47767857142856,719.3,735.5714285714286,230.47767857142856,824.8,728.5714285714286,226.47767857142856,934.5,749.5714285714286,107.47767857142857,1039.7,763.5714285714286,69.47767857142857,1152.4,763.5714285714286,69.47767857142857,1255.5,763.5714285714286,69.47767857142857,1358.2,763.5714285714286,69.47767857142857,1459.8,766.5714285714286,72.47767857142857,1561.5,763.5714285714286,75.47767857142857,1665.3,742.5714285714286,69.47767857142857,1774.5,739.5714285714286,69.47767857142857,1875.8,739.5714285714286,69.47767857142857,1980,739.5714285714286,69.47767857142857,2081.4,725.5714285714286,69.47767857142857,2182.9,721.5714285714286,69.47767857142857,2291.4,721.5714285714286,69.47767857142857,2391.5,721.5714285714286,69.47767857142857,2497.9,721.5714285714286,69.47767857142857,2609.3,711.5714285714286,69.47767857142857,2720.8,711.5714285714286,69.47767857142857,2820.8,707.5714285714286,9.47767857142857,2937.2,707.5714285714286,-14.52232142857143,3045.3,707.5714285714286,-14.52232142857143,3151.7,707.5714285714286,-14.52232142857143,3264.9,690.5714285714286,9.47767857142857,3370.4,679.5714285714286,26.47767857142857,3482.4,679.5714285714286,26.47767857142857,3590.6,679.5714285714286,30.47767857142857,3707.1,679.5714285714286,30.47767857142857,3815.9,679.5714285714286,30.47767857142857,3918.5,679.5714285714286,30.47767857142857,4026.5,665.5714285714286,58.47767857142857,4127.8,665.5714285714286,65.47767857142857,4231.9,665.5714285714286,65.47767857142857,4340.8,665.5714285714286,65.47767857142857,4441.1,665.5714285714286,65.47767857142857,4550,665.5714285714286,65.47767857142857,4660.7,665.5714285714286,65.47767857142857,4768.1,665.5714285714286,65.47767857142857,4873,665.5714285714286,65.47767857142857,4983.9]","[1376.8,1376.8,1000,0,376.8,""smooth"",""right"",""right"",""good_move"",4125.4,2747.6,2245.7,1377.8,501.9,""smooth"",""right"",""right"",""good_move"",7623.1,3496.8,2819.6,4126.3,677.2,""smooth"",""right"",""right"",""good_move"",10318.7,2695.2,2337.4,7623.5,357.8,""oops"",""up"",""left"",""bad_move"",12980.2,2659.9,2321.4,10320.4,338.4,""smooth"",""up"",""up"",""good_move"",16502.4,3520.7,3124.7,12981.7,396,""oops"",""up"",""down"",""bad_move"",19133.9,2631.1,2149.7,16502.9,481.4,""smooth"",""up"",""up"",""good_move"",22318.7,3184.5,2792.7,19134.2,391.8,""smooth"",""up"",""up"",""good_move"",25411.3,3091.8,2792,22319.6,299.7,""smooth"",""right"",""right"",""good_move"",27401.5,1989.7,1681.6,25411.8,308.1,""oops"",""up"",""left"",""bad_move"",29907.5,2505.4,2071.5,27402.1,433.9,""smooth"",""up"",""up"",""good_move"",32939.9,3032.1,2597.8,29907.8,434.3,""oops"",""right"",""down"",""bad_move"",35450.5,2510,2164.4,32940.5,345.7,""smooth"",""right"",""right"",""good_move"",38439.2,2988.3,2406.2,35450.9,582.1,""oops"",""up"",""down"",""bad_move"",40752.5,2312.8,1955.9,38439.7,356.9,""smooth"",""up"",""up"",""good_move"",43607,2854,2463.6,40753,390.4,""oops"",""up"",""down"",""bad_move"",54237,10629.6,2925.4,50828.1,483.5,""smooth"",""up"",""up"",""good_move""]"
"4009","","<div style=""width:500px;"">
  <p>What determined the result of this run?</p>
  </div>","14","html-slider-response","69","896652","0.0-7.0-1.11","28","1","2025-07-30 08:40:42","36c45c0696341be0efffe67d72a12abb","81.107.28.63","Mozilla/5.0 (Windows NT 10.0; Win64; x64) AppleWebKit/537.36 (KHTML, like Gecko) Chrome/138.0.0.0 Safari/537.36","WebKit","Chrome","138.0.0.0","Windows","10.0","https://app.prolific.com/","en-GB,en-US;q=0.9,en;q=0.8","5c9d88bb2b3c77001744ec1c","687a19d2168e237449fb8af4","6889da33871baaad909979b2","0","5c9d88bb2b3c77001744ec1c","0","2025-07-30T08:55:42.300Z","","","","AttribQ","","","","","","","","","","","50","","","","","","","","","","","","","","","","","","","","","","","","","","",""
"5428","","<div style=""width:500px;"">
  <p>How much control did you have over the ball?</p>
  </div>","21","html-slider-response","70","902082","0.0-7.0-2.11","28","1","2025-07-30 08:40:42","36c45c0696341be0efffe67d72a12abb","81.107.28.63","Mozilla/5.0 (Windows NT 10.0; Win64; x64) AppleWebKit/537.36 (KHTML, like Gecko) Chrome/138.0.0.0 Safari/537.36","WebKit","Chrome","138.0.0.0","Windows","10.0","https://app.prolific.com/","en-GB,en-US;q=0.9,en;q=0.8","5c9d88bb2b3c77001744ec1c","687a19d2168e237449fb8af4","6889da33871baaad909979b2","0","5c9d88bb2b3c77001744ec1c","0","2025-07-30T08:55:47.731Z","","","","ControlQ","","","","","","","","","","","50","","","","","","","","","","","","","","","","","","","","","","","","","","",""
"5867","","<div style=""width:500px;"">
  <p>How would you describe your current emotional state?</p>
  </div>","40","html-slider-response","71","907952","0.0-7.0-3.11","28","1","2025-07-30 08:40:42","36c45c0696341be0efffe67d72a12abb","81.107.28.63","Mozilla/5.0 (Windows NT 10.0; Win64; x64) AppleWebKit/537.36 (KHTML, like Gecko) Chrome/138.0.0.0 Safari/537.36","WebKit","Chrome","138.0.0.0","Windows","10.0","https://app.prolific.com/","en-GB,en-US;q=0.9,en;q=0.8","5c9d88bb2b3c77001744ec1c","687a19d2168e237449fb8af4","6889da33871baaad909979b2","0","5c9d88bb2b3c77001744ec1c","0","2025-07-30T08:55:53.600Z","","","","StressQ","","","","","","","","","","","50","","","","","","","","","","","","","","","","","","","","","","","","","","",""
"4921","","<div style=""width:500px;"">
  <p>What best describes how you currently feel?</p>
  </div>","100","html-slider-response","72","912876","0.0-7.0-4.11","28","1","2025-07-30 08:40:42","36c45c0696341be0efffe67d72a12abb","81.107.28.63","Mozilla/5.0 (Windows NT 10.0; Win64; x64) AppleWebKit/537.36 (KHTML, like Gecko) Chrome/138.0.0.0 Safari/537.36","WebKit","Chrome","138.0.0.0","Windows","10.0","https://app.prolific.com/","en-GB,en-US;q=0.9,en;q=0.8","5c9d88bb2b3c77001744ec1c","687a19d2168e237449fb8af4","6889da33871baaad909979b2","0","5c9d88bb2b3c77001744ec1c","0","2025-07-30T08:55:58.524Z","","","","MotivationQ","","","","","","","","","","","50","","","","","","","","","","","","","","","","","","","","","","","","","","",""
"","","","","ctl-task-cpt","73","953900","0.0-7.0-0.12","28","1","2025-07-30 08:40:42","36c45c0696341be0efffe67d72a12abb","81.107.28.63","Mozilla/5.0 (Windows NT 10.0; Win64; x64) AppleWebKit/537.36 (KHTML, like Gecko) Chrome/138.0.0.0 Safari/537.36","WebKit","Chrome","138.0.0.0","Windows","10.0","https://app.prolific.com/","en-GB,en-US;q=0.9,en;q=0.8","5c9d88bb2b3c77001744ec1c","687a19d2168e237449fb8af4","6889da33871baaad909979b2","0","5c9d88bb2b3c77001744ec1c","0","2025-07-30T08:56:39.548Z","","","","","","","","","","","","","","","","win-only","0","g1:NW,g2:SE","0.8","13","0","913682.9","1635.3","6643.3","37997.8","1","4","8","6","2","8","8","23","15","0.17424242424242425","952.5","3000","1095","[""down"",""right""]","{""num_key_presses"":10,""num_perfect"":8,""num_errors"":0,""num_randdir"":2,""num_randdir_good_moves"":0,""num_whilered"":0,""num_whileblue"":0,""num_blue"":1,""num_good_moves"":8}","[420.57142857142856,415.47767857142856,0.6,420.57142857142856,415.47767857142856,110.3,420.57142857142856,415.47767857142856,211.4,420.57142857142856,415.47767857142856,324.8,396.57142857142856,415.47767857142856,427.8,388.57142857142856,457.47767857142856,534.6,595.5714285714286,586.4776785714286,649.3,675.5714285714286,660.4776785714286,754,703.5714285714286,723.4776785714286,858.2,710.5714285714286,761.4776785714286,968,714.5714285714286,765.4776785714286,1075.1,714.5714285714286,765.4776785714286,1178.6,717.5714285714286,765.4776785714286,1284.5,721.5714285714286,762.4776785714286,1389,721.5714285714286,762.4776785714286,1499.2,721.5714285714286,762.4776785714286,1604.8,721.5714285714286,762.4776785714286,1714.3,718.5714285714286,737.4776785714286,1827.2,707.5714285714286,713.4776785714286,1935.8,704.5714285714286,688.4776785714286,2038.4,700.5714285714286,681.4776785714286,2142.9,693.5714285714286,674.4776785714286,2256.2,693.5714285714286,674.4776785714286,2357.9,693.5714285714286,674.4776785714286,2470,693.5714285714286,674.4776785714286,2579.3,693.5714285714286,674.4776785714286,2689.7,693.5714285714286,671.4776785714286,2797.6,693.5714285714286,671.4776785714286,2903,693.5714285714286,671.4776785714286,3013,665.5714285714286,650.4776785714286,3122.7,641.5714285714286,608.4776785714286,3231.6,641.5714285714286,604.4776785714286,3334.2,641.5714285714286,604.4776785714286,3437.4,641.5714285714286,604.4776785714286,3549.2,641.5714285714286,604.4776785714286,3655.5,641.5714285714286,604.4776785714286,3759.1,641.5714285714286,604.4776785714286,3872,641.5714285714286,604.4776785714286,3986.5,641.5714285714286,604.4776785714286,4094.3,641.5714285714286,604.4776785714286,4201,641.5714285714286,604.4776785714286,4312.5,641.5714285714286,604.4776785714286,4418,641.5714285714286,604.4776785714286,4518.2,641.5714285714286,604.4776785714286,4626.1,641.5714285714286,604.4776785714286,4726.4,641.5714285714286,604.4776785714286,4827.9,641.5714285714286,604.4776785714286,4930.5]","[1393.5,1393.5,1000,0,393.5,""smooth"",""right"",""right"",""good_move"",4481.7,3087.5,2580,1394.2,507.5,""smooth"",""down"",""down"",""good_move"",7650.7,3168.5,2731.4,4482.3,437.1,""oops"",""right"",""up"",""bad_move"",10563.1,2911.1,2511.4,7652,399.7,""smooth"",""right"",""right"",""good_move"",13221.4,2658.1,2096.2,10563.4,561.9,""oops"",""down"",""left"",""bad_move"",15936.9,2714.6,2296.1,13222.4,418.5,""smooth"",""down"",""down"",""good_move"",19342,3403.5,3050.7,15938.5,352.8,""smooth"",""right"",""right"",""good_move"",21900,2557.7,2219.1,19342.3,338.6,""smooth"",""down"",""down"",""good_move"",28103.5,6203,2708.2,25049.2,346.1,""smooth"",""right"",""right"",""good_move"",31169.1,3065.3,2644.2,28103.8,421.1,""smooth"",""down"",""down"",""good_move""]"
"7479","","<div style=""width:500px;"">
  <p>What determined the result of this run?</p>
  </div>","93","html-slider-response","74","961380","0.0-7.0-1.12","28","1","2025-07-30 08:40:42","36c45c0696341be0efffe67d72a12abb","81.107.28.63","Mozilla/5.0 (Windows NT 10.0; Win64; x64) AppleWebKit/537.36 (KHTML, like Gecko) Chrome/138.0.0.0 Safari/537.36","WebKit","Chrome","138.0.0.0","Windows","10.0","https://app.prolific.com/","en-GB,en-US;q=0.9,en;q=0.8","5c9d88bb2b3c77001744ec1c","687a19d2168e237449fb8af4","6889da33871baaad909979b2","0","5c9d88bb2b3c77001744ec1c","0","2025-07-30T08:56:47.028Z","","","","AttribQ","","","","","","","","","","","50","","","","","","","","","","","","","","","","","","","","","","","","","","",""
"3183","","<div style=""width:500px;"">
  <p>How much control did you have over the ball?</p>
  </div>","85","html-slider-response","75","964566","0.0-7.0-2.12","28","1","2025-07-30 08:40:42","36c45c0696341be0efffe67d72a12abb","81.107.28.63","Mozilla/5.0 (Windows NT 10.0; Win64; x64) AppleWebKit/537.36 (KHTML, like Gecko) Chrome/138.0.0.0 Safari/537.36","WebKit","Chrome","138.0.0.0","Windows","10.0","https://app.prolific.com/","en-GB,en-US;q=0.9,en;q=0.8","5c9d88bb2b3c77001744ec1c","687a19d2168e237449fb8af4","6889da33871baaad909979b2","0","5c9d88bb2b3c77001744ec1c","0","2025-07-30T08:56:50.214Z","","","","ControlQ","","","","","","","","","","","50","","","","","","","","","","","","","","","","","","","","","","","","","","",""
"4348","","<div style=""width:500px;"">
  <p>How would you describe your current emotional state?</p>
  </div>","2","html-slider-response","76","968917","0.0-7.0-3.12","28","1","2025-07-30 08:40:42","36c45c0696341be0efffe67d72a12abb","81.107.28.63","Mozilla/5.0 (Windows NT 10.0; Win64; x64) AppleWebKit/537.36 (KHTML, like Gecko) Chrome/138.0.0.0 Safari/537.36","WebKit","Chrome","138.0.0.0","Windows","10.0","https://app.prolific.com/","en-GB,en-US;q=0.9,en;q=0.8","5c9d88bb2b3c77001744ec1c","687a19d2168e237449fb8af4","6889da33871baaad909979b2","0","5c9d88bb2b3c77001744ec1c","0","2025-07-30T08:56:54.565Z","","","","StressQ","","","","","","","","","","","50","","","","","","","","","","","","","","","","","","","","","","","","","","",""
"2168","","<div style=""width:500px;"">
  <p>What best describes how you currently feel?</p>
