"rt","response_timestamp","stimulus","response","trial_type","trial_index","time_elapsed","internal_node_id","run_id","condition","recorded_at","source_code_version","ip","user_agent","device","browser","browser_version","platform","platform_version","referer","accept_language","PROLIFIC_PID","STUDY_ID","SESSION_ID","BATCH","prolific_id","batch","realtime","success","question_order","question_id","eventType","responses","item_order","radio_event_ids","radio_event_times","key_event_times","mouse_event_times","straightlining","zigzagging","honeypot","view_history","slider_start","which_type","canvas_config","goals_layout","control_level","trial_number","tutorial_trial_number","trial_start_time","phase1_start_time","phase2_start_time","phase3_start_time","goal_1_value","goal_1_distance","goal_2_value","goal_2_distance","goal_selected","outcome","outcome_total","participant_final_score","participant_initial_score","participant_final_score_prop","goal_choice_rt","allocated_time","allocated_time_remaining","goal_direction","counts","mouse_movements","key_presses"
"1918","1754488573747","<p style='font-size:40px;line-height:1.25'><strong>Welcome to the experiment!</strong></p><p style='font-size:1.1em;line-height:1.25'>Thank you for participanting in our experiment again! You will be asked to play the Dysfunctional Ball Game again. We will briefly recap the rules before we start.</p><p style='font-size:1.1em;line-height:1.25'>Press <strong>Next</strong> to continue.</p>","0","custom-html-button-response","0","1925","0.0-0.0","205","1","2025-08-06 13:55:29","36c45c0696341be0efffe67d72a12abb","78.145.195.194","Mozilla/5.0 (Windows NT 10.0; Win64; x64) AppleWebKit/537.36 (KHTML, like Gecko) Chrome/138.0.0.0 Safari/537.36","WebKit","Chrome","138.0.0.0","Windows","10.0","https://app.prolific.com/","en-US,en;q=0.9","5cab22cd68194f001511b2d6","6877649eabb845cf142cd221","68935eb478a0e358f8ffa82c","1","5cab22cd68194f001511b2d6","1","2025-08-06T13:56:13.750Z","","","","","","","","","","","","","","","","","","","","","","","","","","","","","","","","","","","","","","","","","",""
"1881","","","","fullscreen","1","4821","0.0-1.0","205","1","2025-08-06 13:55:29","36c45c0696341be0efffe67d72a12abb","78.145.195.194","Mozilla/5.0 (Windows NT 10.0; Win64; x64) AppleWebKit/537.36 (KHTML, like Gecko) Chrome/138.0.0.0 Safari/537.36","WebKit","Chrome","138.0.0.0","Windows","10.0","https://app.prolific.com/","en-US,en;q=0.9","5cab22cd68194f001511b2d6","6877649eabb845cf142cd221","68935eb478a0e358f8ffa82c","1","5cab22cd68194f001511b2d6","1","","true","","","","","","","","","","","","","","","","","","","","","","","","","","","","","","","","","","","","","","","","",""
"1966","1754488578614"," <p style='font-size:1.1em;line-height:1.25'>Thank you for closing all other tabs.</p><p style='font-size:1.1em;line-height:1.25'>We will now invite you to fill in some questionnaires, before starting the game.<br>This will take about 5 minutes.<br></p><p style='font-size:1.1em;line-height:1.25'>Press the <strong>Next</strong> button to continue.</p>","0","custom-html-button-response","2","6790","0.0-2.0","205","1","2025-08-06 13:55:29","36c45c0696341be0efffe67d72a12abb","78.145.195.194","Mozilla/5.0 (Windows NT 10.0; Win64; x64) AppleWebKit/537.36 (KHTML, like Gecko) Chrome/138.0.0.0 Safari/537.36","WebKit","Chrome","138.0.0.0","Windows","10.0","https://app.prolific.com/","en-US,en;q=0.9","5cab22cd68194f001511b2d6","6877649eabb845cf142cd221","68935eb478a0e358f8ffa82c","1","5cab22cd68194f001511b2d6","1","2025-08-06T13:56:18.615Z","","","","","","","","","","","","","","","","","","","","","","","","","","","","","","","","","","","","","","","","","",""
"3239","","","{""assigned_sex"":""female""}","survey-multi-choice","3","10036","0.0-3.0-0.0","205","1","2025-08-06 13:55:29","36c45c0696341be0efffe67d72a12abb","78.145.195.194","Mozilla/5.0 (Windows NT 10.0; Win64; x64) AppleWebKit/537.36 (KHTML, like Gecko) Chrome/138.0.0.0 Safari/537.36","WebKit","Chrome","138.0.0.0","Windows","10.0","https://app.prolific.com/","en-US,en;q=0.9","5cab22cd68194f001511b2d6","6877649eabb845cf142cd221","68935eb478a0e358f8ffa82c","1","5cab22cd68194f001511b2d6","1","","","[0]","0","demographics","","","","","","","","","","","","","","","","","","","","","","","","","","","","","","","","","","","","","",""
"1611","1754488583475","<p style='font-size:1.1em;line-height:1.25'>In the following, we will perform a baseline assessment. This means that we will ask you a few questions relating to your experiences over the past month.<br></p><p style='font-size:1.1em;line-height:1.25'>Press the <strong>Next</strong> button to continue.</p>","0","custom-html-button-response","4","11655","0.0-4.0-0.0","205","1","2025-08-06 13:55:29","36c45c0696341be0efffe67d72a12abb","78.145.195.194","Mozilla/5.0 (Windows NT 10.0; Win64; x64) AppleWebKit/537.36 (KHTML, like Gecko) Chrome/138.0.0.0 Safari/537.36","WebKit","Chrome","138.0.0.0","Windows","10.0","https://app.prolific.com/","en-US,en;q=0.9","5cab22cd68194f001511b2d6","6877649eabb845cf142cd221","68935eb478a0e358f8ffa82c","1","5cab22cd68194f001511b2d6","1","2025-08-06T13:56:23.479Z","","","","","","","","","","","","","","","","","","","","","","","","","","","","","","","","","","","","","","","","","",""
"33973.89999985695","","","","survey-template","5","45648","0.0-4.0-1.0","205","1","2025-08-06 13:55:29","36c45c0696341be0efffe67d72a12abb","78.145.195.194","Mozilla/5.0 (Windows NT 10.0; Win64; x64) AppleWebKit/537.36 (KHTML, like Gecko) Chrome/138.0.0.0 Safari/537.36","WebKit","Chrome","138.0.0.0","Windows","10.0","https://app.prolific.com/","en-US,en;q=0.9","5cab22cd68194f001511b2d6","6877649eabb845cf142cd221","68935eb478a0e358f8ffa82c","1","5cab22cd68194f001511b2d6","1","2025-08-06T13:56:57.472Z","","","","pss","{""Q01"":""1"",""Q02"":""1"",""Q03"":""2"",""Q04"":""1"",""Q05"":""1"",""Q06"":""1"",""Q07"":""1"",""Q08"":""1"",""Q09"":""0"",""Q10"":""0""}","[0,1,2,3,4,5,6,7,8,9]","[""Q01"",""Q02"",""Q03"",""Q04"",""Q05"",""Q06"",""Q08"",""Q07"",""Q09"",""Q10""]","[3168,5396.799999952316,7232.099999904633,9426,11421.899999856949,13683,25393.89999985695,26294.5,30827.599999904633,32819.89999985695]","[]","[0.5,3168,5396.799999952316,7232.099999904633,9426,11421.899999856949,13683,23239.599999904633,25393.89999985695,26294.5,30827.599999904633,32819.89999985695,33966]","0.4","0.2222222222222222","0","","","","","","","","","","","","","","","","","","","","","","","","","","","","",""
"2109","1754488619585","<p style='font-size:1.1em;line-height:1.25'>Thank you for your answers! Now we will ask you a few more questions relating to your feelings in the last 24 hours.<br></p><p style='font-size:1.1em;line-height:1.25'>Press the <strong>Next</strong> button to continue.</p>","0","custom-html-button-response","6","47764","0.0-4.0-2.0","205","1","2025-08-06 13:55:29","36c45c0696341be0efffe67d72a12abb","78.145.195.194","Mozilla/5.0 (Windows NT 10.0; Win64; x64) AppleWebKit/537.36 (KHTML, like Gecko) Chrome/138.0.0.0 Safari/537.36","WebKit","Chrome","138.0.0.0","Windows","10.0","https://app.prolific.com/","en-US,en;q=0.9","5cab22cd68194f001511b2d6","6877649eabb845cf142cd221","68935eb478a0e358f8ffa82c","1","5cab22cd68194f001511b2d6","1","2025-08-06T13:56:59.588Z","","","","","","","","","","","","","","","","","","","","","","","","","","","","","","","","","","","","","","","","","",""
"38952.5","","","","survey-template","7","86747","0.0-4.0-3.0","205","1","2025-08-06 13:55:29","36c45c0696341be0efffe67d72a12abb","78.145.195.194","Mozilla/5.0 (Windows NT 10.0; Win64; x64) AppleWebKit/537.36 (KHTML, like Gecko) Chrome/138.0.0.0 Safari/537.36","WebKit","Chrome","138.0.0.0","Windows","10.0","https://app.prolific.com/","en-US,en;q=0.9","5cab22cd68194f001511b2d6","6877649eabb845cf142cd221","68935eb478a0e358f8ffa82c","1","5cab22cd68194f001511b2d6","1","2025-08-06T13:57:38.571Z","","","","drsp","{""Q01"":""0"",""Q02"":""0"",""Q03"":""0"",""Q04"":""2"",""Q05"":""0"",""Q06"":""0"",""Q07"":""0"",""Q08"":""0"",""Q09"":""0"",""Q10"":""0"",""Q11"":""3"",""Q12"":""0"",""Q13"":""5"",""Q14"":""0"",""Q15"":""0"",""Q16"":""2"",""Q17"":""1"",""Q18"":""0"",""Q19"":""2"",""Q20"":""0"",""Q21"":""0"",""Q22"":""0""}","[0,1,2,3,4,5,6,7,8,9,10,11,12,13,14,15,16,17,18,19,20,21]","[""Q01"",""Q02"",""Q03"",""Q04"",""Q05"",""Q06"",""Q07"",""Q08"",""Q09"",""Q10"",""Q11"",""Q12"",""Q13"",""Q14"",""Q15"",""Q16"",""Q17"",""Q18"",""Q19"",""Q20"",""Q21"",""Q22""]","[2164.7999999523163,3654,6230.299999952316,7301.799999952316,8373.400000095367,9395.400000095367,10407.299999952316,11617.599999904633,15522.900000095367,16754.900000095367,18813.099999904633,20025.299999952316,21242.299999952316,22198.700000047684,26159.299999952316,27824.400000095367,28890.599999904633,29942.900000095367,32540,36060.200000047684,37000,37899.09999990463]","[]","[0.09999990463256836,2164.7999999523163,3654,6230.299999952316,7301.799999952316,8373.400000095367,9395.400000095367,10407.299999952316,11617.599999904633,15522.900000095367,16754.900000095367,18813.099999904633,20025.299999952316,21242.299999952316,22198.700000047684,26159.299999952316,27824.400000095367,28890.599999904633,29942.900000095367,32540,36060.200000047684,37000,37899.09999990463,38938.09999990463]","0.7272727272727273","0.19047619047619047","0","","","","","","","","","","","","","","","","","","","","","","","","","","","","",""
"12919.900000095367","","","","survey-template","8","99674","0.0-4.0-4.0","205","1","2025-08-06 13:55:29","36c45c0696341be0efffe67d72a12abb","78.145.195.194","Mozilla/5.0 (Windows NT 10.0; Win64; x64) AppleWebKit/537.36 (KHTML, like Gecko) Chrome/138.0.0.0 Safari/537.36","WebKit","Chrome","138.0.0.0","Windows","10.0","https://app.prolific.com/","en-US,en;q=0.9","5cab22cd68194f001511b2d6","6877649eabb845cf142cd221","68935eb478a0e358f8ffa82c","1","5cab22cd68194f001511b2d6","1","2025-08-06T13:57:51.498Z","","","","stress","{""Q01"":""1"",""Q02"":""2"",""Q03"":""0""}","[0,1,2]","[""Q01"",""Q03"",""Q02""]","[7617.900000095367,9571.400000095367,10987.200000047684]","[]","[7617.900000095367,9571.400000095367,10987.200000047684,12914.400000095367]","0.3333333333333333","0","0","","","","","","","","","","","","","","","","","","","","","","","","","","","","",""
"3913","","","","instructions","9","103592","0.0-5.0-0.0","205","1","2025-08-06 13:55:29","36c45c0696341be0efffe67d72a12abb","78.145.195.194","Mozilla/5.0 (Windows NT 10.0; Win64; x64) AppleWebKit/537.36 (KHTML, like Gecko) Chrome/138.0.0.0 Safari/537.36","WebKit","Chrome","138.0.0.0","Windows","10.0","https://app.prolific.com/","en-US,en;q=0.9","5cab22cd68194f001511b2d6","6877649eabb845cf142cd221","68935eb478a0e358f8ffa82c","1","5cab22cd68194f001511b2d6","1","","","","","","","","","","","","","","","[{""page_index"":0,""viewing_time"":3913}]","","","","","","","","","","","","","","","","","","","","","","","","","","","",""
"4994","","<p>Before you start with this game please answer the following three questions yourself. </p>
  <p>Through this game, we measure several aspects of your cognitive performance, such as reaction times, multi-tasking capabilities </p>
  <p>and the ability to assess the situation you are in.</p>
  <p></p>
  <p><b>How good do you usually are in such tasks?</b></p>","69","html-slider-response","10","108589","0.0-6.0-0.0","205","1","2025-08-06 13:55:29","36c45c0696341be0efffe67d72a12abb","78.145.195.194","Mozilla/5.0 (Windows NT 10.0; Win64; x64) AppleWebKit/537.36 (KHTML, like Gecko) Chrome/138.0.0.0 Safari/537.36","WebKit","Chrome","138.0.0.0","Windows","10.0","https://app.prolific.com/","en-US,en;q=0.9","5cab22cd68194f001511b2d6","6877649eabb845cf142cd221","68935eb478a0e358f8ffa82c","1","5cab22cd68194f001511b2d6","1","2025-08-06T13:58:00.414Z","","","","PreSkillQ","","","","","","","","","","","50","","","","","","","","","","","","","","","","","","","","","","","","","","",""
"2763","","<div style=""width:500px;"">
  <p>How well do you think you will perform in this task compared to other participants?</p>
  </div>","51","html-slider-response","11","111356","0.0-6.0-1.0","205","1","2025-08-06 13:55:29","36c45c0696341be0efffe67d72a12abb","78.145.195.194","Mozilla/5.0 (Windows NT 10.0; Win64; x64) AppleWebKit/537.36 (KHTML, like Gecko) Chrome/138.0.0.0 Safari/537.36","WebKit","Chrome","138.0.0.0","Windows","10.0","https://app.prolific.com/","en-US,en;q=0.9","5cab22cd68194f001511b2d6","6877649eabb845cf142cd221","68935eb478a0e358f8ffa82c","1","5cab22cd68194f001511b2d6","1","2025-08-06T13:58:03.180Z","","","","PrePerfQ","","","","","","","","","","","50","","","","","","","","","","","","","","","","","","","","","","","","","","",""
"2840","","<div style=""width:500px;"">
  <p>What best describes how you currently feel?</p>
  </div>","71","html-slider-response","12","114200","0.0-6.0-2.0","205","1","2025-08-06 13:55:29","36c45c0696341be0efffe67d72a12abb","78.145.195.194","Mozilla/5.0 (Windows NT 10.0; Win64; x64) AppleWebKit/537.36 (KHTML, like Gecko) Chrome/138.0.0.0 Safari/537.36","WebKit","Chrome","138.0.0.0","Windows","10.0","https://app.prolific.com/","en-US,en;q=0.9","5cab22cd68194f001511b2d6","6877649eabb845cf142cd221","68935eb478a0e358f8ffa82c","1","5cab22cd68194f001511b2d6","1","2025-08-06T13:58:06.024Z","","","","PreMotivationQ","","","","","","","","","","","50","","","","","","","","","","","","","","","","","","","","","","","","","","",""
"","","","","ctl-task-cpt","13","155350","0.0-7.0-0.0","205","1","2025-08-06 13:55:29","36c45c0696341be0efffe67d72a12abb","78.145.195.194","Mozilla/5.0 (Windows NT 10.0; Win64; x64) AppleWebKit/537.36 (KHTML, like Gecko) Chrome/138.0.0.0 Safari/537.36","WebKit","Chrome","138.0.0.0","Windows","10.0","https://app.prolific.com/","en-US,en;q=0.9","5cab22cd68194f001511b2d6","6877649eabb845cf142cd221","68935eb478a0e358f8ffa82c","1","5cab22cd68194f001511b2d6","1","2025-08-06T13:58:47.174Z","","","","","","","","","","","","","","","","win-only","0","g1:NW,g2:SE","1","1","0","122529.5","15746","20748.3","38126.5","1","4","4","6","2","4","4","4","0","0.030303030303030304","2974.3","3000","1020","[""down"",""right""]","{""num_key_presses"":6,""num_perfect"":6,""num_errors"":0,""num_randdir"":0,""num_randdir_good_moves"":0,""num_whilered"":0,""num_whileblue"":0,""num_blue"":0,""num_good_moves"":6}","[298.22232142857143,298.12857142857143,1.2,298.22232142857143,298.12857142857143,100.6,298.22232142857143,298.12857142857143,201.1,298.22232142857143,298.12857142857143,309,298.22232142857143,298.12857142857143,411.1,298.22232142857143,298.12857142857143,521.3,298.22232142857143,298.12857142857143,629.8,298.22232142857143,298.12857142857143,730.5,298.22232142857143,298.12857142857143,834.9,298.22232142857143,298.12857142857143,934.9,298.22232142857143,298.12857142857143,1035.6,298.22232142857143,298.12857142857143,1146.8,298.22232142857143,298.12857142857143,1249.9,298.22232142857143,298.12857142857143,1350.1,298.22232142857143,298.12857142857143,1455.7,298.22232142857143,298.12857142857143,1562.9,298.22232142857143,298.12857142857143,1663.3,298.22232142857143,298.12857142857143,1763.8,298.22232142857143,298.12857142857143,1872.7,298.22232142857143,298.12857142857143,1979.9,298.22232142857143,298.12857142857143,2080.3,331.22232142857143,335.12857142857143,2186.4,386.22232142857143,405.12857142857143,2295.4,427.22232142857143,465.12857142857143,2401.4,468.22232142857143,453.12857142857143,2502.1,520.2223214285714,481.12857142857143,2604.8,529.2223214285714,520.1285714285714,2708.1,528.2223214285714,523.1285714285714,2809.6,523.2223214285714,534.1285714285714,2912.9,523.2223214285714,534.1285714285714,3013.4,523.2223214285714,534.1285714285714,3115,523.2223214285714,534.1285714285714,3215.5,523.2223214285714,534.1285714285714,3315.6,523.2223214285714,534.1285714285714,3420,523.2223214285714,534.1285714285714,3528.6,523.2223214285714,534.1285714285714,3628.7,523.2223214285714,534.1285714285714,3730.4,523.2223214285714,534.1285714285714,3835.4,523.2223214285714,534.1285714285714,3944.4,523.2223214285714,534.1285714285714,4044.4,523.2223214285714,534.1285714285714,4144.6,523.2223214285714,534.1285714285714,4245.3,523.2223214285714,534.1285714285714,4348.4,523.2223214285714,534.1285714285714,4450.1,523.2223214285714,534.1285714285714,4550.8,523.2223214285714,534.1285714285714,4651.4,523.2223214285714,534.1285714285714,4755.3,523.2223214285714,534.1285714285714,4858.3,523.2223214285714,534.1285714285714,4960.5]","[1567.9,1567.8,1000,0.1,567.8,""smooth"",""down"",""down"",""good_move"",4231.6,2661.9,2280.8,1569.8,381,""smooth"",""right"",""right"",""good_move"",6547,2314,1929.7,4233.1,384.3,""smooth"",""right"",""right"",""good_move"",10342.6,3794.1,3422.6,6548.6,371.5,""smooth"",""down"",""down"",""good_move"",14043,3699.1,3209.4,10343.9,489.7,""smooth"",""right"",""right"",""good_move"",17248.2,3203.7,2771.4,14044.6,432.2,""smooth"",""down"",""down"",""good_move""]"
"6348","","<div style=""width:500px;"">
  <p>What determined the result of this run?</p>
  </div>","100","html-slider-response","14","161701","0.0-7.0-1.0","205","1","2025-08-06 13:55:29","36c45c0696341be0efffe67d72a12abb","78.145.195.194","Mozilla/5.0 (Windows NT 10.0; Win64; x64) AppleWebKit/537.36 (KHTML, like Gecko) Chrome/138.0.0.0 Safari/537.36","WebKit","Chrome","138.0.0.0","Windows","10.0","https://app.prolific.com/","en-US,en;q=0.9","5cab22cd68194f001511b2d6","6877649eabb845cf142cd221","68935eb478a0e358f8ffa82c","1","5cab22cd68194f001511b2d6","1","2025-08-06T13:58:53.526Z","","","","AttribQ","","","","","","","","","","","50","","","","","","","","","","","","","","","","","","","","","","","","","","",""
"4199","","<div style=""width:500px;"">
  <p>How much control did you have over the ball?</p>
  </div>","100","html-slider-response","15","165905","0.0-7.0-2.0","205","1","2025-08-06 13:55:29","36c45c0696341be0efffe67d72a12abb","78.145.195.194","Mozilla/5.0 (Windows NT 10.0; Win64; x64) AppleWebKit/537.36 (KHTML, like Gecko) Chrome/138.0.0.0 Safari/537.36","WebKit","Chrome","138.0.0.0","Windows","10.0","https://app.prolific.com/","en-US,en;q=0.9","5cab22cd68194f001511b2d6","6877649eabb845cf142cd221","68935eb478a0e358f8ffa82c","1","5cab22cd68194f001511b2d6","1","2025-08-06T13:58:57.729Z","","","","ControlQ","","","","","","","","","","","50","","","","","","","","","","","","","","","","","","","","","","","","","","",""
"2797","","<div style=""width:500px;"">
  <p>How would you describe your current emotional state?</p>
  </div>","0","html-slider-response","16","168707","0.0-7.0-3.0","205","1","2025-08-06 13:55:29","36c45c0696341be0efffe67d72a12abb","78.145.195.194","Mozilla/5.0 (Windows NT 10.0; Win64; x64) AppleWebKit/537.36 (KHTML, like Gecko) Chrome/138.0.0.0 Safari/537.36","WebKit","Chrome","138.0.0.0","Windows","10.0","https://app.prolific.com/","en-US,en;q=0.9","5cab22cd68194f001511b2d6","6877649eabb845cf142cd221","68935eb478a0e358f8ffa82c","1","5cab22cd68194f001511b2d6","1","2025-08-06T13:59:00.531Z","","","","StressQ","","","","","","","","","","","50","","","","","","","","","","","","","","","","","","","","","","","","","","",""
"3111","","<div style=""width:500px;"">
  <p>What best describes how you currently feel?</p>
  </div>","76","html-slider-response","17","171826","0.0-7.0-4.0","205","1","2025-08-06 13:55:29","36c45c0696341be0efffe67d72a12abb","78.145.195.194","Mozilla/5.0 (Windows NT 10.0; Win64; x64) AppleWebKit/537.36 (KHTML, like Gecko) Chrome/138.0.0.0 Safari/537.36","WebKit","Chrome","138.0.0.0","Windows","10.0","https://app.prolific.com/","en-US,en;q=0.9","5cab22cd68194f001511b2d6","6877649eabb845cf142cd221","68935eb478a0e358f8ffa82c","1","5cab22cd68194f001511b2d6","1","2025-08-06T13:59:03.650Z","","","","MotivationQ","","","","","","","","","","","50","","","","","","","","","","","","","","","","","","","","","","","","","","",""
"","","","","ctl-task-cpt","18","212701","0.0-7.0-0.1","205","1","2025-08-06 13:55:29","36c45c0696341be0efffe67d72a12abb","78.145.195.194","Mozilla/5.0 (Windows NT 10.0; Win64; x64) AppleWebKit/537.36 (KHTML, like Gecko) Chrome/138.0.0.0 Safari/537.36","WebKit","Chrome","138.0.0.0","Windows","10.0","https://app.prolific.com/","en-US,en;q=0.9","5cab22cd68194f001511b2d6","6877649eabb845cf142cd221","68935eb478a0e358f8ffa82c","1","5cab22cd68194f001511b2d6","1","2025-08-06T13:59:44.525Z","","","","","","","","","","","","","","","","win-only","2","g1:SE,g2:NW","0.9","2","0","180149.5","1225.6","6227.3","37862","1","4","8","6","2","8","8","12","4","0.09090909090909091","1236","3000","895","[""left"",""up""]","{""num_key_presses"":6,""num_perfect"":5,""num_errors"":0,""num_randdir"":1,""num_randdir_good_moves"":1,""num_whilered"":0,""num_whileblue"":0,""num_blue"":4,""num_good_moves"":6}","[295.22232142857143,301.12857142857143,1.4,295.22232142857143,301.12857142857143,100.1,295.22232142857143,301.12857142857143,201.8,303.22232142857143,300.12857142857143,302.5,344.22232142857143,311.12857142857143,403.3,262.22232142857143,306.12857142857143,514.3,-35.777678571428574,91.12857142857143,619.4,-42.777678571428574,22.128571428571426,721.5,-43.777678571428574,21.128571428571426,825.3,-23.777678571428574,32.128571428571426,934,12.222321428571426,49.128571428571426,1036.2,21.222321428571426,51.128571428571426,1137.8,21.222321428571426,51.128571428571426,1246.3,21.222321428571426,51.128571428571426,1350.9,21.222321428571426,51.128571428571426,1451.8,225.22232142857143,95.12857142857143,1555.2,688.2223214285714,182.12857142857143,1674.7,860.2223214285714,211.12857142857143,1790.9,882.2223214285714,229.12857142857143,1891.7,882.2223214285714,229.12857142857143,1994,882.2223214285714,229.12857142857143,2097.1,882.2223214285714,229.12857142857143,2200.9,882.2223214285714,229.12857142857143,2300.9,882.2223214285714,229.12857142857143,2401.2,882.2223214285714,229.12857142857143,2512.6,882.2223214285714,229.12857142857143,2613.8,882.2223214285714,229.12857142857143,2715.6,882.2223214285714,229.12857142857143,2815.9,882.2223214285714,229.12857142857143,2915.9,882.2223214285714,229.12857142857143,3023.4,882.2223214285714,229.12857142857143,3132.2,882.2223214285714,229.12857142857143,3235.8,882.2223214285714,229.12857142857143,3336.8,882.2223214285714,229.12857142857143,3436.8,882.2223214285714,229.12857142857143,3546.5,882.2223214285714,229.12857142857143,3651.8,882.2223214285714,229.12857142857143,3755.9,882.2223214285714,229.12857142857143,3858,882.2223214285714,229.12857142857143,3963.4,882.2223214285714,229.12857142857143,4066.6,882.2223214285714,229.12857142857143,4170.7,882.2223214285714,229.12857142857143,4281,882.2223214285714,229.12857142857143,4381.8,882.2223214285714,229.12857142857143,4485.4,882.2223214285714,229.12857142857143,4586.2,882.2223214285714,229.12857142857143,4690.7,882.2223214285714,229.12857142857143,4790.7,882.2223214285714,229.12857142857143,4896.2]","[1413.9,1413.8,1000,0.1,413.8,""smooth"",""up"",""up"",""good_move"",8163.4,6747.5,2794,4967.8,401.7,""smooth"",""left"",""left"",""good_move"",11477.7,3312.4,2931.7,8165.3,380.7,""smooth"",""left"",""left"",""good_move"",14742,3262.5,2792.9,11479.5,469.6,""oops"",""up"",""up"",""good_move"",24781.2,10035.2,2489.4,21799.5,492.3,""smooth"",""left"",""left"",""good_move"",31513.8,6731.1,2291.8,28713.6,508.4,""smooth"",""up"",""up"",""good_move""]"
"6475","","<div style=""width:500px;"">
  <p>What determined the result of this run?</p>
  </div>","100","html-slider-response","19","219179","0.0-7.0-1.1","205","1","2025-08-06 13:55:29","36c45c0696341be0efffe67d72a12abb","78.145.195.194","Mozilla/5.0 (Windows NT 10.0; Win64; x64) AppleWebKit/537.36 (KHTML, like Gecko) Chrome/138.0.0.0 Safari/537.36","WebKit","Chrome","138.0.0.0","Windows","10.0","https://app.prolific.com/","en-US,en;q=0.9","5cab22cd68194f001511b2d6","6877649eabb845cf142cd221","68935eb478a0e358f8ffa82c","1","5cab22cd68194f001511b2d6","1","2025-08-06T13:59:51.003Z","","","","AttribQ","","","","","","","","","","","50","","","","","","","","","","","","","","","","","","","","","","","","","","",""
"3124","","<div style=""width:500px;"">
  <p>How much control did you have over the ball?</p>
  </div>","100","html-slider-response","20","222305","0.0-7.0-2.1","205","1","2025-08-06 13:55:29","36c45c0696341be0efffe67d72a12abb","78.145.195.194","Mozilla/5.0 (Windows NT 10.0; Win64; x64) AppleWebKit/537.36 (KHTML, like Gecko) Chrome/138.0.0.0 Safari/537.36","WebKit","Chrome","138.0.0.0","Windows","10.0","https://app.prolific.com/","en-US,en;q=0.9","5cab22cd68194f001511b2d6","6877649eabb845cf142cd221","68935eb478a0e358f8ffa82c","1","5cab22cd68194f001511b2d6","1","2025-08-06T13:59:54.129Z","","","","ControlQ","","","","","","","","","","","50","","","","","","","","","","","","","","","","","","","","","","","","","","",""
"7523","","<div style=""width:500px;"">
  <p>How would you describe your current emotional state?</p>
  </div>","0","html-slider-response","21","229831","0.0-7.0-3.1","205","1","2025-08-06 13:55:29","36c45c0696341be0efffe67d72a12abb","78.145.195.194","Mozilla/5.0 (Windows NT 10.0; Win64; x64) AppleWebKit/537.36 (KHTML, like Gecko) Chrome/138.0.0.0 Safari/537.36","WebKit","Chrome","138.0.0.0","Windows","10.0","https://app.prolific.com/","en-US,en;q=0.9","5cab22cd68194f001511b2d6","6877649eabb845cf142cd221","68935eb478a0e358f8ffa82c","1","5cab22cd68194f001511b2d6","1","2025-08-06T14:00:01.656Z","","","","StressQ","","","","","","","","","","","50","","","","","","","","","","","","","","","","","","","","","","","","","","",""
"2457","","<div style=""width:500px;"">
  <p>What best describes how you currently feel?</p>
  </div>","77","html-slider-response","22","232293","0.0-7.0-4.1","205","1","2025-08-06 13:55:29","36c45c0696341be0efffe67d72a12abb","78.145.195.194","Mozilla/5.0 (Windows NT 10.0; Win64; x64) AppleWebKit/537.36 (KHTML, like Gecko) Chrome/138.0.0.0 Safari/537.36","WebKit","Chrome","138.0.0.0","Windows","10.0","https://app.prolific.com/","en-US,en;q=0.9","5cab22cd68194f001511b2d6","6877649eabb845cf142cd221","68935eb478a0e358f8ffa82c","1","5cab22cd68194f001511b2d6","1","2025-08-06T14:00:04.117Z","","","","MotivationQ","","","","","","","","","","","50","","","","","","","","","","","","","","","","","","","","","","","","","","",""
"","","","","ctl-task-cpt","23","261306","0.0-7.0-0.2","205","1","2025-08-06 13:55:29","36c45c0696341be0efffe67d72a12abb","78.145.195.194","Mozilla/5.0 (Windows NT 10.0; Win64; x64) AppleWebKit/537.36 (KHTML, like Gecko) Chrome/138.0.0.0 Safari/537.36","WebKit","Chrome","138.0.0.0","Windows","10.0","https://app.prolific.com/","en-US,en;q=0.9","5cab22cd68194f001511b2d6","6877649eabb845cf142cd221","68935eb478a0e358f8ffa82c","1","5cab22cd68194f001511b2d6","1","2025-08-06T14:00:33.131Z","","","","","","","","","","","","","","","","win-only","0","g1:NW,g2:SE","0.8","3","0","240620.1","1395","6405.3","25991.1","1","4","8","6","2","8","8","20","12","0.15151515151515152","1471.8","3000","1430","[""down"",""right""]","{""num_key_presses"":6,""num_perfect"":6,""num_errors"":0,""num_randdir"":0,""num_randdir_good_moves"":0,""num_whilered"":0,""num_whileblue"":0,""num_blue"":1,""num_good_moves"":6}","[295.22232142857143,298.12857142857143,0.1,295.22232142857143,298.12857142857143,105.6,295.22232142857143,298.12857142857143,207.5,295.22232142857143,298.12857142857143,318.7,295.22232142857143,298.12857142857143,419.3,480.22232142857143,539.1285714285714,526.4,594.2223214285714,683.1285714285714,637.3,627.2223214285714,675.1285714285714,743.3,639.2223214285714,613.1285714285714,866.5,615.2223214285714,580.1285714285714,975.1,580.2223214285714,560.1285714285714,1077.8,568.2223214285714,553.1285714285714,1183.8,560.2223214285714,554.1285714285714,1289,560.2223214285714,554.1285714285714,1390,560.2223214285714,554.1285714285714,1492.6,560.2223214285714,554.1285714285714,1593.5,560.2223214285714,554.1285714285714,1716.7,597.2223214285714,527.1285714285714,1821.9,978.2223214285714,341.12857142857143,1940.5,978.2223214285714,335.12857142857143,2055.2,978.2223214285714,335.12857142857143,2157.7,978.2223214285714,335.12857142857143,2263.1,978.2223214285714,335.12857142857143,2370.9,978.2223214285714,335.12857142857143,2475.5,978.2223214285714,335.12857142857143,2584.8,978.2223214285714,335.12857142857143,2695,978.2223214285714,335.12857142857143,2796.9,978.2223214285714,335.12857142857143,2900.9,978.2223214285714,335.12857142857143,3003.7,978.2223214285714,335.12857142857143,3109.9,978.2223214285714,335.12857142857143,3210.5,978.2223214285714,335.12857142857143,3316.1,978.2223214285714,335.12857142857143,3424.1,978.2223214285714,335.12857142857143,3529.7,978.2223214285714,335.12857142857143,3631.4,978.2223214285714,335.12857142857143,3736,978.2223214285714,335.12857142857143,3843.4,978.2223214285714,335.12857142857143,3944.4,978.2223214285714,335.12857142857143,4052.5,978.2223214285714,335.12857142857143,4161.5,978.2223214285714,335.12857142857143,4263.6,978.2223214285714,335.12857142857143,4365.3,978.2223214285714,335.12857142857143,4479.8,978.2223214285714,335.12857142857143,4593.2,978.2223214285714,335.12857142857143,4698.9,978.2223214285714,335.12857142857143,4809.1,978.2223214285714,335.12857142857143,4924.3]","[1427.8,1427.8,1000,0,427.8,""smooth"",""right"",""right"",""good_move"",4771.2,3341.4,2937,1429.8,404.5,""smooth"",""right"",""right"",""good_move"",7896.5,3123.5,2732.9,4773,390.6,""smooth"",""down"",""down"",""good_move"",11308.9,3409,2955.1,7899.9,453.9,""smooth"",""right"",""right"",""good_move"",13829.5,2516.9,2132.6,11312.6,384.3,""smooth"",""down"",""down"",""good_move"",19439,5607.2,2336.4,16755.8,346.8,""smooth"",""down"",""down"",""good_move""]"
"5737","","<div style=""width:500px;"">
  <p>What determined the result of this run?</p>
  </div>","100","html-slider-response","24","267050","0.0-7.0-1.2","205","1","2025-08-06 13:55:29","36c45c0696341be0efffe67d72a12abb","78.145.195.194","Mozilla/5.0 (Windows NT 10.0; Win64; x64) AppleWebKit/537.36 (KHTML, like Gecko) Chrome/138.0.0.0 Safari/537.36","WebKit","Chrome","138.0.0.0","Windows","10.0","https://app.prolific.com/","en-US,en;q=0.9","5cab22cd68194f001511b2d6","6877649eabb845cf142cd221","68935eb478a0e358f8ffa82c","1","5cab22cd68194f001511b2d6","1","2025-08-06T14:00:38.875Z","","","","AttribQ","","","","","","","","","","","50","","","","","","","","","","","","","","","","","","","","","","","","","","",""
"2853","","<div style=""width:500px;"">
  <p>How much control did you have over the ball?</p>
  </div>","100","html-slider-response","25","269908","0.0-7.0-2.2","205","1","2025-08-06 13:55:29","36c45c0696341be0efffe67d72a12abb","78.145.195.194","Mozilla/5.0 (Windows NT 10.0; Win64; x64) AppleWebKit/537.36 (KHTML, like Gecko) Chrome/138.0.0.0 Safari/537.36","WebKit","Chrome","138.0.0.0","Windows","10.0","https://app.prolific.com/","en-US,en;q=0.9","5cab22cd68194f001511b2d6","6877649eabb845cf142cd221","68935eb478a0e358f8ffa82c","1","5cab22cd68194f001511b2d6","1","2025-08-06T14:00:41.732Z","","","","ControlQ","","","","","","","","","","","50","","","","","","","","","","","","","","","","","","","","","","","","","","",""
"2808","","<div style=""width:500px;"">
  <p>How would you describe your current emotional state?</p>
  </div>","0","html-slider-response","26","272719","0.0-7.0-3.2","205","1","2025-08-06 13:55:29","36c45c0696341be0efffe67d72a12abb","78.145.195.194","Mozilla/5.0 (Windows NT 10.0; Win64; x64) AppleWebKit/537.36 (KHTML, like Gecko) Chrome/138.0.0.0 Safari/537.36","WebKit","Chrome","138.0.0.0","Windows","10.0","https://app.prolific.com/","en-US,en;q=0.9","5cab22cd68194f001511b2d6","6877649eabb845cf142cd221","68935eb478a0e358f8ffa82c","1","5cab22cd68194f001511b2d6","1","2025-08-06T14:00:44.543Z","","","","StressQ","","","","","","","","","","","50","","","","","","","","","","","","","","","","","","","","","","","","","","",""
"2298","","<div style=""width:500px;"">
  <p>What best describes how you currently feel?</p>
  </div>","79","html-slider-response","27","275020","0.0-7.0-4.2","205","1","2025-08-06 13:55:29","36c45c0696341be0efffe67d72a12abb","78.145.195.194","Mozilla/5.0 (Windows NT 10.0; Win64; x64) AppleWebKit/537.36 (KHTML, like Gecko) Chrome/138.0.0.0 Safari/537.36","WebKit","Chrome","138.0.0.0","Windows","10.0","https://app.prolific.com/","en-US,en;q=0.9","5cab22cd68194f001511b2d6","6877649eabb845cf142cd221","68935eb478a0e358f8ffa82c","1","5cab22cd68194f001511b2d6","1","2025-08-06T14:00:46.844Z","","","","MotivationQ","","","","","","","","","","","50","","","","","","","","","","","","","","","","","","","","","","","","","","",""
"","","","","ctl-task-cpt","28","307914","0.0-7.0-0.3","205","1","2025-08-06 13:55:29","36c45c0696341be0efffe67d72a12abb","78.145.195.194","Mozilla/5.0 (Windows NT 10.0; Win64; x64) AppleWebKit/537.36 (KHTML, like Gecko) Chrome/138.0.0.0 Safari/537.36","WebKit","Chrome","138.0.0.0","Windows","10.0","https://app.prolific.com/","en-US,en;q=0.9","5cab22cd68194f001511b2d6","6877649eabb845cf142cd221","68935eb478a0e358f8ffa82c","1","5cab22cd68194f001511b2d6","1","2025-08-06T14:01:19.738Z","","","","","","","","","","","","","","","","win-only","3","g1:SW,g2:NE","0.7","4","0","283349.3","1052.2","6065.5","29874.8","1","4","4","6","2","4","4","24","20","0.18181818181818182","1106.3","3000","1580","[""up"",""right""]","{""num_key_presses"":6,""num_perfect"":5,""num_errors"":0,""num_randdir"":1,""num_randdir_good_moves"":1,""num_whilered"":0,""num_whileblue"":0,""num_blue"":2,""num_good_moves"":6}","[290.22232142857143,296.12857142857143,1.9,290.22232142857143,296.12857142857143,110.1,290.22232142857143,296.12857142857143,214.8,290.22232142857143,296.12857142857143,319.8,290.22232142857143,296.12857142857143,419.8,290.22232142857143,296.12857142857143,527.3,572.2223214285714,13.128571428571426,630.2,609.2223214285714,0.12857142857142634,732.7,589.2223214285714,26.128571428571426,840.8,565.2223214285714,35.128571428571426,941,558.2223214285714,38.128571428571426,1051.9,558.2223214285714,38.128571428571426,1160.6,558.2223214285714,38.128571428571426,1266.5,560.2223214285714,39.128571428571426,1366.8,743.2223214285714,111.12857142857143,1477.6,869.2223214285714,185.12857142857143,1582.9,888.2223214285714,191.12857142857143,1685.5,888.2223214285714,191.12857142857143,1790.8,888.2223214285714,191.12857142857143,1892.1,888.2223214285714,191.12857142857143,2000,888.2223214285714,191.12857142857143,2109.8,888.2223214285714,191.12857142857143,2213.7,888.2223214285714,191.12857142857143,2317.7,888.2223214285714,191.12857142857143,2423.9,888.2223214285714,191.12857142857143,2531.2,888.2223214285714,191.12857142857143,2633.1,888.2223214285714,191.12857142857143,2736.1,888.2223214285714,191.12857142857143,2843.6,888.2223214285714,191.12857142857143,2947.6,888.2223214285714,191.12857142857143,3056.1,888.2223214285714,191.12857142857143,3164.1,888.2223214285714,191.12857142857143,3269.9,888.2223214285714,191.12857142857143,3371.9,888.2223214285714,191.12857142857143,3477,888.2223214285714,191.12857142857143,3579.9,888.2223214285714,191.12857142857143,3687.3,888.2223214285714,191.12857142857143,3787.4,888.2223214285714,191.12857142857143,3895.5,888.2223214285714,191.12857142857143,3998,888.2223214285714,191.12857142857143,4102.6,888.2223214285714,191.12857142857143,4210.6,888.2223214285714,191.12857142857143,4313.2,888.2223214285714,191.12857142857143,4420.6,888.2223214285714,191.12857142857143,4525.9,888.2223214285714,191.12857142857143,4629.3,888.2223214285714,191.12857142857143,4736.6,888.2223214285714,191.12857142857143,4840.2,888.2223214285714,191.12857142857143,4946.6]","[9233.9,9233.9,3257.9,5545.8,430.2,""smooth"",""up"",""up"",""good_move"",12047.9,2812.2,2416.8,9235.7,395.4,""smooth"",""right"",""right"",""good_move"",15105.8,3054.9,2541.7,12050.9,513.2,""oops"",""up"",""right"",""good_move"",18123.9,3014.3,2605.3,15109.7,409,""smooth"",""up"",""up"",""good_move"",20946.2,2820.6,2395.3,18125.7,425.2,""smooth"",""right"",""right"",""good_move"",23639,2691.6,2355.2,20947.6,336.2,""smooth"",""up"",""up"",""good_move""]"
"6142","","<div style=""width:500px;"">
  <p>What determined the result of this run?</p>
  </div>","100","html-slider-response","29","314061","0.0-7.0-1.3","205","1","2025-08-06 13:55:29","36c45c0696341be0efffe67d72a12abb","78.145.195.194","Mozilla/5.0 (Windows NT 10.0; Win64; x64) AppleWebKit/537.36 (KHTML, like Gecko) Chrome/138.0.0.0 Safari/537.36","WebKit","Chrome","138.0.0.0","Windows","10.0","https://app.prolific.com/","en-US,en;q=0.9","5cab22cd68194f001511b2d6","6877649eabb845cf142cd221","68935eb478a0e358f8ffa82c","1","5cab22cd68194f001511b2d6","1","2025-08-06T14:01:25.885Z","","","","AttribQ","","","","","","","","","","","50","","","","","","","","","","","","","","","","","","","","","","","","","","",""
"2561","","<div style=""width:500px;"">
  <p>How much control did you have over the ball?</p>
  </div>","100","html-slider-response","30","316626","0.0-7.0-2.3","205","1","2025-08-06 13:55:29","36c45c0696341be0efffe67d72a12abb","78.145.195.194","Mozilla/5.0 (Windows NT 10.0; Win64; x64) AppleWebKit/537.36 (KHTML, like Gecko) Chrome/138.0.0.0 Safari/537.36","WebKit","Chrome","138.0.0.0","Windows","10.0","https://app.prolific.com/","en-US,en;q=0.9","5cab22cd68194f001511b2d6","6877649eabb845cf142cd221","68935eb478a0e358f8ffa82c","1","5cab22cd68194f001511b2d6","1","2025-08-06T14:01:28.450Z","","","","ControlQ","","","","","","","","","","","50","","","","","","","","","","","","","","","","","","","","","","","","","","",""
"3737","","<div style=""width:500px;"">
  <p>How would you describe your current emotional state?</p>
  </div>","0","html-slider-response","31","320366","0.0-7.0-3.3","205","1","2025-08-06 13:55:29","36c45c0696341be0efffe67d72a12abb","78.145.195.194","Mozilla/5.0 (Windows NT 10.0; Win64; x64) AppleWebKit/537.36 (KHTML, like Gecko) Chrome/138.0.0.0 Safari/537.36","WebKit","Chrome","138.0.0.0","Windows","10.0","https://app.prolific.com/","en-US,en;q=0.9","5cab22cd68194f001511b2d6","6877649eabb845cf142cd221","68935eb478a0e358f8ffa82c","1","5cab22cd68194f001511b2d6","1","2025-08-06T14:01:32.190Z","","","","StressQ","","","","","","","","","","","50","","","","","","","","","","","","","","","","","","","","","","","","","","",""
"2640","","<div style=""width:500px;"">
  <p>What best describes how you currently feel?</p>
  </div>","77","html-slider-response","32","323009","0.0-7.0-4.3","205","1","2025-08-06 13:55:29","36c45c0696341be0efffe67d72a12abb","78.145.195.194","Mozilla/5.0 (Windows NT 10.0; Win64; x64) AppleWebKit/537.36 (KHTML, like Gecko) Chrome/138.0.0.0 Safari/537.36","WebKit","Chrome","138.0.0.0","Windows","10.0","https://app.prolific.com/","en-US,en;q=0.9","5cab22cd68194f001511b2d6","6877649eabb845cf142cd221","68935eb478a0e358f8ffa82c","1","5cab22cd68194f001511b2d6","1","2025-08-06T14:01:34.833Z","","","","MotivationQ","","","","","","","","","","","50","","","","","","","","","","","","","","","","","","","","","","","","","","",""
"","","","","ctl-task-cpt","33","361837","0.0-7.0-0.4","205","1","2025-08-06 13:55:29","36c45c0696341be0efffe67d72a12abb","78.145.195.194","Mozilla/5.0 (Windows NT 10.0; Win64; x64) AppleWebKit/537.36 (KHTML, like Gecko) Chrome/138.0.0.0 Safari/537.36","WebKit","Chrome","138.0.0.0","Windows","10.0","https://app.prolific.com/","en-US,en;q=0.9","5cab22cd68194f001511b2d6","6877649eabb845cf142cd221","68935eb478a0e358f8ffa82c","1","5cab22cd68194f001511b2d6","1","2025-08-06T14:02:13.662Z","","","","","","","","","","","","","","","","win-only","3","g1:SW,g2:NE","0.6","5","0","331334.1","896.7","5913.9","35804.5","1","4","4","6","2","4","4","28","24","0.21212121212121213","914.5","3000","1440","[""up"",""right""]","{""num_key_presses"":6,""num_perfect"":4,""num_errors"":0,""num_randdir"":2,""num_randdir_good_moves"":2,""num_whilered"":0,""num_whileblue"":0,""num_blue"":4,""num_good_moves"":6}","[301.22232142857143,303.12857142857143,0.1,301.22232142857143,303.12857142857143,107,301.22232142857143,303.12857142857143,222.9,301.22232142857143,303.12857142857143,332.3,301.22232142857143,303.12857142857143,441.4,383.22232142857143,204.12857142857143,553.2,568.2223214285714,67.12857142857143,668.2,571.2223214285714,57.128571428571426,785.7,571.2223214285714,57.128571428571426,888.8,571.2223214285714,57.128571428571426,1000.3,571.2223214285714,57.128571428571426,1102.6,607.2223214285714,53.128571428571426,1209.4,859.2223214285714,57.128571428571426,1324.9,869.2223214285714,59.128571428571426,1451.7,869.2223214285714,59.128571428571426,1558.7,869.2223214285714,59.128571428571426,1663.5,869.2223214285714,59.128571428571426,1777.4,869.2223214285714,59.128571428571426,1878.8,869.2223214285714,59.128571428571426,1984.2,869.2223214285714,59.128571428571426,2088.6,869.2223214285714,59.128571428571426,2194.7,869.2223214285714,59.128571428571426,2296,869.2223214285714,59.128571428571426,2401.8,869.2223214285714,59.128571428571426,2509.4,869.2223214285714,59.128571428571426,2616.9,869.2223214285714,59.128571428571426,2729.2,869.2223214285714,59.128571428571426,2842.7,869.2223214285714,59.128571428571426,2957.4,869.2223214285714,59.128571428571426,3059.2,869.2223214285714,59.128571428571426,3171.1,869.2223214285714,59.128571428571426,3273.5,869.2223214285714,59.128571428571426,3379.2,869.2223214285714,59.128571428571426,3484.1,869.2223214285714,59.128571428571426,3589.2,869.2223214285714,59.128571428571426,3700,869.2223214285714,59.128571428571426,3813.3,869.2223214285714,59.128571428571426,3914.2,869.2223214285714,59.128571428571426,4015.3,869.2223214285714,59.128571428571426,4116.4,869.2223214285714,59.128571428571426,4216.4,869.2223214285714,59.128571428571426,4316.7,869.2223214285714,59.128571428571426,4429.4,869.2223214285714,59.128571428571426,4542.2,869.2223214285714,59.128571428571426,4644.6,869.2223214285714,59.128571428571426,4756.1,869.2223214285714,59.128571428571426,4857.4,869.2223214285714,59.128571428571426,4964.8]","[1542,1542,1000,0,542,""smooth"",""up"",""up"",""good_move"",4539.8,2994.8,2486.7,1545.1,508.1,""oops"",""right"",""up"",""good_move"",18277.9,13738,2802.2,14992.8,482.9,""smooth"",""right"",""right"",""good_move"",24177.1,5897.6,2134.2,21629.7,413.2,""smooth"",""right"",""right"",""good_move"",26971.4,2793.4,2292.3,24178,501.2,""oops"",""up"",""up"",""good_move"",29703.7,2720.8,2206.9,26982.9,513.9,""smooth"",""right"",""right"",""good_move""]"
"3185","","<div style=""width:500px;"">
  <p>What determined the result of this run?</p>
  </div>","100","html-slider-response","34","365026","0.0-7.0-1.4","205","1","2025-08-06 13:55:29","36c45c0696341be0efffe67d72a12abb","78.145.195.194","Mozilla/5.0 (Windows NT 10.0; Win64; x64) AppleWebKit/537.36 (KHTML, like Gecko) Chrome/138.0.0.0 Safari/537.36","WebKit","Chrome","138.0.0.0","Windows","10.0","https://app.prolific.com/","en-US,en;q=0.9","5cab22cd68194f001511b2d6","6877649eabb845cf142cd221","68935eb478a0e358f8ffa82c","1","5cab22cd68194f001511b2d6","1","2025-08-06T14:02:16.850Z","","","","AttribQ","","","","","","","","","","","50","","","","","","","","","","","","","","","","","","","","","","","","","","",""
"2250","","<div style=""width:500px;"">
  <p>How much control did you have over the ball?</p>
  </div>","100","html-slider-response","35","367281","0.0-7.0-2.4","205","1","2025-08-06 13:55:29","36c45c0696341be0efffe67d72a12abb","78.145.195.194","Mozilla/5.0 (Windows NT 10.0; Win64; x64) AppleWebKit/537.36 (KHTML, like Gecko) Chrome/138.0.0.0 Safari/537.36","WebKit","Chrome","138.0.0.0","Windows","10.0","https://app.prolific.com/","en-US,en;q=0.9","5cab22cd68194f001511b2d6","6877649eabb845cf142cd221","68935eb478a0e358f8ffa82c","1","5cab22cd68194f001511b2d6","1","2025-08-06T14:02:19.105Z","","","","ControlQ","","","","","","","","","","","50","","","","","","","","","","","","","","","","","","","","","","","","","","",""
"2628","","<div style=""width:500px;"">
  <p>How would you describe your current emotional state?</p>
  </div>","0","html-slider-response","36","369913","0.0-7.0-3.4","205","1","2025-08-06 13:55:29","36c45c0696341be0efffe67d72a12abb","78.145.195.194","Mozilla/5.0 (Windows NT 10.0; Win64; x64) AppleWebKit/537.36 (KHTML, like Gecko) Chrome/138.0.0.0 Safari/537.36","WebKit","Chrome","138.0.0.0","Windows","10.0","https://app.prolific.com/","en-US,en;q=0.9","5cab22cd68194f001511b2d6","6877649eabb845cf142cd221","68935eb478a0e358f8ffa82c","1","5cab22cd68194f001511b2d6","1","2025-08-06T14:02:21.737Z","","","","StressQ","","","","","","","","","","","50","","","","","","","","","","","","","","","","","","","","","","","","","","",""
"1938","","<div style=""width:500px;"">
  <p>What best describes how you currently feel?</p>
  </div>","78","html-slider-response","37","371855","0.0-7.0-4.4","205","1","2025-08-06 13:55:29","36c45c0696341be0efffe67d72a12abb","78.145.195.194","Mozilla/5.0 (Windows NT 10.0; Win64; x64) AppleWebKit/537.36 (KHTML, like Gecko) Chrome/138.0.0.0 Safari/537.36","WebKit","Chrome","138.0.0.0","Windows","10.0","https://app.prolific.com/","en-US,en;q=0.9","5cab22cd68194f001511b2d6","6877649eabb845cf142cd221","68935eb478a0e358f8ffa82c","1","5cab22cd68194f001511b2d6","1","2025-08-06T14:02:23.679Z","","","","MotivationQ","","","","","","","","","","","50","","","","","","","","","","","","","","","","","","","","","","","","","","",""
"","","","","ctl-task-cpt","38","455557","0.0-7.0-0.5","205","1","2025-08-06 13:55:29","36c45c0696341be0efffe67d72a12abb","78.145.195.194","Mozilla/5.0 (Windows NT 10.0; Win64; x64) AppleWebKit/537.36 (KHTML, like Gecko) Chrome/138.0.0.0 Safari/537.36","WebKit","Chrome","138.0.0.0","Windows","10.0","https://app.prolific.com/","en-US,en;q=0.9","5cab22cd68194f001511b2d6","6877649eabb845cf142cd221","68935eb478a0e358f8ffa82c","1","5cab22cd68194f001511b2d6","1","2025-08-06T14:03:47.381Z","","","","","","","","","","","","","","","","win-only","2","g1:SE,g2:NW","0.5","6","0","380185.1","1867.1","6879.5","80670.5","1","4","8","6","2","8","8","36","28","0.2727272727272727","954.7","3000","15","[""left"",""up""]","{""num_key_presses"":22,""num_perfect"":11,""num_errors"":0,""num_randdir"":11,""num_randdir_good_moves"":3,""num_whilered"":0,""num_whileblue"":0,""num_blue"":3,""num_good_moves"":14}","[301.22232142857143,296.12857142857143,1.4,301.22232142857143,296.12857142857143,103.8,301.22232142857143,296.12857142857143,220.3,301.22232142857143,296.12857142857143,338.3,301.22232142857143,296.12857142857143,454.3,129.22232142857143,170.12857142857143,565.7,71.22232142857143,51.128571428571426,691.1,77.22232142857143,53.128571428571426,801.9,77.22232142857143,53.128571428571426,902.5,77.22232142857143,53.128571428571426,1021.6,77.22232142857143,53.128571428571426,1139.9,123.22232142857143,52.128571428571426,1246.9,736.2223214285714,65.12857142857143,1365.9,978.2223214285714,95.12857142857143,1487.8,978.2223214285714,99.12857142857143,1600.1,978.2223214285714,99.12857142857143,1713.5,978.2223214285714,99.12857142857143,1824.2,978.2223214285714,99.12857142857143,1925.6,978.2223214285714,99.12857142857143,2027.3,978.2223214285714,99.12857142857143,2135.6,978.2223214285714,99.12857142857143,2238.4,978.2223214285714,99.12857142857143,2348.2,978.2223214285714,99.12857142857143,2457.1,978.2223214285714,99.12857142857143,2563.4,978.2223214285714,99.12857142857143,2674.6,978.2223214285714,99.12857142857143,2783.8,978.2223214285714,99.12857142857143,2885.6,978.2223214285714,99.12857142857143,2995.7,978.2223214285714,99.12857142857143,3111.1,978.2223214285714,99.12857142857143,3224.8,978.2223214285714,99.12857142857143,3330,978.2223214285714,99.12857142857143,3432.7,978.2223214285714,99.12857142857143,3540.1,978.2223214285714,99.12857142857143,3642.5,978.2223214285714,99.12857142857143,3765.5,978.2223214285714,99.12857142857143,3878.3,978.2223214285714,99.12857142857143,3978.5,978.2223214285714,99.12857142857143,4083.8,978.2223214285714,99.12857142857143,4197,978.2223214285714,99.12857142857143,4301.8,978.2223214285714,99.12857142857143,4405.6,978.2223214285714,99.12857142857143,4507.7,978.2223214285714,99.12857142857143,4624.5,978.2223214285714,99.12857142857143,4725.9,978.2223214285714,99.12857142857143,4828.9,978.2223214285714,99.12857142857143,4935.3]","[1484.5,1484.5,1000,0,484.5,""smooth"",""left"",""left"",""good_move"",5510.4,4024,2259.5,1486.4,1764.5,""oops"",""up"",""right"",""bad_move"",8837,3325.3,2822,5511.7,503.3,""oops"",""up"",""down"",""bad_move"",11725.8,2880,2510.6,8845.8,369.5,""oops"",""left"",""up"",""good_move"",18449.9,6721.2,2404.4,15615.1,430.4,""smooth"",""left"",""left"",""good_move"",21244.8,2789.8,2389.4,18455,400.4,""smooth"",""left"",""left"",""good_move"",24101.7,2851.8,2446.8,21249.9,405,""oops"",""up"",""right"",""bad_move"",32212.9,8110,2079.5,29671.6,461.8,""smooth"",""left"",""left"",""good_move"",35547.3,3326.1,2574.1,32221.2,752,""oops"",""up"",""right"",""bad_move"",38233.1,2684,2300.3,35549.1,383.7,""smooth"",""up"",""up"",""good_move"",41044.9,2810.4,2342.9,38234.5,467.5,""smooth"",""left"",""left"",""good_move"",43860.6,2812.2,2044.3,41048.5,767.9,""smooth"",""left"",""left"",""good_move"",47094.6,3231.9,2892.2,43862.8,339.6,""oops"",""up"",""right"",""bad_move"",49467.2,2355.8,1987,47111.4,368.8,""oops"",""up"",""right"",""bad_move"",52561.1,3090.6,2702.2,49470.5,388.4,""smooth"",""up"",""up"",""good_move"",55236.6,2674,2295.5,52562.7,378.4,""oops"",""left"",""up"",""good_move"",58331.2,3084,2667.5,55247.2,416.5,""smooth"",""left"",""left"",""good_move"",61453.5,3113.5,2411.5,58340,702,""oops"",""left"",""down"",""bad_move"",64765.4,3303.2,2921.6,61462.2,381.6,""oops"",""up"",""down"",""bad_move"",67500.8,2733.9,2418.5,64766.9,315.4,""smooth"",""up"",""up"",""good_move"",69975.1,2473,2023.3,67502.2,449.6,""oops"",""up"",""up"",""good_move"",73544.7,3565.4,3210.2,69979.3,355.2,""smooth"",""left"",""left"",""good_move""]"
"5831","","<div style=""width:500px;"">
  <p>What determined the result of this run?</p>
  </div>","90","html-slider-response","39","461392","0.0-7.0-1.5","205","1","2025-08-06 13:55:29","36c45c0696341be0efffe67d72a12abb","78.145.195.194","Mozilla/5.0 (Windows NT 10.0; Win64; x64) AppleWebKit/537.36 (KHTML, like Gecko) Chrome/138.0.0.0 Safari/537.36","WebKit","Chrome","138.0.0.0","Windows","10.0","https://app.prolific.com/","en-US,en;q=0.9","5cab22cd68194f001511b2d6","6877649eabb845cf142cd221","68935eb478a0e358f8ffa82c","1","5cab22cd68194f001511b2d6","1","2025-08-06T14:03:53.217Z","","","","AttribQ","","","","","","","","","","","50","","","","","","","","","","","","","","","","","","","","","","","","","","",""
"2279","","<div style=""width:500px;"">
  <p>How much control did you have over the ball?</p>
  </div>","95","html-slider-response","40","463674","0.0-7.0-2.5","205","1","2025-08-06 13:55:29","36c45c0696341be0efffe67d72a12abb","78.145.195.194","Mozilla/5.0 (Windows NT 10.0; Win64; x64) AppleWebKit/537.36 (KHTML, like Gecko) Chrome/138.0.0.0 Safari/537.36","WebKit","Chrome","138.0.0.0","Windows","10.0","https://app.prolific.com/","en-US,en;q=0.9","5cab22cd68194f001511b2d6","6877649eabb845cf142cd221","68935eb478a0e358f8ffa82c","1","5cab22cd68194f001511b2d6","1","2025-08-06T14:03:55.498Z","","","","ControlQ","","","","","","","","","","","50","","","","","","","","","","","","","","","","","","","","","","","","","","",""
"2783","","<div style=""width:500px;"">
  <p>How would you describe your current emotional state?</p>
  </div>","0","html-slider-response","41","466461","0.0-7.0-3.5","205","1","2025-08-06 13:55:29","36c45c0696341be0efffe67d72a12abb","78.145.195.194","Mozilla/5.0 (Windows NT 10.0; Win64; x64) AppleWebKit/537.36 (KHTML, like Gecko) Chrome/138.0.0.0 Safari/537.36","WebKit","Chrome","138.0.0.0","Windows","10.0","https://app.prolific.com/","en-US,en;q=0.9","5cab22cd68194f001511b2d6","6877649eabb845cf142cd221","68935eb478a0e358f8ffa82c","1","5cab22cd68194f001511b2d6","1","2025-08-06T14:03:58.285Z","","","","StressQ","","","","","","","","","","","50","","","","","","","","","","","","","","","","","","","","","","","","","","",""
"2208","","<div style=""width:500px;"">
  <p>What best describes how you currently feel?</p>
  </div>","78","html-slider-response","42","468674","0.0-7.0-4.5","205","1","2025-08-06 13:55:29","36c45c0696341be0efffe67d72a12abb","78.145.195.194","Mozilla/5.0 (Windows NT 10.0; Win64; x64) AppleWebKit/537.36 (KHTML, like Gecko) Chrome/138.0.0.0 Safari/537.36","WebKit","Chrome","138.0.0.0","Windows","10.0","https://app.prolific.com/","en-US,en;q=0.9","5cab22cd68194f001511b2d6","6877649eabb845cf142cd221","68935eb478a0e358f8ffa82c","1","5cab22cd68194f001511b2d6","1","2025-08-06T14:04:00.498Z","","","","MotivationQ","","","","","","","","","","","50","","","","","","","","","","","","","","","","","","","","","","","","","","",""
"","","","","ctl-task-cpt","43","565393","0.0-7.0-0.6","205","1","2025-08-06 13:55:29","36c45c0696341be0efffe67d72a12abb","78.145.195.194","Mozilla/5.0 (Windows NT 10.0; Win64; x64) AppleWebKit/537.36 (KHTML, like Gecko) Chrome/138.0.0.0 Safari/537.36","WebKit","Chrome","138.0.0.0","Windows","10.0","https://app.prolific.com/","en-US,en;q=0.9","5cab22cd68194f001511b2d6","6877649eabb845cf142cd221","68935eb478a0e358f8ffa82c","1","5cab22cd68194f001511b2d6","1","2025-08-06T14:05:37.217Z","","","","","","","","","","","","","","","","win-only","0","g1:NW,g2:SE","0.4","7","0","476999.4","8342.3","13358","93684.7","1","4","4","6","2","-4","-4","32","36","0.24242424242424243","1203.1","3000","-1300","[""down"",""right""]","{""num_key_presses"":19,""num_perfect"":7,""num_errors"":0,""num_randdir"":12,""num_randdir_good_moves"":5,""num_whilered"":0,""num_whileblue"":0,""num_blue"":6,""num_good_moves"":12}","[300.22232142857143,299.12857142857143,2.1,300.22232142857143,299.12857142857143,108.6,300.22232142857143,299.12857142857143,211.6,300.22232142857143,299.12857142857143,313.6,300.22232142857143,299.12857142857143,416.2,342.22232142857143,330.12857142857143,537.4,519.2223214285714,578.1285714285714,645,531.2223214285714,590.1285714285714,753.5,538.2223214285714,575.1285714285714,855.5,534.2223214285714,544.1285714285714,961.8,533.2223214285714,538.1285714285714,1070.7,533.2223214285714,538.1285714285714,1174.4,533.2223214285714,538.1285714285714,1275.2,533.2223214285714,538.1285714285714,1385.2,533.2223214285714,538.1285714285714,1496.7,533.2223214285714,538.1285714285714,1604.1,806.2223214285714,360.12857142857143,1716.4,895.2223214285714,334.12857142857143,1823.8,895.2223214285714,334.12857142857143,1928.1,895.2223214285714,334.12857142857143,2039.3,895.2223214285714,334.12857142857143,2140.4,895.2223214285714,334.12857142857143,2241.5,895.2223214285714,334.12857142857143,2346.2,895.2223214285714,334.12857142857143,2450.2,895.2223214285714,334.12857142857143,2551.7,895.2223214285714,334.12857142857143,2651.8,895.2223214285714,334.12857142857143,2757.4,895.2223214285714,334.12857142857143,2862.8,895.2223214285714,334.12857142857143,2967.2,895.2223214285714,334.12857142857143,3073.6,895.2223214285714,334.12857142857143,3179.4,895.2223214285714,334.12857142857143,3280.8,895.2223214285714,334.12857142857143,3393.2,895.2223214285714,334.12857142857143,3497.2,895.2223214285714,334.12857142857143,3607.2,895.2223214285714,334.12857142857143,3724.8,895.2223214285714,334.12857142857143,3832.6,895.2223214285714,334.12857142857143,3940.5,895.2223214285714,334.12857142857143,4048,895.2223214285714,334.12857142857143,4156.8,895.2223214285714,334.12857142857143,4269.8,895.2223214285714,334.12857142857143,4370.6,895.2223214285714,334.12857142857143,4472,895.2223214285714,334.12857142857143,4577.6,895.2223214285714,334.12857142857143,4690.9,895.2223214285714,334.12857142857143,4800.6,895.2223214285714,334.12857142857143,4906.1]","[1498.8,1498.8,1000,0,498.8,""oops"",""down"",""up"",""bad_move"",4992.8,3490.8,2918.7,1503.4,572.1,""oops"",""down"",""up"",""bad_move"",11332.5,6336.9,2027.4,8947.6,357.5,""oops"",""right"",""left"",""bad_move"",14774.1,3440.5,2314.4,11333.6,1126.1,""oops"",""down"",""right"",""good_move"",17911.6,3133.9,2782.4,14777.7,351.5,""smooth"",""down"",""down"",""good_move"",23905.7,5992,2234.6,21321.5,349.7,""smooth"",""down"",""down"",""good_move"",27272.3,3358.5,2993.6,23913.8,364.9,""oops"",""right"",""down"",""good_move"",34049.6,6774.5,2639.3,31055.8,354.5,""smooth"",""right"",""right"",""good_move"",38187.9,4133.9,2630.9,34054.1,1502.9,""smooth"",""down"",""down"",""good_move"",40971.1,2780,2348.3,38191.1,431.7,""oops"",""right"",""up"",""bad_move"",43547.6,2574.8,2100.3,40972.8,474.5,""oops"",""right"",""left"",""bad_move"",46298.5,2749.4,2237.2,43549.1,512.2,""oops"",""right"",""right"",""good_move"",53192.1,6892.3,2944.1,49738.6,509.4,""smooth"",""down"",""down"",""good_move"",56161.8,2959,2602.9,53202.8,356.1,""oops"",""right"",""right"",""good_move"",58756.8,2586.8,2207.1,56170,379.7,""oops"",""down"",""up"",""bad_move"",61683.5,2918.7,2367.7,58764.9,550.9,""oops"",""down"",""left"",""bad_move"",64928.9,3244.1,2439.5,61684.9,804.5,""oops"",""down"",""right"",""good_move"",74334.5,9404.2,2862.5,71109.5,362.5,""smooth"",""down"",""down"",""good_move"",77547.7,3197.8,2849.1,74349.9,348.7,""smooth"",""right"",""right"",""good_move""]"
"3738","","<div style=""width:500px;"">
  <p>What determined the result of this run?</p>
  </div>","25","html-slider-response","44","569137","0.0-7.0-1.6","205","1","2025-08-06 13:55:29","36c45c0696341be0efffe67d72a12abb","78.145.195.194","Mozilla/5.0 (Windows NT 10.0; Win64; x64) AppleWebKit/537.36 (KHTML, like Gecko) Chrome/138.0.0.0 Safari/537.36","WebKit","Chrome","138.0.0.0","Windows","10.0","https://app.prolific.com/","en-US,en;q=0.9","5cab22cd68194f001511b2d6","6877649eabb845cf142cd221","68935eb478a0e358f8ffa82c","1","5cab22cd68194f001511b2d6","1","2025-08-06T14:05:40.961Z","","","","AttribQ","","","","","","","","","","","50","","","","","","","","","","","","","","","","","","","","","","","","","","",""
"1700","","<div style=""width:500px;"">
  <p>How much control did you have over the ball?</p>
  </div>","24","html-slider-response","45","570841","0.0-7.0-2.6","205","1","2025-08-06 13:55:29","36c45c0696341be0efffe67d72a12abb","78.145.195.194","Mozilla/5.0 (Windows NT 10.0; Win64; x64) AppleWebKit/537.36 (KHTML, like Gecko) Chrome/138.0.0.0 Safari/537.36","WebKit","Chrome","138.0.0.0","Windows","10.0","https://app.prolific.com/","en-US,en;q=0.9","5cab22cd68194f001511b2d6","6877649eabb845cf142cd221","68935eb478a0e358f8ffa82c","1","5cab22cd68194f001511b2d6","1","2025-08-06T14:05:42.665Z","","","","ControlQ","","","","","","","","","","","50","","","","","","","","","","","","","","","","","","","","","","","","","","",""
"2716","","<div style=""width:500px;"">
  <p>How would you describe your current emotional state?</p>
  </div>","0","html-slider-response","46","573565","0.0-7.0-3.6","205","1","2025-08-06 13:55:29","36c45c0696341be0efffe67d72a12abb","78.145.195.194","Mozilla/5.0 (Windows NT 10.0; Win64; x64) AppleWebKit/537.36 (KHTML, like Gecko) Chrome/138.0.0.0 Safari/537.36","WebKit","Chrome","138.0.0.0","Windows","10.0","https://app.prolific.com/","en-US,en;q=0.9","5cab22cd68194f001511b2d6","6877649eabb845cf142cd221","68935eb478a0e358f8ffa82c","1","5cab22cd68194f001511b2d6","1","2025-08-06T14:05:45.389Z","","","","StressQ","","","","","","","","","","","50","","","","","","","","","","","","","","","","","","","","","","","","","","",""
"2102","","<div style=""width:500px;"">
  <p>What best describes how you currently feel?</p>
  </div>","75","html-slider-response","47","575672","0.0-7.0-4.6","205","1","2025-08-06 13:55:29","36c45c0696341be0efffe67d72a12abb","78.145.195.194","Mozilla/5.0 (Windows NT 10.0; Win64; x64) AppleWebKit/537.36 (KHTML, like Gecko) Chrome/138.0.0.0 Safari/537.36","WebKit","Chrome","138.0.0.0","Windows","10.0","https://app.prolific.com/","en-US,en;q=0.9","5cab22cd68194f001511b2d6","6877649eabb845cf142cd221","68935eb478a0e358f8ffa82c","1","5cab22cd68194f001511b2d6","1","2025-08-06T14:05:47.496Z","","","","MotivationQ","","","","","","","","","","","50","","","","","","","","","","","","","","","","","","","","","","","","","","",""
"","","","","ctl-task-cpt","48","613954","0.0-7.0-0.7","205","1","2025-08-06 13:55:29","36c45c0696341be0efffe67d72a12abb","78.145.195.194","Mozilla/5.0 (Windows NT 10.0; Win64; x64) AppleWebKit/537.36 (KHTML, like Gecko) Chrome/138.0.0.0 Safari/537.36","WebKit","Chrome","138.0.0.0","Windows","10.0","https://app.prolific.com/","en-US,en;q=0.9","5cab22cd68194f001511b2d6","6877649eabb845cf142cd221","68935eb478a0e358f8ffa82c","1","5cab22cd68194f001511b2d6","1","2025-08-06T14:06:25.778Z","","","","","","","","","","","","","","","","win-only","0","g1:NW,g2:SE","0.3","8","0","583999.7","1268.2","6284","35242","1","4","8","6","2","8","8","40","32","0.30303030303030304","1143","3000","1870","[""down"",""right""]","{""num_key_presses"":8,""num_perfect"":2,""num_errors"":0,""num_randdir"":6,""num_randdir_good_moves"":5,""num_whilered"":0,""num_whileblue"":0,""num_blue"":2,""num_good_moves"":7}","[297.22232142857143,291.12857142857143,1.7,297.22232142857143,291.12857142857143,119.5,297.22232142857143,291.12857142857143,242.5,297.22232142857143,291.12857142857143,359.9,297.22232142857143,291.12857142857143,476,442.22232142857143,413.12857142857143,583.7,562.2223214285714,577.1285714285714,706.9,562.2223214285714,579.1285714285714,818.1,562.2223214285714,579.1285714285714,921.3,562.2223214285714,578.1285714285714,1021.8,561.2223214285714,570.1285714285714,1122.8,562.2223214285714,579.1285714285714,1234.4,562.2223214285714,579.1285714285714,1354.8,562.2223214285714,579.1285714285714,1475.2,747.2223214285714,407.12857142857143,1593.3,863.2223214285714,306.12857142857143,1699.2,863.2223214285714,306.12857142857143,1815,863.2223214285714,306.12857142857143,1916.4,863.2223214285714,306.12857142857143,2021.9,863.2223214285714,306.12857142857143,2129.8,863.2223214285714,306.12857142857143,2230.5,863.2223214285714,306.12857142857143,2333.4,863.2223214285714,306.12857142857143,2452.2,863.2223214285714,306.12857142857143,2559.3,863.2223214285714,306.12857142857143,2662,863.2223214285714,306.12857142857143,2764.1,863.2223214285714,306.12857142857143,2864.6,863.2223214285714,306.12857142857143,2971.2,863.2223214285714,306.12857142857143,3099.8,863.2223214285714,306.12857142857143,3206.8,863.2223214285714,306.12857142857143,3315.9,863.2223214285714,306.12857142857143,3416.9,863.2223214285714,306.12857142857143,3521.7,863.2223214285714,306.12857142857143,3639,863.2223214285714,306.12857142857143,3746,863.2223214285714,306.12857142857143,3863.9,863.2223214285714,306.12857142857143,3984.6,863.2223214285714,306.12857142857143,4113.5,863.2223214285714,306.12857142857143,4216.3,863.2223214285714,306.12857142857143,4337.4,863.2223214285714,306.12857142857143,4446.3,863.2223214285714,306.12857142857143,4555.5,863.2223214285714,306.12857142857143,4665.7,863.2223214285714,306.12857142857143,4775.2,863.2223214285714,306.12857142857143,4890.2,863.2223214285714,306.12857142857143,4997.3]","[8361.3,8361.3,2338,5526.9,496.4,""oops"",""right"",""up"",""bad_move"",11452.1,3087.9,2064.8,8364.2,1023.1,""oops"",""right"",""down"",""good_move"",14523.2,3068.8,2693.1,11454.4,375.7,""smooth"",""right"",""right"",""good_move"",17883.4,3350,2060.7,14533.5,1289.3,""smooth"",""right"",""right"",""good_move"",20538,2653,2283.5,17885.1,369.4,""oops"",""down"",""down"",""good_move"",22858.6,2319.3,1881.2,20539.3,438.1,""oops"",""down"",""down"",""good_move"",25944.5,3084.6,2669.9,22860,414.6,""oops"",""right"",""down"",""good_move"",28635.2,2681.2,2303.4,25954,377.8,""oops"",""right"",""right"",""good_move""]"
"5713","","<div style=""width:500px;"">
  <p>What determined the result of this run?</p>
  </div>","80","html-slider-response","49","619671","0.0-7.0-1.7","205","1","2025-08-06 13:55:29","36c45c0696341be0efffe67d72a12abb","78.145.195.194","Mozilla/5.0 (Windows NT 10.0; Win64; x64) AppleWebKit/537.36 (KHTML, like Gecko) Chrome/138.0.0.0 Safari/537.36","WebKit","Chrome","138.0.0.0","Windows","10.0","https://app.prolific.com/","en-US,en;q=0.9","5cab22cd68194f001511b2d6","6877649eabb845cf142cd221","68935eb478a0e358f8ffa82c","1","5cab22cd68194f001511b2d6","1","2025-08-06T14:06:31.495Z","","","","AttribQ","","","","","","","","","","","50","","","","","","","","","","","","","","","","","","","","","","","","","","",""
"2913","","<div style=""width:500px;"">
  <p>How much control did you have over the ball?</p>
  </div>","79","html-slider-response","50","622587","0.0-7.0-2.7","205","1","2025-08-06 13:55:29","36c45c0696341be0efffe67d72a12abb","78.145.195.194","Mozilla/5.0 (Windows NT 10.0; Win64; x64) AppleWebKit/537.36 (KHTML, like Gecko) Chrome/138.0.0.0 Safari/537.36","WebKit","Chrome","138.0.0.0","Windows","10.0","https://app.prolific.com/","en-US,en;q=0.9","5cab22cd68194f001511b2d6","6877649eabb845cf142cd221","68935eb478a0e358f8ffa82c","1","5cab22cd68194f001511b2d6","1","2025-08-06T14:06:34.411Z","","","","ControlQ","","","","","","","","","","","50","","","","","","","","","","","","","","","","","","","","","","","","","","",""
"2268","","<div style=""width:500px;"">
  <p>How would you describe your current emotional state?</p>
  </div>","0","html-slider-response","51","624858","0.0-7.0-3.7","205","1","2025-08-06 13:55:29","36c45c0696341be0efffe67d72a12abb","78.145.195.194","Mozilla/5.0 (Windows NT 10.0; Win64; x64) AppleWebKit/537.36 (KHTML, like Gecko) Chrome/138.0.0.0 Safari/537.36","WebKit","Chrome","138.0.0.0","Windows","10.0","https://app.prolific.com/","en-US,en;q=0.9","5cab22cd68194f001511b2d6","6877649eabb845cf142cd221","68935eb478a0e358f8ffa82c","1","5cab22cd68194f001511b2d6","1","2025-08-06T14:06:36.683Z","","","","StressQ","","","","","","","","","","","50","","","","","","","","","","","","","","","","","","","","","","","","","","",""
"2662","","<div style=""width:500px;"">
  <p>What best describes how you currently feel?</p>
  </div>","73","html-slider-response","52","627527","0.0-7.0-4.7","205","1","2025-08-06 13:55:29","36c45c0696341be0efffe67d72a12abb","78.145.195.194","Mozilla/5.0 (Windows NT 10.0; Win64; x64) AppleWebKit/537.36 (KHTML, like Gecko) Chrome/138.0.0.0 Safari/537.36","WebKit","Chrome","138.0.0.0","Windows","10.0","https://app.prolific.com/","en-US,en;q=0.9","5cab22cd68194f001511b2d6","6877649eabb845cf142cd221","68935eb478a0e358f8ffa82c","1","5cab22cd68194f001511b2d6","1","2025-08-06T14:06:39.352Z","","","","MotivationQ","","","","","","","","","","","50","","","","","","","","","","","","","","","","","","","","","","","","","","",""
"","","","","ctl-task-cpt","53","678951","0.0-7.0-0.8","205","1","2025-08-06 13:55:29","36c45c0696341be0efffe67d72a12abb","78.145.195.194","Mozilla/5.0 (Windows NT 10.0; Win64; x64) AppleWebKit/537.36 (KHTML, like Gecko) Chrome/138.0.0.0 Safari/537.36","WebKit","Chrome","138.0.0.0","Windows","10.0","https://app.prolific.com/","en-US,en;q=0.9","5cab22cd68194f001511b2d6","6877649eabb845cf142cd221","68935eb478a0e358f8ffa82c","1","5cab22cd68194f001511b2d6","1","2025-08-06T14:07:30.775Z","","","","","","","","","","","","","","","","win-only","0","g1:NW,g2:SE","0.4","9","0","635854.1","5542.2","10557.3","48398.8","1","4","4","6","1","1","1","41","40","0.3106060606060606","1246.4","3000","2330","[""left"",""up""]","{""num_key_presses"":6,""num_perfect"":4,""num_errors"":0,""num_randdir"":2,""num_randdir_good_moves"":1,""num_whilered"":0,""num_whileblue"":0,""num_blue"":5,""num_good_moves"":5}","[295.22232142857143,300.12857142857143,1.1,295.22232142857143,300.12857142857143,116.3,295.22232142857143,300.12857142857143,231.7,295.22232142857143,300.12857142857143,333.5,295.22232142857143,300.12857142857143,440.3,45.222321428571426,142.12857142857143,551.5,37.222321428571426,106.12857142857143,658,46.222321428571426,102.12857142857143,772.4,62.222321428571426,51.128571428571426,875.1,67.22232142857143,44.128571428571426,987.1,68.22232142857143,48.128571428571426,1094.9,68.22232142857143,48.128571428571426,1199,68.22232142857143,48.128571428571426,1309,68.22232142857143,48.128571428571426,1418.6,68.22232142857143,48.128571428571426,1525.5,335.22232142857143,-18.871428571428574,1640.3,681.2223214285714,-38.871428571428574,1756.6,691.2223214285714,-32.871428571428574,1868.4,691.2223214285714,-32.871428571428574,1968.9,691.2223214285714,-32.871428571428574,2085.9,691.2223214285714,-32.871428571428574,2186.2,691.2223214285714,-32.871428571428574,2293.8,691.2223214285714,-32.871428571428574,2406.7,691.2223214285714,-32.871428571428574,2522.1,691.2223214285714,-32.871428571428574,2623.5,691.2223214285714,-32.871428571428574,2734.5,691.2223214285714,-32.871428571428574,2842.4,691.2223214285714,-32.871428571428574,2961,691.2223214285714,-32.871428571428574,3062.1,691.2223214285714,-32.871428571428574,3169.6,691.2223214285714,-32.871428571428574,3282.3,691.2223214285714,-32.871428571428574,3389.8,691.2223214285714,-32.871428571428574,3501.2,691.2223214285714,-32.871428571428574,3605.5,691.2223214285714,-32.871428571428574,3716.1,691.2223214285714,-32.871428571428574,3820.1,691.2223214285714,-32.871428571428574,3922.7,691.2223214285714,-32.871428571428574,4031.7,691.2223214285714,-32.871428571428574,4140.6,691.2223214285714,-32.871428571428574,4253.8,691.2223214285714,-32.871428571428574,4369,691.2223214285714,-32.871428571428574,4477.8,691.2223214285714,-32.871428571428574,4584,691.2223214285714,-32.871428571428574,4693,691.2223214285714,-32.871428571428574,4799.1,691.2223214285714,-32.871428571428574,4906.7]","[4161.6,4161.6,1768.1,2014.2,379.3,""smooth"",""up"",""up"",""good_move"",7598.5,3436.6,2182.4,4164,1254.2,""oops"",""left"",""up"",""good_move"",11172,3570,2943.1,7602,626.9,""smooth"",""left"",""left"",""good_move"",19057,7883.5,2877.1,15824.4,355.5,""oops"",""left"",""down"",""bad_move"",33102.1,14043.5,1990.1,30667.2,444.8,""smooth"",""up"",""up"",""good_move"",37390.8,4287.9,2303.7,33103,1984.1,""smooth"",""left"",""left"",""good_move""]"
"4899","","<div style=""width:500px;"">
  <p>What determined the result of this run?</p>
  </div>","79","html-slider-response","54","683853","0.0-7.0-1.8","205","1","2025-08-06 13:55:29","36c45c0696341be0efffe67d72a12abb","78.145.195.194","Mozilla/5.0 (Windows NT 10.0; Win64; x64) AppleWebKit/537.36 (KHTML, like Gecko) Chrome/138.0.0.0 Safari/537.36","WebKit","Chrome","138.0.0.0","Windows","10.0","https://app.prolific.com/","en-US,en;q=0.9","5cab22cd68194f001511b2d6","6877649eabb845cf142cd221","68935eb478a0e358f8ffa82c","1","5cab22cd68194f001511b2d6","1","2025-08-06T14:07:35.677Z","","","","AttribQ","","","","","","","","","","","50","","","","","","","","","","","","","","","","","","","","","","","","","","",""
"2865","","<div style=""width:500px;"">
  <p>How much control did you have over the ball?</p>
  </div>","82","html-slider-response","55","686724","0.0-7.0-2.8","205","1","2025-08-06 13:55:29","36c45c0696341be0efffe67d72a12abb","78.145.195.194","Mozilla/5.0 (Windows NT 10.0; Win64; x64) AppleWebKit/537.36 (KHTML, like Gecko) Chrome/138.0.0.0 Safari/537.36","WebKit","Chrome","138.0.0.0","Windows","10.0","https://app.prolific.com/","en-US,en;q=0.9","5cab22cd68194f001511b2d6","6877649eabb845cf142cd221","68935eb478a0e358f8ffa82c","1","5cab22cd68194f001511b2d6","1","2025-08-06T14:07:38.548Z","","","","ControlQ","","","","","","","","","","","50","","","","","","","","","","","","","","","","","","","","","","","","","","",""
"3070","","<div style=""width:500px;"">
  <p>How would you describe your current emotional state?</p>
  </div>","0","html-slider-response","56","689797","0.0-7.0-3.8","205","1","2025-08-06 13:55:29","36c45c0696341be0efffe67d72a12abb","78.145.195.194","Mozilla/5.0 (Windows NT 10.0; Win64; x64) AppleWebKit/537.36 (KHTML, like Gecko) Chrome/138.0.0.0 Safari/537.36","WebKit","Chrome","138.0.0.0","Windows","10.0","https://app.prolific.com/","en-US,en;q=0.9","5cab22cd68194f001511b2d6","6877649eabb845cf142cd221","68935eb478a0e358f8ffa82c","1","5cab22cd68194f001511b2d6","1","2025-08-06T14:07:41.621Z","","","","StressQ","","","","","","","","","","","50","","","","","","","","","","","","","","","","","","","","","","","","","","",""
"2376","","<div style=""width:500px;"">
  <p>What best describes how you currently feel?</p>
  </div>","77","html-slider-response","57","692178","0.0-7.0-4.8","205","1","2025-08-06 13:55:29","36c45c0696341be0efffe67d72a12abb","78.145.195.194","Mozilla/5.0 (Windows NT 10.0; Win64; x64) AppleWebKit/537.36 (KHTML, like Gecko) Chrome/138.0.0.0 Safari/537.36","WebKit","Chrome","138.0.0.0","Windows","10.0","https://app.prolific.com/","en-US,en;q=0.9","5cab22cd68194f001511b2d6","6877649eabb845cf142cd221","68935eb478a0e358f8ffa82c","1","5cab22cd68194f001511b2d6","1","2025-08-06T14:07:44.002Z","","","","MotivationQ","","","","","","","","","","","50","","","","","","","","","","","","","","","","","","","","","","","","","","",""
"","","","","ctl-task-cpt","58","755044","0.0-7.0-0.9","205","1","2025-08-06 13:55:29","36c45c0696341be0efffe67d72a12abb","78.145.195.194","Mozilla/5.0 (Windows NT 10.0; Win64; x64) AppleWebKit/537.36 (KHTML, like Gecko) Chrome/138.0.0.0 Safari/537.36","WebKit","Chrome","138.0.0.0","Windows","10.0","https://app.prolific.com/","en-US,en;q=0.9","5cab22cd68194f001511b2d6","6877649eabb845cf142cd221","68935eb478a0e358f8ffa82c","1","5cab22cd68194f001511b2d6","1","2025-08-06T14:08:46.868Z","","","","","","","","","","","","","","","","win-only","1","g1:NE,g2:SW","0.5","10","0","700504.7","1222.3","6247.4","59825.7","1","4","8","6","1","1","1","42","41","0.3181818181818182","1320.1","3000","1620","[""up"",""right""]","{""num_key_presses"":12,""num_perfect"":7,""num_errors"":0,""num_randdir"":5,""num_randdir_good_moves"":1,""num_whilered"":0,""num_whileblue"":0,""num_blue"":4,""num_good_moves"":8}","[294.22232142857143,301.12857142857143,1.9,294.22232142857143,301.12857142857143,100.4,294.22232142857143,301.12857142857143,210.1,294.22232142857143,301.12857142857143,318,294.22232142857143,301.12857142857143,424.6,294.22232142857143,301.12857142857143,531.8,314.22232142857143,289.12857142857143,650.4,416.22232142857143,211.12857142857143,776.2,503.22232142857143,112.12857142857143,905.8,551.2223214285714,67.12857142857143,1021.8,553.2223214285714,66.12857142857143,1140,553.2223214285714,66.12857142857143,1251.9,553.2223214285714,66.12857142857143,1367.4,553.2223214285714,66.12857142857143,1478.4,553.2223214285714,66.12857142857143,1594.9,594.2223214285714,77.12857142857143,1696.5,774.2223214285714,121.12857142857143,1805.7,816.2223214285714,124.12857142857143,1916.3,816.2223214285714,124.12857142857143,2018.4,816.2223214285714,124.12857142857143,2126,816.2223214285714,124.12857142857143,2245.3,816.2223214285714,124.12857142857143,2355.8,816.2223214285714,124.12857142857143,2478.2,816.2223214285714,124.12857142857143,2596.8,816.2223214285714,124.12857142857143,2701.6,816.2223214285714,124.12857142857143,2810.5,816.2223214285714,124.12857142857143,2938.6,816.2223214285714,124.12857142857143,3060.2,816.2223214285714,124.12857142857143,3184,816.2223214285714,124.12857142857143,3302.6,816.2223214285714,124.12857142857143,3410.6,816.2223214285714,124.12857142857143,3531.2,816.2223214285714,124.12857142857143,3632,816.2223214285714,124.12857142857143,3751.6,816.2223214285714,124.12857142857143,3873,816.2223214285714,124.12857142857143,3989.4,816.2223214285714,124.12857142857143,4095.1,816.2223214285714,124.12857142857143,4203.3,816.2223214285714,124.12857142857143,4325.2,816.2223214285714,124.12857142857143,4425.5,816.2223214285714,124.12857142857143,4550.7,816.2223214285714,124.12857142857143,4667.7,816.2223214285714,124.12857142857143,4794.8,816.2223214285714,124.12857142857143,4894.9,816.2223214285714,124.12857142857143,4997.2]","[4862.7,4862.8,2255.1,2047.2,560.5,""smooth"",""up"",""up"",""good_move"",8408.8,3544.7,2315.5,4864.1,1229.2,""oops"",""right"",""left"",""bad_move"",12427,4016.5,1912.6,8410.5,2103.9,""smooth"",""right"",""right"",""good_move"",18431,5995.9,2512.2,15354.7,564.2,""smooth"",""right"",""right"",""good_move"",21581.1,3144.5,2639.7,18436.6,504.8,""smooth"",""up"",""up"",""good_move"",29977.9,8393.5,2950,26493.9,534,""oops"",""right"",""down"",""bad_move"",33060.8,3079.1,2541.7,29981.8,537.4,""smooth"",""up"",""up"",""good_move"",39694.4,6632.1,2003.4,37233.7,457.3,""oops"",""right"",""left"",""bad_move"",43275.8,3578.3,2841.3,39697.5,737,""oops"",""right"",""left"",""bad_move"",47058.4,3774.3,2285.7,43284.1,1488.6,""oops"",""right"",""right"",""good_move"",50340.1,3275.6,2648,47064.6,627.6,""smooth"",""right"",""right"",""good_move"",53101.1,2759.3,2337.6,50341.8,421.7,""smooth"",""right"",""right"",""good_move""]"
"6907","","<div style=""width:500px;"">
  <p>What determined the result of this run?</p>
  </div>","86","html-slider-response","59","761954","0.0-7.0-1.9","205","1","2025-08-06 13:55:29","36c45c0696341be0efffe67d72a12abb","78.145.195.194","Mozilla/5.0 (Windows NT 10.0; Win64; x64) AppleWebKit/537.36 (KHTML, like Gecko) Chrome/138.0.0.0 Safari/537.36","WebKit","Chrome","138.0.0.0","Windows","10.0","https://app.prolific.com/","en-US,en;q=0.9","5cab22cd68194f001511b2d6","6877649eabb845cf142cd221","68935eb478a0e358f8ffa82c","1","5cab22cd68194f001511b2d6","1","2025-08-06T14:08:53.778Z","","","","AttribQ","","","","","","","","","","","50","","","","","","","","","","","","","","","","","","","","","","","","","","",""
"2389","","<div style=""width:500px;"">
  <p>How much control did you have over the ball?</p>
  </div>","87","html-slider-response","60","764346","0.0-7.0-2.9","205","1","2025-08-06 13:55:29","36c45c0696341be0efffe67d72a12abb","78.145.195.194","Mozilla/5.0 (Windows NT 10.0; Win64; x64) AppleWebKit/537.36 (KHTML, like Gecko) Chrome/138.0.0.0 Safari/537.36","WebKit","Chrome","138.0.0.0","Windows","10.0","https://app.prolific.com/","en-US,en;q=0.9","5cab22cd68194f001511b2d6","6877649eabb845cf142cd221","68935eb478a0e358f8ffa82c","1","5cab22cd68194f001511b2d6","1","2025-08-06T14:08:56.170Z","","","","ControlQ","","","","","","","","","","","50","","","","","","","","","","","","","","","","","","","","","","","","","","",""
"5090","","<div style=""width:500px;"">
  <p>How would you describe your current emotional state?</p>
  </div>","0","html-slider-response","61","769441","0.0-7.0-3.9","205","1","2025-08-06 13:55:29","36c45c0696341be0efffe67d72a12abb","78.145.195.194","Mozilla/5.0 (Windows NT 10.0; Win64; x64) AppleWebKit/537.36 (KHTML, like Gecko) Chrome/138.0.0.0 Safari/537.36","WebKit","Chrome","138.0.0.0","Windows","10.0","https://app.prolific.com/","en-US,en;q=0.9","5cab22cd68194f001511b2d6","6877649eabb845cf142cd221","68935eb478a0e358f8ffa82c","1","5cab22cd68194f001511b2d6","1","2025-08-06T14:09:01.265Z","","","","StressQ","","","","","","","","","","","50","","","","","","","","","","","","","","","","","","","","","","","","","","",""
"7175","","<div style=""width:500px;"">
  <p>What best describes how you currently feel?</p>
  </div>","81","html-slider-response","62","776621","0.0-7.0-4.9","205","1","2025-08-06 13:55:29","36c45c0696341be0efffe67d72a12abb","78.145.195.194","Mozilla/5.0 (Windows NT 10.0; Win64; x64) AppleWebKit/537.36 (KHTML, like Gecko) Chrome/138.0.0.0 Safari/537.36","WebKit","Chrome","138.0.0.0","Windows","10.0","https://app.prolific.com/","en-US,en;q=0.9","5cab22cd68194f001511b2d6","6877649eabb845cf142cd221","68935eb478a0e358f8ffa82c","1","5cab22cd68194f001511b2d6","1","2025-08-06T14:09:08.445Z","","","","MotivationQ","","","","","","","","","","","50","","","","","","","","","","","","","","","","","","","","","","","","","","",""
"","","","","ctl-task-cpt","63","853238","0.0-7.0-0.10","205","1","2025-08-06 13:55:29","36c45c0696341be0efffe67d72a12abb","78.145.195.194","Mozilla/5.0 (Windows NT 10.0; Win64; x64) AppleWebKit/537.36 (KHTML, like Gecko) Chrome/138.0.0.0 Safari/537.36","WebKit","Chrome","138.0.0.0","Windows","10.0","https://app.prolific.com/","en-US,en;q=0.9","5cab22cd68194f001511b2d6","6877649eabb845cf142cd221","68935eb478a0e358f8ffa82c","1","5cab22cd68194f001511b2d6","1","2025-08-06T14:10:25.063Z","","","","","","","","","","","","","","","","win-only","0","g1:NW,g2:SE","0.6","11","0","784947.1","1760","6784.7","73588.8","1","4","8","6","2","8","8","50","42","0.3787878787878788","1094.8","3000","1325","[""down"",""right""]","{""num_key_presses"":14,""num_perfect"":9,""num_errors"":0,""num_randdir"":5,""num_randdir_good_moves"":1,""num_whilered"":0,""num_whileblue"":0,""num_blue"":5,""num_good_moves"":10}","[299.22232142857143,293.12857142857143,2.9,299.22232142857143,293.12857142857143,118.1,299.22232142857143,293.12857142857143,228.6,299.22232142857143,293.12857142857143,329.2,299.22232142857143,293.12857142857143,444.6,333.22232142857143,307.12857142857143,555.5,568.2223214285714,555.1285714285714,659.4,576.2223214285714,575.1285714285714,771.4,571.2223214285714,569.1285714285714,886,537.2223214285714,538.1285714285714,994.4,537.2223214285714,538.1285714285714,1101.6,537.2223214285714,538.1285714285714,1209.5,537.2223214285714,538.1285714285714,1319.4,571.2223214285714,511.12857142857143,1421.1,779.2223214285714,364.12857142857143,1521.2,845.2223214285714,330.12857142857143,1637.5,845.2223214285714,330.12857142857143,1753.8,845.2223214285714,330.12857142857143,1857.1,845.2223214285714,330.12857142857143,1973.3,845.2223214285714,330.12857142857143,2089.3,845.2223214285714,330.12857142857143,2208.5,845.2223214285714,330.12857142857143,2308.5,845.2223214285714,330.12857142857143,2410.5,845.2223214285714,330.12857142857143,2510.5,845.2223214285714,330.12857142857143,2612.1,845.2223214285714,330.12857142857143,2732.2,845.2223214285714,330.12857142857143,2835.1,845.2223214285714,330.12857142857143,2936.8,845.2223214285714,330.12857142857143,3036.9,845.2223214285714,330.12857142857143,3149.2,845.2223214285714,330.12857142857143,3256.1,845.2223214285714,330.12857142857143,3356.2,845.2223214285714,330.12857142857143,3457,845.2223214285714,330.12857142857143,3557.5,845.2223214285714,330.12857142857143,3667,845.2223214285714,330.12857142857143,3769.6,845.2223214285714,330.12857142857143,3876.9,845.2223214285714,330.12857142857143,3979.3,845.2223214285714,330.12857142857143,4082.1,845.2223214285714,330.12857142857143,4185.6,845.2223214285714,330.12857142857143,4291.9,845.2223214285714,330.12857142857143,4397.4,845.2223214285714,330.12857142857143,4501.8,845.2223214285714,330.12857142857143,4620.3,845.2223214285714,330.12857142857143,4725.8,845.2223214285714,330.12857142857143,4827,845.2223214285714,330.12857142857143,4933.4]","[5067.5,5067.5,2597.4,2031.8,438.3,""oops"",""right"",""up"",""bad_move"",12769.7,7692.9,2586.9,9352.7,830.1,""oops"",""right"",""left"",""bad_move"",17482.3,4711,2478.4,12771.3,2232.6,""smooth"",""right"",""right"",""good_move"",21025.6,3540.8,2959,17484.9,581.8,""oops"",""down"",""up"",""bad_move"",24791.7,3764.3,2430.1,21027.4,1334.2,""oops"",""down"",""right"",""good_move"",28620.8,3824.7,3389.1,24796.8,435.6,""smooth"",""down"",""down"",""good_move"",31673.6,3050,2597.4,28623.7,452.5,""smooth"",""down"",""down"",""good_move"",39826.5,8151.4,3644.8,35602.8,578.9,""smooth"",""down"",""down"",""good_move"",46065.3,6237.8,2481.1,43182.5,401.7,""smooth"",""down"",""down"",""good_move"",48693.5,2627.3,2087.6,46066.2,539.7,""smooth"",""right"",""right"",""good_move"",52173.2,3466.6,2742.9,48706.6,723.8,""smooth"",""down"",""down"",""good_move"",55740.1,3565.6,2930,52174.5,635.6,""oops"",""right"",""up"",""bad_move"",59662.6,3920.8,2592.2,55741.8,1328.6,""smooth"",""right"",""right"",""good_move"",66267.2,6590,2705.9,63122.8,438.5,""smooth"",""down"",""down"",""good_move""]"
"4363","","<div style=""width:500px;"">
  <p>What determined the result of this run?</p>
  </div>","74","html-slider-response","64","857604","0.0-7.0-1.10","205","1","2025-08-06 13:55:29","36c45c0696341be0efffe67d72a12abb","78.145.195.194","Mozilla/5.0 (Windows NT 10.0; Win64; x64) AppleWebKit/537.36 (KHTML, like Gecko) Chrome/138.0.0.0 Safari/537.36","WebKit","Chrome","138.0.0.0","Windows","10.0","https://app.prolific.com/","en-US,en;q=0.9","5cab22cd68194f001511b2d6","6877649eabb845cf142cd221","68935eb478a0e358f8ffa82c","1","5cab22cd68194f001511b2d6","1","2025-08-06T14:10:29.429Z","","","","AttribQ","","","","","","","","","","","50","","","","","","","","","","","","","","","","","","","","","","","","","","",""
"2138","","<div style=""width:500px;"">
  <p>How much control did you have over the ball?</p>
  </div>","77","html-slider-response","65","859747","0.0-7.0-2.10","205","1","2025-08-06 13:55:29","36c45c0696341be0efffe67d72a12abb","78.145.195.194","Mozilla/5.0 (Windows NT 10.0; Win64; x64) AppleWebKit/537.36 (KHTML, like Gecko) Chrome/138.0.0.0 Safari/537.36","WebKit","Chrome","138.0.0.0","Windows","10.0","https://app.prolific.com/","en-US,en;q=0.9","5cab22cd68194f001511b2d6","6877649eabb845cf142cd221","68935eb478a0e358f8ffa82c","1","5cab22cd68194f001511b2d6","1","2025-08-06T14:10:31.571Z","","","","ControlQ","","","","","","","","","","","50","","","","","","","","","","","","","","","","","","","","","","","","","","",""
"2221","","<div style=""width:500px;"">
  <p>How would you describe your current emotional state?</p>
  </div>","0","html-slider-response","66","861976","0.0-7.0-3.10","205","1","2025-08-06 13:55:29","36c45c0696341be0efffe67d72a12abb","78.145.195.194","Mozilla/5.0 (Windows NT 10.0; Win64; x64) AppleWebKit/537.36 (KHTML, like Gecko) Chrome/138.0.0.0 Safari/537.36","WebKit","Chrome","138.0.0.0","Windows","10.0","https://app.prolific.com/","en-US,en;q=0.9","5cab22cd68194f001511b2d6","6877649eabb845cf142cd221","68935eb478a0e358f8ffa82c","1","5cab22cd68194f001511b2d6","1","2025-08-06T14:10:33.800Z","","","","StressQ","","","","","","","","","","","50","","","","","","","","","","","","","","","","","","","","","","","","","","",""
"2677","","<div style=""width:500px;"">
  <p>What best describes how you currently feel?</p>
  </div>","77","html-slider-response","67","864656","0.0-7.0-4.10","205","1","2025-08-06 13:55:29","36c45c0696341be0efffe67d72a12abb","78.145.195.194","Mozilla/5.0 (Windows NT 10.0; Win64; x64) AppleWebKit/537.36 (KHTML, like Gecko) Chrome/138.0.0.0 Safari/537.36","WebKit","Chrome","138.0.0.0","Windows","10.0","https://app.prolific.com/","en-US,en;q=0.9","5cab22cd68194f001511b2d6","6877649eabb845cf142cd221","68935eb478a0e358f8ffa82c","1","5cab22cd68194f001511b2d6","1","2025-08-06T14:10:36.480Z","","","","MotivationQ","","","","","","","","","","","50","","","","","","","","","","","","","","","","","","","","","","","","","","",""
"","","","","ctl-task-cpt","68","903729","0.0-7.0-0.11","205","1","2025-08-06 13:55:29","36c45c0696341be0efffe67d72a12abb","78.145.195.194","Mozilla/5.0 (Windows NT 10.0; Win64; x64) AppleWebKit/537.36 (KHTML, like Gecko) Chrome/138.0.0.0 Safari/537.36","WebKit","Chrome","138.0.0.0","Windows","10.0","https://app.prolific.com/","en-US,en;q=0.9","5cab22cd68194f001511b2d6","6877649eabb845cf142cd221","68935eb478a0e358f8ffa82c","1","5cab22cd68194f001511b2d6","1","2025-08-06T14:11:15.554Z","","","","","","","","","","","","","","","","win-only","0","g1:NW,g2:SE","0.7","12","0","872982.5","1442.1","6461.1","36019.6","1","4","4","6","2","4","4","54","50","0.4090909090909091","878.5","3000","2120","[""down"",""right""]","{""num_key_presses"":8,""num_perfect"":5,""num_errors"":0,""num_randdir"":3,""num_randdir_good_moves"":2,""num_whilered"":0,""num_whileblue"":0,""num_blue"":1,""num_good_moves"":7}","[289.22232142857143,297.12857142857143,1.2,289.22232142857143,297.12857142857143,119.8,289.22232142857143,297.12857142857143,242,289.22232142857143,297.12857142857143,345.8,289.22232142857143,297.12857142857143,446.2,523.2223214285714,498.12857142857143,571.4,554.2223214285714,525.1285714285714,687.3,554.2223214285714,526.1285714285714,811.2,554.2223214285714,526.1285714285714,915.8,554.2223214285714,526.1285714285714,1025.2,574.2223214285714,510.12857142857143,1140.2,722.2223214285714,433.12857142857143,1264.2,784.2223214285714,404.12857142857143,1389.1,784.2223214285714,404.12857142857143,1504.3,784.2223214285714,404.12857142857143,1616.3,784.2223214285714,404.12857142857143,1730.2,784.2223214285714,404.12857142857143,1850.3,784.2223214285714,404.12857142857143,1968.2,784.2223214285714,404.12857142857143,2076.9,784.2223214285714,404.12857142857143,2190.1,784.2223214285714,404.12857142857143,2312,784.2223214285714,404.12857142857143,2433.3,784.2223214285714,404.12857142857143,2547.6,784.2223214285714,404.12857142857143,2669.9,784.2223214285714,404.12857142857143,2778.8,784.2223214285714,404.12857142857143,2879.9,784.2223214285714,404.12857142857143,2998.2,784.2223214285714,404.12857142857143,3104.2,784.2223214285714,404.12857142857143,3224.9,784.2223214285714,404.12857142857143,3327.2,784.2223214285714,404.12857142857143,3427.4,784.2223214285714,404.12857142857143,3528.5,784.2223214285714,404.12857142857143,3630.7,784.2223214285714,404.12857142857143,3748,784.2223214285714,404.12857142857143,3865.4,784.2223214285714,404.12857142857143,3988.7,784.2223214285714,404.12857142857143,4094.5,784.2223214285714,404.12857142857143,4219.6,784.2223214285714,404.12857142857143,4337.7,784.2223214285714,404.12857142857143,4438.5,784.2223214285714,404.12857142857143,4566.5,784.2223214285714,404.12857142857143,4673.1,784.2223214285714,404.12857142857143,4788.4,784.2223214285714,404.12857142857143,4904.6]","[1615.4,1615.5,1000,0,615.5,""oops"",""right"",""left"",""bad_move"",7222.6,5605.8,2599.2,1616.8,3006.6,""smooth"",""right"",""right"",""good_move"",10309.7,3085,2243,7224.8,841.9,""smooth"",""right"",""right"",""good_move"",16997.4,6686.2,2407.1,14081,509.3,""smooth"",""right"",""right"",""good_move"",19731.9,2732.9,2178.4,16999.1,554.4,""smooth"",""right"",""right"",""good_move"",22837.2,3094.4,2627.9,19742.8,466.5,""smooth"",""down"",""down"",""good_move"",25913,3074.2,2620.4,22838.8,453.8,""oops"",""down"",""down"",""good_move"",28931.3,3010.3,2492,25921.1,518.3,""oops"",""down"",""down"",""good_move""]"
"82733","","<div style=""width:500px;"">
  <p>What determined the result of this run?</p>
  </div>","89","html-slider-response","69","986468","0.0-7.0-1.11","205","1","2025-08-06 13:55:29","36c45c0696341be0efffe67d72a12abb","78.145.195.194","Mozilla/5.0 (Windows NT 10.0; Win64; x64) AppleWebKit/537.36 (KHTML, like Gecko) Chrome/138.0.0.0 Safari/537.36","WebKit","Chrome","138.0.0.0","Windows","10.0","https://app.prolific.com/","en-US,en;q=0.9","5cab22cd68194f001511b2d6","6877649eabb845cf142cd221","68935eb478a0e358f8ffa82c","1","5cab22cd68194f001511b2d6","1","2025-08-06T14:12:38.293Z","","","","AttribQ","","","","","","","","","","","50","","","","","","","","","","","","","","","","","","","","","","","","","","",""
"2010","","<div style=""width:500px;"">
  <p>How much control did you have over the ball?</p>
  </div>","88","html-slider-response","70","988481","0.0-7.0-2.11","205","1","2025-08-06 13:55:29","36c45c0696341be0efffe67d72a12abb","78.145.195.194","Mozilla/5.0 (Windows NT 10.0; Win64; x64) AppleWebKit/537.36 (KHTML, like Gecko) Chrome/138.0.0.0 Safari/537.36","WebKit","Chrome","138.0.0.0","Windows","10.0","https://app.prolific.com/","en-US,en;q=0.9","5cab22cd68194f001511b2d6","6877649eabb845cf142cd221","68935eb478a0e358f8ffa82c","1","5cab22cd68194f001511b2d6","1","2025-08-06T14:12:40.306Z","","","","ControlQ","","","","","","","","","","","50","","","","","","","","","","","","","","","","","","","","","","","","","","",""
"2198","","<div style=""width:500px;"">
  <p>How would you describe your current emotional state?</p>
  </div>","0","html-slider-response","71","990683","0.0-7.0-3.11","205","1","2025-08-06 13:55:29","36c45c0696341be0efffe67d72a12abb","78.145.195.194","Mozilla/5.0 (Windows NT 10.0; Win64; x64) AppleWebKit/537.36 (KHTML, like Gecko) Chrome/138.0.0.0 Safari/537.36","WebKit","Chrome","138.0.0.0","Windows","10.0","https://app.prolific.com/","en-US,en;q=0.9","5cab22cd68194f001511b2d6","6877649eabb845cf142cd221","68935eb478a0e358f8ffa82c","1","5cab22cd68194f001511b2d6","1","2025-08-06T14:12:42.507Z","","","","StressQ","","","","","","","","","","","50","","","","","","","","","","","","","","","","","","","","","","","","","","",""
"1976","","<div style=""width:500px;"">
  <p>What best describes how you currently feel?</p>
  </div>","79","html-slider-response","72","992663","0.0-7.0-4.11","205","1","2025-08-06 13:55:29","36c45c0696341be0efffe67d72a12abb","78.145.195.194","Mozilla/5.0 (Windows NT 10.0; Win64; x64) AppleWebKit/537.36 (KHTML, like Gecko) Chrome/138.0.0.0 Safari/537.36","WebKit","Chrome","138.0.0.0","Windows","10.0","https://app.prolific.com/","en-US,en;q=0.9","5cab22cd68194f001511b2d6","6877649eabb845cf142cd221","68935eb478a0e358f8ffa82c","1","5cab22cd68194f001511b2d6","1","2025-08-06T14:12:44.488Z","","","","MotivationQ","","","","","","","","","","","50","","","","","","","","","","","","","","","","","","","","","","","","","","",""
"","","","","ctl-task-cpt","73","1044513","0.0-7.0-0.12","205","1","2025-08-06 13:55:29","36c45c0696341be0efffe67d72a12abb","78.145.195.194","Mozilla/5.0 (Windows NT 10.0; Win64; x64) AppleWebKit/537.36 (KHTML, like Gecko) Chrome/138.0.0.0 Safari/537.36","WebKit","Chrome","138.0.0.0","Windows","10.0","https://app.prolific.com/","en-US,en;q=0.9","5cab22cd68194f001511b2d6","6877649eabb845cf142cd221","68935eb478a0e358f8ffa82c","1","5cab22cd68194f001511b2d6","1","2025-08-06T14:13:36.337Z","","","","","","","","","","","","","","","","win-only","2","g1:SE,g2:NW","0.8","13","0","1000990.6","1559.7","6569.1","48818.2","1","4","8","6","2","8","8","62","54","0.4696969696969697","1012.5","3000","2160","[""left"",""up""]","{""num_key_presses"":8,""num_perfect"":7,""num_errors"":0,""num_randdir"":1,""num_randdir_good_moves"":0,""num_whilered"":0,""num_whileblue"":0,""num_blue"":2,""num_good_moves"":7}","[296.22232142857143,297.12857142857143,1.3,296.22232142857143,297.12857142857143,123.3,296.22232142857143,297.12857142857143,244,296.22232142857143,297.12857142857143,368.7,278.22232142857143,287.12857142857143,479.8,115.22232142857143,25.128571428571426,607.6,99.22232142857143,22.128571428571426,721.7,84.22232142857143,61.128571428571426,841.4,70.22232142857143,61.128571428571426,954.4,69.22232142857143,61.128571428571426,1054.8,69.22232142857143,61.128571428571426,1184.2,69.22232142857143,61.128571428571426,1310.3,140.22232142857143,150.12857142857143,1435.6,423.22232142857143,155.12857142857143,1552.9,808.2223214285714,66.12857142857143,1669.7,916.2223214285714,110.12857142857143,1784,945.2223214285714,124.12857142857143,1886.3,945.2223214285714,134.12857142857143,2003.1,945.2223214285714,134.12857142857143,2106.3,945.2223214285714,134.12857142857143,2221.7,945.2223214285714,134.12857142857143,2326.7,945.2223214285714,134.12857142857143,2437.7,945.2223214285714,134.12857142857143,2542.8,945.2223214285714,134.12857142857143,2652.5,945.2223214285714,134.12857142857143,2760.6,945.2223214285714,134.12857142857143,2882.2,945.2223214285714,134.12857142857143,2984.2,945.2223214285714,134.12857142857143,3118.2,945.2223214285714,134.12857142857143,3238.5,945.2223214285714,134.12857142857143,3339.7,945.2223214285714,134.12857142857143,3460.6,945.2223214285714,134.12857142857143,3563.7,945.2223214285714,134.12857142857143,3685.2,945.2223214285714,134.12857142857143,3800.8,945.2223214285714,134.12857142857143,3922.3,945.2223214285714,134.12857142857143,4043.3,945.2223214285714,134.12857142857143,4159.6,945.2223214285714,134.12857142857143,4285.6,945.2223214285714,134.12857142857143,4389.1,945.2223214285714,134.12857142857143,4496.4,945.2223214285714,134.12857142857143,4599.7,945.2223214285714,134.12857142857143,4722.6,945.2223214285714,134.12857142857143,4823.1,945.2223214285714,134.12857142857143,4929.1]","[1594,1594,1000,0,594,""smooth"",""up"",""up"",""good_move"",7276.3,5678,2091.7,1598.3,3586.3,""smooth"",""left"",""left"",""good_move"",12237,4958.9,2912.3,7278.1,2046.6,""smooth"",""up"",""up"",""good_move"",17023.2,4783.9,2387.9,12239.3,2396.1,""smooth"",""up"",""up"",""good_move"",21230.2,4193.5,1563.5,17036.8,2629.9,""oops"",""left"",""right"",""bad_move"",24274.1,3042.3,2561.3,21231.8,481,""smooth"",""left"",""left"",""good_move"",37294.6,13018.9,2859.5,33905.4,529.7,""smooth"",""left"",""left"",""good_move"",41864,4541.2,2921.6,37322.9,1619.5,""smooth"",""left"",""left"",""good_move""]"
"19247","","<div style=""width:500px;"">
  <p>What determined the result of this run?</p>
  </div>","98","html-slider-response","74","1063763","0.0-7.0-1.12","205","1","2025-08-06 13:55:29","36c45c0696341be0efffe67d72a12abb","78.145.195.194","Mozilla/5.0 (Windows NT 10.0; Win64; x64) AppleWebKit/537.36 (KHTML, like Gecko) Chrome/138.0.0.0 Safari/537.36","WebKit","Chrome","138.0.0.0","Windows","10.0","https://app.prolific.com/","en-US,en;q=0.9","5cab22cd68194f001511b2d6","6877649eabb845cf142cd221","68935eb478a0e358f8ffa82c","1","5cab22cd68194f001511b2d6","1","2025-08-06T14:13:55.588Z","","","","AttribQ","","","","","","","","","","","50","","","","","","","","","","","","","","","","","","","","","","","","","","",""
"2610","","<div style=""width:500px;"">
  <p>How much control did you have over the ball?</p>
  </div>","98","html-slider-response","75","1066377","0.0-7.0-2.12","205","1","2025-08-06 13:55:29","36c45c0696341be0efffe67d72a12abb","78.145.195.194","Mozilla/5.0 (Windows NT 10.0; Win64; x64) AppleWebKit/537.36 (KHTML, like Gecko) Chrome/138.0.0.0 Safari/537.36","WebKit","Chrome","138.0.0.0","Windows","10.0","https://app.prolific.com/","en-US,en;q=0.9","5cab22cd68194f001511b2d6","6877649eabb845cf142cd221","68935eb478a0e358f8ffa82c","1","5cab22cd68194f001511b2d6","1","2025-08-06T14:13:58.201Z","","","","ControlQ","","","","","","","","","","","50","","","","","","","","","","","","","","","","","","","","","","","","","","",""
"6732","","<div style=""width:500px;"">
  <p>How would you describe your current emotional state?</p>
  </div>","0","html-slider-response","76","1073112","0.0-7.0-3.12","205","1","2025-08-06 13:55:29","36c45c0696341be0efffe67d72a12abb","78.145.195.194","Mozilla/5.0 (Windows NT 10.0; Win64; x64) AppleWebKit/537.36 (KHTML, like Gecko) Chrome/138.0.0.0 Safari/537.36","WebKit","Chrome","138.0.0.0","Windows","10.0","https://app.prolific.com/","en-US,en;q=0.9","5cab22cd68194f001511b2d6","6877649eabb845cf142cd221","68935eb478a0e358f8ffa82c","1","5cab22cd68194f001511b2d6","1","2025-08-06T14:14:04.936Z","","","","StressQ","","","","","","","","","","","50","","","","","","","","","","","","","","","","","","","","","","","","","","",""
"2762","","<div style=""width:500px;"">
  <p>What best describes how you currently feel?</p>
  </div>","81","html-slider-response","77","1075878","0.0-7.0-4.12","205","1","2025-08-06 13:55:29","36c45c0696341be0efffe67d72a12abb","78.145.195.194","Mozilla/5.0 (Windows NT 10.0; Win64; x64) AppleWebKit/537.36 (KHTML, like Gecko) Chrome/138.0.0.0 Safari/537.36","WebKit","Chrome","138.0.0.0","Windows","10.0","https://app.prolific.com/","en-US,en;q=0.9","5cab22cd68194f001511b2d6","6877649eabb845cf142cd221","68935eb478a0e358f8ffa82c","1","5cab22cd68194f001511b2d6","1","2025-08-06T14:14:07.703Z","","","","MotivationQ","","","","","","","","","","","50","","","","","","","","","","","","","","","","","","","","","","","","","","",""
