"rt","response_timestamp","stimulus","response","trial_type","trial_index","time_elapsed","internal_node_id","run_id","condition","recorded_at","source_code_version","ip","user_agent","device","browser","browser_version","platform","platform_version","referer","accept_language","PROLIFIC_PID","STUDY_ID","SESSION_ID","BATCH","prolific_id","batch","realtime","success","question_order","question_id","eventType","responses","item_order","radio_event_ids","radio_event_times","key_event_times","mouse_event_times","straightlining","zigzagging","honeypot","view_history","slider_start","which_type","canvas_config","goals_layout","control_level","trial_number","tutorial_trial_number","trial_start_time","phase1_start_time","phase2_start_time","phase3_start_time","goal_1_value","goal_1_distance","goal_2_value","goal_2_distance","goal_selected","outcome","outcome_total","participant_final_score","participant_initial_score","participant_final_score_prop","goal_choice_rt","allocated_time","allocated_time_remaining","goal_direction","counts","mouse_movements","key_presses"
"30346","1753873296628","<p style='font-size:40px;line-height:1.25'><strong>Welcome to the experiment!</strong></p><p style='font-size:1.1em;line-height:1.25'>Thank you for participanting in our experiment again! You will be asked to play the Dysfunctional Ball Game again. We will briefly recap the rules before we start.</p><p style='font-size:1.1em;line-height:1.25'>Press <strong>Next</strong> to continue.</p>","0","custom-html-button-response","0","30348","0.0-0.0","91","1","2025-07-30 11:01:05","36c45c0696341be0efffe67d72a12abb","76.221.209.152","Mozilla/5.0 (Windows NT 10.0; Win64; x64) AppleWebKit/537.36 (KHTML, like Gecko) Chrome/138.0.0.0 Safari/537.36","WebKit","Chrome","138.0.0.0","Windows","10.0","https://app.prolific.com/","en-US,en;q=0.9,de;q=0.8,zh-TW;q=0.7,zh-CN;q=0.6,zh;q=0.5","5d617ba9364f9a0019f1dac3","683dba9a53627eb9ab41b36a","6889fb659743054e6f51c30c","0","5d617ba9364f9a0019f1dac3","0","2025-07-30T11:01:36.629Z","","","","","","","","","","","","","","","","","","","","","","","","","","","","","","","","","","","","","","","","","",""
"22661","","","","fullscreen","1","54015","0.0-1.0","91","1","2025-07-30 11:01:05","36c45c0696341be0efffe67d72a12abb","76.221.209.152","Mozilla/5.0 (Windows NT 10.0; Win64; x64) AppleWebKit/537.36 (KHTML, like Gecko) Chrome/138.0.0.0 Safari/537.36","WebKit","Chrome","138.0.0.0","Windows","10.0","https://app.prolific.com/","en-US,en;q=0.9,de;q=0.8,zh-TW;q=0.7,zh-CN;q=0.6,zh;q=0.5","5d617ba9364f9a0019f1dac3","683dba9a53627eb9ab41b36a","6889fb659743054e6f51c30c","0","5d617ba9364f9a0019f1dac3","0","","true","","","","","","","","","","","","","","","","","","","","","","","","","","","","","","","","","","","","","","","","",""
"6562","1753873326860"," <p style='font-size:1.1em;line-height:1.25'>Thank you for closing all other tabs.</p><p style='font-size:1.1em;line-height:1.25'>We will now invite you to fill in some questionnaires, before starting the game.<br>This will take about 5 minutes.<br></p><p style='font-size:1.1em;line-height:1.25'>Press the <strong>Next</strong> button to continue.</p>","0","custom-html-button-response","2","60579","0.0-2.0","91","1","2025-07-30 11:01:05","36c45c0696341be0efffe67d72a12abb","76.221.209.152","Mozilla/5.0 (Windows NT 10.0; Win64; x64) AppleWebKit/537.36 (KHTML, like Gecko) Chrome/138.0.0.0 Safari/537.36","WebKit","Chrome","138.0.0.0","Windows","10.0","https://app.prolific.com/","en-US,en;q=0.9,de;q=0.8,zh-TW;q=0.7,zh-CN;q=0.6,zh;q=0.5","5d617ba9364f9a0019f1dac3","683dba9a53627eb9ab41b36a","6889fb659743054e6f51c30c","0","5d617ba9364f9a0019f1dac3","0","2025-07-30T11:02:06.860Z","","","","","","","","","","","","","","","","","","","","","","","","","","","","","","","","","","","","","","","","","",""
"2749","","","{""assigned_sex"":""female""}","survey-multi-choice","3","63329","0.0-3.0-0.0","91","1","2025-07-30 11:01:05","36c45c0696341be0efffe67d72a12abb","76.221.209.152","Mozilla/5.0 (Windows NT 10.0; Win64; x64) AppleWebKit/537.36 (KHTML, like Gecko) Chrome/138.0.0.0 Safari/537.36","WebKit","Chrome","138.0.0.0","Windows","10.0","https://app.prolific.com/","en-US,en;q=0.9,de;q=0.8,zh-TW;q=0.7,zh-CN;q=0.6,zh;q=0.5","5d617ba9364f9a0019f1dac3","683dba9a53627eb9ab41b36a","6889fb659743054e6f51c30c","0","5d617ba9364f9a0019f1dac3","0","","","[0]","0","demographics","","","","","","","","","","","","","","","","","","","","","","","","","","","","","","","","","","","","","",""
"2069","1753873331680","<p style='font-size:1.1em;line-height:1.25'>In the following, we will perform a baseline assessment. This means that we will ask you a few questions relating to your experiences over the past month.<br></p><p style='font-size:1.1em;line-height:1.25'>Press the <strong>Next</strong> button to continue.</p>","0","custom-html-button-response","4","65400","0.0-4.0-0.0","91","1","2025-07-30 11:01:05","36c45c0696341be0efffe67d72a12abb","76.221.209.152","Mozilla/5.0 (Windows NT 10.0; Win64; x64) AppleWebKit/537.36 (KHTML, like Gecko) Chrome/138.0.0.0 Safari/537.36","WebKit","Chrome","138.0.0.0","Windows","10.0","https://app.prolific.com/","en-US,en;q=0.9,de;q=0.8,zh-TW;q=0.7,zh-CN;q=0.6,zh;q=0.5","5d617ba9364f9a0019f1dac3","683dba9a53627eb9ab41b36a","6889fb659743054e6f51c30c","0","5d617ba9364f9a0019f1dac3","0","2025-07-30T11:02:11.681Z","","","","","","","","","","","","","","","","","","","","","","","","","","","","","","","","","","","","","","","","","",""
"38275.200000047684","","","","survey-template","5","103678","0.0-4.0-1.0","91","1","2025-07-30 11:01:05","36c45c0696341be0efffe67d72a12abb","76.221.209.152","Mozilla/5.0 (Windows NT 10.0; Win64; x64) AppleWebKit/537.36 (KHTML, like Gecko) Chrome/138.0.0.0 Safari/537.36","WebKit","Chrome","138.0.0.0","Windows","10.0","https://app.prolific.com/","en-US,en;q=0.9,de;q=0.8,zh-TW;q=0.7,zh-CN;q=0.6,zh;q=0.5","5d617ba9364f9a0019f1dac3","683dba9a53627eb9ab41b36a","6889fb659743054e6f51c30c","0","5d617ba9364f9a0019f1dac3","0","2025-07-30T11:02:49.959Z","","","","pss","{""Q01"":""3"",""Q02"":""4"",""Q03"":""4"",""Q04"":""3"",""Q05"":""3"",""Q06"":""2"",""Q07"":""3"",""Q08"":""3"",""Q09"":""2"",""Q10"":""3""}","[0,1,2,3,4,5,6,7,8,9]","[""Q01"",""Q02"",""Q03"",""Q04"",""Q05"",""Q07"",""Q08"",""Q09"",""Q10"",""Q06""]","[11438,13062.299999952316,14215.200000047684,15801.799999952316,18130.799999952316,21322.400000095367,23136.5,28294.099999904633,28794.400000095367,37308.40000009537]","[]","[1.4000000953674316,11438,13062.299999952316,14215.200000047684,15801.799999952316,17278.5,18130.799999952316,19677.200000047684,21322.400000095367,23136.5,26698.299999952316,28294.099999904633,28794.400000095367,30203.099999904633,37308.40000009537,38272.09999990463]","0.4","0.5555555555555556","0","","","","","","","","","","","","","","","","","","","","","","","","","","","","",""
"6747","1753873376708","<p style='font-size:1.1em;line-height:1.25'>Thank you for your answers! Now we will ask you a few more questions relating to your feelings in the last 24 hours.<br></p><p style='font-size:1.1em;line-height:1.25'>Press the <strong>Next</strong> button to continue.</p>","0","custom-html-button-response","6","110428","0.0-4.0-2.0","91","1","2025-07-30 11:01:05","36c45c0696341be0efffe67d72a12abb","76.221.209.152","Mozilla/5.0 (Windows NT 10.0; Win64; x64) AppleWebKit/537.36 (KHTML, like Gecko) Chrome/138.0.0.0 Safari/537.36","WebKit","Chrome","138.0.0.0","Windows","10.0","https://app.prolific.com/","en-US,en;q=0.9,de;q=0.8,zh-TW;q=0.7,zh-CN;q=0.6,zh;q=0.5","5d617ba9364f9a0019f1dac3","683dba9a53627eb9ab41b36a","6889fb659743054e6f51c30c","0","5d617ba9364f9a0019f1dac3","0","2025-07-30T11:02:56.709Z","","","","","","","","","","","","","","","","","","","","","","","","","","","","","","","","","","","","","","","","","",""
"67779.20000004768","","","","survey-template","7","178211","0.0-4.0-3.0","91","1","2025-07-30 11:01:05","36c45c0696341be0efffe67d72a12abb","76.221.209.152","Mozilla/5.0 (Windows NT 10.0; Win64; x64) AppleWebKit/537.36 (KHTML, like Gecko) Chrome/138.0.0.0 Safari/537.36","WebKit","Chrome","138.0.0.0","Windows","10.0","https://app.prolific.com/","en-US,en;q=0.9,de;q=0.8,zh-TW;q=0.7,zh-CN;q=0.6,zh;q=0.5","5d617ba9364f9a0019f1dac3","683dba9a53627eb9ab41b36a","6889fb659743054e6f51c30c","0","5d617ba9364f9a0019f1dac3","0","2025-07-30T11:04:04.492Z","","","","drsp","{""Q01"":""1"",""Q02"":""3"",""Q03"":""3"",""Q04"":""4"",""Q05"":""1"",""Q06"":""2"",""Q07"":""3"",""Q08"":""1"",""Q09"":""4"",""Q10"":""3"",""Q11"":""4"",""Q12"":""0"",""Q13"":""5"",""Q14"":""0"",""Q15"":""3"",""Q16"":""3"",""Q17"":""4"",""Q18"":""1"",""Q19"":""3"",""Q20"":""3"",""Q21"":""1"",""Q22"":""2""}","[0,1,2,3,4,5,6,7,8,9,10,11,12,13,14,15,16,17,18,19,20,21]","[""Q01"",""Q02"",""Q03"",""Q04"",""Q05"",""Q06"",""Q07"",""Q08"",""Q09"",""Q10"",""Q11"",""Q12"",""Q13"",""Q14"",""Q15"",""Q16"",""Q17"",""Q18"",""Q19"",""Q19"",""Q20"",""Q21"",""Q22""]","[3221.5,4883.900000095367,6275,7847,12876.599999904633,13705.599999904633,35569.700000047684,37092,39442.59999990463,41704.09999990463,44585.799999952316,45452.700000047684,47505.09999990463,49118.09999990463,51954.90000009537,54454.09999990463,56055.09999990463,57538.5,60241.200000047684,61482,64041.700000047684,65895,67115]","[]","[1.7999999523162842,3221.5,4883.900000095367,6275,7847,11156.599999904633,11686.200000047684,12484.5,12876.599999904633,13705.599999904633,35569.700000047684,37092,39442.59999990463,41704.09999990463,43459.700000047684,43982.299999952316,44585.799999952316,45452.700000047684,46944.700000047684,47505.09999990463,49118.09999990463,51954.90000009537,54454.09999990463,56055.09999990463,57538.5,60241.200000047684,60909.90000009537,61482,64041.700000047684,65895,67115,67775.79999995232]","0.36363636363636365","0.42857142857142855","0","","","","","","","","","","","","","","","","","","","","","","","","","","","","",""
"13866.5","","","","survey-template","8","192080","0.0-4.0-4.0","91","1","2025-07-30 11:01:05","36c45c0696341be0efffe67d72a12abb","76.221.209.152","Mozilla/5.0 (Windows NT 10.0; Win64; x64) AppleWebKit/537.36 (KHTML, like Gecko) Chrome/138.0.0.0 Safari/537.36","WebKit","Chrome","138.0.0.0","Windows","10.0","https://app.prolific.com/","en-US,en;q=0.9,de;q=0.8,zh-TW;q=0.7,zh-CN;q=0.6,zh;q=0.5","5d617ba9364f9a0019f1dac3","683dba9a53627eb9ab41b36a","6889fb659743054e6f51c30c","0","5d617ba9364f9a0019f1dac3","0","2025-07-30T11:04:18.361Z","","","","stress","{""Q01"":""3"",""Q02"":""5"",""Q03"":""4""}","[0,1,2]","[""Q01"",""Q02"",""Q03""]","[9190.100000143051,10378.400000095367,13122.300000190735]","[]","[9190.100000143051,10378.400000095367,11446.300000190735,12010.5,12566.900000095367,13122.300000190735,13866]","0.3333333333333333","0","0","","","","","","","","","","","","","","","","","","","","","","","","","","","","",""
"39470","","","","instructions","9","231551","0.0-5.0-0.0","91","1","2025-07-30 11:01:05","36c45c0696341be0efffe67d72a12abb","76.221.209.152","Mozilla/5.0 (Windows NT 10.0; Win64; x64) AppleWebKit/537.36 (KHTML, like Gecko) Chrome/138.0.0.0 Safari/537.36","WebKit","Chrome","138.0.0.0","Windows","10.0","https://app.prolific.com/","en-US,en;q=0.9,de;q=0.8,zh-TW;q=0.7,zh-CN;q=0.6,zh;q=0.5","5d617ba9364f9a0019f1dac3","683dba9a53627eb9ab41b36a","6889fb659743054e6f51c30c","0","5d617ba9364f9a0019f1dac3","0","","","","","","","","","","","","","","","[{""page_index"":0,""viewing_time"":39470}]","","","","","","","","","","","","","","","","","","","","","","","","","","","",""
"16616","","<p>Before you start with this game please answer the following three questions yourself. </p>
  <p>Through this game, we measure several aspects of your cognitive performance, such as reaction times, multi-tasking capabilities </p>
  <p>and the ability to assess the situation you are in.</p>
  <p></p>
  <p><b>How good do you usually are in such tasks?</b></p>","0","html-slider-response","10","248169","0.0-6.0-0.0","91","1","2025-07-30 11:01:05","36c45c0696341be0efffe67d72a12abb","76.221.209.152","Mozilla/5.0 (Windows NT 10.0; Win64; x64) AppleWebKit/537.36 (KHTML, like Gecko) Chrome/138.0.0.0 Safari/537.36","WebKit","Chrome","138.0.0.0","Windows","10.0","https://app.prolific.com/","en-US,en;q=0.9,de;q=0.8,zh-TW;q=0.7,zh-CN;q=0.6,zh;q=0.5","5d617ba9364f9a0019f1dac3","683dba9a53627eb9ab41b36a","6889fb659743054e6f51c30c","0","5d617ba9364f9a0019f1dac3","0","2025-07-30T11:05:14.450Z","","","","PreSkillQ","","","","","","","","","","","50","","","","","","","","","","","","","","","","","","","","","","","","","","",""
"2304","","<div style=""width:500px;"">
  <p>How well do you think you will perform in this task compared to other participants?</p>
  </div>","0","html-slider-response","11","250475","0.0-6.0-1.0","91","1","2025-07-30 11:01:05","36c45c0696341be0efffe67d72a12abb","76.221.209.152","Mozilla/5.0 (Windows NT 10.0; Win64; x64) AppleWebKit/537.36 (KHTML, like Gecko) Chrome/138.0.0.0 Safari/537.36","WebKit","Chrome","138.0.0.0","Windows","10.0","https://app.prolific.com/","en-US,en;q=0.9,de;q=0.8,zh-TW;q=0.7,zh-CN;q=0.6,zh;q=0.5","5d617ba9364f9a0019f1dac3","683dba9a53627eb9ab41b36a","6889fb659743054e6f51c30c","0","5d617ba9364f9a0019f1dac3","0","2025-07-30T11:05:16.757Z","","","","PrePerfQ","","","","","","","","","","","50","","","","","","","","","","","","","","","","","","","","","","","","","","",""
"5126","","<div style=""width:500px;"">
  <p>What best describes how you currently feel?</p>
  </div>","8","html-slider-response","12","255602","0.0-6.0-2.0","91","1","2025-07-30 11:01:05","36c45c0696341be0efffe67d72a12abb","76.221.209.152","Mozilla/5.0 (Windows NT 10.0; Win64; x64) AppleWebKit/537.36 (KHTML, like Gecko) Chrome/138.0.0.0 Safari/537.36","WebKit","Chrome","138.0.0.0","Windows","10.0","https://app.prolific.com/","en-US,en;q=0.9,de;q=0.8,zh-TW;q=0.7,zh-CN;q=0.6,zh;q=0.5","5d617ba9364f9a0019f1dac3","683dba9a53627eb9ab41b36a","6889fb659743054e6f51c30c","0","5d617ba9364f9a0019f1dac3","0","2025-07-30T11:05:21.883Z","","","","PreMotivationQ","","","","","","","","","","","50","","","","","","","","","","","","","","","","","","","","","","","","","","",""
"","","","","ctl-task-cpt","13","284190","0.0-7.0-0.0","91","1","2025-07-30 11:01:05","36c45c0696341be0efffe67d72a12abb","76.221.209.152","Mozilla/5.0 (Windows NT 10.0; Win64; x64) AppleWebKit/537.36 (KHTML, like Gecko) Chrome/138.0.0.0 Safari/537.36","WebKit","Chrome","138.0.0.0","Windows","10.0","https://app.prolific.com/","en-US,en;q=0.9,de;q=0.8,zh-TW;q=0.7,zh-CN;q=0.6,zh;q=0.5","5d617ba9364f9a0019f1dac3","683dba9a53627eb9ab41b36a","6889fb659743054e6f51c30c","0","5d617ba9364f9a0019f1dac3","0","2025-07-30T11:05:50.471Z","","","","","","","","","","","","","","","","win-only","3","g1:SW,g2:NE","1","1","0","258943.4","1401.4","6402.2","25583.5","1","4","8","6","2","8","8","8","0","0.06060606060606061","930.7","3000","280","[""up"",""right""]","{""num_key_presses"":6,""num_perfect"":6,""num_errors"":0,""num_randdir"":0,""num_randdir_good_moves"":0,""num_whilered"":0,""num_whileblue"":0,""num_blue"":1,""num_good_moves"":6}","[421.5714133126395,406.57142761775424,0.2,421.5714133126395,406.57142761775424,104.7,421.5714133126395,406.57142761775424,210,421.5714133126395,406.57142761775424,315.3,416.5714133126395,407.82142761775424,420.1,416.5714133126395,407.82142761775424,524.8,581.5714133126395,287.82142761775424,625.8,726.5714133126395,120.32142761775425,730.3,734.0714133126395,99.07142761775425,830.4,739.0714133126395,85.32142761775425,936.1,741.5714133126395,81.57142761775425,1040.2,854.0714133126395,-64.67857238224575,1144.8,876.5714133126395,-107.17857238224575,1245.7,876.5714133126395,-107.17857238224575,1349.5,876.5714133126395,-107.17857238224575,1450.2,876.5714133126395,-107.17857238224575,1555,876.5714133126395,-107.17857238224575,1655.8,876.5714133126395,-107.17857238224575,1759.3,876.5714133126395,-107.17857238224575,1859.4,876.5714133126395,-107.17857238224575,1959.5,876.5714133126395,-107.17857238224575,2064.8,876.5714133126395,-107.17857238224575,2169,876.5714133126395,-107.17857238224575,2269.7,876.5714133126395,-107.17857238224575,2370.1,876.5714133126395,-107.17857238224575,2470.3,876.5714133126395,-107.17857238224575,2574.4,876.5714133126395,-107.17857238224575,2674.6,876.5714133126395,-107.17857238224575,2779.7,876.5714133126395,-107.17857238224575,2879.8,876.5714133126395,-107.17857238224575,2980.7,876.5714133126395,-107.17857238224575,3083.9,876.5714133126395,-107.17857238224575,3184,876.5714133126395,-107.17857238224575,3289.8,876.5714133126395,-107.17857238224575,3394.2,876.5714133126395,-107.17857238224575,3494.6,876.5714133126395,-107.17857238224575,3600.4,876.5714133126395,-107.17857238224575,3705.2,876.5714133126395,-107.17857238224575,3809,876.5714133126395,-107.17857238224575,3914.9,876.5714133126395,-107.17857238224575,4015.5,876.5714133126395,-107.17857238224575,4119.1,876.5714133126395,-107.17857238224575,4219.9,876.5714133126395,-107.17857238224575,4324.8,876.5714133126395,-107.17857238224575,4425.1,876.5714133126395,-107.17857238224575,4530.2,876.5714133126395,-107.17857238224575,4633.8,876.5714133126395,-107.17857238224575,4739.2,876.5714133126395,-107.17857238224575,4843.9,876.5714133126395,-107.17857238224575,4944.1]","[1395.3,1395.2,1000,0.1,395.2,""smooth"",""up"",""up"",""good_move"",7067.1,5671.7,2075.4,4479.6,512.1,""smooth"",""right"",""right"",""good_move"",9946.8,2879.4,2319.3,7067.4,560.1,""smooth"",""up"",""up"",""good_move"",13139,3192,2777.5,9947,414.5,""smooth"",""right"",""right"",""good_move"",16100.6,2961.6,2557,13139.1,404.6,""smooth"",""up"",""up"",""good_move"",19091.3,2990.5,2527.1,16100.8,463.4,""smooth"",""right"",""right"",""good_move""]"
"34074","","<div style=""width:500px;"">
  <p>What determined the result of this run?</p>
  </div>","19","html-slider-response","14","318265","0.0-7.0-1.0","91","1","2025-07-30 11:01:05","36c45c0696341be0efffe67d72a12abb","76.221.209.152","Mozilla/5.0 (Windows NT 10.0; Win64; x64) AppleWebKit/537.36 (KHTML, like Gecko) Chrome/138.0.0.0 Safari/537.36","WebKit","Chrome","138.0.0.0","Windows","10.0","https://app.prolific.com/","en-US,en;q=0.9,de;q=0.8,zh-TW;q=0.7,zh-CN;q=0.6,zh;q=0.5","5d617ba9364f9a0019f1dac3","683dba9a53627eb9ab41b36a","6889fb659743054e6f51c30c","0","5d617ba9364f9a0019f1dac3","0","2025-07-30T11:06:24.546Z","","","","AttribQ","","","","","","","","","","","50","","","","","","","","","","","","","","","","","","","","","","","","","","",""
"2315","","<div style=""width:500px;"">
  <p>How much control did you have over the ball?</p>
  </div>","100","html-slider-response","15","320581","0.0-7.0-2.0","91","1","2025-07-30 11:01:05","36c45c0696341be0efffe67d72a12abb","76.221.209.152","Mozilla/5.0 (Windows NT 10.0; Win64; x64) AppleWebKit/537.36 (KHTML, like Gecko) Chrome/138.0.0.0 Safari/537.36","WebKit","Chrome","138.0.0.0","Windows","10.0","https://app.prolific.com/","en-US,en;q=0.9,de;q=0.8,zh-TW;q=0.7,zh-CN;q=0.6,zh;q=0.5","5d617ba9364f9a0019f1dac3","683dba9a53627eb9ab41b36a","6889fb659743054e6f51c30c","0","5d617ba9364f9a0019f1dac3","0","2025-07-30T11:06:26.862Z","","","","ControlQ","","","","","","","","","","","50","","","","","","","","","","","","","","","","","","","","","","","","","","",""
"2937","","<div style=""width:500px;"">
  <p>How would you describe your current emotional state?</p>
  </div>","15","html-slider-response","16","323519","0.0-7.0-3.0","91","1","2025-07-30 11:01:05","36c45c0696341be0efffe67d72a12abb","76.221.209.152","Mozilla/5.0 (Windows NT 10.0; Win64; x64) AppleWebKit/537.36 (KHTML, like Gecko) Chrome/138.0.0.0 Safari/537.36","WebKit","Chrome","138.0.0.0","Windows","10.0","https://app.prolific.com/","en-US,en;q=0.9,de;q=0.8,zh-TW;q=0.7,zh-CN;q=0.6,zh;q=0.5","5d617ba9364f9a0019f1dac3","683dba9a53627eb9ab41b36a","6889fb659743054e6f51c30c","0","5d617ba9364f9a0019f1dac3","0","2025-07-30T11:06:29.800Z","","","","StressQ","","","","","","","","","","","50","","","","","","","","","","","","","","","","","","","","","","","","","","",""
"26648","","<div style=""width:500px;"">
  <p>What best describes how you currently feel?</p>
  </div>","0","html-slider-response","17","350168","0.0-7.0-4.0","91","1","2025-07-30 11:01:05","36c45c0696341be0efffe67d72a12abb","76.221.209.152","Mozilla/5.0 (Windows NT 10.0; Win64; x64) AppleWebKit/537.36 (KHTML, like Gecko) Chrome/138.0.0.0 Safari/537.36","WebKit","Chrome","138.0.0.0","Windows","10.0","https://app.prolific.com/","en-US,en;q=0.9,de;q=0.8,zh-TW;q=0.7,zh-CN;q=0.6,zh;q=0.5","5d617ba9364f9a0019f1dac3","683dba9a53627eb9ab41b36a","6889fb659743054e6f51c30c","0","5d617ba9364f9a0019f1dac3","0","2025-07-30T11:06:56.449Z","","","","MotivationQ","","","","","","","","","","","50","","","","","","","","","","","","","","","","","","","","","","","","","","",""
"","","","","ctl-task-cpt","18","388717","0.0-7.0-0.1","91","1","2025-07-30 11:01:05","36c45c0696341be0efffe67d72a12abb","76.221.209.152","Mozilla/5.0 (Windows NT 10.0; Win64; x64) AppleWebKit/537.36 (KHTML, like Gecko) Chrome/138.0.0.0 Safari/537.36","WebKit","Chrome","138.0.0.0","Windows","10.0","https://app.prolific.com/","en-US,en;q=0.9,de;q=0.8,zh-TW;q=0.7,zh-CN;q=0.6,zh;q=0.5","5d617ba9364f9a0019f1dac3","683dba9a53627eb9ab41b36a","6889fb659743054e6f51c30c","0","5d617ba9364f9a0019f1dac3","0","2025-07-30T11:07:34.998Z","","","","","","","","","","","","","","","","win-only","0","g1:NW,g2:SE","0.9","2","0","353510.8","1121.1","6125.3","35530.6","1","4","4","6","1","1","1","9","8","0.06818181818181818","901.3","3000","240","[""left"",""up""]","{""num_key_presses"":6,""num_perfect"":5,""num_errors"":0,""num_randdir"":1,""num_randdir_good_moves"":0,""num_whilered"":0,""num_whileblue"":0,""num_blue"":3,""num_good_moves"":5}","[416.5714133126395,416.57142761775424,0.4,416.5714133126395,416.57142761775424,105.2,411.5714133126395,416.57142761775424,209.9,300.3214133126395,544.0714276177542,310.2,261.5714133126395,652.8214276177542,415,306.5714133126395,472.82142761775424,515.1,94.0714133126395,215.32142761775424,620.4,86.5714133126395,190.32142761775424,724.1,76.5714133126395,111.57142761775425,825.3,72.8214133126395,66.57142761775425,931.5,69.0714133126395,65.32142761775425,1035.1,-167.1785866873605,60.32142761775425,1139.6,-304.6785866873605,57.82142761775425,1245.1,-304.6785866873605,57.82142761775425,1345.1,-304.6785866873605,57.82142761775425,1445.1,-304.6785866873605,57.82142761775425,1545.9,-304.6785866873605,57.82142761775425,1650.1,-304.6785866873605,57.82142761775425,1754.1,-304.6785866873605,57.82142761775425,1855.4,-304.6785866873605,57.82142761775425,1955.5,-304.6785866873605,57.82142761775425,2055.9,-304.6785866873605,57.82142761775425,2160.6,-304.6785866873605,57.82142761775425,2264.3,-304.6785866873605,57.82142761775425,2369.2,-304.6785866873605,57.82142761775425,2469.8,-304.6785866873605,57.82142761775425,2575.8,-304.6785866873605,57.82142761775425,2680.2,-304.6785866873605,57.82142761775425,2780.3,-304.6785866873605,57.82142761775425,2884.9,-304.6785866873605,57.82142761775425,2985.4,-304.6785866873605,57.82142761775425,3086,-304.6785866873605,57.82142761775425,3189.7,-304.6785866873605,57.82142761775425,3295.2,-304.6785866873605,57.82142761775425,3400.1,-304.6785866873605,57.82142761775425,3500.1,-304.6785866873605,57.82142761775425,3604.4,-304.6785866873605,57.82142761775425,3704.8,-304.6785866873605,57.82142761775425,3810.7,-304.6785866873605,57.82142761775425,3914.4,-304.6785866873605,57.82142761775425,4014.4,-304.6785866873605,57.82142761775425,4115.1,-304.6785866873605,57.82142761775425,4219.8,-304.6785866873605,57.82142761775425,4325.5,-304.6785866873605,57.82142761775425,4429.8,-304.6785866873605,57.82142761775425,4529.9,-304.6785866873605,57.82142761775425,4634.4,-304.6785866873605,57.82142761775425,4739.1,-304.6785866873605,57.82142761775425,4839.4,-304.6785866873605,57.82142761775425,4940.8]","[1520.2,1520.1,1000,0.1,520.1,""smooth"",""up"",""up"",""good_move"",3752.2,2231.8,1741.2,1520.4,490.6,""smooth"",""up"",""up"",""good_move"",7352.2,3599.9,3197.1,3752.3,402.8,""smooth"",""left"",""left"",""good_move"",14032.1,6679.6,2859,10735.7,437.4,""oops"",""left"",""down"",""bad_move"",25473.3,11440.6,2788.9,22210.6,473.8,""smooth"",""up"",""up"",""good_move"",29319.9,3845.7,3378.8,25474.2,466.9,""smooth"",""left"",""left"",""good_move""]"
"3595","","<div style=""width:500px;"">
  <p>What determined the result of this run?</p>
  </div>","8","html-slider-response","19","392315","0.0-7.0-1.1","91","1","2025-07-30 11:01:05","36c45c0696341be0efffe67d72a12abb","76.221.209.152","Mozilla/5.0 (Windows NT 10.0; Win64; x64) AppleWebKit/537.36 (KHTML, like Gecko) Chrome/138.0.0.0 Safari/537.36","WebKit","Chrome","138.0.0.0","Windows","10.0","https://app.prolific.com/","en-US,en;q=0.9,de;q=0.8,zh-TW;q=0.7,zh-CN;q=0.6,zh;q=0.5","5d617ba9364f9a0019f1dac3","683dba9a53627eb9ab41b36a","6889fb659743054e6f51c30c","0","5d617ba9364f9a0019f1dac3","0","2025-07-30T11:07:38.596Z","","","","AttribQ","","","","","","","","","","","50","","","","","","","","","","","","","","","","","","","","","","","","","","",""
"4741","","<div style=""width:500px;"">
  <p>How much control did you have over the ball?</p>
  </div>","67","html-slider-response","20","397057","0.0-7.0-2.1","91","1","2025-07-30 11:01:05","36c45c0696341be0efffe67d72a12abb","76.221.209.152","Mozilla/5.0 (Windows NT 10.0; Win64; x64) AppleWebKit/537.36 (KHTML, like Gecko) Chrome/138.0.0.0 Safari/537.36","WebKit","Chrome","138.0.0.0","Windows","10.0","https://app.prolific.com/","en-US,en;q=0.9,de;q=0.8,zh-TW;q=0.7,zh-CN;q=0.6,zh;q=0.5","5d617ba9364f9a0019f1dac3","683dba9a53627eb9ab41b36a","6889fb659743054e6f51c30c","0","5d617ba9364f9a0019f1dac3","0","2025-07-30T11:07:43.338Z","","","","ControlQ","","","","","","","","","","","50","","","","","","","","","","","","","","","","","","","","","","","","","","",""
"3271","","<div style=""width:500px;"">
  <p>How would you describe your current emotional state?</p>
  </div>","25","html-slider-response","21","400329","0.0-7.0-3.1","91","1","2025-07-30 11:01:05","36c45c0696341be0efffe67d72a12abb","76.221.209.152","Mozilla/5.0 (Windows NT 10.0; Win64; x64) AppleWebKit/537.36 (KHTML, like Gecko) Chrome/138.0.0.0 Safari/537.36","WebKit","Chrome","138.0.0.0","Windows","10.0","https://app.prolific.com/","en-US,en;q=0.9,de;q=0.8,zh-TW;q=0.7,zh-CN;q=0.6,zh;q=0.5","5d617ba9364f9a0019f1dac3","683dba9a53627eb9ab41b36a","6889fb659743054e6f51c30c","0","5d617ba9364f9a0019f1dac3","0","2025-07-30T11:07:46.610Z","","","","StressQ","","","","","","","","","","","50","","","","","","","","","","","","","","","","","","","","","","","","","","",""
"2311","","<div style=""width:500px;"">
  <p>What best describes how you currently feel?</p>
  </div>","0","html-slider-response","22","402641","0.0-7.0-4.1","91","1","2025-07-30 11:01:05","36c45c0696341be0efffe67d72a12abb","76.221.209.152","Mozilla/5.0 (Windows NT 10.0; Win64; x64) AppleWebKit/537.36 (KHTML, like Gecko) Chrome/138.0.0.0 Safari/537.36","WebKit","Chrome","138.0.0.0","Windows","10.0","https://app.prolific.com/","en-US,en;q=0.9,de;q=0.8,zh-TW;q=0.7,zh-CN;q=0.6,zh;q=0.5","5d617ba9364f9a0019f1dac3","683dba9a53627eb9ab41b36a","6889fb659743054e6f51c30c","0","5d617ba9364f9a0019f1dac3","0","2025-07-30T11:07:48.922Z","","","","MotivationQ","","","","","","","","","","","50","","","","","","","","","","","","","","","","","","","","","","","","","","",""
"","","","","ctl-task-cpt","23","511935","0.0-7.0-0.2","91","1","2025-07-30 11:01:05","36c45c0696341be0efffe67d72a12abb","76.221.209.152","Mozilla/5.0 (Windows NT 10.0; Win64; x64) AppleWebKit/537.36 (KHTML, like Gecko) Chrome/138.0.0.0 Safari/537.36","WebKit","Chrome","138.0.0.0","Windows","10.0","https://app.prolific.com/","en-US,en;q=0.9,de;q=0.8,zh-TW;q=0.7,zh-CN;q=0.6,zh;q=0.5","5d617ba9364f9a0019f1dac3","683dba9a53627eb9ab41b36a","6889fb659743054e6f51c30c","0","5d617ba9364f9a0019f1dac3","0","2025-07-30T11:09:38.216Z","","","","","","","","","","","","","","","","win-only","3","g1:SW,g2:NE","0.8","3","0","405983","77305.9","82310.6","106276.1","1","4","4","6","1","1","1","10","9","0.07575757575757576","939.7","3000","310","[""down"",""left""]","{""num_key_presses"":6,""num_perfect"":5,""num_errors"":0,""num_randdir"":1,""num_randdir_good_moves"":0,""num_whilered"":0,""num_whileblue"":0,""num_blue"":2,""num_good_moves"":5}","[410.3214133126395,417.82142761775424,1.1,410.3214133126395,417.82142761775424,100.2,411.5714133126395,416.57142761775424,200.9,415.3214133126395,426.57142761775424,333.3,419.0714133126395,551.5714276177542,434.6,147.8214133126395,749.0714276177542,535.2,112.8214133126395,767.8214276177542,635.2,111.5714133126395,767.8214276177542,741,104.0714133126395,775.3214276177542,841.2,101.5714133126395,779.0714276177542,941.3,101.5714133126395,779.0714276177542,1045.8,55.32141331263951,764.0714276177542,1152.5,-225.9285866873605,716.5714276177542,1255.3,-240.9285866873605,711.5714276177542,1355.3,-240.9285866873605,711.5714276177542,1455.4,-240.9285866873605,711.5714276177542,1555.6,-240.9285866873605,711.5714276177542,1660.4,-240.9285866873605,711.5714276177542,1760.8,-240.9285866873605,711.5714276177542,1865.9,-240.9285866873605,711.5714276177542,1969.6,-240.9285866873605,711.5714276177542,2074.6,-240.9285866873605,711.5714276177542,2175.2,-240.9285866873605,711.5714276177542,2275.3,-240.9285866873605,711.5714276177542,2375.3,-240.9285866873605,711.5714276177542,2480.5,-240.9285866873605,711.5714276177542,2580.7,-240.9285866873605,711.5714276177542,2685.2,-240.9285866873605,711.5714276177542,2785.2,-240.9285866873605,711.5714276177542,2885.3,-240.9285866873605,711.5714276177542,2985.3,-240.9285866873605,711.5714276177542,3089.5,-240.9285866873605,711.5714276177542,3190.2,-240.9285866873605,711.5714276177542,3295.2,-240.9285866873605,711.5714276177542,3395.4,-240.9285866873605,711.5714276177542,3499.5,-240.9285866873605,711.5714276177542,3601.2,-240.9285866873605,711.5714276177542,3705.1,-240.9285866873605,711.5714276177542,3805.2,-240.9285866873605,711.5714276177542,3911.1,-240.9285866873605,711.5714276177542,4015,-240.9285866873605,711.5714276177542,4119.6,-240.9285866873605,711.5714276177542,4220.3,-240.9285866873605,711.5714276177542,4325.5,-240.9285866873605,711.5714276177542,4425.5,-240.9285866873605,711.5714276177542,4530.9,-240.9285866873605,711.5714276177542,4635.3,-240.9285866873605,711.5714276177542,4740.4,-240.9285866873605,711.5714276177542,4844.9,-240.9285866873605,711.5714276177542,4945]","[1487.5,1487.5,1000,0,487.5,""smooth"",""down"",""down"",""good_move"",7159.2,5671.4,1636.2,5046.7,476.3,""smooth"",""down"",""down"",""good_move"",14982.8,7823.5,2919.1,11624.8,438.9,""smooth"",""left"",""left"",""good_move"",17959.9,2976.8,2512.7,14983.1,464.1,""oops"",""left"",""right"",""bad_move"",20726.7,2766.4,2269.9,17960.3,496.5,""smooth"",""left"",""left"",""good_move"",23878.3,3151.5,2798.5,20726.8,353,""smooth"",""left"",""left"",""good_move""]"
"10969","","<div style=""width:500px;"">
  <p>What determined the result of this run?</p>
  </div>","22","html-slider-response","24","522905","0.0-7.0-1.2","91","1","2025-07-30 11:01:05","36c45c0696341be0efffe67d72a12abb","76.221.209.152","Mozilla/5.0 (Windows NT 10.0; Win64; x64) AppleWebKit/537.36 (KHTML, like Gecko) Chrome/138.0.0.0 Safari/537.36","WebKit","Chrome","138.0.0.0","Windows","10.0","https://app.prolific.com/","en-US,en;q=0.9,de;q=0.8,zh-TW;q=0.7,zh-CN;q=0.6,zh;q=0.5","5d617ba9364f9a0019f1dac3","683dba9a53627eb9ab41b36a","6889fb659743054e6f51c30c","0","5d617ba9364f9a0019f1dac3","0","2025-07-30T11:09:49.186Z","","","","AttribQ","","","","","","","","","","","50","","","","","","","","","","","","","","","","","","","","","","","","","","",""
"2079","","<div style=""width:500px;"">
  <p>How much control did you have over the ball?</p>
  </div>","68","html-slider-response","25","524985","0.0-7.0-2.2","91","1","2025-07-30 11:01:05","36c45c0696341be0efffe67d72a12abb","76.221.209.152","Mozilla/5.0 (Windows NT 10.0; Win64; x64) AppleWebKit/537.36 (KHTML, like Gecko) Chrome/138.0.0.0 Safari/537.36","WebKit","Chrome","138.0.0.0","Windows","10.0","https://app.prolific.com/","en-US,en;q=0.9,de;q=0.8,zh-TW;q=0.7,zh-CN;q=0.6,zh;q=0.5","5d617ba9364f9a0019f1dac3","683dba9a53627eb9ab41b36a","6889fb659743054e6f51c30c","0","5d617ba9364f9a0019f1dac3","0","2025-07-30T11:09:51.266Z","","","","ControlQ","","","","","","","","","","","50","","","","","","","","","","","","","","","","","","","","","","","","","","",""
"2019","","<div style=""width:500px;"">
  <p>How would you describe your current emotional state?</p>
  </div>","8","html-slider-response","26","527005","0.0-7.0-3.2","91","1","2025-07-30 11:01:05","36c45c0696341be0efffe67d72a12abb","76.221.209.152","Mozilla/5.0 (Windows NT 10.0; Win64; x64) AppleWebKit/537.36 (KHTML, like Gecko) Chrome/138.0.0.0 Safari/537.36","WebKit","Chrome","138.0.0.0","Windows","10.0","https://app.prolific.com/","en-US,en;q=0.9,de;q=0.8,zh-TW;q=0.7,zh-CN;q=0.6,zh;q=0.5","5d617ba9364f9a0019f1dac3","683dba9a53627eb9ab41b36a","6889fb659743054e6f51c30c","0","5d617ba9364f9a0019f1dac3","0","2025-07-30T11:09:53.286Z","","","","StressQ","","","","","","","","","","","50","","","","","","","","","","","","","","","","","","","","","","","","","","",""
"1729","","<div style=""width:500px;"">
  <p>What best describes how you currently feel?</p>
  </div>","0","html-slider-response","27","528735","0.0-7.0-4.2","91","1","2025-07-30 11:01:05","36c45c0696341be0efffe67d72a12abb","76.221.209.152","Mozilla/5.0 (Windows NT 10.0; Win64; x64) AppleWebKit/537.36 (KHTML, like Gecko) Chrome/138.0.0.0 Safari/537.36","WebKit","Chrome","138.0.0.0","Windows","10.0","https://app.prolific.com/","en-US,en;q=0.9,de;q=0.8,zh-TW;q=0.7,zh-CN;q=0.6,zh;q=0.5","5d617ba9364f9a0019f1dac3","683dba9a53627eb9ab41b36a","6889fb659743054e6f51c30c","0","5d617ba9364f9a0019f1dac3","0","2025-07-30T11:09:55.016Z","","","","MotivationQ","","","","","","","","","","","50","","","","","","","","","","","","","","","","","","","","","","","","","","",""
"","","","","ctl-task-cpt","28","599773","0.0-7.0-0.3","91","1","2025-07-30 11:01:05","36c45c0696341be0efffe67d72a12abb","76.221.209.152","Mozilla/5.0 (Windows NT 10.0; Win64; x64) AppleWebKit/537.36 (KHTML, like Gecko) Chrome/138.0.0.0 Safari/537.36","WebKit","Chrome","138.0.0.0","Windows","10.0","https://app.prolific.com/","en-US,en;q=0.9,de;q=0.8,zh-TW;q=0.7,zh-CN;q=0.6,zh;q=0.5","5d617ba9364f9a0019f1dac3","683dba9a53627eb9ab41b36a","6889fb659743054e6f51c30c","0","5d617ba9364f9a0019f1dac3","0","2025-07-30T11:11:06.055Z","","","","","","","","","","","","","","","","win-only","1","g1:NE,g2:SW","0.7","4","0","532077.2","38412.7","43416.3","68017.6","1","4","8","6","2","-8","-8","2","10","0.015151515151515152","1478.3","3000","-3010","[""down"",""left""]","{""num_key_presses"":7,""num_perfect"":4,""num_errors"":0,""num_randdir"":3,""num_randdir_good_moves"":1,""num_whilered"":0,""num_whileblue"":0,""num_blue"":1,""num_good_moves"":5}","[416.5714133126395,417.82142761775424,0.3,419.0714133126395,419.07142761775424,102.8,419.0714133126395,419.07142761775424,203.3,461.5714133126395,406.57142761775424,303.7,550.3214133126395,391.57142761775424,409,347.8214133126395,562.8214276177542,511,176.5714133126395,716.5714276177542,613.3,146.5714133126395,757.8214276177542,714.7,134.0714133126395,757.8214276177542,817.8,120.3214133126395,762.8214276177542,921.7,111.5714133126395,772.8214276177542,1024,104.0714133126395,777.8214276177542,1128.3,104.0714133126395,777.8214276177542,1230.4,102.8214133126395,777.8214276177542,1333.9,101.5714133126395,777.8214276177542,1440.5,101.5714133126395,777.8214276177542,1544,74.0714133126395,781.5714276177542,1648.8,-10.928586687360493,764.0714276177542,1750.4,-14.678586687360493,756.5714276177542,1853.9,-14.678586687360493,756.5714276177542,1957.9,-35.92858668736049,742.8214276177542,2058.4,-35.92858668736049,742.8214276177542,2159.5,-35.92858668736049,742.8214276177542,2264.1,-35.92858668736049,742.8214276177542,2369.8,-35.92858668736049,742.8214276177542,2473.1,-37.17858668736049,742.8214276177542,2574.5,-37.17858668736049,742.8214276177542,2675.3,-43.42858668736049,742.8214276177542,2775.3,-54.67858668736049,742.8214276177542,2878.6,-73.4285866873605,746.5714276177542,2983.8,-73.4285866873605,746.5714276177542,3084,-73.4285866873605,746.5714276177542,3184.3,-73.4285866873605,746.5714276177542,3288.3,-73.4285866873605,746.5714276177542,3388.8,-73.4285866873605,746.5714276177542,3497.4,-73.4285866873605,746.5714276177542,3598.7,-73.4285866873605,746.5714276177542,3702.7,-73.4285866873605,746.5714276177542,3802.9,-73.4285866873605,746.5714276177542,3903,-73.4285866873605,746.5714276177542,4007.8,-73.4285866873605,746.5714276177542,4107.8,-73.4285866873605,746.5714276177542,4207.9,-73.4285866873605,746.5714276177542,4313.8,-73.4285866873605,746.5714276177542,4414.1,-73.4285866873605,746.5714276177542,4519.4,-73.4285866873605,746.5714276177542,4619.6,-73.4285866873605,746.5714276177542,4723.8,-73.4285866873605,746.5714276177542,4824.3,-73.4285866873605,746.5714276177542,4929.3]","[1379.5,1379.6,1000,0,379.6,""oops"",""down"",""right"",""bad_move"",4359,2979.1,2609.6,1379.9,369.5,""smooth"",""down"",""down"",""good_move"",9590.6,5231.3,1693.1,7380.4,517.1,""oops"",""down"",""down"",""good_move"",13062.8,3472,3002.6,9590.8,469.4,""smooth"",""down"",""down"",""good_move"",16311.5,3248.6,2883.7,13062.9,364.9,""oops"",""left"",""right"",""bad_move"",18943.5,2631.9,2206.4,16311.6,425.5,""smooth"",""left"",""left"",""good_move"",21879.3,2935.1,2558.8,18944.2,376.3,""smooth"",""left"",""left"",""good_move""]"
"5284","","<div style=""width:500px;"">
  <p>What determined the result of this run?</p>
  </div>","28","html-slider-response","29","605059","0.0-7.0-1.3","91","1","2025-07-30 11:01:05","36c45c0696341be0efffe67d72a12abb","76.221.209.152","Mozilla/5.0 (Windows NT 10.0; Win64; x64) AppleWebKit/537.36 (KHTML, like Gecko) Chrome/138.0.0.0 Safari/537.36","WebKit","Chrome","138.0.0.0","Windows","10.0","https://app.prolific.com/","en-US,en;q=0.9,de;q=0.8,zh-TW;q=0.7,zh-CN;q=0.6,zh;q=0.5","5d617ba9364f9a0019f1dac3","683dba9a53627eb9ab41b36a","6889fb659743054e6f51c30c","0","5d617ba9364f9a0019f1dac3","0","2025-07-30T11:11:11.341Z","","","","AttribQ","","","","","","","","","","","50","","","","","","","","","","","","","","","","","","","","","","","","","","",""
"2054","","<div style=""width:500px;"">
  <p>How much control did you have over the ball?</p>
  </div>","26","html-slider-response","30","607115","0.0-7.0-2.3","91","1","2025-07-30 11:01:05","36c45c0696341be0efffe67d72a12abb","76.221.209.152","Mozilla/5.0 (Windows NT 10.0; Win64; x64) AppleWebKit/537.36 (KHTML, like Gecko) Chrome/138.0.0.0 Safari/537.36","WebKit","Chrome","138.0.0.0","Windows","10.0","https://app.prolific.com/","en-US,en;q=0.9,de;q=0.8,zh-TW;q=0.7,zh-CN;q=0.6,zh;q=0.5","5d617ba9364f9a0019f1dac3","683dba9a53627eb9ab41b36a","6889fb659743054e6f51c30c","0","5d617ba9364f9a0019f1dac3","0","2025-07-30T11:11:13.396Z","","","","ControlQ","","","","","","","","","","","50","","","","","","","","","","","","","","","","","","","","","","","","","","",""
"2503","","<div style=""width:500px;"">
  <p>How would you describe your current emotional state?</p>
  </div>","21","html-slider-response","31","609619","0.0-7.0-3.3","91","1","2025-07-30 11:01:05","36c45c0696341be0efffe67d72a12abb","76.221.209.152","Mozilla/5.0 (Windows NT 10.0; Win64; x64) AppleWebKit/537.36 (KHTML, like Gecko) Chrome/138.0.0.0 Safari/537.36","WebKit","Chrome","138.0.0.0","Windows","10.0","https://app.prolific.com/","en-US,en;q=0.9,de;q=0.8,zh-TW;q=0.7,zh-CN;q=0.6,zh;q=0.5","5d617ba9364f9a0019f1dac3","683dba9a53627eb9ab41b36a","6889fb659743054e6f51c30c","0","5d617ba9364f9a0019f1dac3","0","2025-07-30T11:11:15.900Z","","","","StressQ","","","","","","","","","","","50","","","","","","","","","","","","","","","","","","","","","","","","","","",""
"1455","","<div style=""width:500px;"">
  <p>What best describes how you currently feel?</p>
  </div>","0","html-slider-response","32","611075","0.0-7.0-4.3","91","1","2025-07-30 11:01:05","36c45c0696341be0efffe67d72a12abb","76.221.209.152","Mozilla/5.0 (Windows NT 10.0; Win64; x64) AppleWebKit/537.36 (KHTML, like Gecko) Chrome/138.0.0.0 Safari/537.36","WebKit","Chrome","138.0.0.0","Windows","10.0","https://app.prolific.com/","en-US,en;q=0.9,de;q=0.8,zh-TW;q=0.7,zh-CN;q=0.6,zh;q=0.5","5d617ba9364f9a0019f1dac3","683dba9a53627eb9ab41b36a","6889fb659743054e6f51c30c","0","5d617ba9364f9a0019f1dac3","0","2025-07-30T11:11:17.356Z","","","","MotivationQ","","","","","","","","","","","50","","","","","","","","","","","","","","","","","","","","","","","","","","",""
"","","","","ctl-task-cpt","33","646306","0.0-7.0-0.4","91","1","2025-07-30 11:01:05","36c45c0696341be0efffe67d72a12abb","76.221.209.152","Mozilla/5.0 (Windows NT 10.0; Win64; x64) AppleWebKit/537.36 (KHTML, like Gecko) Chrome/138.0.0.0 Safari/537.36","WebKit","Chrome","138.0.0.0","Windows","10.0","https://app.prolific.com/","en-US,en;q=0.9,de;q=0.8,zh-TW;q=0.7,zh-CN;q=0.6,zh;q=0.5","5d617ba9364f9a0019f1dac3","683dba9a53627eb9ab41b36a","6889fb659743054e6f51c30c","0","5d617ba9364f9a0019f1dac3","0","2025-07-30T11:11:52.587Z","","","","","","","","","","","","","","","","win-only","2","g1:SE,g2:NW","0.6","5","0","614416.1","890.4","5896.1","32211.7","1","4","8","6","1","1","1","3","2","0.022727272727272728","621.5","3000","240","[""down"",""right""]","{""num_key_presses"":6,""num_perfect"":3,""num_errors"":0,""num_randdir"":3,""num_randdir_good_moves"":2,""num_whilered"":0,""num_whileblue"":0,""num_blue"":3,""num_good_moves"":5}","[415.3214133126395,417.82142761775424,0.1,416.5714133126395,419.07142761775424,103.9,416.5714133126395,419.07142761775424,205.4,414.0714133126395,419.07142761775424,306.2,466.5714133126395,486.57142761775424,406.3,736.5714133126395,662.8214276177542,510.3,797.8214133126395,740.3214276177542,611.5,799.0714133126395,740.3214276177542,715.9,799.0714133126395,741.5714276177542,816,724.0714133126395,726.5714276177542,916.1,406.5714133126395,781.5714276177542,1020.4,375.3214133126395,919.0714276177542,1125,411.5714133126395,911.5714276177542,1226.3,1305.3214133126396,605.3214276177542,1331,1361.5714133126396,584.0714276177542,1435.9,1361.5714133126396,584.0714276177542,1541.8,1361.5714133126396,584.0714276177542,1644.9,1361.5714133126396,584.0714276177542,1744.9,1361.5714133126396,584.0714276177542,1851.3,1361.5714133126396,584.0714276177542,1956.3,1361.5714133126396,584.0714276177542,2056.5,1361.5714133126396,584.0714276177542,2160.1,1361.5714133126396,584.0714276177542,2262.6,1174.0714133126396,525.3214276177542,2366.5,804.0714133126395,862.8214276177542,2469.9,661.5714133126395,925.3214276177542,2570.6,632.8214133126395,925.3214276177542,2675.8,632.8214133126395,925.3214276177542,2780.3,599.0714133126395,936.5714276177542,2881.4,592.8214133126395,936.5714276177542,2985.9,592.8214133126395,936.5714276177542,3091.2,592.8214133126395,936.5714276177542,3195.4,592.8214133126395,936.5714276177542,3300.7,592.8214133126395,936.5714276177542,3405.9,592.8214133126395,936.5714276177542,3505.9,592.8214133126395,936.5714276177542,3606.3,592.8214133126395,936.5714276177542,3710.9,592.8214133126395,936.5714276177542,3810.9,592.8214133126395,936.5714276177542,3915.8,592.8214133126395,936.5714276177542,4020.3,592.8214133126395,936.5714276177542,4121.2,592.8214133126395,936.5714276177542,4225.1,592.8214133126395,936.5714276177542,4325.4,592.8214133126395,936.5714276177542,4430.9,592.8214133126395,936.5714276177542,4534.8,592.8214133126395,936.5714276177542,4635.7,592.8214133126395,936.5714276177542,4737.2,592.8214133126395,936.5714276177542,4840.6,592.8214133126395,936.5714276177542,4944.8]","[1428.1,1428.2,1000,0,428.2,""smooth"",""down"",""down"",""good_move"",7357.2,5928.8,2074.5,4804.8,477.9,""smooth"",""down"",""down"",""good_move"",10260,2902.7,2372.3,7357.4,530.4,""oops"",""right"",""right"",""good_move"",16132.1,5871.7,2374.4,13295.5,462.2,""oops"",""right"",""up"",""bad_move"",19316.4,3184.2,2671.9,16132.3,512.2,""smooth"",""down"",""down"",""good_move"",26228.5,6912,2704.4,23149.7,374.4,""oops"",""right"",""right"",""good_move""]"
"7355","","<div style=""width:500px;"">
  <p>What determined the result of this run?</p>
  </div>","20","html-slider-response","34","653662","0.0-7.0-1.4","91","1","2025-07-30 11:01:05","36c45c0696341be0efffe67d72a12abb","76.221.209.152","Mozilla/5.0 (Windows NT 10.0; Win64; x64) AppleWebKit/537.36 (KHTML, like Gecko) Chrome/138.0.0.0 Safari/537.36","WebKit","Chrome","138.0.0.0","Windows","10.0","https://app.prolific.com/","en-US,en;q=0.9,de;q=0.8,zh-TW;q=0.7,zh-CN;q=0.6,zh;q=0.5","5d617ba9364f9a0019f1dac3","683dba9a53627eb9ab41b36a","6889fb659743054e6f51c30c","0","5d617ba9364f9a0019f1dac3","0","2025-07-30T11:11:59.944Z","","","","AttribQ","","","","","","","","","","","50","","","","","","","","","","","","","","","","","","","","","","","","","","",""
"2523","","<div style=""width:500px;"">
  <p>How much control did you have over the ball?</p>
  </div>","12","html-slider-response","35","656187","0.0-7.0-2.4","91","1","2025-07-30 11:01:05","36c45c0696341be0efffe67d72a12abb","76.221.209.152","Mozilla/5.0 (Windows NT 10.0; Win64; x64) AppleWebKit/537.36 (KHTML, like Gecko) Chrome/138.0.0.0 Safari/537.36","WebKit","Chrome","138.0.0.0","Windows","10.0","https://app.prolific.com/","en-US,en;q=0.9,de;q=0.8,zh-TW;q=0.7,zh-CN;q=0.6,zh;q=0.5","5d617ba9364f9a0019f1dac3","683dba9a53627eb9ab41b36a","6889fb659743054e6f51c30c","0","5d617ba9364f9a0019f1dac3","0","2025-07-30T11:12:02.468Z","","","","ControlQ","","","","","","","","","","","50","","","","","","","","","","","","","","","","","","","","","","","","","","",""
"3155","","<div style=""width:500px;"">
  <p>How would you describe your current emotional state?</p>
  </div>","75","html-slider-response","36","659344","0.0-7.0-3.4","91","1","2025-07-30 11:01:05","36c45c0696341be0efffe67d72a12abb","76.221.209.152","Mozilla/5.0 (Windows NT 10.0; Win64; x64) AppleWebKit/537.36 (KHTML, like Gecko) Chrome/138.0.0.0 Safari/537.36","WebKit","Chrome","138.0.0.0","Windows","10.0","https://app.prolific.com/","en-US,en;q=0.9,de;q=0.8,zh-TW;q=0.7,zh-CN;q=0.6,zh;q=0.5","5d617ba9364f9a0019f1dac3","683dba9a53627eb9ab41b36a","6889fb659743054e6f51c30c","0","5d617ba9364f9a0019f1dac3","0","2025-07-30T11:12:05.625Z","","","","StressQ","","","","","","","","","","","50","","","","","","","","","","","","","","","","","","","","","","","","","","",""
"1921","","<div style=""width:500px;"">
  <p>What best describes how you currently feel?</p>
  </div>","0","html-slider-response","37","661265","0.0-7.0-4.4","91","1","2025-07-30 11:01:05","36c45c0696341be0efffe67d72a12abb","76.221.209.152","Mozilla/5.0 (Windows NT 10.0; Win64; x64) AppleWebKit/537.36 (KHTML, like Gecko) Chrome/138.0.0.0 Safari/537.36","WebKit","Chrome","138.0.0.0","Windows","10.0","https://app.prolific.com/","en-US,en;q=0.9,de;q=0.8,zh-TW;q=0.7,zh-CN;q=0.6,zh;q=0.5","5d617ba9364f9a0019f1dac3","683dba9a53627eb9ab41b36a","6889fb659743054e6f51c30c","0","5d617ba9364f9a0019f1dac3","0","2025-07-30T11:12:07.547Z","","","","MotivationQ","","","","","","","","","","","50","","","","","","","","","","","","","","","","","","","","","","","","","","",""
"","","","","ctl-task-cpt","38","687921","0.0-7.0-0.5","91","1","2025-07-30 11:01:05","36c45c0696341be0efffe67d72a12abb","76.221.209.152","Mozilla/5.0 (Windows NT 10.0; Win64; x64) AppleWebKit/537.36 (KHTML, like Gecko) Chrome/138.0.0.0 Safari/537.36","WebKit","Chrome","138.0.0.0","Windows","10.0","https://app.prolific.com/","en-US,en;q=0.9,de;q=0.8,zh-TW;q=0.7,zh-CN;q=0.6,zh;q=0.5","5d617ba9364f9a0019f1dac3","683dba9a53627eb9ab41b36a","6889fb659743054e6f51c30c","0","5d617ba9364f9a0019f1dac3","0","2025-07-30T11:12:34.202Z","","","","","","","","","","","","","","","","win-only","0","g1:NW,g2:SE","0.5","6","0","664607.9","965.6","5968.3","23636.4","1","4","4","6","1","-1","-1","2","3","0.015151515151515152","1035.7","3000","-2995","[""left"",""up""]","{""num_key_presses"":4,""num_perfect"":3,""num_errors"":0,""num_randdir"":1,""num_randdir_good_moves"":0,""num_whilered"":0,""num_whileblue"":0,""num_blue"":1,""num_good_moves"":3}","[425.3214133126395,421.57142761775424,0.1,425.3214133126395,421.57142761775424,100.2,425.3214133126395,421.57142761775424,200.5,424.0714133126395,421.57142761775424,306.6,422.8214133126395,420.32142761775424,410.7,411.5714133126395,416.57142761775424,514.9,366.5714133126395,406.57142761775424,614.9,131.5714133126395,230.32142761775424,718.5,54.07141331263951,130.32142761775424,819.9,62.82141331263951,116.57142761775425,919.9,74.0714133126395,87.82142761775425,1020.4,76.5714133126395,86.57142761775425,1124.7,76.5714133126395,86.57142761775425,1225.6,270.3214133126395,136.57142761775424,1330.9,1340.3214133126396,350.32142761775424,1431.2,1340.3214133126396,350.32142761775424,1531.3,1340.3214133126396,350.32142761775424,1634.7,1340.3214133126396,350.32142761775424,1735.4,1340.3214133126396,350.32142761775424,1840.5,1340.3214133126396,350.32142761775424,1944.8,1340.3214133126396,350.32142761775424,2044.8,1340.3214133126396,350.32142761775424,2144.8,1340.3214133126396,350.32142761775424,2244.9,1340.3214133126396,350.32142761775424,2345,1340.3214133126396,350.32142761775424,2450.5,1340.3214133126396,350.32142761775424,2553.5,1340.3214133126396,350.32142761775424,2656.3,1340.3214133126396,350.32142761775424,2760.2,1340.3214133126396,350.32142761775424,2861,1340.3214133126396,350.32142761775424,2965.1,1340.3214133126396,350.32142761775424,3066.1,1340.3214133126396,350.32142761775424,3170.1,1340.3214133126396,350.32142761775424,3274.8,1340.3214133126396,350.32142761775424,3375.5,1340.3214133126396,350.32142761775424,3475.5,1340.3214133126396,350.32142761775424,3575.8,1340.3214133126396,350.32142761775424,3681,1340.3214133126396,350.32142761775424,3785.2,1340.3214133126396,350.32142761775424,3890.9,1340.3214133126396,350.32142761775424,3995.3,1340.3214133126396,350.32142761775424,4100.5,1340.3214133126396,350.32142761775424,4200.8,1340.3214133126396,350.32142761775424,4306.2,1340.3214133126396,350.32142761775424,4407.2,1340.3214133126396,350.32142761775424,4510.9,1340.3214133126396,350.32142761775424,4615,1340.3214133126396,350.32142761775424,4716.2,1340.3214133126396,350.32142761775424,4820.6,1340.3214133126396,350.32142761775424,4926.6]","[2284.6,2284.6,1000,0,1284.6,""oops"",""up"",""right"",""bad_move"",5572,3287,2871.8,2285,415.2,""smooth"",""up"",""up"",""good_move"",8381.4,2809.1,2043.7,5572.3,765.4,""smooth"",""up"",""up"",""good_move"",14587.9,6205.7,2192,11927.7,468.2,""smooth"",""left"",""left"",""good_move""]"
"12514","","<div style=""width:500px;"">
  <p>What determined the result of this run?</p>
  </div>","24","html-slider-response","39","700436","0.0-7.0-1.5","91","1","2025-07-30 11:01:05","36c45c0696341be0efffe67d72a12abb","76.221.209.152","Mozilla/5.0 (Windows NT 10.0; Win64; x64) AppleWebKit/537.36 (KHTML, like Gecko) Chrome/138.0.0.0 Safari/537.36","WebKit","Chrome","138.0.0.0","Windows","10.0","https://app.prolific.com/","en-US,en;q=0.9,de;q=0.8,zh-TW;q=0.7,zh-CN;q=0.6,zh;q=0.5","5d617ba9364f9a0019f1dac3","683dba9a53627eb9ab41b36a","6889fb659743054e6f51c30c","0","5d617ba9364f9a0019f1dac3","0","2025-07-30T11:12:46.717Z","","","","AttribQ","","","","","","","","","","","50","","","","","","","","","","","","","","","","","","","","","","","","","","",""
"1643","","<div style=""width:500px;"">
  <p>How much control did you have over the ball?</p>
  </div>","31","html-slider-response","40","702083","0.0-7.0-2.5","91","1","2025-07-30 11:01:05","36c45c0696341be0efffe67d72a12abb","76.221.209.152","Mozilla/5.0 (Windows NT 10.0; Win64; x64) AppleWebKit/537.36 (KHTML, like Gecko) Chrome/138.0.0.0 Safari/537.36","WebKit","Chrome","138.0.0.0","Windows","10.0","https://app.prolific.com/","en-US,en;q=0.9,de;q=0.8,zh-TW;q=0.7,zh-CN;q=0.6,zh;q=0.5","5d617ba9364f9a0019f1dac3","683dba9a53627eb9ab41b36a","6889fb659743054e6f51c30c","0","5d617ba9364f9a0019f1dac3","0","2025-07-30T11:12:48.364Z","","","","ControlQ","","","","","","","","","","","50","","","","","","","","","","","","","","","","","","","","","","","","","","",""
"2504","","<div style=""width:500px;"">
  <p>How would you describe your current emotional state?</p>
  </div>","72","html-slider-response","41","704588","0.0-7.0-3.5","91","1","2025-07-30 11:01:05","36c45c0696341be0efffe67d72a12abb","76.221.209.152","Mozilla/5.0 (Windows NT 10.0; Win64; x64) AppleWebKit/537.36 (KHTML, like Gecko) Chrome/138.0.0.0 Safari/537.36","WebKit","Chrome","138.0.0.0","Windows","10.0","https://app.prolific.com/","en-US,en;q=0.9,de;q=0.8,zh-TW;q=0.7,zh-CN;q=0.6,zh;q=0.5","5d617ba9364f9a0019f1dac3","683dba9a53627eb9ab41b36a","6889fb659743054e6f51c30c","0","5d617ba9364f9a0019f1dac3","0","2025-07-30T11:12:50.869Z","","","","StressQ","","","","","","","","","","","50","","","","","","","","","","","","","","","","","","","","","","","","","","",""
"1723","","<div style=""width:500px;"">
  <p>What best describes how you currently feel?</p>
  </div>","0","html-slider-response","42","706311","0.0-7.0-4.5","91","1","2025-07-30 11:01:05","36c45c0696341be0efffe67d72a12abb","76.221.209.152","Mozilla/5.0 (Windows NT 10.0; Win64; x64) AppleWebKit/537.36 (KHTML, like Gecko) Chrome/138.0.0.0 Safari/537.36","WebKit","Chrome","138.0.0.0","Windows","10.0","https://app.prolific.com/","en-US,en;q=0.9,de;q=0.8,zh-TW;q=0.7,zh-CN;q=0.6,zh;q=0.5","5d617ba9364f9a0019f1dac3","683dba9a53627eb9ab41b36a","6889fb659743054e6f51c30c","0","5d617ba9364f9a0019f1dac3","0","2025-07-30T11:12:52.593Z","","","","MotivationQ","","","","","","","","","","","50","","","","","","","","","","","","","","","","","","","","","","","","","","",""
"","","","","ctl-task-cpt","43","737360","0.0-7.0-0.6","91","1","2025-07-30 11:01:05","36c45c0696341be0efffe67d72a12abb","76.221.209.152","Mozilla/5.0 (Windows NT 10.0; Win64; x64) AppleWebKit/537.36 (KHTML, like Gecko) Chrome/138.0.0.0 Safari/537.36","WebKit","Chrome","138.0.0.0","Windows","10.0","https://app.prolific.com/","en-US,en;q=0.9,de;q=0.8,zh-TW;q=0.7,zh-CN;q=0.6,zh;q=0.5","5d617ba9364f9a0019f1dac3","683dba9a53627eb9ab41b36a","6889fb659743054e6f51c30c","0","5d617ba9364f9a0019f1dac3","0","2025-07-30T11:13:23.641Z","","","","","","","","","","","","","","","","win-only","0","g1:NW,g2:SE","0.4","7","0","709653.2","846.1","5858.6","28028.7","1","4","8","6","1","-1","-1","1","2","0.007575757575757576","762.3","3000","-2175","[""left"",""up""]","{""num_key_presses"":5,""num_perfect"":2,""num_errors"":0,""num_randdir"":3,""num_randdir_good_moves"":0,""num_whilered"":0,""num_whileblue"":0,""num_blue"":1,""num_good_moves"":2}","[414.0714133126395,416.57142761775424,0.1,414.0714133126395,416.57142761775424,104.8,414.0714133126395,416.57142761775424,210.1,409.0714133126395,424.07142761775424,311.2,396.5714133126395,446.57142761775424,411.2,271.5714133126395,361.57142761775424,512.8,91.5714133126395,151.57142761775424,615.2,86.5714133126395,117.82142761775425,719.7,86.5714133126395,117.82142761775425,820.3,81.5714133126395,119.07142761775425,925,-17.178586687360493,144.07142761775424,1030.7,-78.4285866873605,266.57142761775424,1131,-13.428586687360493,454.07142761775424,1235.4,804.0714133126395,516.5714276177542,1335.5,1330.3214133126396,481.57142761775424,1440.1,1330.3214133126396,481.57142761775424,1540.6,1330.3214133126396,481.57142761775424,1640.6,1330.3214133126396,481.57142761775424,1744.5,1330.3214133126396,481.57142761775424,1845.7,1330.3214133126396,481.57142761775424,1949.4,1330.3214133126396,481.57142761775424,2054.8,1330.3214133126396,481.57142761775424,2154.9,1330.3214133126396,481.57142761775424,2255,1330.3214133126396,481.57142761775424,2361.1,1330.3214133126396,481.57142761775424,2461.2,1330.3214133126396,481.57142761775424,2563.4,1330.3214133126396,481.57142761775424,2665.5,1330.3214133126396,481.57142761775424,2765.5,1330.3214133126396,481.57142761775424,2870.2,1330.3214133126396,481.57142761775424,2977.8,1330.3214133126396,481.57142761775424,3079.4,1330.3214133126396,481.57142761775424,3180.4,1330.3214133126396,481.57142761775424,3286.3,1330.3214133126396,481.57142761775424,3391.1,1330.3214133126396,481.57142761775424,3498.3,1330.3214133126396,481.57142761775424,3602.7,1330.3214133126396,481.57142761775424,3706.8,1330.3214133126396,481.57142761775424,3809.9,1330.3214133126396,481.57142761775424,3911.4,1330.3214133126396,481.57142761775424,4015.3,1330.3214133126396,481.57142761775424,4116.2,1330.3214133126396,481.57142761775424,4218.8,1330.3214133126396,481.57142761775424,4319.7,1330.3214133126396,481.57142761775424,4429.7,1330.3214133126396,481.57142761775424,4534.1,1330.3214133126396,481.57142761775424,4648.5,1147.8214133126396,261.57142761775424,4764.1,762.8214133126395,271.57142761775424,4876.8,327.8214133126395,290.32142761775424,4983.7]","[1493,1493.1,1000,0,493.1,""smooth"",""up"",""up"",""good_move"",4885.6,3392.1,2984.1,1493.5,408,""smooth"",""up"",""up"",""good_move"",7924.7,3039,2608.9,4885.8,430.1,""oops"",""left"",""right"",""bad_move"",11612.8,3687.2,3286.2,7925.6,401,""oops"",""left"",""right"",""bad_move"",15293.1,3680.3,3323.1,11612.8,357.2,""oops"",""left"",""down"",""bad_move""]"
"7482","","<div style=""width:500px;"">
  <p>What determined the result of this run?</p>
  </div>","18","html-slider-response","44","744845","0.0-7.0-1.6","91","1","2025-07-30 11:01:05","36c45c0696341be0efffe67d72a12abb","76.221.209.152","Mozilla/5.0 (Windows NT 10.0; Win64; x64) AppleWebKit/537.36 (KHTML, like Gecko) Chrome/138.0.0.0 Safari/537.36","WebKit","Chrome","138.0.0.0","Windows","10.0","https://app.prolific.com/","en-US,en;q=0.9,de;q=0.8,zh-TW;q=0.7,zh-CN;q=0.6,zh;q=0.5","5d617ba9364f9a0019f1dac3","683dba9a53627eb9ab41b36a","6889fb659743054e6f51c30c","0","5d617ba9364f9a0019f1dac3","0","2025-07-30T11:13:31.126Z","","","","AttribQ","","","","","","","","","","","50","","","","","","","","","","","","","","","","","","","","","","","","","","",""
"1934","","<div style=""width:500px;"">
  <p>How much control did you have over the ball?</p>
  </div>","17","html-slider-response","45","746781","0.0-7.0-2.6","91","1","2025-07-30 11:01:05","36c45c0696341be0efffe67d72a12abb","76.221.209.152","Mozilla/5.0 (Windows NT 10.0; Win64; x64) AppleWebKit/537.36 (KHTML, like Gecko) Chrome/138.0.0.0 Safari/537.36","WebKit","Chrome","138.0.0.0","Windows","10.0","https://app.prolific.com/","en-US,en;q=0.9,de;q=0.8,zh-TW;q=0.7,zh-CN;q=0.6,zh;q=0.5","5d617ba9364f9a0019f1dac3","683dba9a53627eb9ab41b36a","6889fb659743054e6f51c30c","0","5d617ba9364f9a0019f1dac3","0","2025-07-30T11:13:33.062Z","","","","ControlQ","","","","","","","","","","","50","","","","","","","","","","","","","","","","","","","","","","","","","","",""
"1817","","<div style=""width:500px;"">
  <p>How would you describe your current emotional state?</p>
  </div>","79","html-slider-response","46","748599","0.0-7.0-3.6","91","1","2025-07-30 11:01:05","36c45c0696341be0efffe67d72a12abb","76.221.209.152","Mozilla/5.0 (Windows NT 10.0; Win64; x64) AppleWebKit/537.36 (KHTML, like Gecko) Chrome/138.0.0.0 Safari/537.36","WebKit","Chrome","138.0.0.0","Windows","10.0","https://app.prolific.com/","en-US,en;q=0.9,de;q=0.8,zh-TW;q=0.7,zh-CN;q=0.6,zh;q=0.5","5d617ba9364f9a0019f1dac3","683dba9a53627eb9ab41b36a","6889fb659743054e6f51c30c","0","5d617ba9364f9a0019f1dac3","0","2025-07-30T11:13:34.880Z","","","","StressQ","","","","","","","","","","","50","","","","","","","","","","","","","","","","","","","","","","","","","","",""
"2452","","<div style=""width:500px;"">
  <p>What best describes how you currently feel?</p>
  </div>","0","html-slider-response","47","751052","0.0-7.0-4.6","91","1","2025-07-30 11:01:05","36c45c0696341be0efffe67d72a12abb","76.221.209.152","Mozilla/5.0 (Windows NT 10.0; Win64; x64) AppleWebKit/537.36 (KHTML, like Gecko) Chrome/138.0.0.0 Safari/537.36","WebKit","Chrome","138.0.0.0","Windows","10.0","https://app.prolific.com/","en-US,en;q=0.9,de;q=0.8,zh-TW;q=0.7,zh-CN;q=0.6,zh;q=0.5","5d617ba9364f9a0019f1dac3","683dba9a53627eb9ab41b36a","6889fb659743054e6f51c30c","0","5d617ba9364f9a0019f1dac3","0","2025-07-30T11:13:37.333Z","","","","MotivationQ","","","","","","","","","","","50","","","","","","","","","","","","","","","","","","","","","","","","","","",""
"","","","","ctl-task-cpt","48","773607","0.0-7.0-0.7","91","1","2025-07-30 11:01:05","36c45c0696341be0efffe67d72a12abb","76.221.209.152","Mozilla/5.0 (Windows NT 10.0; Win64; x64) AppleWebKit/537.36 (KHTML, like Gecko) Chrome/138.0.0.0 Safari/537.36","WebKit","Chrome","138.0.0.0","Windows","10.0","https://app.prolific.com/","en-US,en;q=0.9,de;q=0.8,zh-TW;q=0.7,zh-CN;q=0.6,zh;q=0.5","5d617ba9364f9a0019f1dac3","683dba9a53627eb9ab41b36a","6889fb659743054e6f51c30c","0","5d617ba9364f9a0019f1dac3","0","2025-07-30T11:13:59.888Z","","","","","","","","","","","","","","","","win-only","1","g1:NE,g2:SW","0.3","8","0","754393.9","1002.1","6006.4","19531.1","1","4","4","6","1","-1","-1","0","1","0","863.9","3000","-2080","[""up"",""right""]","{""num_key_presses"":3,""num_perfect"":0,""num_errors"":0,""num_randdir"":3,""num_randdir_good_moves"":1,""num_whilered"":0,""num_whileblue"":0,""num_blue"":0,""num_good_moves"":1}","[425.3214133126395,419.07142761775424,0.4,424.0714133126395,419.07142761775424,105.6,421.5714133126395,419.07142761775424,209.1,419.0714133126395,419.07142761775424,309.2,420.3214133126395,427.82142761775424,410.8,511.5714133126395,371.57142761775424,514.1,560.3214133126395,325.32142761775424,614.6,669.0714133126395,180.32142761775424,720.4,749.0714133126395,74.07142761775425,823.2,749.0714133126395,74.07142761775425,923.4,749.0714133126395,74.07142761775425,1023.7,712.8214133126395,69.07142761775425,1125.9,334.0714133126395,60.32142761775425,1228.1,294.0714133126395,126.57142761775425,1329.8,311.5714133126395,146.57142761775424,1438.4,311.5714133126395,146.57142761775424,1538.8,311.5714133126395,146.57142761775424,1638.9,311.5714133126395,146.57142761775424,1740.1,311.5714133126395,146.57142761775424,1843.7,311.5714133126395,146.57142761775424,1948.4,311.5714133126395,146.57142761775424,2048.5,311.5714133126395,146.57142761775424,2148.7,311.5714133126395,146.57142761775424,2249.3,311.5714133126395,146.57142761775424,2354.3,311.5714133126395,146.57142761775424,2461.5,311.5714133126395,146.57142761775424,2564,311.5714133126395,146.57142761775424,2668.8,311.5714133126395,146.57142761775424,2773.2,311.5714133126395,146.57142761775424,2874.1,311.5714133126395,146.57142761775424,2974.3,311.5714133126395,146.57142761775424,3079,311.5714133126395,146.57142761775424,3180.4,311.5714133126395,146.57142761775424,3281.4,311.5714133126395,146.57142761775424,3383.1,311.5714133126395,146.57142761775424,3483.8,311.5714133126395,146.57142761775424,3588.7,311.5714133126395,146.57142761775424,3690,311.5714133126395,146.57142761775424,3793.1,311.5714133126395,146.57142761775424,3893.4,311.5714133126395,146.57142761775424,3993.4,311.5714133126395,146.57142761775424,4094.1,311.5714133126395,146.57142761775424,4198.7,311.5714133126395,146.57142761775424,4298.8,311.5714133126395,146.57142761775424,4403.9,311.5714133126395,146.57142761775424,4506,311.5714133126395,146.57142761775424,4609.6,311.5714133126395,146.57142761775424,4714.1,311.5714133126395,146.57142761775424,4818.1,311.5714133126395,146.57142761775424,4918.3]","[1485.5,1485.5,1000,0,485.5,""oops"",""up"",""down"",""bad_move"",5172.7,3687,3161.4,1485.7,525.6,""oops"",""up"",""right"",""good_move"",8100.4,2927,2578.9,5173.4,348.1,""oops"",""up"",""down"",""bad_move""]"
"15576","","<div style=""width:500px;"">
  <p>What determined the result of this run?</p>
  </div>","20","html-slider-response","49","789185","0.0-7.0-1.7","91","1","2025-07-30 11:01:05","36c45c0696341be0efffe67d72a12abb","76.221.209.152","Mozilla/5.0 (Windows NT 10.0; Win64; x64) AppleWebKit/537.36 (KHTML, like Gecko) Chrome/138.0.0.0 Safari/537.36","WebKit","Chrome","138.0.0.0","Windows","10.0","https://app.prolific.com/","en-US,en;q=0.9,de;q=0.8,zh-TW;q=0.7,zh-CN;q=0.6,zh;q=0.5","5d617ba9364f9a0019f1dac3","683dba9a53627eb9ab41b36a","6889fb659743054e6f51c30c","0","5d617ba9364f9a0019f1dac3","0","2025-07-30T11:14:15.466Z","","","","AttribQ","","","","","","","","","","","50","","","","","","","","","","","","","","","","","","","","","","","","","","",""
"2021","","<div style=""width:500px;"">
  <p>How much control did you have over the ball?</p>
  </div>","15","html-slider-response","50","791210","0.0-7.0-2.7","91","1","2025-07-30 11:01:05","36c45c0696341be0efffe67d72a12abb","76.221.209.152","Mozilla/5.0 (Windows NT 10.0; Win64; x64) AppleWebKit/537.36 (KHTML, like Gecko) Chrome/138.0.0.0 Safari/537.36","WebKit","Chrome","138.0.0.0","Windows","10.0","https://app.prolific.com/","en-US,en;q=0.9,de;q=0.8,zh-TW;q=0.7,zh-CN;q=0.6,zh;q=0.5","5d617ba9364f9a0019f1dac3","683dba9a53627eb9ab41b36a","6889fb659743054e6f51c30c","0","5d617ba9364f9a0019f1dac3","0","2025-07-30T11:14:17.491Z","","","","ControlQ","","","","","","","","","","","50","","","","","","","","","","","","","","","","","","","","","","","","","","",""
"1871","","<div style=""width:500px;"">
  <p>How would you describe your current emotional state?</p>
  </div>","80","html-slider-response","51","793082","0.0-7.0-3.7","91","1","2025-07-30 11:01:05","36c45c0696341be0efffe67d72a12abb","76.221.209.152","Mozilla/5.0 (Windows NT 10.0; Win64; x64) AppleWebKit/537.36 (KHTML, like Gecko) Chrome/138.0.0.0 Safari/537.36","WebKit","Chrome","138.0.0.0","Windows","10.0","https://app.prolific.com/","en-US,en;q=0.9,de;q=0.8,zh-TW;q=0.7,zh-CN;q=0.6,zh;q=0.5","5d617ba9364f9a0019f1dac3","683dba9a53627eb9ab41b36a","6889fb659743054e6f51c30c","0","5d617ba9364f9a0019f1dac3","0","2025-07-30T11:14:19.363Z","","","","StressQ","","","","","","","","","","","50","","","","","","","","","","","","","","","","","","","","","","","","","","",""
"2003","","<div style=""width:500px;"">
  <p>What best describes how you currently feel?</p>
  </div>","0","html-slider-response","52","795086","0.0-7.0-4.7","91","1","2025-07-30 11:01:05","36c45c0696341be0efffe67d72a12abb","76.221.209.152","Mozilla/5.0 (Windows NT 10.0; Win64; x64) AppleWebKit/537.36 (KHTML, like Gecko) Chrome/138.0.0.0 Safari/537.36","WebKit","Chrome","138.0.0.0","Windows","10.0","https://app.prolific.com/","en-US,en;q=0.9,de;q=0.8,zh-TW;q=0.7,zh-CN;q=0.6,zh;q=0.5","5d617ba9364f9a0019f1dac3","683dba9a53627eb9ab41b36a","6889fb659743054e6f51c30c","0","5d617ba9364f9a0019f1dac3","0","2025-07-30T11:14:21.368Z","","","","MotivationQ","","","","","","","","","","","50","","","","","","","","","","","","","","","","","","","","","","","","","","",""
"","","","","ctl-task-cpt","53","821587","0.0-7.0-0.8","91","1","2025-07-30 11:01:05","36c45c0696341be0efffe67d72a12abb","76.221.209.152","Mozilla/5.0 (Windows NT 10.0; Win64; x64) AppleWebKit/537.36 (KHTML, like Gecko) Chrome/138.0.0.0 Safari/537.36","WebKit","Chrome","138.0.0.0","Windows","10.0","https://app.prolific.com/","en-US,en;q=0.9,de;q=0.8,zh-TW;q=0.7,zh-CN;q=0.6,zh;q=0.5","5d617ba9364f9a0019f1dac3","683dba9a53627eb9ab41b36a","6889fb659743054e6f51c30c","0","5d617ba9364f9a0019f1dac3","0","2025-07-30T11:14:47.868Z","","","","","","","","","","","","","","","","win-only","2","g1:SE,g2:NW","0.4","9","0","798427.9","851.5","5852.5","23477.4","1","4","4","6","1","-1","-1","0","0","0","1059.8","3000","-2875","[""down"",""right""]","{""num_key_presses"":4,""num_perfect"":0,""num_errors"":0,""num_randdir"":4,""num_randdir_good_moves"":2,""num_whilered"":0,""num_whileblue"":0,""num_blue"":1,""num_good_moves"":2}","[410.3214133126395,411.57142761775424,0.3,410.3214133126395,412.82142761775424,104.3,411.5714133126395,416.57142761775424,211,305.3214133126395,419.07142761775424,311.5,274.0714133126395,421.57142761775424,414.5,201.5714133126395,289.07142761775424,515.6,116.5714133126395,107.82142761775425,619.8,246.5714133126395,182.82142761775424,725.8,751.5714133126395,737.8214276177542,830.4,756.5714133126395,800.3214276177542,938.7,772.8214133126395,821.5714276177542,1043.7,775.3214133126395,824.0714276177542,1146.7,669.0714133126395,811.5714276177542,1249.3,581.5714133126395,851.5714276177542,1349.5,247.8214133126395,924.0714276177542,1449.8,-12.178586687360493,931.5714276177542,1553.9,-13.428586687360493,879.0714276177542,1657.1,-13.428586687360493,879.0714276177542,1758.7,-13.428586687360493,879.0714276177542,1861.5,-13.428586687360493,879.0714276177542,1967.4,206.5714133126395,847.8214276177542,2069.6,826.5714133126395,726.5714276177542,2169.9,1331.5714133126396,570.3214276177542,2271.4,1374.0714133126396,544.0714276177542,2373.6,1374.0714133126396,544.0714276177542,2475.5,1374.0714133126396,544.0714276177542,2583.3,1217.8214133126396,479.07142761775424,2685.3,596.5714133126395,695.3214276177542,2785.9,-264.6785866873605,916.5714276177542,2890.1,-318.4285866873605,907.8214276177542,2990.3,-358.4285866873605,897.8214276177542,3091.6,-389.6785866873605,960.3214276177542,3196.3,-363.4285866873605,940.3214276177542,3299.1,-187.1785866873605,800.3214276177542,3404.7,-152.1785866873605,781.5714276177542,3504.8,-152.1785866873605,781.5714276177542,3604.8,-193.4285866873605,791.5714276177542,3711.9,-248.4285866873605,796.5714276177542,3813.8,-248.4285866873605,796.5714276177542,3915.2,-248.4285866873605,796.5714276177542,4021.1,-248.4285866873605,796.5714276177542,4124.3,-248.4285866873605,796.5714276177542,4229.9,-248.4285866873605,796.5714276177542,4335.7,-248.4285866873605,796.5714276177542,4435.7,-248.4285866873605,796.5714276177542,4539.8,-248.4285866873605,796.5714276177542,4639.9,-248.4285866873605,796.5714276177542,4744.6,-248.4285866873605,796.5714276177542,4844.7,-248.4285866873605,796.5714276177542,4944.8]","[1428.7,1428.7,1000,0,428.7,""oops"",""down"",""right"",""good_move"",8348.7,6919.8,2613.3,5278.4,457,""oops"",""down"",""left"",""bad_move"",11339.9,2990,2403.8,8349.9,586.2,""oops"",""right"",""right"",""good_move"",13748.8,2408.3,1886.9,11340.5,521.4,""oops"",""down"",""up"",""bad_move""]"
"40247","","<div style=""width:500px;"">
  <p>What determined the result of this run?</p>
  </div>","19","html-slider-response","54","861836","0.0-7.0-1.8","91","1","2025-07-30 11:01:05","36c45c0696341be0efffe67d72a12abb","76.221.209.152","Mozilla/5.0 (Windows NT 10.0; Win64; x64) AppleWebKit/537.36 (KHTML, like Gecko) Chrome/138.0.0.0 Safari/537.36","WebKit","Chrome","138.0.0.0","Windows","10.0","https://app.prolific.com/","en-US,en;q=0.9,de;q=0.8,zh-TW;q=0.7,zh-CN;q=0.6,zh;q=0.5","5d617ba9364f9a0019f1dac3","683dba9a53627eb9ab41b36a","6889fb659743054e6f51c30c","0","5d617ba9364f9a0019f1dac3","0","2025-07-30T11:15:28.117Z","","","","AttribQ","","","","","","","","","","","50","","","","","","","","","","","","","","","","","","","","","","","","","","",""
"1549","","<div style=""width:500px;"">
  <p>How much control did you have over the ball?</p>
  </div>","22","html-slider-response","55","863387","0.0-7.0-2.8","91","1","2025-07-30 11:01:05","36c45c0696341be0efffe67d72a12abb","76.221.209.152","Mozilla/5.0 (Windows NT 10.0; Win64; x64) AppleWebKit/537.36 (KHTML, like Gecko) Chrome/138.0.0.0 Safari/537.36","WebKit","Chrome","138.0.0.0","Windows","10.0","https://app.prolific.com/","en-US,en;q=0.9,de;q=0.8,zh-TW;q=0.7,zh-CN;q=0.6,zh;q=0.5","5d617ba9364f9a0019f1dac3","683dba9a53627eb9ab41b36a","6889fb659743054e6f51c30c","0","5d617ba9364f9a0019f1dac3","0","2025-07-30T11:15:29.668Z","","","","ControlQ","","","","","","","","","","","50","","","","","","","","","","","","","","","","","","","","","","","","","","",""
"1234","","<div style=""width:500px;"">
  <p>How would you describe your current emotional state?</p>
  </div>","95","html-slider-response","56","864622","0.0-7.0-3.8","91","1","2025-07-30 11:01:05","36c45c0696341be0efffe67d72a12abb","76.221.209.152","Mozilla/5.0 (Windows NT 10.0; Win64; x64) AppleWebKit/537.36 (KHTML, like Gecko) Chrome/138.0.0.0 Safari/537.36","WebKit","Chrome","138.0.0.0","Windows","10.0","https://app.prolific.com/","en-US,en;q=0.9,de;q=0.8,zh-TW;q=0.7,zh-CN;q=0.6,zh;q=0.5","5d617ba9364f9a0019f1dac3","683dba9a53627eb9ab41b36a","6889fb659743054e6f51c30c","0","5d617ba9364f9a0019f1dac3","0","2025-07-30T11:15:30.903Z","","","","StressQ","","","","","","","","","","","50","","","","","","","","","","","","","","","","","","","","","","","","","","",""
"1238","","<div style=""width:500px;"">
  <p>What best describes how you currently feel?</p>
  </div>","0","html-slider-response","57","865861","0.0-7.0-4.8","91","1","2025-07-30 11:01:05","36c45c0696341be0efffe67d72a12abb","76.221.209.152","Mozilla/5.0 (Windows NT 10.0; Win64; x64) AppleWebKit/537.36 (KHTML, like Gecko) Chrome/138.0.0.0 Safari/537.36","WebKit","Chrome","138.0.0.0","Windows","10.0","https://app.prolific.com/","en-US,en;q=0.9,de;q=0.8,zh-TW;q=0.7,zh-CN;q=0.6,zh;q=0.5","5d617ba9364f9a0019f1dac3","683dba9a53627eb9ab41b36a","6889fb659743054e6f51c30c","0","5d617ba9364f9a0019f1dac3","0","2025-07-30T11:15:32.142Z","","","","MotivationQ","","","","","","","","","","","50","","","","","","","","","","","","","","","","","","","","","","","","","","",""
"","","","","ctl-task-cpt","58","948522","0.0-7.0-0.9","91","1","2025-07-30 11:01:05","36c45c0696341be0efffe67d72a12abb","76.221.209.152","Mozilla/5.0 (Windows NT 10.0; Win64; x64) AppleWebKit/537.36 (KHTML, like Gecko) Chrome/138.0.0.0 Safari/537.36","WebKit","Chrome","138.0.0.0","Windows","10.0","https://app.prolific.com/","en-US,en;q=0.9,de;q=0.8,zh-TW;q=0.7,zh-CN;q=0.6,zh;q=0.5","5d617ba9364f9a0019f1dac3","683dba9a53627eb9ab41b36a","6889fb659743054e6f51c30c","0","5d617ba9364f9a0019f1dac3","0","2025-07-30T11:16:54.803Z","","","","","","","","","","","","","","","","win-only","2","g1:SE,g2:NW","0.5","10","0","869202.7","47919.5","52921.8","79643","1","4","8","6","1","-1","-1","0","0","0","949.1","3000","-2745","[""down"",""right""]","{""num_key_presses"":5,""num_perfect"":2,""num_errors"":0,""num_randdir"":3,""num_randdir_good_moves"":0,""num_whilered"":0,""num_whileblue"":0,""num_blue"":3,""num_good_moves"":2}","[405.3214133126395,420.32142761775424,0.5,405.3214133126395,420.32142761775424,103.4,406.5714133126395,419.07142761775424,212.5,461.5714133126395,419.07142761775424,312.5,455.3214133126395,411.57142761775424,418.6,331.5714133126395,306.57142761775424,522.3,376.5714133126395,381.57142761775424,628.1,714.0714133126395,642.8214276177542,731,717.8214133126395,695.3214276177542,834.2,721.5714133126395,711.5714276177542,936.3,724.0714133126395,716.5714276177542,1038.6,724.0714133126395,716.5714276177542,1139.1,657.8214133126395,651.5714276177542,1245.4,292.8214133126395,590.3214276177542,1359.4,240.3214133126395,666.5714276177542,1462.1,364.0714133126395,684.0714276177542,1562.5,402.8214133126395,715.3214276177542,1667,374.0714133126395,686.5714276177542,1776.6,340.3214133126395,682.8214276177542,1883,281.5714133126395,736.5714276177542,1986.3,216.5714133126395,839.0714276177542,2087.9,221.5714133126395,901.5714276177542,2188.4,221.5714133126395,901.5714276177542,2288.5,221.5714133126395,901.5714276177542,2391.8,221.5714133126395,901.5714276177542,2498.1,221.5714133126395,901.5714276177542,2599.9,221.5714133126395,901.5714276177542,2701.3,221.5714133126395,901.5714276177542,2804.4,221.5714133126395,901.5714276177542,2908,221.5714133126395,901.5714276177542,3011.2,221.5714133126395,901.5714276177542,3117.6,221.5714133126395,901.5714276177542,3219.8,221.5714133126395,901.5714276177542,3326.6,221.5714133126395,901.5714276177542,3436.5,221.5714133126395,901.5714276177542,3539,221.5714133126395,901.5714276177542,3641.8,221.5714133126395,901.5714276177542,3772.6,221.5714133126395,901.5714276177542,3877.9,221.5714133126395,901.5714276177542,3978.1,221.5714133126395,901.5714276177542,4081.7,221.5714133126395,901.5714276177542,4182.9,221.5714133126395,901.5714276177542,4289.1,221.5714133126395,901.5714276177542,4393.5,221.5714133126395,901.5714276177542,4496.4,221.5714133126395,901.5714276177542,4597.5,221.5714133126395,901.5714276177542,4698.9,221.5714133126395,901.5714276177542,4800.7,221.5714133126395,901.5714276177542,4901.8]","[1393.6,1393.7,1000,0,393.7,""oops"",""down"",""left"",""bad_move"",7481.9,6087.4,2271,4648.7,562.2,""smooth"",""right"",""right"",""good_move"",14257,6774.8,2626.1,11168.6,462.3,""oops"",""down"",""up"",""bad_move"",17576.1,3318.9,2714.5,14257.2,604.4,""smooth"",""down"",""down"",""good_move"",23456.1,5879.2,2043.9,20918.9,493.3,""oops"",""down"",""left"",""bad_move""]"
"6061","","<div style=""width:500px;"">
  <p>What determined the result of this run?</p>
  </div>","20","html-slider-response","59","954585","0.0-7.0-1.9","91","1","2025-07-30 11:01:05","36c45c0696341be0efffe67d72a12abb","76.221.209.152","Mozilla/5.0 (Windows NT 10.0; Win64; x64) AppleWebKit/537.36 (KHTML, like Gecko) Chrome/138.0.0.0 Safari/537.36","WebKit","Chrome","138.0.0.0","Windows","10.0","https://app.prolific.com/","en-US,en;q=0.9,de;q=0.8,zh-TW;q=0.7,zh-CN;q=0.6,zh;q=0.5","5d617ba9364f9a0019f1dac3","683dba9a53627eb9ab41b36a","6889fb659743054e6f51c30c","0","5d617ba9364f9a0019f1dac3","0","2025-07-30T11:17:00.866Z","","","","AttribQ","","","","","","","","","","","50","","","","","","","","","","","","","","","","","","","","","","","","","","",""
"1585","","<div style=""width:500px;"">
  <p>How much control did you have over the ball?</p>
  </div>","17","html-slider-response","60","956175","0.0-7.0-2.9","91","1","2025-07-30 11:01:05","36c45c0696341be0efffe67d72a12abb","76.221.209.152","Mozilla/5.0 (Windows NT 10.0; Win64; x64) AppleWebKit/537.36 (KHTML, like Gecko) Chrome/138.0.0.0 Safari/537.36","WebKit","Chrome","138.0.0.0","Windows","10.0","https://app.prolific.com/","en-US,en;q=0.9,de;q=0.8,zh-TW;q=0.7,zh-CN;q=0.6,zh;q=0.5","5d617ba9364f9a0019f1dac3","683dba9a53627eb9ab41b36a","6889fb659743054e6f51c30c","0","5d617ba9364f9a0019f1dac3","0","2025-07-30T11:17:02.456Z","","","","ControlQ","","","","","","","","","","","50","","","","","","","","","","","","","","","","","","","","","","","","","","",""
"1877","","<div style=""width:500px;"">
  <p>How would you describe your current emotional state?</p>
  </div>","79","html-slider-response","61","958054","0.0-7.0-3.9","91","1","2025-07-30 11:01:05","36c45c0696341be0efffe67d72a12abb","76.221.209.152","Mozilla/5.0 (Windows NT 10.0; Win64; x64) AppleWebKit/537.36 (KHTML, like Gecko) Chrome/138.0.0.0 Safari/537.36","WebKit","Chrome","138.0.0.0","Windows","10.0","https://app.prolific.com/","en-US,en;q=0.9,de;q=0.8,zh-TW;q=0.7,zh-CN;q=0.6,zh;q=0.5","5d617ba9364f9a0019f1dac3","683dba9a53627eb9ab41b36a","6889fb659743054e6f51c30c","0","5d617ba9364f9a0019f1dac3","0","2025-07-30T11:17:04.335Z","","","","StressQ","","","","","","","","","","","50","","","","","","","","","","","","","","","","","","","","","","","","","","",""
"1401","","<div style=""width:500px;"">
  <p>What best describes how you currently feel?</p>
  </div>","0","html-slider-response","62","959456","0.0-7.0-4.9","91","1","2025-07-30 11:01:05","36c45c0696341be0efffe67d72a12abb","76.221.209.152","Mozilla/5.0 (Windows NT 10.0; Win64; x64) AppleWebKit/537.36 (KHTML, like Gecko) Chrome/138.0.0.0 Safari/537.36","WebKit","Chrome","138.0.0.0","Windows","10.0","https://app.prolific.com/","en-US,en;q=0.9,de;q=0.8,zh-TW;q=0.7,zh-CN;q=0.6,zh;q=0.5","5d617ba9364f9a0019f1dac3","683dba9a53627eb9ab41b36a","6889fb659743054e6f51c30c","0","5d617ba9364f9a0019f1dac3","0","2025-07-30T11:17:05.737Z","","","","MotivationQ","","","","","","","","","","","50","","","","","","","","","","","","","","","","","","","","","","","","","","",""
"","","","","ctl-task-cpt","63","987984","0.0-7.0-0.10","91","1","2025-07-30 11:01:05","36c45c0696341be0efffe67d72a12abb","76.221.209.152","Mozilla/5.0 (Windows NT 10.0; Win64; x64) AppleWebKit/537.36 (KHTML, like Gecko) Chrome/138.0.0.0 Safari/537.36","WebKit","Chrome","138.0.0.0","Windows","10.0","https://app.prolific.com/","en-US,en;q=0.9,de;q=0.8,zh-TW;q=0.7,zh-CN;q=0.6,zh;q=0.5","5d617ba9364f9a0019f1dac3","683dba9a53627eb9ab41b36a","6889fb659743054e6f51c30c","0","5d617ba9364f9a0019f1dac3","0","2025-07-30T11:17:34.265Z","","","","","","","","","","","","","","","","win-only","1","g1:NE,g2:SW","0.6","11","0","962798","716.9","5718.3","25507.4","1","4","4","6","1","1","1","1","0","0.007575757575757576","955.5","3000","575","[""up"",""right""]","{""num_key_presses"":6,""num_perfect"":5,""num_errors"":0,""num_randdir"":1,""num_randdir_good_moves"":0,""num_whilered"":0,""num_whileblue"":0,""num_blue"":1,""num_good_moves"":5}","[421.5714133126395,416.57142761775424,0.3,421.5714133126395,416.57142761775424,103.3,421.5714133126395,416.57142761775424,204.4,354.0714133126395,412.82142761775424,310.4,251.5714133126395,556.5714276177542,414.5,234.0714133126395,687.8214276177542,514.8,326.5714133126395,592.8214276177542,620,775.3214133126395,121.57142761775425,720.5,817.8214133126395,71.57142761775425,821.5,826.5714133126395,61.57142761775425,922.1,831.5714133126395,56.57142761775425,1024.8,791.5714133126395,57.82142761775425,1125.4,455.3214133126395,107.82142761775425,1226.1,55.32141331263951,251.57142761775424,1328.7,21.571413312639507,266.57142761775424,1429.1,21.571413312639507,266.57142761775424,1530.6,21.571413312639507,266.57142761775424,1634.4,21.571413312639507,266.57142761775424,1739.4,21.571413312639507,266.57142761775424,1840.5,21.571413312639507,266.57142761775424,1948.1,21.571413312639507,266.57142761775424,2048.8,21.571413312639507,266.57142761775424,2149.3,21.571413312639507,266.57142761775424,2253.7,21.571413312639507,266.57142761775424,2356.1,21.571413312639507,266.57142761775424,2459.6,21.571413312639507,266.57142761775424,2563.6,21.571413312639507,266.57142761775424,2665.1,21.571413312639507,266.57142761775424,2770.6,21.571413312639507,266.57142761775424,2874.4,21.571413312639507,266.57142761775424,2979.4,21.571413312639507,266.57142761775424,3083.8,21.571413312639507,266.57142761775424,3184,21.571413312639507,266.57142761775424,3284.8,21.571413312639507,266.57142761775424,3390.5,21.571413312639507,266.57142761775424,3495.8,21.571413312639507,266.57142761775424,3596.7,21.571413312639507,266.57142761775424,3699.4,21.571413312639507,266.57142761775424,3799.6,21.571413312639507,266.57142761775424,3899.6,21.571413312639507,266.57142761775424,4000,21.571413312639507,266.57142761775424,4103.9,21.571413312639507,266.57142761775424,4211.1,21.571413312639507,266.57142761775424,4316.6,21.571413312639507,266.57142761775424,4418.9,21.571413312639507,266.57142761775424,4527,21.571413312639507,266.57142761775424,4629.9,21.571413312639507,266.57142761775424,4736.4,21.571413312639507,266.57142761775424,4837.3,21.571413312639507,266.57142761775424,4938.8]","[1384.7,1384.7,1000,0,384.7,""smooth"",""up"",""up"",""good_move"",4303.6,2918.3,2525.4,1385.3,392.9,""smooth"",""right"",""right"",""good_move"",7233,2929.1,2490.9,4303.9,438.2,""oops"",""right"",""left"",""bad_move"",11089,3855.7,3393.7,7233.4,461.9,""smooth"",""right"",""right"",""good_move"",17184.8,6095.4,2147.5,14592.7,444.6,""smooth"",""right"",""right"",""good_move"",19704.1,2519,2108.2,17185.1,410.8,""smooth"",""up"",""up"",""good_move""]"
"76313","","<div style=""width:500px;"">
  <p>What determined the result of this run?</p>
  </div>","20","html-slider-response","64","1064299","0.0-7.0-1.10","91","1","2025-07-30 11:01:05","36c45c0696341be0efffe67d72a12abb","76.221.209.152","Mozilla/5.0 (Windows NT 10.0; Win64; x64) AppleWebKit/537.36 (KHTML, like Gecko) Chrome/138.0.0.0 Safari/537.36","WebKit","Chrome","138.0.0.0","Windows","10.0","https://app.prolific.com/","en-US,en;q=0.9,de;q=0.8,zh-TW;q=0.7,zh-CN;q=0.6,zh;q=0.5","5d617ba9364f9a0019f1dac3","683dba9a53627eb9ab41b36a","6889fb659743054e6f51c30c","0","5d617ba9364f9a0019f1dac3","0","2025-07-30T11:18:50.580Z","","","","AttribQ","","","","","","","","","","","50","","","","","","","","","","","","","","","","","","","","","","","","","","",""
"3251","","<div style=""width:500px;"">
  <p>How much control did you have over the ball?</p>
  </div>","58","html-slider-response","65","1067553","0.0-7.0-2.10","91","1","2025-07-30 11:01:05","36c45c0696341be0efffe67d72a12abb","76.221.209.152","Mozilla/5.0 (Windows NT 10.0; Win64; x64) AppleWebKit/537.36 (KHTML, like Gecko) Chrome/138.0.0.0 Safari/537.36","WebKit","Chrome","138.0.0.0","Windows","10.0","https://app.prolific.com/","en-US,en;q=0.9,de;q=0.8,zh-TW;q=0.7,zh-CN;q=0.6,zh;q=0.5","5d617ba9364f9a0019f1dac3","683dba9a53627eb9ab41b36a","6889fb659743054e6f51c30c","0","5d617ba9364f9a0019f1dac3","0","2025-07-30T11:18:53.834Z","","","","ControlQ","","","","","","","","","","","50","","","","","","","","","","","","","","","","","","","","","","","","","","",""
"2392","","<div style=""width:500px;"">
  <p>How would you describe your current emotional state?</p>
  </div>","63","html-slider-response","66","1069946","0.0-7.0-3.10","91","1","2025-07-30 11:01:05","36c45c0696341be0efffe67d72a12abb","76.221.209.152","Mozilla/5.0 (Windows NT 10.0; Win64; x64) AppleWebKit/537.36 (KHTML, like Gecko) Chrome/138.0.0.0 Safari/537.36","WebKit","Chrome","138.0.0.0","Windows","10.0","https://app.prolific.com/","en-US,en;q=0.9,de;q=0.8,zh-TW;q=0.7,zh-CN;q=0.6,zh;q=0.5","5d617ba9364f9a0019f1dac3","683dba9a53627eb9ab41b36a","6889fb659743054e6f51c30c","0","5d617ba9364f9a0019f1dac3","0","2025-07-30T11:18:56.227Z","","","","StressQ","","","","","","","","","","","50","","","","","","","","","","","","","","","","","","","","","","","","","","",""
"1760","","<div style=""width:500px;"">
  <p>What best describes how you currently feel?</p>
  </div>","0","html-slider-response","67","1071707","0.0-7.0-4.10","91","1","2025-07-30 11:01:05","36c45c0696341be0efffe67d72a12abb","76.221.209.152","Mozilla/5.0 (Windows NT 10.0; Win64; x64) AppleWebKit/537.36 (KHTML, like Gecko) Chrome/138.0.0.0 Safari/537.36","WebKit","Chrome","138.0.0.0","Windows","10.0","https://app.prolific.com/","en-US,en;q=0.9,de;q=0.8,zh-TW;q=0.7,zh-CN;q=0.6,zh;q=0.5","5d617ba9364f9a0019f1dac3","683dba9a53627eb9ab41b36a","6889fb659743054e6f51c30c","0","5d617ba9364f9a0019f1dac3","0","2025-07-30T11:18:57.988Z","","","","MotivationQ","","","","","","","","","","","50","","","","","","","","","","","","","","","","","","","","","","","","","","",""
"","","","","ctl-task-cpt","68","1090503","0.0-7.0-0.11","91","1","2025-07-30 11:01:05","36c45c0696341be0efffe67d72a12abb","76.221.209.152","Mozilla/5.0 (Windows NT 10.0; Win64; x64) AppleWebKit/537.36 (KHTML, like Gecko) Chrome/138.0.0.0 Safari/537.36","WebKit","Chrome","138.0.0.0","Windows","10.0","https://app.prolific.com/","en-US,en;q=0.9,de;q=0.8,zh-TW;q=0.7,zh-CN;q=0.6,zh;q=0.5","5d617ba9364f9a0019f1dac3","683dba9a53627eb9ab41b36a","6889fb659743054e6f51c30c","0","5d617ba9364f9a0019f1dac3","0","2025-07-30T11:19:16.784Z","","","","","","","","","","","","","","","","win-only","0","g1:NW,g2:SE","0.7","12","0","1075049","1129.5","6131.2","15776.9","1","4","8","6","1","1","1","2","1","0.015151515151515152","767.4","3000","1570","[""left"",""up""]","{""num_key_presses"":4,""num_perfect"":3,""num_errors"":0,""num_randdir"":1,""num_randdir_good_moves"":1,""num_whilered"":0,""num_whileblue"":0,""num_blue"":0,""num_good_moves"":4}","[421.5714133126395,424.07142761775424,0.3,421.5714133126395,422.82142761775424,101.7,417.8214133126395,417.82142761775424,207.8,374.0714133126395,381.57142761775424,308.1,284.0714133126395,292.82142761775424,414.5,131.5714133126395,160.32142761775424,514.8,104.0714133126395,125.32142761775425,616.7,105.3214133126395,116.57142761775425,717.3,101.5714133126395,109.07142761775425,817.9,69.0714133126395,109.07142761775425,921.7,-202.1785866873605,107.82142761775425,1025.9,-369.6785866873605,131.57142761775424,1127.1,-369.6785866873605,131.57142761775424,1227.4,-369.6785866873605,131.57142761775424,1327.5,-369.6785866873605,131.57142761775424,1434.4,-369.6785866873605,131.57142761775424,1536.3,-369.6785866873605,131.57142761775424,1636.4,-369.6785866873605,131.57142761775424,1736.4,-369.6785866873605,131.57142761775424,1836.7,-369.6785866873605,131.57142761775424,1937.2,-369.6785866873605,131.57142761775424,2042.6,-369.6785866873605,131.57142761775424,2142.9,-369.6785866873605,131.57142761775424,2248.1,-369.6785866873605,131.57142761775424,2351.1,-369.6785866873605,131.57142761775424,2452.4,-369.6785866873605,131.57142761775424,2557.2,-369.6785866873605,131.57142761775424,2657.3,-369.6785866873605,131.57142761775424,2757.8,-369.6785866873605,131.57142761775424,2858.6,-369.6785866873605,131.57142761775424,2961.9,-369.6785866873605,131.57142761775424,3072.8,-369.6785866873605,131.57142761775424,3172.9,-369.6785866873605,131.57142761775424,3276.2,-369.6785866873605,131.57142761775424,3378.2,-369.6785866873605,131.57142761775424,3482.3,-369.6785866873605,131.57142761775424,3586.8,-369.6785866873605,131.57142761775424,3687.8,-369.6785866873605,131.57142761775424,3792.3,-369.6785866873605,131.57142761775424,3892.6,-369.6785866873605,131.57142761775424,3997.4,-369.6785866873605,131.57142761775424,4100.7,-369.6785866873605,131.57142761775424,4204,-369.6785866873605,131.57142761775424,4309.1,-369.6785866873605,131.57142761775424,4412.1,-369.6785866873605,131.57142761775424,4520.3,-369.6785866873605,131.57142761775424,4622,-369.6785866873605,131.57142761775424,4725.1,-369.6785866873605,131.57142761775424,4826.1,-369.6785866873605,131.57142761775424,4926.3]","[1415.6,1415.6,1000,0,415.6,""oops"",""up"",""left"",""good_move"",3673.7,2258,1863.7,1415.8,394.3,""smooth"",""up"",""up"",""good_move"",6025.3,2351.2,2009.7,3674.1,341.5,""smooth"",""up"",""up"",""good_move"",9552,3526.4,3146.2,6025.6,380.2,""smooth"",""left"",""left"",""good_move""]"
"6833","","<div style=""width:500px;"">
  <p>What determined the result of this run?</p>
  </div>","30","html-slider-response","69","1097338","0.0-7.0-1.11","91","1","2025-07-30 11:01:05","36c45c0696341be0efffe67d72a12abb","76.221.209.152","Mozilla/5.0 (Windows NT 10.0; Win64; x64) AppleWebKit/537.36 (KHTML, like Gecko) Chrome/138.0.0.0 Safari/537.36","WebKit","Chrome","138.0.0.0","Windows","10.0","https://app.prolific.com/","en-US,en;q=0.9,de;q=0.8,zh-TW;q=0.7,zh-CN;q=0.6,zh;q=0.5","5d617ba9364f9a0019f1dac3","683dba9a53627eb9ab41b36a","6889fb659743054e6f51c30c","0","5d617ba9364f9a0019f1dac3","0","2025-07-30T11:19:23.619Z","","","","AttribQ","","","","","","","","","","","50","","","","","","","","","","","","","","","","","","","","","","","","","","",""
"2648","","<div style=""width:500px;"">
  <p>How much control did you have over the ball?</p>
  </div>","61","html-slider-response","70","1099989","0.0-7.0-2.11","91","1","2025-07-30 11:01:05","36c45c0696341be0efffe67d72a12abb","76.221.209.152","Mozilla/5.0 (Windows NT 10.0; Win64; x64) AppleWebKit/537.36 (KHTML, like Gecko) Chrome/138.0.0.0 Safari/537.36","WebKit","Chrome","138.0.0.0","Windows","10.0","https://app.prolific.com/","en-US,en;q=0.9,de;q=0.8,zh-TW;q=0.7,zh-CN;q=0.6,zh;q=0.5","5d617ba9364f9a0019f1dac3","683dba9a53627eb9ab41b36a","6889fb659743054e6f51c30c","0","5d617ba9364f9a0019f1dac3","0","2025-07-30T11:19:26.270Z","","","","ControlQ","","","","","","","","","","","50","","","","","","","","","","","","","","","","","","","","","","","","","","",""
"1737","","<div style=""width:500px;"">
  <p>How would you describe your current emotional state?</p>
  </div>","71","html-slider-response","71","1101727","0.0-7.0-3.11","91","1","2025-07-30 11:01:05","36c45c0696341be0efffe67d72a12abb","76.221.209.152","Mozilla/5.0 (Windows NT 10.0; Win64; x64) AppleWebKit/537.36 (KHTML, like Gecko) Chrome/138.0.0.0 Safari/537.36","WebKit","Chrome","138.0.0.0","Windows","10.0","https://app.prolific.com/","en-US,en;q=0.9,de;q=0.8,zh-TW;q=0.7,zh-CN;q=0.6,zh;q=0.5","5d617ba9364f9a0019f1dac3","683dba9a53627eb9ab41b36a","6889fb659743054e6f51c30c","0","5d617ba9364f9a0019f1dac3","0","2025-07-30T11:19:28.008Z","","","","StressQ","","","","","","","","","","","50","","","","","","","","","","","","","","","","","","","","","","","","","","",""
"2067","","<div style=""width:500px;"">
  <p>What best describes how you currently feel?</p>
  </div>","0","html-slider-response","72","1103795","0.0-7.0-4.11","91","1","2025-07-30 11:01:05","36c45c0696341be0efffe67d72a12abb","76.221.209.152","Mozilla/5.0 (Windows NT 10.0; Win64; x64) AppleWebKit/537.36 (KHTML, like Gecko) Chrome/138.0.0.0 Safari/537.36","WebKit","Chrome","138.0.0.0","Windows","10.0","https://app.prolific.com/","en-US,en;q=0.9,de;q=0.8,zh-TW;q=0.7,zh-CN;q=0.6,zh;q=0.5","5d617ba9364f9a0019f1dac3","683dba9a53627eb9ab41b36a","6889fb659743054e6f51c30c","0","5d617ba9364f9a0019f1dac3","0","2025-07-30T11:19:30.076Z","","","","MotivationQ","","","","","","","","","","","50","","","","","","","","","","","","","","","","","","","","","","","","","","",""
"","","","","ctl-task-cpt","73","1116930","0.0-7.0-0.12","91","1","2025-07-30 11:01:05","36c45c0696341be0efffe67d72a12abb","76.221.209.152","Mozilla/5.0 (Windows NT 10.0; Win64; x64) AppleWebKit/537.36 (KHTML, like Gecko) Chrome/138.0.0.0 Safari/537.36","WebKit","Chrome","138.0.0.0","Windows","10.0","https://app.prolific.com/","en-US,en;q=0.9,de;q=0.8,zh-TW;q=0.7,zh-CN;q=0.6,zh;q=0.5","5d617ba9364f9a0019f1dac3","683dba9a53627eb9ab41b36a","6889fb659743054e6f51c30c","0","5d617ba9364f9a0019f1dac3","0","2025-07-30T11:19:43.212Z","","","","","","","","","","","","","","","","win-only","3","g1:SW,g2:NE","0.8","13","0","1107136.8","784.8","5786.5","10111.5","1","4","8","6","1","-1","-1","1","2","0.007575757575757576","1228.9","3000","-1850","[""down"",""left""]","{""num_key_presses"":0,""num_perfect"":0,""num_errors"":0,""num_randdir"":0,""num_randdir_good_moves"":0,""num_whilered"":0,""num_whileblue"":0,""num_blue"":0,""num_good_moves"":0}","[409.0714133126395,416.57142761775424,0.4,411.5714133126395,416.57142761775424,103.3,419.0714133126395,416.57142761775424,206.6,429.0714133126395,411.57142761775424,309.3,381.5714133126395,467.82142761775424,412.3,209.0714133126395,671.5714276177542,513.8,157.8214133126395,715.3214276177542,617.7,146.5714133126395,731.5714276177542,721,117.8214133126395,751.5714276177542,823,-33.42858668736049,811.5714276177542,924.3,-65.9285866873605,824.0714276177542,1025.3,-43.42858668736049,816.5714276177542,1126.6,40.32141331263951,791.5714276177542,1230.8,40.32141331263951,791.5714276177542,1330.8,39.07141331263951,791.5714276177542,1439.7,-148.4285866873605,821.5714276177542,1542.8,-188.4285866873605,780.3214276177542,1647.1,-188.4285866873605,780.3214276177542,1747.7,-224.6785866873605,769.0714276177542,1852,-543.4285866873605,876.5714276177542,1952.4,-109.6785866873605,891.5714276177542,2058.6,1135.3214133126396,751.5714276177542,2161.4,1357.8214133126396,721.5714276177542,2268.4,1357.8214133126396,721.5714276177542,2371.4,1357.8214133126396,721.5714276177542,2477.7,1357.8214133126396,721.5714276177542,2581.9,1357.8214133126396,721.5714276177542,2685.5,1357.8214133126396,721.5714276177542,2790.2,1357.8214133126396,721.5714276177542,2892.6,1357.8214133126396,721.5714276177542,2992.7,1357.8214133126396,721.5714276177542,3095.8,1357.8214133126396,721.5714276177542,3196.5,1357.8214133126396,721.5714276177542,3297.8,1357.8214133126396,721.5714276177542,3400.4,1357.8214133126396,721.5714276177542,3501.9,1357.8214133126396,721.5714276177542,3605.6,1357.8214133126396,721.5714276177542,3710.5,1357.8214133126396,721.5714276177542,3810.4,1357.8214133126396,721.5714276177542,3911.7,1357.8214133126396,721.5714276177542,4011.7,1357.8214133126396,721.5714276177542,4116.5,1357.8214133126396,721.5714276177542,4222.7,1357.8214133126396,721.5714276177542,4327.1,1357.8214133126396,721.5714276177542,4433.3,1357.8214133126396,721.5714276177542,4535.6,1357.8214133126396,721.5714276177542,4636.2,1357.8214133126396,721.5714276177542,4738.9,937.8214133126395,546.5714276177542,4844.3,570.3214133126395,655.3214276177542,4945.1]","[]"
"3760","","<div style=""width:500px;"">
  <p>What determined the result of this run?</p>
  </div>","100","html-slider-response","74","1120694","0.0-7.0-1.12","91","1","2025-07-30 11:01:05","36c45c0696341be0efffe67d72a12abb","76.221.209.152","Mozilla/5.0 (Windows NT 10.0; Win64; x64) AppleWebKit/537.36 (KHTML, like Gecko) Chrome/138.0.0.0 Safari/537.36","WebKit","Chrome","138.0.0.0","Windows","10.0","https://app.prolific.com/","en-US,en;q=0.9,de;q=0.8,zh-TW;q=0.7,zh-CN;q=0.6,zh;q=0.5","5d617ba9364f9a0019f1dac3","683dba9a53627eb9ab41b36a","6889fb659743054e6f51c30c","0","5d617ba9364f9a0019f1dac3","0","2025-07-30T11:19:46.975Z","","","","AttribQ","","","","","","","","","","","50","","","","","","","","","","","","","","","","","","","","","","","","","","",""
"3606","","<div style=""width:500px;"">
  <p>How much control did you have over the ball?</p>
  </div>","71","html-slider-response","75","1124304","0.0-7.0-2.12","91","1","2025-07-30 11:01:05","36c45c0696341be0efffe67d72a12abb","76.221.209.152","Mozilla/5.0 (Windows NT 10.0; Win64; x64) AppleWebKit/537.36 (KHTML, like Gecko) Chrome/138.0.0.0 Safari/537.36","WebKit","Chrome","138.0.0.0","Windows","10.0","https://app.prolific.com/","en-US,en;q=0.9,de;q=0.8,zh-TW;q=0.7,zh-CN;q=0.6,zh;q=0.5","5d617ba9364f9a0019f1dac3","683dba9a53627eb9ab41b36a","6889fb659743054e6f51c30c","0","5d617ba9364f9a0019f1dac3","0","2025-07-30T11:19:50.586Z","","","","ControlQ","","","","","","","","","","","50","","","","","","","","","","","","","","","","","","","","","","","","","","",""
"2186","","<div style=""width:500px;"">
  <p>How would you describe your current emotional state?</p>
  </div>","75","html-slider-response","76","1126493","0.0-7.0-3.12","91","1","2025-07-30 11:01:05","36c45c0696341be0efffe67d72a12abb","76.221.209.152","Mozilla/5.0 (Windows NT 10.0; Win64; x64) AppleWebKit/537.36 (KHTML, like Gecko) Chrome/138.0.0.0 Safari/537.36","WebKit","Chrome","138.0.0.0","Windows","10.0","https://app.prolific.com/","en-US,en;q=0.9,de;q=0.8,zh-TW;q=0.7,zh-CN;q=0.6,zh;q=0.5","5d617ba9364f9a0019f1dac3","683dba9a53627eb9ab41b36a","6889fb659743054e6f51c30c","0","5d617ba9364f9a0019f1dac3","0","2025-07-30T11:19:52.774Z","","","","StressQ","","","","","","","","","","","50","","","","","","","","","","","","","","","","","","","","","","","","","","",""
"1395","","<div style=""width:500px;"">
  <p>What best describes how you currently feel?</p>
  </div>","0","html-slider-response","77","1127890","0.0-7.0-4.12","91","1","2025-07-30 11:01:05","36c45c0696341be0efffe67d72a12abb","76.221.209.152","Mozilla/5.0 (Windows NT 10.0; Win64; x64) AppleWebKit/537.36 (KHTML, like Gecko) Chrome/138.0.0.0 Safari/537.36","WebKit","Chrome","138.0.0.0","Windows","10.0","https://app.prolific.com/","en-US,en;q=0.9,de;q=0.8,zh-TW;q=0.7,zh-CN;q=0.6,zh;q=0.5","5d617ba9364f9a0019f1dac3","683dba9a53627eb9ab41b36a","6889fb659743054e6f51c30c","0","5d617ba9364f9a0019f1dac3","0","2025-07-30T11:19:54.171Z","","","","MotivationQ","","","","","","","","","","","50","","","","","","","","","","","","","","","","","","","","","","","","","","",""
