"rt","response_timestamp","stimulus","response","trial_type","trial_index","time_elapsed","internal_node_id","run_id","condition","recorded_at","source_code_version","ip","user_agent","device","browser","browser_version","platform","platform_version","referer","accept_language","PROLIFIC_PID","STUDY_ID","SESSION_ID","BATCH","prolific_id","batch","realtime","success","question_order","question_id","eventType","responses","item_order","radio_event_ids","radio_event_times","key_event_times","mouse_event_times","straightlining","zigzagging","honeypot","view_history","slider_start","which_type","canvas_config","goals_layout","control_level","trial_number","tutorial_trial_number","trial_start_time","phase1_start_time","phase2_start_time","phase3_start_time","goal_1_value","goal_1_distance","goal_2_value","goal_2_distance","goal_selected","outcome","outcome_total","participant_final_score","participant_initial_score","participant_final_score_prop","goal_choice_rt","allocated_time","allocated_time_remaining","goal_direction","counts","mouse_movements","key_presses"
"5911","1753864921327","<p style='font-size:40px;line-height:1.25'><strong>Welcome to the experiment!</strong></p><p style='font-size:1.1em;line-height:1.25'>Thank you for participanting in our experiment again! You will be asked to play the Dysfunctional Ball Game again. We will briefly recap the rules before we start.</p><p style='font-size:1.1em;line-height:1.25'>Press <strong>Next</strong> to continue.</p>","0","custom-html-button-response","0","5914","0.0-0.0","36","1","2025-07-30 08:41:54","36c45c0696341be0efffe67d72a12abb","94.101.25.101","Mozilla/5.0 (X11; Linux x86_64) AppleWebKit/537.36 (KHTML, like Gecko) Chrome/138.0.0.0 Safari/537.36","WebKit","Chrome","138.0.0.0","Linux","","https://app.prolific.com/","pl-PL,pl;q=0.9,en-US;q=0.8,en;q=0.7","5d6e3252dfe6d10001dbe508","687a19d2168e237449fb8af4","6889d9d712c7a3052d0e7f79","0","5d6e3252dfe6d10001dbe508","0","2025-07-30T08:42:01.328Z","","","","","","","","","","","","","","","","","","","","","","","","","","","","","","","","","","","","","","","","","",""
"4682","","","","fullscreen","1","11597","0.0-1.0","36","1","2025-07-30 08:41:54","36c45c0696341be0efffe67d72a12abb","94.101.25.101","Mozilla/5.0 (X11; Linux x86_64) AppleWebKit/537.36 (KHTML, like Gecko) Chrome/138.0.0.0 Safari/537.36","WebKit","Chrome","138.0.0.0","Linux","","https://app.prolific.com/","pl-PL,pl;q=0.9,en-US;q=0.8,en;q=0.7","5d6e3252dfe6d10001dbe508","687a19d2168e237449fb8af4","6889d9d712c7a3052d0e7f79","0","5d6e3252dfe6d10001dbe508","0","","true","","","","","","","","","","","","","","","","","","","","","","","","","","","","","","","","","","","","","","","","",""
"4624","1753864931636"," <p style='font-size:1.1em;line-height:1.25'>Thank you for closing all other tabs.</p><p style='font-size:1.1em;line-height:1.25'>We will now invite you to fill in some questionnaires, before starting the game.<br>This will take about 5 minutes.<br></p><p style='font-size:1.1em;line-height:1.25'>Press the <strong>Next</strong> button to continue.</p>","0","custom-html-button-response","2","16222","0.0-2.0","36","1","2025-07-30 08:41:54","36c45c0696341be0efffe67d72a12abb","94.101.25.101","Mozilla/5.0 (X11; Linux x86_64) AppleWebKit/537.36 (KHTML, like Gecko) Chrome/138.0.0.0 Safari/537.36","WebKit","Chrome","138.0.0.0","Linux","","https://app.prolific.com/","pl-PL,pl;q=0.9,en-US;q=0.8,en;q=0.7","5d6e3252dfe6d10001dbe508","687a19d2168e237449fb8af4","6889d9d712c7a3052d0e7f79","0","5d6e3252dfe6d10001dbe508","0","2025-07-30T08:42:11.636Z","","","","","","","","","","","","","","","","","","","","","","","","","","","","","","","","","","","","","","","","","",""
"4234","","","{""assigned_sex"":""male""}","survey-multi-choice","3","20457","0.0-3.0-0.0","36","1","2025-07-30 08:41:54","36c45c0696341be0efffe67d72a12abb","94.101.25.101","Mozilla/5.0 (X11; Linux x86_64) AppleWebKit/537.36 (KHTML, like Gecko) Chrome/138.0.0.0 Safari/537.36","WebKit","Chrome","138.0.0.0","Linux","","https://app.prolific.com/","pl-PL,pl;q=0.9,en-US;q=0.8,en;q=0.7","5d6e3252dfe6d10001dbe508","687a19d2168e237449fb8af4","6889d9d712c7a3052d0e7f79","0","5d6e3252dfe6d10001dbe508","0","","","[0]","0","demographics","","","","","","","","","","","","","","","","","","","","","","","","","","","","","","","","","","","","","",""
"15022","1753864950894","<p style='font-size:1.1em;line-height:1.25'>In the following, we will perform a baseline assessment. This means that we will ask you a few questions relating to your experiences over the past month.<br></p><p style='font-size:1.1em;line-height:1.25'>Press the <strong>Next</strong> button to continue.</p>","0","custom-html-button-response","4","35480","0.0-4.0-0.0","36","1","2025-07-30 08:41:54","36c45c0696341be0efffe67d72a12abb","94.101.25.101","Mozilla/5.0 (X11; Linux x86_64) AppleWebKit/537.36 (KHTML, like Gecko) Chrome/138.0.0.0 Safari/537.36","WebKit","Chrome","138.0.0.0","Linux","","https://app.prolific.com/","pl-PL,pl;q=0.9,en-US;q=0.8,en;q=0.7","5d6e3252dfe6d10001dbe508","687a19d2168e237449fb8af4","6889d9d712c7a3052d0e7f79","0","5d6e3252dfe6d10001dbe508","0","2025-07-30T08:42:30.894Z","","","","","","","","","","","","","","","","","","","","","","","","","","","","","","","","","","","","","","","","","",""
"100784.90000000002","","","","survey-template","5","136269","0.0-4.0-1.0","36","1","2025-07-30 08:41:54","36c45c0696341be0efffe67d72a12abb","94.101.25.101","Mozilla/5.0 (X11; Linux x86_64) AppleWebKit/537.36 (KHTML, like Gecko) Chrome/138.0.0.0 Safari/537.36","WebKit","Chrome","138.0.0.0","Linux","","https://app.prolific.com/","pl-PL,pl;q=0.9,en-US;q=0.8,en;q=0.7","5d6e3252dfe6d10001dbe508","687a19d2168e237449fb8af4","6889d9d712c7a3052d0e7f79","0","5d6e3252dfe6d10001dbe508","0","2025-07-30T08:44:11.683Z","","","","pss","{""Q01"":""1"",""Q02"":""0"",""Q03"":""1"",""Q04"":""1"",""Q05"":""2"",""Q06"":""1"",""Q07"":""1"",""Q08"":""2"",""Q09"":""1"",""Q10"":""0""}","[0,1,2,3,4,5,6,7,8,9]","[""Q01"",""Q02"",""Q03"",""Q04"",""Q04"",""Q05"",""Q06"",""Q07"",""Q07"",""Q08"",""Q09"",""Q10""]","[11507,19469.5,25036.099999999977,38261.69999999995,39458.19999999995,45236.19999999995,60144.29999999993,70332.09999999998,75291.99999999988,84193.29999999993,91709.49999999988,97582.70000000007]","[]","[0,11507,19469.5,24420.099999999977,25036.099999999977,37391.59999999998,38261.69999999995,39458.19999999995,44338.40000000002,44778.5,45236.19999999995,60144.29999999993,70332.09999999998,75291.99999999988,84193.29999999993,91709.49999999988,97582.70000000007,100783.09999999998]","0.4","0.7777777777777778","0","","","","","","","","","","","","","","","","","","","","","","","","","","","","",""
"16596","1753865068280","<p style='font-size:1.1em;line-height:1.25'>Thank you for your answers! Now we will ask you a few more questions relating to your feelings in the last 24 hours.<br></p><p style='font-size:1.1em;line-height:1.25'>Press the <strong>Next</strong> button to continue.</p>","0","custom-html-button-response","6","152866","0.0-4.0-2.0","36","1","2025-07-30 08:41:54","36c45c0696341be0efffe67d72a12abb","94.101.25.101","Mozilla/5.0 (X11; Linux x86_64) AppleWebKit/537.36 (KHTML, like Gecko) Chrome/138.0.0.0 Safari/537.36","WebKit","Chrome","138.0.0.0","Linux","","https://app.prolific.com/","pl-PL,pl;q=0.9,en-US;q=0.8,en;q=0.7","5d6e3252dfe6d10001dbe508","687a19d2168e237449fb8af4","6889d9d712c7a3052d0e7f79","0","5d6e3252dfe6d10001dbe508","0","2025-07-30T08:44:28.280Z","","","","","","","","","","","","","","","","","","","","","","","","","","","","","","","","","","","","","","","","","",""
"129734.20000000019","","","","survey-template","7","282606","0.0-4.0-3.0","36","1","2025-07-30 08:41:54","36c45c0696341be0efffe67d72a12abb","94.101.25.101","Mozilla/5.0 (X11; Linux x86_64) AppleWebKit/537.36 (KHTML, like Gecko) Chrome/138.0.0.0 Safari/537.36","WebKit","Chrome","138.0.0.0","Linux","","https://app.prolific.com/","pl-PL,pl;q=0.9,en-US;q=0.8,en;q=0.7","5d6e3252dfe6d10001dbe508","687a19d2168e237449fb8af4","6889d9d712c7a3052d0e7f79","0","5d6e3252dfe6d10001dbe508","0","2025-07-30T08:46:38.020Z","","","","drsp","{""Q01"":""0"",""Q02"":""0"",""Q03"":""0"",""Q04"":""0"",""Q05"":""0"",""Q06"":""0"",""Q07"":""0"",""Q08"":""0"",""Q09"":""0"",""Q10"":""1"",""Q11"":""1"",""Q12"":""0"",""Q13"":""5"",""Q14"":""3"",""Q15"":""1"",""Q16"":""0"",""Q17"":""0"",""Q18"":""1"",""Q19"":""0"",""Q20"":""0"",""Q21"":""0"",""Q22"":""0""}","[0,1,2,3,4,5,6,7,8,9,10,11,12,13,14,15,16,17,18,19,20,21]","[""Q01"",""Q02"",""Q04"",""Q06"",""Q05"",""Q07"",""Q08"",""Q09"",""Q10"",""Q11"",""Q12"",""Q13"",""Q14"",""Q15"",""Q16"",""Q17"",""Q18"",""Q19"",""Q20"",""Q22"",""Q21"",""Q03""]","[6731.800000000047,7649.100000000093,15082.100000000093,19432.40000000014,20059.100000000093,24657.300000000047,26781.90000000014,30038.200000000186,32852.5,36696.80000000005,39715.40000000014,44331.700000000186,55571.5,65047.700000000186,78529.6000000001,83286.1000000001,87362.30000000005,97647.80000000005,104920.70000000019,116023.80000000005,116850.6000000001,124480.5]","[]","[0,3716.7000000001863,5549.40000000014,6731.800000000047,7649.100000000093,12043.600000000093,15082.100000000093,16836.90000000014,19432.40000000014,20059.100000000093,24657.300000000047,26781.90000000014,30038.200000000186,32462.5,32852.5,36174.90000000014,36696.80000000005,39715.40000000014,44331.700000000186,52176.30000000005,52292.30000000005,52416.200000000186,53184.5,54528.30000000005,55571.5,64398.5,65047.700000000186,68182.30000000005,68322.30000000005,68477.20000000019,69108.70000000019,69518.70000000019,69681.1000000001,69800.40000000014,70600.80000000005,74457.5,78529.6000000001,80247.80000000005,80471.6000000001,80626.80000000005,81206.1000000001,83286.1000000001,87362.30000000005,89037.40000000014,89187,89320.80000000005,90017,96115.80000000005,97647.80000000005,98246.5,98448.20000000019,98721.6000000001,98857.70000000019,98980.30000000005,99817.80000000005,103900,104538.6000000001,104920.70000000019,111235,111422.90000000014,111579,112349.70000000019,114797.5,116023.80000000005,116401.90000000014,116850.6000000001,119752.6000000001,124480.5,129729.6000000001]","0.7272727272727273","0.2857142857142857","0","","","","","","","","","","","","","","","","","","","","","","","","","","","","",""
"41770.39999999991","","","","survey-template","8","324379","0.0-4.0-4.0","36","1","2025-07-30 08:41:54","36c45c0696341be0efffe67d72a12abb","94.101.25.101","Mozilla/5.0 (X11; Linux x86_64) AppleWebKit/537.36 (KHTML, like Gecko) Chrome/138.0.0.0 Safari/537.36","WebKit","Chrome","138.0.0.0","Linux","","https://app.prolific.com/","pl-PL,pl;q=0.9,en-US;q=0.8,en;q=0.7","5d6e3252dfe6d10001dbe508","687a19d2168e237449fb8af4","6889d9d712c7a3052d0e7f79","0","5d6e3252dfe6d10001dbe508","0","2025-07-30T08:47:19.793Z","","","","stress","{""Q01"":""0"",""Q02"":""1"",""Q03"":""0""}","[0,1,2]","[""Q01"",""Q02"",""Q03""]","[18340.799999999814,25677.699999999953,32489]","[]","[2762.899999999907,2916.899999999907,3067.1999999999534,3855,4015.5,4182.899999999907,5043.299999999814,7955.59999999986,8129.09999999986,8249.699999999953,9001.59999999986,12784.09999999986,13262.699999999953,13444.399999999907,13560.59999999986,14294.699999999953,16776.899999999907,18340.799999999814,19085.199999999953,19226.699999999953,19838.699999999953,19972.699999999953,20111.299999999814,20693.399999999907,25269.299999999814,25677.699999999953,26726,26889.59999999986,27065.699999999953,27859.799999999814,31172.5,32489,33042.299999999814,41769.69999999995]","0.6666666666666666","0","0","","","","","","","","","","","","","","","","","","","","","","","","","","","","",""
"86310","","","","instructions","9","410690","0.0-5.0-0.0","36","1","2025-07-30 08:41:54","36c45c0696341be0efffe67d72a12abb","94.101.25.101","Mozilla/5.0 (X11; Linux x86_64) AppleWebKit/537.36 (KHTML, like Gecko) Chrome/138.0.0.0 Safari/537.36","WebKit","Chrome","138.0.0.0","Linux","","https://app.prolific.com/","pl-PL,pl;q=0.9,en-US;q=0.8,en;q=0.7","5d6e3252dfe6d10001dbe508","687a19d2168e237449fb8af4","6889d9d712c7a3052d0e7f79","0","5d6e3252dfe6d10001dbe508","0","","","","","","","","","","","","","","","[{""page_index"":0,""viewing_time"":86310}]","","","","","","","","","","","","","","","","","","","","","","","","","","","",""
"24906","","<p>Before you start with this game please answer the following three questions yourself. </p>
  <p>Through this game, we measure several aspects of your cognitive performance, such as reaction times, multi-tasking capabilities </p>
  <p>and the ability to assess the situation you are in.</p>
  <p></p>
  <p><b>How good do you usually are in such tasks?</b></p>","82","html-slider-response","10","435597","0.0-6.0-0.0","36","1","2025-07-30 08:41:54","36c45c0696341be0efffe67d72a12abb","94.101.25.101","Mozilla/5.0 (X11; Linux x86_64) AppleWebKit/537.36 (KHTML, like Gecko) Chrome/138.0.0.0 Safari/537.36","WebKit","Chrome","138.0.0.0","Linux","","https://app.prolific.com/","pl-PL,pl;q=0.9,en-US;q=0.8,en;q=0.7","5d6e3252dfe6d10001dbe508","687a19d2168e237449fb8af4","6889d9d712c7a3052d0e7f79","0","5d6e3252dfe6d10001dbe508","0","2025-07-30T08:49:11.011Z","","","","PreSkillQ","","","","","","","","","","","50","","","","","","","","","","","","","","","","","","","","","","","","","","",""
"9868","","<div style=""width:500px;"">
  <p>How well do you think you will perform in this task compared to other participants?</p>
  </div>","55","html-slider-response","11","445466","0.0-6.0-1.0","36","1","2025-07-30 08:41:54","36c45c0696341be0efffe67d72a12abb","94.101.25.101","Mozilla/5.0 (X11; Linux x86_64) AppleWebKit/537.36 (KHTML, like Gecko) Chrome/138.0.0.0 Safari/537.36","WebKit","Chrome","138.0.0.0","Linux","","https://app.prolific.com/","pl-PL,pl;q=0.9,en-US;q=0.8,en;q=0.7","5d6e3252dfe6d10001dbe508","687a19d2168e237449fb8af4","6889d9d712c7a3052d0e7f79","0","5d6e3252dfe6d10001dbe508","0","2025-07-30T08:49:20.880Z","","","","PrePerfQ","","","","","","","","","","","50","","","","","","","","","","","","","","","","","","","","","","","","","","",""
"8243","","<div style=""width:500px;"">
  <p>What best describes how you currently feel?</p>
  </div>","65","html-slider-response","12","453711","0.0-6.0-2.0","36","1","2025-07-30 08:41:54","36c45c0696341be0efffe67d72a12abb","94.101.25.101","Mozilla/5.0 (X11; Linux x86_64) AppleWebKit/537.36 (KHTML, like Gecko) Chrome/138.0.0.0 Safari/537.36","WebKit","Chrome","138.0.0.0","Linux","","https://app.prolific.com/","pl-PL,pl;q=0.9,en-US;q=0.8,en;q=0.7","5d6e3252dfe6d10001dbe508","687a19d2168e237449fb8af4","6889d9d712c7a3052d0e7f79","0","5d6e3252dfe6d10001dbe508","0","2025-07-30T08:49:29.125Z","","","","PreMotivationQ","","","","","","","","","","","50","","","","","","","","","","","","","","","","","","","","","","","","","","",""
"","","","","ctl-task-cpt","13","484625","0.0-7.0-0.0","36","1","2025-07-30 08:41:54","36c45c0696341be0efffe67d72a12abb","94.101.25.101","Mozilla/5.0 (X11; Linux x86_64) AppleWebKit/537.36 (KHTML, like Gecko) Chrome/138.0.0.0 Safari/537.36","WebKit","Chrome","138.0.0.0","Linux","","https://app.prolific.com/","pl-PL,pl;q=0.9,en-US;q=0.8,en;q=0.7","5d6e3252dfe6d10001dbe508","687a19d2168e237449fb8af4","6889d9d712c7a3052d0e7f79","0","5d6e3252dfe6d10001dbe508","0","2025-07-30T08:50:00.039Z","","","","","","","","","","","","","","","","win-only","1","g1:NE,g2:SW","1","1","0","454949.4","4061.6","9065.6","27908.5","1","4","8","6","2","8","7","7","0","0.05303030303030303","5003.9","3000","940","[""down"",""left""]","{""num_key_presses"":7,""num_perfect"":6,""num_errors"":1,""num_randdir"":0,""num_randdir_good_moves"":0,""num_whilered"":0,""num_whileblue"":0,""num_blue"":0,""num_good_moves"":6}","[415.57142857142856,415.47767857142856,0.2,415.57142857142856,415.47767857142856,105.6,269.57142857142856,401.47767857142856,208.9,-109.42857142857143,279.47767857142856,308.9,-128.42857142857144,271.47767857142856,408.9,-128.42857142857144,271.47767857142856,513.8,-127.42857142857143,278.47767857142856,613.8,-119.42857142857143,297.47767857142856,713.8,-119.42857142857143,297.47767857142856,813.8,-119.42857142857143,297.47767857142856,913.8,-119.42857142857143,297.47767857142856,1013.8,-119.42857142857143,297.47767857142856,1113.8,-119.42857142857143,297.47767857142856,1213.8,-119.42857142857143,297.47767857142856,1318.7,-119.42857142857143,297.47767857142856,1418.7,-119.42857142857143,297.47767857142856,1518.7,-119.42857142857143,297.47767857142856,1618.8,-119.42857142857143,297.47767857142856,1724.2,-119.42857142857143,297.47767857142856,1828.8,-119.42857142857143,297.47767857142856,1933.7,-119.42857142857143,297.47767857142856,2033.8,-119.42857142857143,297.47767857142856,2133.8,-119.42857142857143,297.47767857142856,2238.8,-119.42857142857143,297.47767857142856,2338.8,-119.42857142857143,297.47767857142856,2438.9,-119.42857142857143,297.47767857142856,2543.9,-119.42857142857143,297.47767857142856,2648.8,-119.42857142857143,297.47767857142856,2753.9,-119.42857142857143,297.47767857142856,2858.8,-119.42857142857143,297.47767857142856,2958.8,-119.42857142857143,297.47767857142856,3058.9,-119.42857142857143,297.47767857142856,3158.9,-119.42857142857143,297.47767857142856,3263.8,-119.42857142857143,297.47767857142856,3363.8,-119.42857142857143,297.47767857142856,3468.8,-119.42857142857143,297.47767857142856,3573.8,-119.42857142857143,297.47767857142856,3674,-119.42857142857143,297.47767857142856,3778.8,-119.42857142857143,297.47767857142856,3878.8,-119.42857142857143,297.47767857142856,3983.7,-119.42857142857143,297.47767857142856,4083.7,-119.42857142857143,297.47767857142856,4183.7,-119.42857142857143,297.47767857142856,4283.7,-119.42857142857143,297.47767857142856,4383.9,-119.42857142857143,297.47767857142856,4489.9,-119.42857142857143,297.47767857142856,4593.8,-119.42857142857143,297.47767857142856,4693.9,-119.42857142857143,297.47767857142856,4798.8,-119.42857142857143,297.47767857142856,4903.7]","[800.2,800.2,1000,0,-199.8,""error"",""-"",""-"",""no_move"",5205.9,4405.6,2993.6,1804.9,407.5,""smooth"",""down"",""down"",""good_move"",7483.8,2277.4,1938.9,5206.4,338.5,""smooth"",""down"",""down"",""good_move"",9812.7,2328.8,2027,7484.1,301.7,""smooth"",""down"",""down"",""good_move"",13154.6,3341.6,2970.9,9813,370.8,""smooth"",""left"",""left"",""good_move"",15927.9,2772.8,2448.1,13155.1,324.7,""smooth"",""left"",""left"",""good_move"",18740.7,2812.5,2462.6,15928.2,349.9,""smooth"",""left"",""left"",""good_move""]"
"9453","","<div style=""width:500px;"">
  <p>What determined the result of this run?</p>
  </div>","100","html-slider-response","14","494079","0.0-7.0-1.0","36","1","2025-07-30 08:41:54","36c45c0696341be0efffe67d72a12abb","94.101.25.101","Mozilla/5.0 (X11; Linux x86_64) AppleWebKit/537.36 (KHTML, like Gecko) Chrome/138.0.0.0 Safari/537.36","WebKit","Chrome","138.0.0.0","Linux","","https://app.prolific.com/","pl-PL,pl;q=0.9,en-US;q=0.8,en;q=0.7","5d6e3252dfe6d10001dbe508","687a19d2168e237449fb8af4","6889d9d712c7a3052d0e7f79","0","5d6e3252dfe6d10001dbe508","0","2025-07-30T08:50:09.493Z","","","","AttribQ","","","","","","","","","","","50","","","","","","","","","","","","","","","","","","","","","","","","","","",""
"2975","","<div style=""width:500px;"">
  <p>How much control did you have over the ball?</p>
  </div>","100","html-slider-response","15","497055","0.0-7.0-2.0","36","1","2025-07-30 08:41:54","36c45c0696341be0efffe67d72a12abb","94.101.25.101","Mozilla/5.0 (X11; Linux x86_64) AppleWebKit/537.36 (KHTML, like Gecko) Chrome/138.0.0.0 Safari/537.36","WebKit","Chrome","138.0.0.0","Linux","","https://app.prolific.com/","pl-PL,pl;q=0.9,en-US;q=0.8,en;q=0.7","5d6e3252dfe6d10001dbe508","687a19d2168e237449fb8af4","6889d9d712c7a3052d0e7f79","0","5d6e3252dfe6d10001dbe508","0","2025-07-30T08:50:12.469Z","","","","ControlQ","","","","","","","","","","","50","","","","","","","","","","","","","","","","","","","","","","","","","","",""
"6189","","<div style=""width:500px;"">
  <p>How would you describe your current emotional state?</p>
  </div>","0","html-slider-response","16","503245","0.0-7.0-3.0","36","1","2025-07-30 08:41:54","36c45c0696341be0efffe67d72a12abb","94.101.25.101","Mozilla/5.0 (X11; Linux x86_64) AppleWebKit/537.36 (KHTML, like Gecko) Chrome/138.0.0.0 Safari/537.36","WebKit","Chrome","138.0.0.0","Linux","","https://app.prolific.com/","pl-PL,pl;q=0.9,en-US;q=0.8,en;q=0.7","5d6e3252dfe6d10001dbe508","687a19d2168e237449fb8af4","6889d9d712c7a3052d0e7f79","0","5d6e3252dfe6d10001dbe508","0","2025-07-30T08:50:18.659Z","","","","StressQ","","","","","","","","","","","50","","","","","","","","","","","","","","","","","","","","","","","","","","",""
"4647","","<div style=""width:500px;"">
  <p>What best describes how you currently feel?</p>
  </div>","91","html-slider-response","17","507893","0.0-7.0-4.0","36","1","2025-07-30 08:41:54","36c45c0696341be0efffe67d72a12abb","94.101.25.101","Mozilla/5.0 (X11; Linux x86_64) AppleWebKit/537.36 (KHTML, like Gecko) Chrome/138.0.0.0 Safari/537.36","WebKit","Chrome","138.0.0.0","Linux","","https://app.prolific.com/","pl-PL,pl;q=0.9,en-US;q=0.8,en;q=0.7","5d6e3252dfe6d10001dbe508","687a19d2168e237449fb8af4","6889d9d712c7a3052d0e7f79","0","5d6e3252dfe6d10001dbe508","0","2025-07-30T08:50:23.307Z","","","","MotivationQ","","","","","","","","","","","50","","","","","","","","","","","","","","","","","","","","","","","","","","",""
"","","","","ctl-task-cpt","18","530180","0.0-7.0-0.1","36","1","2025-07-30 08:41:54","36c45c0696341be0efffe67d72a12abb","94.101.25.101","Mozilla/5.0 (X11; Linux x86_64) AppleWebKit/537.36 (KHTML, like Gecko) Chrome/138.0.0.0 Safari/537.36","WebKit","Chrome","138.0.0.0","Linux","","https://app.prolific.com/","pl-PL,pl;q=0.9,en-US;q=0.8,en;q=0.7","5d6e3252dfe6d10001dbe508","687a19d2168e237449fb8af4","6889d9d712c7a3052d0e7f79","0","5d6e3252dfe6d10001dbe508","0","2025-07-30T08:50:45.594Z","","","","","","","","","","","","","","","","win-only","2","g1:SE,g2:NW","0.9","2","0","509131","1465.9","6470.8","19275.7","1","4","4","6","1","1","1","8","7","0.06060606060606061","5004.9","3000","1310","[""down"",""right""]","{""num_key_presses"":4,""num_perfect"":4,""num_errors"":0,""num_randdir"":0,""num_randdir_good_moves"":0,""num_whilered"":0,""num_whileblue"":0,""num_blue"":1,""num_good_moves"":4}","[418.57142857142856,421.47767857142856,0.2,418.57142857142856,421.47767857142856,105.6,190.57142857142856,351.47767857142856,209.6,-401.42857142857144,205.47767857142856,309.6,-543.4285714285714,160.47767857142856,414.5,-543.4285714285714,159.47767857142856,514.5,-543.4285714285714,159.47767857142856,621.9,-543.4285714285714,159.47767857142856,724.6,-543.4285714285714,159.47767857142856,829.5,-543.4285714285714,159.47767857142856,934.6,-543.4285714285714,159.47767857142856,1039.6,-543.4285714285714,159.47767857142856,1139.6,-543.4285714285714,159.47767857142856,1239.6,-543.4285714285714,159.47767857142856,1339.9,-543.4285714285714,159.47767857142856,1444.6,-543.4285714285714,159.47767857142856,1544.6,-543.4285714285714,159.47767857142856,1649.5,-543.4285714285714,159.47767857142856,1749.5,-543.4285714285714,159.47767857142856,1854.4,-543.4285714285714,159.47767857142856,1954.5,-543.4285714285714,159.47767857142856,2054.5,-543.4285714285714,159.47767857142856,2154.5,-543.4285714285714,159.47767857142856,2254.5,-543.4285714285714,159.47767857142856,2354.5,-543.4285714285714,159.47767857142856,2455.4,-543.4285714285714,159.47767857142856,2559.5,-543.4285714285714,159.47767857142856,2659.5,-543.4285714285714,159.47767857142856,2759.5,-543.4285714285714,159.47767857142856,2864.4,-543.4285714285714,159.47767857142856,2964.4,-543.4285714285714,159.47767857142856,3064.6,-543.4285714285714,159.47767857142856,3169.4,-543.4285714285714,159.47767857142856,3269.5,-543.4285714285714,159.47767857142856,3369.5,-543.4285714285714,159.47767857142856,3474.5,-543.4285714285714,159.47767857142856,3574.6,-543.4285714285714,159.47767857142856,3679.5,-543.4285714285714,159.47767857142856,3779.5,-543.4285714285714,159.47767857142856,3879.5,-543.4285714285714,159.47767857142856,3979.5,-543.4285714285714,159.47767857142856,4079.5,-543.4285714285714,159.47767857142856,4179.5,-543.4285714285714,159.47767857142856,4279.6,-543.4285714285714,159.47767857142856,4384.5,-543.4285714285714,159.47767857142856,4484.5,-543.4285714285714,159.47767857142856,4584.5,-543.4285714285714,159.47767857142856,4689.6,-543.4285714285714,159.47767857142856,4789.6,-543.4285714285714,159.47767857142856,4889.7,-543.4285714285714,159.47767857142856,4994.5]","[1559.9,1559.9,1000,0,559.9,""smooth"",""down"",""down"",""good_move"",4004.1,2443.9,1896.3,1560.2,547.6,""smooth"",""down"",""down"",""good_move"",9694.1,5689.8,2627.4,6764.5,302.2,""smooth"",""right"",""right"",""good_move"",12708.8,3014.5,2701.4,9694.3,313.1,""smooth"",""right"",""right"",""good_move""]"
"5036","","<div style=""width:500px;"">
  <p>What determined the result of this run?</p>
  </div>","93","html-slider-response","19","535216","0.0-7.0-1.1","36","1","2025-07-30 08:41:54","36c45c0696341be0efffe67d72a12abb","94.101.25.101","Mozilla/5.0 (X11; Linux x86_64) AppleWebKit/537.36 (KHTML, like Gecko) Chrome/138.0.0.0 Safari/537.36","WebKit","Chrome","138.0.0.0","Linux","","https://app.prolific.com/","pl-PL,pl;q=0.9,en-US;q=0.8,en;q=0.7","5d6e3252dfe6d10001dbe508","687a19d2168e237449fb8af4","6889d9d712c7a3052d0e7f79","0","5d6e3252dfe6d10001dbe508","0","2025-07-30T08:50:50.631Z","","","","AttribQ","","","","","","","","","","","50","","","","","","","","","","","","","","","","","","","","","","","","","","",""
"3345","","<div style=""width:500px;"">
  <p>How much control did you have over the ball?</p>
  </div>","100","html-slider-response","20","538562","0.0-7.0-2.1","36","1","2025-07-30 08:41:54","36c45c0696341be0efffe67d72a12abb","94.101.25.101","Mozilla/5.0 (X11; Linux x86_64) AppleWebKit/537.36 (KHTML, like Gecko) Chrome/138.0.0.0 Safari/537.36","WebKit","Chrome","138.0.0.0","Linux","","https://app.prolific.com/","pl-PL,pl;q=0.9,en-US;q=0.8,en;q=0.7","5d6e3252dfe6d10001dbe508","687a19d2168e237449fb8af4","6889d9d712c7a3052d0e7f79","0","5d6e3252dfe6d10001dbe508","0","2025-07-30T08:50:53.976Z","","","","ControlQ","","","","","","","","","","","50","","","","","","","","","","","","","","","","","","","","","","","","","","",""
"2422","","<div style=""width:500px;"">
  <p>How would you describe your current emotional state?</p>
  </div>","0","html-slider-response","21","540985","0.0-7.0-3.1","36","1","2025-07-30 08:41:54","36c45c0696341be0efffe67d72a12abb","94.101.25.101","Mozilla/5.0 (X11; Linux x86_64) AppleWebKit/537.36 (KHTML, like Gecko) Chrome/138.0.0.0 Safari/537.36","WebKit","Chrome","138.0.0.0","Linux","","https://app.prolific.com/","pl-PL,pl;q=0.9,en-US;q=0.8,en;q=0.7","5d6e3252dfe6d10001dbe508","687a19d2168e237449fb8af4","6889d9d712c7a3052d0e7f79","0","5d6e3252dfe6d10001dbe508","0","2025-07-30T08:50:56.399Z","","","","StressQ","","","","","","","","","","","50","","","","","","","","","","","","","","","","","","","","","","","","","","",""
"2245","","<div style=""width:500px;"">
  <p>What best describes how you currently feel?</p>
  </div>","86","html-slider-response","22","543231","0.0-7.0-4.1","36","1","2025-07-30 08:41:54","36c45c0696341be0efffe67d72a12abb","94.101.25.101","Mozilla/5.0 (X11; Linux x86_64) AppleWebKit/537.36 (KHTML, like Gecko) Chrome/138.0.0.0 Safari/537.36","WebKit","Chrome","138.0.0.0","Linux","","https://app.prolific.com/","pl-PL,pl;q=0.9,en-US;q=0.8,en;q=0.7","5d6e3252dfe6d10001dbe508","687a19d2168e237449fb8af4","6889d9d712c7a3052d0e7f79","0","5d6e3252dfe6d10001dbe508","0","2025-07-30T08:50:58.645Z","","","","MotivationQ","","","","","","","","","","","50","","","","","","","","","","","","","","","","","","","","","","","","","","",""
"","","","","ctl-task-cpt","23","581976","0.0-7.0-0.2","36","1","2025-07-30 08:41:54","36c45c0696341be0efffe67d72a12abb","94.101.25.101","Mozilla/5.0 (X11; Linux x86_64) AppleWebKit/537.36 (KHTML, like Gecko) Chrome/138.0.0.0 Safari/537.36","WebKit","Chrome","138.0.0.0","Linux","","https://app.prolific.com/","pl-PL,pl;q=0.9,en-US;q=0.8,en;q=0.7","5d6e3252dfe6d10001dbe508","687a19d2168e237449fb8af4","6889d9d712c7a3052d0e7f79","0","5d6e3252dfe6d10001dbe508","0","2025-07-30T08:51:37.390Z","","","","","","","","","","","","","","","","win-only","1","g1:NE,g2:SW","0.8","3","0","544469.1","1265.7","6270.5","35735.6","1","4","8","6","2","8","6","14","8","0.10606060606060606","1144.1","3000","905","[""down"",""left""]","{""num_key_presses"":9,""num_perfect"":7,""num_errors"":2,""num_randdir"":0,""num_randdir_good_moves"":0,""num_whilered"":0,""num_whileblue"":1,""num_blue"":3,""num_good_moves"":7}","[420.57142857142856,421.47767857142856,0.3,420.57142857142856,421.47767857142856,102.7,415.57142857142856,421.47767857142856,204.7,315.57142857142856,324.47767857142856,304.7,475.57142857142856,164.47767857142856,404.7,732.5714285714286,83.47767857142857,505.1,682.5714285714286,110.47767857142857,609.9,422.57142857142856,473.47767857142856,710.1,140.57142857142856,803.4776785714286,810.1,43.57142857142857,863.4776785714286,910.3,36.57142857142857,834.4776785714286,1010.5,73.57142857142857,765.4776785714286,1115,83.57142857142857,755.4776785714286,1215.4,-37.42857142857143,724.4776785714286,1315.7,-365.42857142857144,678.4776785714286,1422.1,-375.42857142857144,673.4776785714286,1525.2,-375.42857142857144,673.4776785714286,1625.2,-375.42857142857144,673.4776785714286,1725.2,-375.42857142857144,673.4776785714286,1829.9,-375.42857142857144,673.4776785714286,1930,-375.42857142857144,673.4776785714286,2035.8,-375.42857142857144,673.4776785714286,2140.2,-375.42857142857144,673.4776785714286,2245,-375.42857142857144,673.4776785714286,2345,-375.42857142857144,673.4776785714286,2445,-375.42857142857144,673.4776785714286,2549.7,-375.42857142857144,673.4776785714286,2649.7,-375.42857142857144,673.4776785714286,2754.7,-375.42857142857144,673.4776785714286,2854.7,-375.42857142857144,673.4776785714286,2954.7,-375.42857142857144,673.4776785714286,3054.9,-375.42857142857144,673.4776785714286,3154.9,-375.42857142857144,673.4776785714286,3256.3,-375.42857142857144,673.4776785714286,3359.6,-375.42857142857144,673.4776785714286,3459.7,-375.42857142857144,673.4776785714286,3559.7,-375.42857142857144,673.4776785714286,3659.7,-375.42857142857144,673.4776785714286,3759.7,-375.42857142857144,673.4776785714286,3859.7,-375.42857142857144,673.4776785714286,3964.6,-375.42857142857144,673.4776785714286,4064.7,-375.42857142857144,673.4776785714286,4164.7,-375.42857142857144,673.4776785714286,4269.9,-375.42857142857144,673.4776785714286,4374.6,-375.42857142857144,673.4776785714286,4474.6,-375.42857142857144,673.4776785714286,4579.6,-375.42857142857144,673.4776785714286,4679.7,-375.42857142857144,673.4776785714286,4784.7,-375.42857142857144,673.4776785714286,4884.7,-375.42857142857144,673.4776785714286,4984.7]","[1232,1231.9,1004.6,0.1,227.3,""while_blue"",""left"",""up"",""bad_move"",4096.5,2864.1,2546.5,1232.4,317.6,""smooth"",""down"",""down"",""good_move"",6982.4,2885.6,2570.4,4097,315.1,""smooth"",""down"",""down"",""good_move"",9872.4,2889.7,2601.4,6982.7,288.3,""smooth"",""down"",""down"",""good_move"",12473.6,2601.1,2320.2,9872.5,280.9,""smooth"",""down"",""down"",""good_move"",15174.3,2700.5,2403.4,12473.8,297.1,""smooth"",""left"",""left"",""good_move"",18748,3573.4,1881.1,18415.1,-1548.2,""error"",""-"",""-"",""no_move"",22856.6,4108.3,2795,19749.9,311.7,""smooth"",""left"",""left"",""good_move"",29376,6519.3,2655.2,26399.7,321.1,""smooth"",""left"",""left"",""good_move""]"
"6301","","<div style=""width:500px;"">
  <p>What determined the result of this run?</p>
  </div>","100","html-slider-response","24","588278","0.0-7.0-1.2","36","1","2025-07-30 08:41:54","36c45c0696341be0efffe67d72a12abb","94.101.25.101","Mozilla/5.0 (X11; Linux x86_64) AppleWebKit/537.36 (KHTML, like Gecko) Chrome/138.0.0.0 Safari/537.36","WebKit","Chrome","138.0.0.0","Linux","","https://app.prolific.com/","pl-PL,pl;q=0.9,en-US;q=0.8,en;q=0.7","5d6e3252dfe6d10001dbe508","687a19d2168e237449fb8af4","6889d9d712c7a3052d0e7f79","0","5d6e3252dfe6d10001dbe508","0","2025-07-30T08:51:43.692Z","","","","AttribQ","","","","","","","","","","","50","","","","","","","","","","","","","","","","","","","","","","","","","","",""
"2959","","<div style=""width:500px;"">
  <p>How much control did you have over the ball?</p>
  </div>","100","html-slider-response","25","591238","0.0-7.0-2.2","36","1","2025-07-30 08:41:54","36c45c0696341be0efffe67d72a12abb","94.101.25.101","Mozilla/5.0 (X11; Linux x86_64) AppleWebKit/537.36 (KHTML, like Gecko) Chrome/138.0.0.0 Safari/537.36","WebKit","Chrome","138.0.0.0","Linux","","https://app.prolific.com/","pl-PL,pl;q=0.9,en-US;q=0.8,en;q=0.7","5d6e3252dfe6d10001dbe508","687a19d2168e237449fb8af4","6889d9d712c7a3052d0e7f79","0","5d6e3252dfe6d10001dbe508","0","2025-07-30T08:51:46.652Z","","","","ControlQ","","","","","","","","","","","50","","","","","","","","","","","","","","","","","","","","","","","","","","",""
"2237","","<div style=""width:500px;"">
  <p>How would you describe your current emotional state?</p>
  </div>","0","html-slider-response","26","593476","0.0-7.0-3.2","36","1","2025-07-30 08:41:54","36c45c0696341be0efffe67d72a12abb","94.101.25.101","Mozilla/5.0 (X11; Linux x86_64) AppleWebKit/537.36 (KHTML, like Gecko) Chrome/138.0.0.0 Safari/537.36","WebKit","Chrome","138.0.0.0","Linux","","https://app.prolific.com/","pl-PL,pl;q=0.9,en-US;q=0.8,en;q=0.7","5d6e3252dfe6d10001dbe508","687a19d2168e237449fb8af4","6889d9d712c7a3052d0e7f79","0","5d6e3252dfe6d10001dbe508","0","2025-07-30T08:51:48.891Z","","","","StressQ","","","","","","","","","","","50","","","","","","","","","","","","","","","","","","","","","","","","","","",""
"1629","","<div style=""width:500px;"">
  <p>What best describes how you currently feel?</p>
  </div>","81","html-slider-response","27","595107","0.0-7.0-4.2","36","1","2025-07-30 08:41:54","36c45c0696341be0efffe67d72a12abb","94.101.25.101","Mozilla/5.0 (X11; Linux x86_64) AppleWebKit/537.36 (KHTML, like Gecko) Chrome/138.0.0.0 Safari/537.36","WebKit","Chrome","138.0.0.0","Linux","","https://app.prolific.com/","pl-PL,pl;q=0.9,en-US;q=0.8,en;q=0.7","5d6e3252dfe6d10001dbe508","687a19d2168e237449fb8af4","6889d9d712c7a3052d0e7f79","0","5d6e3252dfe6d10001dbe508","0","2025-07-30T08:51:50.521Z","","","","MotivationQ","","","","","","","","","","","50","","","","","","","","","","","","","","","","","","","","","","","","","","",""
"","","","","ctl-task-cpt","28","626847","0.0-7.0-0.3","36","1","2025-07-30 08:41:54","36c45c0696341be0efffe67d72a12abb","94.101.25.101","Mozilla/5.0 (X11; Linux x86_64) AppleWebKit/537.36 (KHTML, like Gecko) Chrome/138.0.0.0 Safari/537.36","WebKit","Chrome","138.0.0.0","Linux","","https://app.prolific.com/","pl-PL,pl;q=0.9,en-US;q=0.8,en;q=0.7","5d6e3252dfe6d10001dbe508","687a19d2168e237449fb8af4","6889d9d712c7a3052d0e7f79","0","5d6e3252dfe6d10001dbe508","0","2025-07-30T08:52:22.261Z","","","","","","","","","","","","","","","","win-only","3","g1:SW,g2:NE","0.7","4","0","596345.3","1067.7","6070.5","28727.1","1","4","4","6","1","1","0","14","14","0.10606060606060606","1826.3","3000","1010","[""down"",""left""]","{""num_key_presses"":6,""num_perfect"":4,""num_errors"":1,""num_randdir"":1,""num_randdir_good_moves"":0,""num_whilered"":0,""num_whileblue"":1,""num_blue"":3,""num_good_moves"":5}","[415.57142857142856,416.47767857142856,0.2,415.57142857142856,416.47767857142856,102.6,412.57142857142856,423.47767857142856,202.7,407.57142857142856,430.47767857142856,303.1,407.57142857142856,430.47767857142856,407.8,407.57142857142856,430.47767857142856,508.8,407.57142857142856,430.47767857142856,612.8,407.57142857142856,430.47767857142856,717.7,407.57142857142856,430.47767857142856,823.6,407.57142857142856,430.47767857142856,928.1,407.57142857142856,430.47767857142856,1028.6,407.57142857142856,430.47767857142856,1129.1,407.57142857142856,430.47767857142856,1233.2,407.57142857142856,430.47767857142856,1337.7,374.57142857142856,441.47767857142856,1437.7,250.57142857142856,506.47767857142856,1538.3,93.57142857142857,659.4776785714286,1638.8,71.57142857142857,740.4776785714286,1740.1,69.57142857142857,785.4776785714286,1841.5,69.57142857142857,786.4776785714286,1944.8,-34.42857142857143,769.4776785714286,2045.3,-197.42857142857144,766.4776785714286,2146.4,-238.42857142857144,758.4776785714286,2247.9,-238.42857142857144,758.4776785714286,2348.2,-238.42857142857144,758.4776785714286,2454.5,-238.42857142857144,758.4776785714286,2558.8,-238.42857142857144,758.4776785714286,2662.8,-238.42857142857144,758.4776785714286,2765.1,-238.42857142857144,758.4776785714286,2868,-238.42857142857144,758.4776785714286,2973.5,-238.42857142857144,758.4776785714286,3073.7,-238.42857142857144,758.4776785714286,3177.9,-238.42857142857144,758.4776785714286,3282.8,-238.42857142857144,758.4776785714286,3387.6,-238.42857142857144,758.4776785714286,3487.8,-238.42857142857144,758.4776785714286,3592.8,-238.42857142857144,758.4776785714286,3693.1,-238.42857142857144,758.4776785714286,3797.6,-238.42857142857144,758.4776785714286,3897.6,-238.42857142857144,758.4776785714286,3998.1,-238.42857142857144,758.4776785714286,4102.7,-238.42857142857144,758.4776785714286,4202.7,-238.42857142857144,758.4776785714286,4303.3,-238.42857142857144,758.4776785714286,4409,-238.42857142857144,758.4776785714286,4512.7,-238.42857142857144,758.4776785714286,4616.2,-238.42857142857144,758.4776785714286,4717.8,-238.42857142857144,758.4776785714286,4822.9,-238.42857142857144,758.4776785714286,4923.7]","[1538.5,1538.5,1000,0,538.5,""smooth"",""left"",""left"",""good_move"",4451.7,2912.7,2548.6,1539,364.1,""oops"",""left"",""right"",""bad_move"",7288.3,2836.2,2436.3,4452.1,399.9,""smooth"",""left"",""left"",""good_move"",13682.6,6393.9,2169.3,11134.9,378.4,""smooth"",""down"",""down"",""good_move"",19628.6,5945.5,2596.4,16809.8,222.4,""while_blue"",""left"",""left"",""good_move"",22558.3,2929.5,2586.1,19628.8,343.4,""smooth"",""down"",""down"",""good_move""]"
"2131","","<div style=""width:500px;"">
  <p>What determined the result of this run?</p>
  </div>","100","html-slider-response","29","628979","0.0-7.0-1.3","36","1","2025-07-30 08:41:54","36c45c0696341be0efffe67d72a12abb","94.101.25.101","Mozilla/5.0 (X11; Linux x86_64) AppleWebKit/537.36 (KHTML, like Gecko) Chrome/138.0.0.0 Safari/537.36","WebKit","Chrome","138.0.0.0","Linux","","https://app.prolific.com/","pl-PL,pl;q=0.9,en-US;q=0.8,en;q=0.7","5d6e3252dfe6d10001dbe508","687a19d2168e237449fb8af4","6889d9d712c7a3052d0e7f79","0","5d6e3252dfe6d10001dbe508","0","2025-07-30T08:52:24.393Z","","","","AttribQ","","","","","","","","","","","50","","","","","","","","","","","","","","","","","","","","","","","","","","",""
"3667","","<div style=""width:500px;"">
  <p>How much control did you have over the ball?</p>
  </div>","100","html-slider-response","30","632647","0.0-7.0-2.3","36","1","2025-07-30 08:41:54","36c45c0696341be0efffe67d72a12abb","94.101.25.101","Mozilla/5.0 (X11; Linux x86_64) AppleWebKit/537.36 (KHTML, like Gecko) Chrome/138.0.0.0 Safari/537.36","WebKit","Chrome","138.0.0.0","Linux","","https://app.prolific.com/","pl-PL,pl;q=0.9,en-US;q=0.8,en;q=0.7","5d6e3252dfe6d10001dbe508","687a19d2168e237449fb8af4","6889d9d712c7a3052d0e7f79","0","5d6e3252dfe6d10001dbe508","0","2025-07-30T08:52:28.061Z","","","","ControlQ","","","","","","","","","","","50","","","","","","","","","","","","","","","","","","","","","","","","","","",""
"2845","","<div style=""width:500px;"">
  <p>How would you describe your current emotional state?</p>
  </div>","0","html-slider-response","31","635493","0.0-7.0-3.3","36","1","2025-07-30 08:41:54","36c45c0696341be0efffe67d72a12abb","94.101.25.101","Mozilla/5.0 (X11; Linux x86_64) AppleWebKit/537.36 (KHTML, like Gecko) Chrome/138.0.0.0 Safari/537.36","WebKit","Chrome","138.0.0.0","Linux","","https://app.prolific.com/","pl-PL,pl;q=0.9,en-US;q=0.8,en;q=0.7","5d6e3252dfe6d10001dbe508","687a19d2168e237449fb8af4","6889d9d712c7a3052d0e7f79","0","5d6e3252dfe6d10001dbe508","0","2025-07-30T08:52:30.907Z","","","","StressQ","","","","","","","","","","","50","","","","","","","","","","","","","","","","","","","","","","","","","","",""
"2211","","<div style=""width:500px;"">
  <p>What best describes how you currently feel?</p>
  </div>","84","html-slider-response","32","637706","0.0-7.0-4.3","36","1","2025-07-30 08:41:54","36c45c0696341be0efffe67d72a12abb","94.101.25.101","Mozilla/5.0 (X11; Linux x86_64) AppleWebKit/537.36 (KHTML, like Gecko) Chrome/138.0.0.0 Safari/537.36","WebKit","Chrome","138.0.0.0","Linux","","https://app.prolific.com/","pl-PL,pl;q=0.9,en-US;q=0.8,en;q=0.7","5d6e3252dfe6d10001dbe508","687a19d2168e237449fb8af4","6889d9d712c7a3052d0e7f79","0","5d6e3252dfe6d10001dbe508","0","2025-07-30T08:52:33.120Z","","","","MotivationQ","","","","","","","","","","","50","","","","","","","","","","","","","","","","","","","","","","","","","","",""
"","","","","ctl-task-cpt","33","673761","0.0-7.0-0.4","36","1","2025-07-30 08:41:54","36c45c0696341be0efffe67d72a12abb","94.101.25.101","Mozilla/5.0 (X11; Linux x86_64) AppleWebKit/537.36 (KHTML, like Gecko) Chrome/138.0.0.0 Safari/537.36","WebKit","Chrome","138.0.0.0","Linux","","https://app.prolific.com/","pl-PL,pl;q=0.9,en-US;q=0.8,en;q=0.7","5d6e3252dfe6d10001dbe508","687a19d2168e237449fb8af4","6889d9d712c7a3052d0e7f79","0","5d6e3252dfe6d10001dbe508","0","2025-07-30T08:53:09.175Z","","","","","","","","","","","","","","","","win-only","1","g1:NE,g2:SW","0.6","5","0","638943.8","874.1","5875.8","33045.7","1","4","4","6","1","1","0","14","14","0.10606060606060606","1842.2","3000","730","[""up"",""right""]","{""num_key_presses"":7,""num_perfect"":4,""num_errors"":1,""num_randdir"":2,""num_randdir_good_moves"":1,""num_whilered"":0,""num_whileblue"":0,""num_blue"":3,""num_good_moves"":5}","[415.57142857142856,419.47767857142856,0.3,415.57142857142856,419.47767857142856,103.3,415.57142857142856,419.47767857142856,206.1,415.57142857142856,419.47767857142856,306.8,413.57142857142856,419.47767857142856,411.2,410.57142857142856,421.47767857142856,511.2,410.57142857142856,421.47767857142856,611.2,410.57142857142856,421.47767857142856,716.4,410.57142857142856,421.47767857142856,822.1,410.57142857142856,421.47767857142856,923.4,395.57142857142856,433.47767857142856,1024,273.57142857142856,502.47767857142856,1126.2,240.57142857142856,528.4776785714286,1226.4,223.57142857142856,572.4776785714286,1331.3,220.57142857142856,597.4776785714286,1436.2,473.57142857142856,376.47767857142856,1536.2,702.5714285714286,151.47767857142856,1636.4,735.5714285714286,107.47767857142857,1736.7,749.5714285714286,85.47767857142857,1841.7,749.5714285714286,85.47767857142857,1946.5,876.5714285714286,72.47767857142857,2046.5,1222.5714285714287,33.47767857142857,2146.7,1304.5714285714287,27.47767857142857,2247.6,1304.5714285714287,27.47767857142857,2351.9,1304.5714285714287,27.47767857142857,2452.2,1304.5714285714287,27.47767857142857,2556.4,1304.5714285714287,27.47767857142857,2656.5,1304.5714285714287,27.47767857142857,2761.5,1304.5714285714287,27.47767857142857,2866.4,1304.5714285714287,27.47767857142857,2966.5,1304.5714285714287,27.47767857142857,3072.5,1304.5714285714287,27.47767857142857,3176.5,1304.5714285714287,27.47767857142857,3281.6,1304.5714285714287,27.47767857142857,3386.4,1304.5714285714287,27.47767857142857,3491.3,1304.5714285714287,27.47767857142857,3597.4,1304.5714285714287,27.47767857142857,3703.7,1304.5714285714287,27.47767857142857,3806.3,1304.5714285714287,27.47767857142857,3911.4,1304.5714285714287,27.47767857142857,4016.3,1304.5714285714287,27.47767857142857,4116.5,1304.5714285714287,27.47767857142857,4221.3,1304.5714285714287,27.47767857142857,4322,1304.5714285714287,27.47767857142857,4426.2,1304.5714285714287,27.47767857142857,4526.2,1304.5714285714287,27.47767857142857,4626.2,1304.5714285714287,27.47767857142857,4726.3,1304.5714285714287,27.47767857142857,4826.3,1304.5714285714287,27.47767857142857,4933.2]","[1348.7,1348.7,1000,0,348.7,""smooth"",""up"",""up"",""good_move"",4741.2,3392.2,2934.3,1349.1,457.9,""smooth"",""up"",""up"",""good_move"",14365.8,9624.4,2111.4,11899.7,354.7,""oops"",""right"",""left"",""bad_move"",20883.9,6517.8,2767.7,17729.4,386.8,""smooth"",""right"",""right"",""good_move"",23323.6,2439.3,2034.1,20884.3,405.2,""smooth"",""right"",""right"",""good_move"",23439.7,115.8,2846.9,23323.9,-2731.1,""error"",""-"",""-"",""no_move"",27075.7,3635.8,2284.5,24444.5,346.7,""oops"",""right"",""right"",""good_move""]"
"2859","","<div style=""width:500px;"">
  <p>What determined the result of this run?</p>
  </div>","0","html-slider-response","34","676621","0.0-7.0-1.4","36","1","2025-07-30 08:41:54","36c45c0696341be0efffe67d72a12abb","94.101.25.101","Mozilla/5.0 (X11; Linux x86_64) AppleWebKit/537.36 (KHTML, like Gecko) Chrome/138.0.0.0 Safari/537.36","WebKit","Chrome","138.0.0.0","Linux","","https://app.prolific.com/","pl-PL,pl;q=0.9,en-US;q=0.8,en;q=0.7","5d6e3252dfe6d10001dbe508","687a19d2168e237449fb8af4","6889d9d712c7a3052d0e7f79","0","5d6e3252dfe6d10001dbe508","0","2025-07-30T08:53:12.035Z","","","","AttribQ","","","","","","","","","","","50","","","","","","","","","","","","","","","","","","","","","","","","","","",""
"4325","","<div style=""width:500px;"">
  <p>How much control did you have over the ball?</p>
  </div>","80","html-slider-response","35","680947","0.0-7.0-2.4","36","1","2025-07-30 08:41:54","36c45c0696341be0efffe67d72a12abb","94.101.25.101","Mozilla/5.0 (X11; Linux x86_64) AppleWebKit/537.36 (KHTML, like Gecko) Chrome/138.0.0.0 Safari/537.36","WebKit","Chrome","138.0.0.0","Linux","","https://app.prolific.com/","pl-PL,pl;q=0.9,en-US;q=0.8,en;q=0.7","5d6e3252dfe6d10001dbe508","687a19d2168e237449fb8af4","6889d9d712c7a3052d0e7f79","0","5d6e3252dfe6d10001dbe508","0","2025-07-30T08:53:16.361Z","","","","ControlQ","","","","","","","","","","","50","","","","","","","","","","","","","","","","","","","","","","","","","","",""
"2204","","<div style=""width:500px;"">
  <p>How would you describe your current emotional state?</p>
  </div>","0","html-slider-response","36","683152","0.0-7.0-3.4","36","1","2025-07-30 08:41:54","36c45c0696341be0efffe67d72a12abb","94.101.25.101","Mozilla/5.0 (X11; Linux x86_64) AppleWebKit/537.36 (KHTML, like Gecko) Chrome/138.0.0.0 Safari/537.36","WebKit","Chrome","138.0.0.0","Linux","","https://app.prolific.com/","pl-PL,pl;q=0.9,en-US;q=0.8,en;q=0.7","5d6e3252dfe6d10001dbe508","687a19d2168e237449fb8af4","6889d9d712c7a3052d0e7f79","0","5d6e3252dfe6d10001dbe508","0","2025-07-30T08:53:18.566Z","","","","StressQ","","","","","","","","","","","50","","","","","","","","","","","","","","","","","","","","","","","","","","",""
"1946","","<div style=""width:500px;"">
  <p>What best describes how you currently feel?</p>
  </div>","85","html-slider-response","37","685099","0.0-7.0-4.4","36","1","2025-07-30 08:41:54","36c45c0696341be0efffe67d72a12abb","94.101.25.101","Mozilla/5.0 (X11; Linux x86_64) AppleWebKit/537.36 (KHTML, like Gecko) Chrome/138.0.0.0 Safari/537.36","WebKit","Chrome","138.0.0.0","Linux","","https://app.prolific.com/","pl-PL,pl;q=0.9,en-US;q=0.8,en;q=0.7","5d6e3252dfe6d10001dbe508","687a19d2168e237449fb8af4","6889d9d712c7a3052d0e7f79","0","5d6e3252dfe6d10001dbe508","0","2025-07-30T08:53:20.514Z","","","","MotivationQ","","","","","","","","","","","50","","","","","","","","","","","","","","","","","","","","","","","","","","",""
"","","","","ctl-task-cpt","38","717996","0.0-7.0-0.5","36","1","2025-07-30 08:41:54","36c45c0696341be0efffe67d72a12abb","94.101.25.101","Mozilla/5.0 (X11; Linux x86_64) AppleWebKit/537.36 (KHTML, like Gecko) Chrome/138.0.0.0 Safari/537.36","WebKit","Chrome","138.0.0.0","Linux","","https://app.prolific.com/","pl-PL,pl;q=0.9,en-US;q=0.8,en;q=0.7","5d6e3252dfe6d10001dbe508","687a19d2168e237449fb8af4","6889d9d712c7a3052d0e7f79","0","5d6e3252dfe6d10001dbe508","0","2025-07-30T08:53:53.410Z","","","","","","","","","","","","","","","","win-only","1","g1:NE,g2:SW","0.5","6","0","686338","684.9","5688.3","29883.6","1","4","8","6","2","8","8","22","14","0.16666666666666666","606.6","3000","575","[""down"",""left""]","{""num_key_presses"":8,""num_perfect"":4,""num_errors"":0,""num_randdir"":4,""num_randdir_good_moves"":3,""num_whilered"":0,""num_whileblue"":0,""num_blue"":1,""num_good_moves"":7}","[420.57142857142856,423.47767857142856,0.3,420.57142857142856,423.47767857142856,100.4,420.57142857142856,423.47767857142856,201,417.57142857142856,427.47767857142856,304.8,297.57142857142856,537.4776785714286,405.4,70.57142857142857,765.4776785714286,507,50.57142857142857,789.4776785714286,613.6,52.57142857142857,788.4776785714286,716.2,-39.42857142857143,751.4776785714286,821,-226.42857142857144,725.4776785714286,922.9,-237.42857142857144,721.4776785714286,1025.8,-237.42857142857144,721.4776785714286,1127.1,-237.42857142857144,721.4776785714286,1234,-237.42857142857144,721.4776785714286,1334.4,-237.42857142857144,721.4776785714286,1436.4,-237.42857142857144,721.4776785714286,1540.5,-237.42857142857144,721.4776785714286,1640.7,-237.42857142857144,721.4776785714286,1747.5,-237.42857142857144,721.4776785714286,1847.7,-237.42857142857144,721.4776785714286,1948.1,-237.42857142857144,721.4776785714286,2054,-237.42857142857144,721.4776785714286,2156.6,-237.42857142857144,721.4776785714286,2260.4,-237.42857142857144,721.4776785714286,2360.4,-237.42857142857144,721.4776785714286,2460.4,-237.42857142857144,721.4776785714286,2560.4,-237.42857142857144,721.4776785714286,2660.4,-237.42857142857144,721.4776785714286,2769.1,-237.42857142857144,721.4776785714286,2870.7,-237.42857142857144,721.4776785714286,2972.3,-237.42857142857144,721.4776785714286,3075.4,-237.42857142857144,721.4776785714286,3182.7,-237.42857142857144,721.4776785714286,3284.7,-237.42857142857144,721.4776785714286,3386.1,-237.42857142857144,721.4776785714286,3490.4,-237.42857142857144,721.4776785714286,3590.4,-237.42857142857144,721.4776785714286,3690.4,-237.42857142857144,721.4776785714286,3790.4,-237.42857142857144,721.4776785714286,3890.4,-237.42857142857144,721.4776785714286,3997.8,-237.42857142857144,721.4776785714286,4101.8,-237.42857142857144,721.4776785714286,4205.4,-237.42857142857144,721.4776785714286,4312.2,-237.42857142857144,721.4776785714286,4416.1,-237.42857142857144,721.4776785714286,4520.4,-237.42857142857144,721.4776785714286,4625.3,-237.42857142857144,721.4776785714286,4725.4,-237.42857142857144,721.4776785714286,4830.4,-237.42857142857144,721.4776785714286,4932.5]","[4815.8,4815.8,2480.5,2006.9,328.4,""smooth"",""left"",""left"",""good_move"",8021.7,3205.6,2839.9,4816.2,365.6,""smooth"",""left"",""left"",""good_move"",10770.6,2748.6,2406.3,8022,342.3,""oops"",""down"",""left"",""good_move"",13560.9,2790.2,2462.9,10770.7,327.3,""oops"",""down"",""up"",""bad_move"",16568.5,3007.1,2753,13561.4,254.1,""oops"",""down"",""down"",""good_move"",19285.3,2716.4,2384.1,16568.9,332.3,""oops"",""down"",""down"",""good_move"",21679.6,2394,2091.6,19285.6,302.4,""smooth"",""down"",""down"",""good_move"",24107.6,2427.9,2150.5,21679.8,277.4,""smooth"",""down"",""down"",""good_move""]"
"7985","","<div style=""width:500px;"">
  <p>What determined the result of this run?</p>
  </div>","56","html-slider-response","39","725982","0.0-7.0-1.5","36","1","2025-07-30 08:41:54","36c45c0696341be0efffe67d72a12abb","94.101.25.101","Mozilla/5.0 (X11; Linux x86_64) AppleWebKit/537.36 (KHTML, like Gecko) Chrome/138.0.0.0 Safari/537.36","WebKit","Chrome","138.0.0.0","Linux","","https://app.prolific.com/","pl-PL,pl;q=0.9,en-US;q=0.8,en;q=0.7","5d6e3252dfe6d10001dbe508","687a19d2168e237449fb8af4","6889d9d712c7a3052d0e7f79","0","5d6e3252dfe6d10001dbe508","0","2025-07-30T08:54:01.396Z","","","","AttribQ","","","","","","","","","","","50","","","","","","","","","","","","","","","","","","","","","","","","","","",""
"6300","","<div style=""width:500px;"">
  <p>How much control did you have over the ball?</p>
  </div>","60","html-slider-response","40","732283","0.0-7.0-2.5","36","1","2025-07-30 08:41:54","36c45c0696341be0efffe67d72a12abb","94.101.25.101","Mozilla/5.0 (X11; Linux x86_64) AppleWebKit/537.36 (KHTML, like Gecko) Chrome/138.0.0.0 Safari/537.36","WebKit","Chrome","138.0.0.0","Linux","","https://app.prolific.com/","pl-PL,pl;q=0.9,en-US;q=0.8,en;q=0.7","5d6e3252dfe6d10001dbe508","687a19d2168e237449fb8af4","6889d9d712c7a3052d0e7f79","0","5d6e3252dfe6d10001dbe508","0","2025-07-30T08:54:07.698Z","","","","ControlQ","","","","","","","","","","","50","","","","","","","","","","","","","","","","","","","","","","","","","","",""
"3811","","<div style=""width:500px;"">
  <p>How would you describe your current emotional state?</p>
  </div>","0","html-slider-response","41","736096","0.0-7.0-3.5","36","1","2025-07-30 08:41:54","36c45c0696341be0efffe67d72a12abb","94.101.25.101","Mozilla/5.0 (X11; Linux x86_64) AppleWebKit/537.36 (KHTML, like Gecko) Chrome/138.0.0.0 Safari/537.36","WebKit","Chrome","138.0.0.0","Linux","","https://app.prolific.com/","pl-PL,pl;q=0.9,en-US;q=0.8,en;q=0.7","5d6e3252dfe6d10001dbe508","687a19d2168e237449fb8af4","6889d9d712c7a3052d0e7f79","0","5d6e3252dfe6d10001dbe508","0","2025-07-30T08:54:11.510Z","","","","StressQ","","","","","","","","","","","50","","","","","","","","","","","","","","","","","","","","","","","","","","",""
"1563","","<div style=""width:500px;"">
  <p>What best describes how you currently feel?</p>
  </div>","85","html-slider-response","42","737660","0.0-7.0-4.5","36","1","2025-07-30 08:41:54","36c45c0696341be0efffe67d72a12abb","94.101.25.101","Mozilla/5.0 (X11; Linux x86_64) AppleWebKit/537.36 (KHTML, like Gecko) Chrome/138.0.0.0 Safari/537.36","WebKit","Chrome","138.0.0.0","Linux","","https://app.prolific.com/","pl-PL,pl;q=0.9,en-US;q=0.8,en;q=0.7","5d6e3252dfe6d10001dbe508","687a19d2168e237449fb8af4","6889d9d712c7a3052d0e7f79","0","5d6e3252dfe6d10001dbe508","0","2025-07-30T08:54:13.074Z","","","","MotivationQ","","","","","","","","","","","50","","","","","","","","","","","","","","","","","","","","","","","","","","",""
"","","","","ctl-task-cpt","43","801091","0.0-7.0-0.6","36","1","2025-07-30 08:41:54","36c45c0696341be0efffe67d72a12abb","94.101.25.101","Mozilla/5.0 (X11; Linux x86_64) AppleWebKit/537.36 (KHTML, like Gecko) Chrome/138.0.0.0 Safari/537.36","WebKit","Chrome","138.0.0.0","Linux","","https://app.prolific.com/","pl-PL,pl;q=0.9,en-US;q=0.8,en;q=0.7","5d6e3252dfe6d10001dbe508","687a19d2168e237449fb8af4","6889d9d712c7a3052d0e7f79","0","5d6e3252dfe6d10001dbe508","0","2025-07-30T08:55:16.505Z","","","","","","","","","","","","","","","","win-only","1","g1:NE,g2:SW","0.4","7","0","738897.7","925.9","5929","60417.2","1","4","4","6","2","-4","-7","15","22","0.11363636363636363","649.1","3000","-2885","[""down"",""left""]","{""num_key_presses"":15,""num_perfect"":5,""num_errors"":3,""num_randdir"":7,""num_randdir_good_moves"":2,""num_whilered"":0,""num_whileblue"":1,""num_blue"":5,""num_good_moves"":8}","[409.57142857142856,411.47767857142856,0.1,409.57142857142856,412.47767857142856,101.3,409.57142857142856,413.47767857142856,202.7,401.57142857142856,419.47767857142856,307.9,230.57142857142856,587.4776785714286,411.3,114.57142857142857,746.4776785714286,513,86.57142857142857,778.4776785714286,613.1,76.57142857142857,790.4776785714286,716.5,1.5714285714285694,798.4776785714286,816.6,-174.42857142857144,808.4776785714286,920.4,-259.42857142857144,808.4776785714286,1023.3,-268.42857142857144,789.4776785714286,1124.5,-260.42857142857144,758.4776785714286,1225.6,-260.42857142857144,758.4776785714286,1332.4,-260.42857142857144,758.4776785714286,1432.5,-260.42857142857144,758.4776785714286,1537.5,-260.42857142857144,758.4776785714286,1639.5,-260.42857142857144,758.4776785714286,1741.9,-260.42857142857144,758.4776785714286,1844.8,-260.42857142857144,758.4776785714286,1949.4,-260.42857142857144,758.4776785714286,2052.4,-260.42857142857144,758.4776785714286,2157.8,-260.42857142857144,758.4776785714286,2266.4,-260.42857142857144,758.4776785714286,2370.1,-260.42857142857144,758.4776785714286,2470.2,-260.42857142857144,758.4776785714286,2574.4,-260.42857142857144,758.4776785714286,2683.5,-260.42857142857144,758.4776785714286,2785.4,-260.42857142857144,758.4776785714286,2886.1,-260.42857142857144,758.4776785714286,2989.4,-260.42857142857144,758.4776785714286,3089.4,-260.42857142857144,758.4776785714286,3191,-260.42857142857144,758.4776785714286,3300,-260.42857142857144,758.4776785714286,3402.4,-260.42857142857144,758.4776785714286,3504.4,-260.42857142857144,758.4776785714286,3605.7,-260.42857142857144,758.4776785714286,3706.4,-260.42857142857144,758.4776785714286,3809.4,-260.42857142857144,758.4776785714286,3918,-260.42857142857144,758.4776785714286,4022.2,-260.42857142857144,758.4776785714286,4124.6,-260.42857142857144,758.4776785714286,4229.4,-260.42857142857144,758.4776785714286,4329.4,-260.42857142857144,758.4776785714286,4430.6,-260.42857142857144,758.4776785714286,4531.9,-260.42857142857144,758.4776785714286,4634.7,-260.42857142857144,758.4776785714286,4734.7,-260.42857142857144,758.4776785714286,4834.7,-260.42857142857144,758.4776785714286,4936.5]","[1288.7,1288.7,1000,0,288.7,""oops"",""left"",""up"",""bad_move"",4892,3603,3357.3,1289,245.7,""oops"",""down"",""right"",""bad_move"",8448.2,3555.7,3291.5,4892.5,264.2,""oops"",""down"",""right"",""bad_move"",14080.2,5631.7,2639.9,11241.2,199.1,""while_blue"",""down"",""down"",""good_move"",16903.5,2822.9,2557.9,14080.7,264.9,""smooth"",""down"",""down"",""good_move"",22076.4,5172.6,1700.5,20095,280.9,""smooth"",""down"",""down"",""good_move"",24918.7,2842.1,2580.4,22076.6,261.7,""oops"",""down"",""down"",""good_move"",30788,5869.1,2509.5,27948.6,330,""smooth"",""left"",""left"",""good_move"",33789.9,3001.6,2725.6,30788.3,276,""smooth"",""left"",""left"",""good_move"",35960.6,2170.4,1871.9,33790.2,298.5,""oops"",""left"",""up"",""bad_move"",39120.3,3159.2,2860,35961.1,299.2,""oops"",""left"",""up"",""bad_move"",41701.4,2580.8,2416.3,39120.6,164.5,""oops"",""down"",""left"",""good_move"",44533.4,2831.6,2726.6,41701.8,105,""smooth"",""down"",""down"",""good_move"",46609.2,2075.3,2623.9,44534.1,-548.7,""error"",""-"",""-"",""no_move"",47803.6,1194.2,2463.3,47614.2,-2273.9,""error"",""-"",""-"",""no_move""]"
"3253","","<div style=""width:500px;"">
  <p>What determined the result of this run?</p>
  </div>","8","html-slider-response","44","804345","0.0-7.0-1.6","36","1","2025-07-30 08:41:54","36c45c0696341be0efffe67d72a12abb","94.101.25.101","Mozilla/5.0 (X11; Linux x86_64) AppleWebKit/537.36 (KHTML, like Gecko) Chrome/138.0.0.0 Safari/537.36","WebKit","Chrome","138.0.0.0","Linux","","https://app.prolific.com/","pl-PL,pl;q=0.9,en-US;q=0.8,en;q=0.7","5d6e3252dfe6d10001dbe508","687a19d2168e237449fb8af4","6889d9d712c7a3052d0e7f79","0","5d6e3252dfe6d10001dbe508","0","2025-07-30T08:55:19.759Z","","","","AttribQ","","","","","","","","","","","50","","","","","","","","","","","","","","","","","","","","","","","","","","",""
"2627","","<div style=""width:500px;"">
  <p>How much control did you have over the ball?</p>
  </div>","15","html-slider-response","45","806974","0.0-7.0-2.6","36","1","2025-07-30 08:41:54","36c45c0696341be0efffe67d72a12abb","94.101.25.101","Mozilla/5.0 (X11; Linux x86_64) AppleWebKit/537.36 (KHTML, like Gecko) Chrome/138.0.0.0 Safari/537.36","WebKit","Chrome","138.0.0.0","Linux","","https://app.prolific.com/","pl-PL,pl;q=0.9,en-US;q=0.8,en;q=0.7","5d6e3252dfe6d10001dbe508","687a19d2168e237449fb8af4","6889d9d712c7a3052d0e7f79","0","5d6e3252dfe6d10001dbe508","0","2025-07-30T08:55:22.388Z","","","","ControlQ","","","","","","","","","","","50","","","","","","","","","","","","","","","","","","","","","","","","","","",""
"2819","","<div style=""width:500px;"">
  <p>How would you describe your current emotional state?</p>
  </div>","8","html-slider-response","46","809794","0.0-7.0-3.6","36","1","2025-07-30 08:41:54","36c45c0696341be0efffe67d72a12abb","94.101.25.101","Mozilla/5.0 (X11; Linux x86_64) AppleWebKit/537.36 (KHTML, like Gecko) Chrome/138.0.0.0 Safari/537.36","WebKit","Chrome","138.0.0.0","Linux","","https://app.prolific.com/","pl-PL,pl;q=0.9,en-US;q=0.8,en;q=0.7","5d6e3252dfe6d10001dbe508","687a19d2168e237449fb8af4","6889d9d712c7a3052d0e7f79","0","5d6e3252dfe6d10001dbe508","0","2025-07-30T08:55:25.208Z","","","","StressQ","","","","","","","","","","","50","","","","","","","","","","","","","","","","","","","","","","","","","","",""
"1530","","<div style=""width:500px;"">
  <p>What best describes how you currently feel?</p>
  </div>","80","html-slider-response","47","811324","0.0-7.0-4.6","36","1","2025-07-30 08:41:54","36c45c0696341be0efffe67d72a12abb","94.101.25.101","Mozilla/5.0 (X11; Linux x86_64) AppleWebKit/537.36 (KHTML, like Gecko) Chrome/138.0.0.0 Safari/537.36","WebKit","Chrome","138.0.0.0","Linux","","https://app.prolific.com/","pl-PL,pl;q=0.9,en-US;q=0.8,en;q=0.7","5d6e3252dfe6d10001dbe508","687a19d2168e237449fb8af4","6889d9d712c7a3052d0e7f79","0","5d6e3252dfe6d10001dbe508","0","2025-07-30T08:55:26.739Z","","","","MotivationQ","","","","","","","","","","","50","","","","","","","","","","","","","","","","","","","","","","","","","","",""
"","","","","ctl-task-cpt","48","860361","0.0-7.0-0.7","36","1","2025-07-30 08:41:54","36c45c0696341be0efffe67d72a12abb","94.101.25.101","Mozilla/5.0 (X11; Linux x86_64) AppleWebKit/537.36 (KHTML, like Gecko) Chrome/138.0.0.0 Safari/537.36","WebKit","Chrome","138.0.0.0","Linux","","https://app.prolific.com/","pl-PL,pl;q=0.9,en-US;q=0.8,en;q=0.7","5d6e3252dfe6d10001dbe508","687a19d2168e237449fb8af4","6889d9d712c7a3052d0e7f79","0","5d6e3252dfe6d10001dbe508","0","2025-07-30T08:56:15.775Z","","","","","","","","","","","","","","","","win-only","1","g1:NE,g2:SW","0.3","8","0","812562.4","549.8","5556.9","46020.3","1","4","8","6","2","-8","-10","5","15","0.03787878787878788","674.6","3000","-2730","[""down"",""left""]","{""num_key_presses"":11,""num_perfect"":2,""num_errors"":2,""num_randdir"":7,""num_randdir_good_moves"":2,""num_whilered"":0,""num_whileblue"":2,""num_blue"":4,""num_good_moves"":4}","[420.57142857142856,422.47767857142856,0.1,420.57142857142856,422.47767857142856,100.4,416.57142857142856,424.47767857142856,201.4,407.57142857142856,431.47767857142856,305.5,396.57142857142856,436.47767857142856,408.9,170.57142857142856,672.4776785714286,512,71.57142857142857,768.4776785714286,612.7,72.57142857142857,770.4776785714286,717.1,56.57142857142857,767.4776785714286,817.2,-182.42857142857144,675.4776785714286,918.6,-302.42857142857144,636.4776785714286,1020.3,-302.42857142857144,636.4776785714286,1120.9,-302.42857142857144,636.4776785714286,1221.7,-302.42857142857144,636.4776785714286,1323,-302.42857142857144,636.4776785714286,1426.5,-302.42857142857144,636.4776785714286,1530.7,-302.42857142857144,636.4776785714286,1632.4,-302.42857142857144,636.4776785714286,1735.7,-302.42857142857144,636.4776785714286,1843.9,-302.42857142857144,636.4776785714286,1946.8,-302.42857142857144,636.4776785714286,2046.8,-302.42857142857144,636.4776785714286,2150.8,-302.42857142857144,636.4776785714286,2252.8,-302.42857142857144,636.4776785714286,2357.7,-302.42857142857144,636.4776785714286,2461.1,-302.42857142857144,636.4776785714286,2562.3,-302.42857142857144,636.4776785714286,2667.5,-302.42857142857144,636.4776785714286,2767.9,-302.42857142857144,636.4776785714286,2870.8,-302.42857142857144,636.4776785714286,2976.2,-302.42857142857144,636.4776785714286,3077.8,-302.42857142857144,636.4776785714286,3182.2,-302.42857142857144,636.4776785714286,3284.6,-302.42857142857144,636.4776785714286,3390.3,-302.42857142857144,636.4776785714286,3492.2,-302.42857142857144,636.4776785714286,3593.9,-302.42857142857144,636.4776785714286,3699.9,-302.42857142857144,636.4776785714286,3802.2,-302.42857142857144,636.4776785714286,3906.4,-302.42857142857144,636.4776785714286,4008,-302.42857142857144,636.4776785714286,4108.1,-302.42857142857144,636.4776785714286,4212.3,-302.42857142857144,636.4776785714286,4313.1,-302.42857142857144,636.4776785714286,4413.7,-302.42857142857144,636.4776785714286,4513.8,-302.42857142857144,636.4776785714286,4619.5,-302.42857142857144,636.4776785714286,4722.2,-302.42857142857144,636.4776785714286,4824.6,-302.42857142857144,636.4776785714286,4926.4]","[1384.8,1384.8,1000,0,384.8,""smooth"",""left"",""left"",""good_move"",3967.4,2582.1,2241.4,1385.3,340.7,""oops"",""left"",""up"",""bad_move"",7395.7,3427.9,3152.2,3967.8,275.7,""oops"",""left"",""right"",""bad_move"",10414.4,3018.3,2738.4,7396.1,279.9,""oops"",""down"",""right"",""bad_move"",12671.9,2257.3,1957,10414.7,300.3,""smooth"",""down"",""down"",""good_move"",16004.9,3332.5,3032.4,12672.4,300.2,""oops"",""down"",""left"",""good_move"",25513.9,9508.6,3173.2,22007.3,333.4,""oops"",""down"",""up"",""bad_move"",27614.6,2100.4,1764.5,25514.2,335.9,""oops"",""left"",""up"",""bad_move"",30586,2971.2,2678.4,27614.8,292.8,""while_blue"",""left"",""right"",""bad_move"",33986.7,3400.5,3106.8,30586.2,293.8,""oops"",""down"",""left"",""good_move"",37215,3228,2988.8,33987.1,239.2,""while_blue"",""down"",""right"",""bad_move""]"
"2610","","<div style=""width:500px;"">
  <p>What determined the result of this run?</p>
  </div>","0","html-slider-response","49","862973","0.0-7.0-1.7","36","1","2025-07-30 08:41:54","36c45c0696341be0efffe67d72a12abb","94.101.25.101","Mozilla/5.0 (X11; Linux x86_64) AppleWebKit/537.36 (KHTML, like Gecko) Chrome/138.0.0.0 Safari/537.36","WebKit","Chrome","138.0.0.0","Linux","","https://app.prolific.com/","pl-PL,pl;q=0.9,en-US;q=0.8,en;q=0.7","5d6e3252dfe6d10001dbe508","687a19d2168e237449fb8af4","6889d9d712c7a3052d0e7f79","0","5d6e3252dfe6d10001dbe508","0","2025-07-30T08:56:18.387Z","","","","AttribQ","","","","","","","","","","","50","","","","","","","","","","","","","","","","","","","","","","","","","","",""
"1868","","<div style=""width:500px;"">
  <p>How much control did you have over the ball?</p>
  </div>","0","html-slider-response","50","864842","0.0-7.0-2.7","36","1","2025-07-30 08:41:54","36c45c0696341be0efffe67d72a12abb","94.101.25.101","Mozilla/5.0 (X11; Linux x86_64) AppleWebKit/537.36 (KHTML, like Gecko) Chrome/138.0.0.0 Safari/537.36","WebKit","Chrome","138.0.0.0","Linux","","https://app.prolific.com/","pl-PL,pl;q=0.9,en-US;q=0.8,en;q=0.7","5d6e3252dfe6d10001dbe508","687a19d2168e237449fb8af4","6889d9d712c7a3052d0e7f79","0","5d6e3252dfe6d10001dbe508","0","2025-07-30T08:56:20.256Z","","","","ControlQ","","","","","","","","","","","50","","","","","","","","","","","","","","","","","","","","","","","","","","",""
"2506","","<div style=""width:500px;"">
  <p>How would you describe your current emotional state?</p>
  </div>","7","html-slider-response","51","867349","0.0-7.0-3.7","36","1","2025-07-30 08:41:54","36c45c0696341be0efffe67d72a12abb","94.101.25.101","Mozilla/5.0 (X11; Linux x86_64) AppleWebKit/537.36 (KHTML, like Gecko) Chrome/138.0.0.0 Safari/537.36","WebKit","Chrome","138.0.0.0","Linux","","https://app.prolific.com/","pl-PL,pl;q=0.9,en-US;q=0.8,en;q=0.7","5d6e3252dfe6d10001dbe508","687a19d2168e237449fb8af4","6889d9d712c7a3052d0e7f79","0","5d6e3252dfe6d10001dbe508","0","2025-07-30T08:56:22.763Z","","","","StressQ","","","","","","","","","","","50","","","","","","","","","","","","","","","","","","","","","","","","","","",""
"3139","","<div style=""width:500px;"">
  <p>What best describes how you currently feel?</p>
  </div>","72","html-slider-response","52","870489","0.0-7.0-4.7","36","1","2025-07-30 08:41:54","36c45c0696341be0efffe67d72a12abb","94.101.25.101","Mozilla/5.0 (X11; Linux x86_64) AppleWebKit/537.36 (KHTML, like Gecko) Chrome/138.0.0.0 Safari/537.36","WebKit","Chrome","138.0.0.0","Linux","","https://app.prolific.com/","pl-PL,pl;q=0.9,en-US;q=0.8,en;q=0.7","5d6e3252dfe6d10001dbe508","687a19d2168e237449fb8af4","6889d9d712c7a3052d0e7f79","0","5d6e3252dfe6d10001dbe508","0","2025-07-30T08:56:25.903Z","","","","MotivationQ","","","","","","","","","","","50","","","","","","","","","","","","","","","","","","","","","","","","","","",""
"","","","","ctl-task-cpt","53","916609","0.0-7.0-0.8","36","1","2025-07-30 08:41:54","36c45c0696341be0efffe67d72a12abb","94.101.25.101","Mozilla/5.0 (X11; Linux x86_64) AppleWebKit/537.36 (KHTML, like Gecko) Chrome/138.0.0.0 Safari/537.36","WebKit","Chrome","138.0.0.0","Linux","","https://app.prolific.com/","pl-PL,pl;q=0.9,en-US;q=0.8,en;q=0.7","5d6e3252dfe6d10001dbe508","687a19d2168e237449fb8af4","6889d9d712c7a3052d0e7f79","0","5d6e3252dfe6d10001dbe508","0","2025-07-30T08:57:12.023Z","","","","","","","","","","","","","","","","win-only","2","g1:SE,g2:NW","0.4","9","0","871726.6","774.3","5781.9","43105.5","1","4","4","6","2","4","3","8","5","0.06060606060606061","922.8","3000","430","[""left"",""up""]","{""num_key_presses"":12,""num_perfect"":5,""num_errors"":1,""num_randdir"":6,""num_randdir_good_moves"":3,""num_whilered"":0,""num_whileblue"":1,""num_blue"":2,""num_good_moves"":9}","[417.57142857142856,419.47767857142856,0.2,417.57142857142856,418.47767857142856,100,417.57142857142856,418.47767857142856,202.9,417.57142857142856,424.47767857142856,308.9,541.5714285714286,554.4776785714286,410.2,532.5714285714286,542.4776785714286,510.2,133.57142857142856,228.47767857142856,625.7,62.57142857142857,153.47767857142856,731.4,69.57142857142857,117.47767857142857,833.4,62.57142857142857,76.47767857142857,936.3,51.57142857142857,80.47767857142857,1043.1,-109.42857142857143,136.47767857142856,1146.2,-293.42857142857144,174.47767857142856,1247,-464.42857142857144,180.47767857142856,1351.8,-492.42857142857144,170.47767857142856,1455.9,-492.42857142857144,170.47767857142856,1563.4,-492.42857142857144,170.47767857142856,1667.4,-492.42857142857144,170.47767857142856,1781.5,-492.42857142857144,170.47767857142856,1882,-492.42857142857144,170.47767857142856,1982.8,-492.42857142857144,170.47767857142856,2084.2,-492.42857142857144,170.47767857142856,2184.7,-492.42857142857144,170.47767857142856,2286.2,-492.42857142857144,170.47767857142856,2391.4,-492.42857142857144,170.47767857142856,2494.7,-492.42857142857144,170.47767857142856,2596.9,-492.42857142857144,170.47767857142856,2699.1,-492.42857142857144,170.47767857142856,2799.6,-492.42857142857144,170.47767857142856,2902.4,-492.42857142857144,170.47767857142856,3011.8,-492.42857142857144,170.47767857142856,3113.9,-492.42857142857144,170.47767857142856,3218.9,-492.42857142857144,170.47767857142856,3323.6,-492.42857142857144,170.47767857142856,3425.1,-492.42857142857144,170.47767857142856,3529.3,-492.42857142857144,170.47767857142856,3629.9,-492.42857142857144,170.47767857142856,3733.1,-492.42857142857144,170.47767857142856,3836.7,-492.42857142857144,170.47767857142856,3939.3,-492.42857142857144,170.47767857142856,4045.3,-492.42857142857144,170.47767857142856,4145.8,-492.42857142857144,170.47767857142856,4248.6,-492.42857142857144,170.47767857142856,4353,-492.42857142857144,170.47767857142856,4458,-492.42857142857144,170.47767857142856,4561,-492.42857142857144,170.47767857142856,4663.6,-492.42857142857144,170.47767857142856,4767.1,-492.42857142857144,170.47767857142856,4867.6,-492.42857142857144,170.47767857142856,4974.3]","[1343.9,1343.9,1000,0,343.9,""oops"",""up"",""right"",""bad_move"",4513.1,3168.7,2844,1344.4,324.7,""smooth"",""up"",""up"",""good_move"",12157.4,7643.9,2830.3,8998.1,329,""oops"",""up"",""left"",""good_move"",15114.8,2957.1,2649.7,12157.7,307.4,""smooth"",""up"",""up"",""good_move"",17948.7,2833.6,2499.1,15115.1,334.5,""oops"",""up"",""left"",""good_move"",20611.1,2662.2,2380.3,17948.9,281.9,""oops"",""up"",""right"",""bad_move"",23080.5,2469,2140.2,20611.5,328.8,""smooth"",""left"",""left"",""good_move"",25824.8,2744.1,2425.1,23080.7,319,""oops"",""left"",""up"",""good_move"",29291.8,3466.7,3218.5,25825.1,248.2,""smooth"",""left"",""left"",""good_move"",31820.7,2528.7,2256.5,29292,272.2,""oops"",""left"",""right"",""bad_move"",34887.8,3066.7,2841.7,31821.1,225,""while_blue"",""left"",""left"",""good_move"",37211.8,2323.7,1992.3,34888.1,331.4,""smooth"",""left"",""left"",""good_move""]"
"7047","","<div style=""width:500px;"">
  <p>What determined the result of this run?</p>
  </div>","34","html-slider-response","54","923657","0.0-7.0-1.8","36","1","2025-07-30 08:41:54","36c45c0696341be0efffe67d72a12abb","94.101.25.101","Mozilla/5.0 (X11; Linux x86_64) AppleWebKit/537.36 (KHTML, like Gecko) Chrome/138.0.0.0 Safari/537.36","WebKit","Chrome","138.0.0.0","Linux","","https://app.prolific.com/","pl-PL,pl;q=0.9,en-US;q=0.8,en;q=0.7","5d6e3252dfe6d10001dbe508","687a19d2168e237449fb8af4","6889d9d712c7a3052d0e7f79","0","5d6e3252dfe6d10001dbe508","0","2025-07-30T08:57:19.071Z","","","","AttribQ","","","","","","","","","","","50","","","","","","","","","","","","","","","","","","","","","","","","","","",""
"4342","","<div style=""width:500px;"">
  <p>How much control did you have over the ball?</p>
  </div>","42","html-slider-response","55","928000","0.0-7.0-2.8","36","1","2025-07-30 08:41:54","36c45c0696341be0efffe67d72a12abb","94.101.25.101","Mozilla/5.0 (X11; Linux x86_64) AppleWebKit/537.36 (KHTML, like Gecko) Chrome/138.0.0.0 Safari/537.36","WebKit","Chrome","138.0.0.0","Linux","","https://app.prolific.com/","pl-PL,pl;q=0.9,en-US;q=0.8,en;q=0.7","5d6e3252dfe6d10001dbe508","687a19d2168e237449fb8af4","6889d9d712c7a3052d0e7f79","0","5d6e3252dfe6d10001dbe508","0","2025-07-30T08:57:23.414Z","","","","ControlQ","","","","","","","","","","","50","","","","","","","","","","","","","","","","","","","","","","","","","","",""
"3311","","<div style=""width:500px;"">
  <p>How would you describe your current emotional state?</p>
  </div>","15","html-slider-response","56","931312","0.0-7.0-3.8","36","1","2025-07-30 08:41:54","36c45c0696341be0efffe67d72a12abb","94.101.25.101","Mozilla/5.0 (X11; Linux x86_64) AppleWebKit/537.36 (KHTML, like Gecko) Chrome/138.0.0.0 Safari/537.36","WebKit","Chrome","138.0.0.0","Linux","","https://app.prolific.com/","pl-PL,pl;q=0.9,en-US;q=0.8,en;q=0.7","5d6e3252dfe6d10001dbe508","687a19d2168e237449fb8af4","6889d9d712c7a3052d0e7f79","0","5d6e3252dfe6d10001dbe508","0","2025-07-30T08:57:26.726Z","","","","StressQ","","","","","","","","","","","50","","","","","","","","","","","","","","","","","","","","","","","","","","",""
"2763","","<div style=""width:500px;"">
  <p>What best describes how you currently feel?</p>
  </div>","81","html-slider-response","57","934076","0.0-7.0-4.8","36","1","2025-07-30 08:41:54","36c45c0696341be0efffe67d72a12abb","94.101.25.101","Mozilla/5.0 (X11; Linux x86_64) AppleWebKit/537.36 (KHTML, like Gecko) Chrome/138.0.0.0 Safari/537.36","WebKit","Chrome","138.0.0.0","Linux","","https://app.prolific.com/","pl-PL,pl;q=0.9,en-US;q=0.8,en;q=0.7","5d6e3252dfe6d10001dbe508","687a19d2168e237449fb8af4","6889d9d712c7a3052d0e7f79","0","5d6e3252dfe6d10001dbe508","0","2025-07-30T08:57:29.490Z","","","","MotivationQ","","","","","","","","","","","50","","","","","","","","","","","","","","","","","","","","","","","","","","",""
"","","","","ctl-task-cpt","58","976368","0.0-7.0-0.9","36","1","2025-07-30 08:41:54","36c45c0696341be0efffe67d72a12abb","94.101.25.101","Mozilla/5.0 (X11; Linux x86_64) AppleWebKit/537.36 (KHTML, like Gecko) Chrome/138.0.0.0 Safari/537.36","WebKit","Chrome","138.0.0.0","Linux","","https://app.prolific.com/","pl-PL,pl;q=0.9,en-US;q=0.8,en;q=0.7","5d6e3252dfe6d10001dbe508","687a19d2168e237449fb8af4","6889d9d712c7a3052d0e7f79","0","5d6e3252dfe6d10001dbe508","0","2025-07-30T08:58:11.782Z","","","","","","","","","","","","","","","","win-only","2","g1:SE,g2:NW","0.5","10","0","935315","645","5648.6","39271.9","1","4","8","6","2","8","8","16","8","0.12121212121212122","582.8","3000","1600","[""left"",""up""]","{""num_key_presses"":6,""num_perfect"":4,""num_errors"":0,""num_randdir"":2,""num_randdir_good_moves"":2,""num_whilered"":0,""num_whileblue"":0,""num_blue"":5,""num_good_moves"":6}","[422.57142857142856,422.47767857142856,0.1,423.57142857142856,422.47767857142856,116.1,423.57142857142856,422.47767857142856,221,391.57142857142856,411.47767857142856,330.1,160.57142857142856,195.47767857142856,433.9,92.57142857142857,91.47767857142857,536.9,89.57142857142857,79.47767857142857,637.2,32.57142857142857,100.47767857142857,739.7,-232.42857142857144,137.47767857142856,839.8,-290.42857142857144,140.47767857142856,942.2,-289.42857142857144,141.47767857142856,1045.2,-289.42857142857144,141.47767857142856,1149.5,-289.42857142857144,141.47767857142856,1254.7,-289.42857142857144,141.47767857142856,1362.7,-289.42857142857144,141.47767857142856,1464.7,-289.42857142857144,141.47767857142856,1570.6,-289.42857142857144,141.47767857142856,1672.1,-289.42857142857144,141.47767857142856,1778.3,-289.42857142857144,141.47767857142856,1882.7,-289.42857142857144,141.47767857142856,1991.1,-289.42857142857144,141.47767857142856,2094.6,-289.42857142857144,141.47767857142856,2197,-289.42857142857144,141.47767857142856,2304.4,-289.42857142857144,141.47767857142856,2411.3,-289.42857142857144,141.47767857142856,2513.7,-289.42857142857144,141.47767857142856,2623.3,-289.42857142857144,141.47767857142856,2724.9,-289.42857142857144,141.47767857142856,2831.2,-289.42857142857144,141.47767857142856,2937.6,-289.42857142857144,141.47767857142856,3038.8,-289.42857142857144,141.47767857142856,3142.4,-289.42857142857144,141.47767857142856,3247.2,-289.42857142857144,141.47767857142856,3354,-289.42857142857144,141.47767857142856,3454.6,-289.42857142857144,141.47767857142856,3557.2,-289.42857142857144,141.47767857142856,3661.4,-289.42857142857144,141.47767857142856,3768.5,-289.42857142857144,141.47767857142856,3878.8,-289.42857142857144,141.47767857142856,3988.4,-289.42857142857144,141.47767857142856,4098.5,-289.42857142857144,141.47767857142856,4208,-289.42857142857144,141.47767857142856,4308,-289.42857142857144,141.47767857142856,4414.5,-289.42857142857144,141.47767857142856,4518,-289.42857142857144,141.47767857142856,4621.4,-289.42857142857144,141.47767857142856,4721.5,-289.42857142857144,141.47767857142856,4825,-289.42857142857144,141.47767857142856,4925.7]","[1341.8,1341.8,1000,0,341.8,""oops"",""up"",""up"",""good_move"",4859.2,3516.8,3206.9,1342.4,309.9,""smooth"",""left"",""left"",""good_move"",7549.9,2690.3,2367.4,4859.6,322.9,""oops"",""left"",""left"",""good_move"",24658.1,17108,2127.7,22148.8,381.7,""smooth"",""left"",""left"",""good_move"",26914,2255.6,1908.2,24658.4,347.4,""smooth"",""up"",""up"",""good_move"",33491.6,6577.2,2449.2,30670.2,372.2,""smooth"",""up"",""up"",""good_move""]"
"5874","","<div style=""width:500px;"">
  <p>What determined the result of this run?</p>
  </div>","78","html-slider-response","59","982244","0.0-7.0-1.9","36","1","2025-07-30 08:41:54","36c45c0696341be0efffe67d72a12abb","94.101.25.101","Mozilla/5.0 (X11; Linux x86_64) AppleWebKit/537.36 (KHTML, like Gecko) Chrome/138.0.0.0 Safari/537.36","WebKit","Chrome","138.0.0.0","Linux","","https://app.prolific.com/","pl-PL,pl;q=0.9,en-US;q=0.8,en;q=0.7","5d6e3252dfe6d10001dbe508","687a19d2168e237449fb8af4","6889d9d712c7a3052d0e7f79","0","5d6e3252dfe6d10001dbe508","0","2025-07-30T08:58:17.658Z","","","","AttribQ","","","","","","","","","","","50","","","","","","","","","","","","","","","","","","","","","","","","","","",""
"2997","","<div style=""width:500px;"">
  <p>How much control did you have over the ball?</p>
  </div>","82","html-slider-response","60","985243","0.0-7.0-2.9","36","1","2025-07-30 08:41:54","36c45c0696341be0efffe67d72a12abb","94.101.25.101","Mozilla/5.0 (X11; Linux x86_64) AppleWebKit/537.36 (KHTML, like Gecko) Chrome/138.0.0.0 Safari/537.36","WebKit","Chrome","138.0.0.0","Linux","","https://app.prolific.com/","pl-PL,pl;q=0.9,en-US;q=0.8,en;q=0.7","5d6e3252dfe6d10001dbe508","687a19d2168e237449fb8af4","6889d9d712c7a3052d0e7f79","0","5d6e3252dfe6d10001dbe508","0","2025-07-30T08:58:20.657Z","","","","ControlQ","","","","","","","","","","","50","","","","","","","","","","","","","","","","","","","","","","","","","","",""
"2759","","<div style=""width:500px;"">
  <p>How would you describe your current emotional state?</p>
  </div>","14","html-slider-response","61","988003","0.0-7.0-3.9","36","1","2025-07-30 08:41:54","36c45c0696341be0efffe67d72a12abb","94.101.25.101","Mozilla/5.0 (X11; Linux x86_64) AppleWebKit/537.36 (KHTML, like Gecko) Chrome/138.0.0.0 Safari/537.36","WebKit","Chrome","138.0.0.0","Linux","","https://app.prolific.com/","pl-PL,pl;q=0.9,en-US;q=0.8,en;q=0.7","5d6e3252dfe6d10001dbe508","687a19d2168e237449fb8af4","6889d9d712c7a3052d0e7f79","0","5d6e3252dfe6d10001dbe508","0","2025-07-30T08:58:23.417Z","","","","StressQ","","","","","","","","","","","50","","","","","","","","","","","","","","","","","","","","","","","","","","",""
"1643","","<div style=""width:500px;"">
  <p>What best describes how you currently feel?</p>
  </div>","80","html-slider-response","62","989647","0.0-7.0-4.9","36","1","2025-07-30 08:41:54","36c45c0696341be0efffe67d72a12abb","94.101.25.101","Mozilla/5.0 (X11; Linux x86_64) AppleWebKit/537.36 (KHTML, like Gecko) Chrome/138.0.0.0 Safari/537.36","WebKit","Chrome","138.0.0.0","Linux","","https://app.prolific.com/","pl-PL,pl;q=0.9,en-US;q=0.8,en;q=0.7","5d6e3252dfe6d10001dbe508","687a19d2168e237449fb8af4","6889d9d712c7a3052d0e7f79","0","5d6e3252dfe6d10001dbe508","0","2025-07-30T08:58:25.061Z","","","","MotivationQ","","","","","","","","","","","50","","","","","","","","","","","","","","","","","","","","","","","","","","",""
"","","","","ctl-task-cpt","63","1032547","0.0-7.0-0.10","36","1","2025-07-30 08:41:54","36c45c0696341be0efffe67d72a12abb","94.101.25.101","Mozilla/5.0 (X11; Linux x86_64) AppleWebKit/537.36 (KHTML, like Gecko) Chrome/138.0.0.0 Safari/537.36","WebKit","Chrome","138.0.0.0","Linux","","https://app.prolific.com/","pl-PL,pl;q=0.9,en-US;q=0.8,en;q=0.7","5d6e3252dfe6d10001dbe508","687a19d2168e237449fb8af4","6889d9d712c7a3052d0e7f79","0","5d6e3252dfe6d10001dbe508","0","2025-07-30T08:59:07.961Z","","","","","","","","","","","","","","","","win-only","1","g1:NE,g2:SW","0.6","11","0","990885.4","941.9","5944.6","39878.5","1","4","8","6","2","8","8","24","16","0.18181818181818182","1039.6","3000","1540","[""down"",""left""]","{""num_key_presses"":8,""num_perfect"":6,""num_errors"":0,""num_randdir"":2,""num_randdir_good_moves"":1,""num_whilered"":0,""num_whileblue"":0,""num_blue"":3,""num_good_moves"":7}","[414.57142857142856,420.47767857142856,0.3,414.57142857142856,420.47767857142856,116.1,414.57142857142856,420.47767857142856,218.1,414.57142857142856,421.47767857142856,319.4,414.57142857142856,421.47767857142856,425.3,396.57142857142856,432.47767857142856,533.5,348.57142857142856,453.47767857142856,636.4,225.57142857142856,564.4776785714286,743.4,125.57142857142857,668.4776785714286,847.3,84.57142857142857,722.4776785714286,953.8,87.57142857142857,748.4776785714286,1062.8,87.57142857142857,748.4776785714286,1164.1,-0.4285714285714306,732.4776785714286,1267.2,-181.42857142857144,709.4776785714286,1374.7,-261.42857142857144,708.4776785714286,1480.4,-261.42857142857144,708.4776785714286,1589.9,-261.42857142857144,708.4776785714286,1693.2,-261.42857142857144,708.4776785714286,1800.5,-261.42857142857144,708.4776785714286,1907.3,-261.42857142857144,708.4776785714286,2011.7,-261.42857142857144,708.4776785714286,2115.5,-261.42857142857144,708.4776785714286,2220.8,-261.42857142857144,708.4776785714286,2323.4,-261.42857142857144,708.4776785714286,2425,-261.42857142857144,708.4776785714286,2528,-261.42857142857144,708.4776785714286,2628.6,-261.42857142857144,708.4776785714286,2729.3,-261.42857142857144,708.4776785714286,2837.3,-261.42857142857144,708.4776785714286,2946.2,-261.42857142857144,708.4776785714286,3051.4,-261.42857142857144,708.4776785714286,3154.9,-261.42857142857144,708.4776785714286,3257.7,-261.42857142857144,708.4776785714286,3365.4,-261.42857142857144,708.4776785714286,3465.5,-261.42857142857144,708.4776785714286,3570.8,-261.42857142857144,708.4776785714286,3672.4,-261.42857142857144,708.4776785714286,3781,-261.42857142857144,708.4776785714286,3886.8,-261.42857142857144,708.4776785714286,3993.2,-261.42857142857144,708.4776785714286,4099.2,-261.42857142857144,708.4776785714286,4205.3,-261.42857142857144,708.4776785714286,4315.9,-261.42857142857144,708.4776785714286,4418.8,-261.42857142857144,708.4776785714286,4526.2,-261.42857142857144,708.4776785714286,4632.1,-261.42857142857144,708.4776785714286,4740.8,-261.42857142857144,708.4776785714286,4852.3,-261.42857142857144,708.4776785714286,4961]","[5915.4,5915.4,3527.8,2010.4,377.2,""smooth"",""down"",""down"",""good_move"",10193.7,4278,3887.6,5915.7,390.4,""smooth"",""down"",""down"",""good_move"",13071.9,2878,2524.2,10193.9,353.8,""smooth"",""down"",""down"",""good_move"",23599.8,10527.7,2824.8,20420.9,354.1,""oops"",""left"",""right"",""bad_move"",26114.8,2514.6,2190,23600.2,324.6,""smooth"",""left"",""left"",""good_move"",28976.9,2861.7,2546.4,26115.2,315.3,""smooth"",""left"",""left"",""good_move"",31542.1,2565,2259.8,28977.2,305.2,""smooth"",""left"",""left"",""good_move"",33800.6,2258.2,1968.4,31542.5,289.7,""oops"",""left"",""left"",""good_move""]"
"4234","","<div style=""width:500px;"">
  <p>What determined the result of this run?</p>
  </div>","58","html-slider-response","64","1036782","0.0-7.0-1.10","36","1","2025-07-30 08:41:54","36c45c0696341be0efffe67d72a12abb","94.101.25.101","Mozilla/5.0 (X11; Linux x86_64) AppleWebKit/537.36 (KHTML, like Gecko) Chrome/138.0.0.0 Safari/537.36","WebKit","Chrome","138.0.0.0","Linux","","https://app.prolific.com/","pl-PL,pl;q=0.9,en-US;q=0.8,en;q=0.7","5d6e3252dfe6d10001dbe508","687a19d2168e237449fb8af4","6889d9d712c7a3052d0e7f79","0","5d6e3252dfe6d10001dbe508","0","2025-07-30T08:59:12.196Z","","","","AttribQ","","","","","","","","","","","50","","","","","","","","","","","","","","","","","","","","","","","","","","",""
"3064","","<div style=""width:500px;"">
  <p>How much control did you have over the ball?</p>
  </div>","66","html-slider-response","65","1039847","0.0-7.0-2.10","36","1","2025-07-30 08:41:54","36c45c0696341be0efffe67d72a12abb","94.101.25.101","Mozilla/5.0 (X11; Linux x86_64) AppleWebKit/537.36 (KHTML, like Gecko) Chrome/138.0.0.0 Safari/537.36","WebKit","Chrome","138.0.0.0","Linux","","https://app.prolific.com/","pl-PL,pl;q=0.9,en-US;q=0.8,en;q=0.7","5d6e3252dfe6d10001dbe508","687a19d2168e237449fb8af4","6889d9d712c7a3052d0e7f79","0","5d6e3252dfe6d10001dbe508","0","2025-07-30T08:59:15.262Z","","","","ControlQ","","","","","","","","","","","50","","","","","","","","","","","","","","","","","","","","","","","","","","",""
"5030","","<div style=""width:500px;"">
  <p>How would you describe your current emotional state?</p>
  </div>","12","html-slider-response","66","1044879","0.0-7.0-3.10","36","1","2025-07-30 08:41:54","36c45c0696341be0efffe67d72a12abb","94.101.25.101","Mozilla/5.0 (X11; Linux x86_64) AppleWebKit/537.36 (KHTML, like Gecko) Chrome/138.0.0.0 Safari/537.36","WebKit","Chrome","138.0.0.0","Linux","","https://app.prolific.com/","pl-PL,pl;q=0.9,en-US;q=0.8,en;q=0.7","5d6e3252dfe6d10001dbe508","687a19d2168e237449fb8af4","6889d9d712c7a3052d0e7f79","0","5d6e3252dfe6d10001dbe508","0","2025-07-30T08:59:20.293Z","","","","StressQ","","","","","","","","","","","50","","","","","","","","","","","","","","","","","","","","","","","","","","",""
"1207","","<div style=""width:500px;"">
  <p>What best describes how you currently feel?</p>
  </div>","87","html-slider-response","67","1046087","0.0-7.0-4.10","36","1","2025-07-30 08:41:54","36c45c0696341be0efffe67d72a12abb","94.101.25.101","Mozilla/5.0 (X11; Linux x86_64) AppleWebKit/537.36 (KHTML, like Gecko) Chrome/138.0.0.0 Safari/537.36","WebKit","Chrome","138.0.0.0","Linux","","https://app.prolific.com/","pl-PL,pl;q=0.9,en-US;q=0.8,en;q=0.7","5d6e3252dfe6d10001dbe508","687a19d2168e237449fb8af4","6889d9d712c7a3052d0e7f79","0","5d6e3252dfe6d10001dbe508","0","2025-07-30T08:59:21.501Z","","","","MotivationQ","","","","","","","","","","","50","","","","","","","","","","","","","","","","","","","","","","","","","","",""
"","","","","ctl-task-cpt","68","1081449","0.0-7.0-0.11","36","1","2025-07-30 08:41:54","36c45c0696341be0efffe67d72a12abb","94.101.25.101","Mozilla/5.0 (X11; Linux x86_64) AppleWebKit/537.36 (KHTML, like Gecko) Chrome/138.0.0.0 Safari/537.36","WebKit","Chrome","138.0.0.0","Linux","","https://app.prolific.com/","pl-PL,pl;q=0.9,en-US;q=0.8,en;q=0.7","5d6e3252dfe6d10001dbe508","687a19d2168e237449fb8af4","6889d9d712c7a3052d0e7f79","0","5d6e3252dfe6d10001dbe508","0","2025-07-30T08:59:56.863Z","","","","","","","","","","","","","","","","win-only","3","g1:SW,g2:NE","0.7","12","0","1047325.5","771.5","5774.4","32348.6","1","4","4","6","1","1","0","24","24","0.18181818181818182","2297.9","3000","1840","[""down"",""left""]","{""num_key_presses"":8,""num_perfect"":4,""num_errors"":1,""num_randdir"":3,""num_randdir_good_moves"":2,""num_whilered"":0,""num_whileblue"":1,""num_blue"":2,""num_good_moves"":6}","[421.57142857142856,416.47767857142856,0.2,421.57142857142856,416.47767857142856,100.3,419.57142857142856,419.47767857142856,208.9,414.57142857142856,425.47767857142856,315.8,404.57142857142856,433.47767857142856,418.6,423.57142857142856,417.47767857142856,522.9,531.5714285714286,328.47767857142856,628.9,541.5714285714286,321.47767857142856,734.7,522.5714285714286,339.47767857142856,837.2,229.57142857142856,583.4776785714286,941,105.57142857142857,719.4776785714286,1051.1,104.57142857142857,728.4776785714286,1151.1,102.57142857142857,729.4776785714286,1252.6,102.57142857142857,729.4776785714286,1355.4,102.57142857142857,729.4776785714286,1457.9,102.57142857142857,728.4776785714286,1560.2,153.57142857142856,694.4776785714286,1661,396.57142857142856,474.47767857142856,1764,326.57142857142856,534.4776785714286,1869.5,119.57142857142857,704.4776785714286,1971.9,115.57142857142857,726.4776785714286,2080.4,115.57142857142857,729.4776785714286,2186.1,94.57142857142857,761.4776785714286,2286.1,87.57142857142857,767.4776785714286,2400.6,-93.42857142857143,765.4776785714286,2501.9,-205.42857142857144,769.4776785714286,2609.2,-210.42857142857144,766.4776785714286,2717.4,-210.42857142857144,766.4776785714286,2822.5,-210.42857142857144,766.4776785714286,2924.7,-210.42857142857144,766.4776785714286,3029.4,-210.42857142857144,766.4776785714286,3137.6,-210.42857142857144,766.4776785714286,3249,-210.42857142857144,766.4776785714286,3350,-210.42857142857144,766.4776785714286,3456.7,-210.42857142857144,766.4776785714286,3567.7,-210.42857142857144,766.4776785714286,3677.2,-210.42857142857144,766.4776785714286,3782.2,-210.42857142857144,766.4776785714286,3882.4,-210.42857142857144,766.4776785714286,3992.6,-210.42857142857144,766.4776785714286,4097.6,-210.42857142857144,766.4776785714286,4208.7,-210.42857142857144,766.4776785714286,4311,-210.42857142857144,766.4776785714286,4416.6,-210.42857142857144,766.4776785714286,4519.1,-210.42857142857144,766.4776785714286,4631.7,-210.42857142857144,766.4776785714286,4741,-210.42857142857144,766.4776785714286,4844.8,-210.42857142857144,766.4776785714286,4955.9]","[1391.3,1391.3,1000,0,391.3,""smooth"",""left"",""left"",""good_move"",4193,2801.4,2406.4,1391.6,395,""smooth"",""left"",""left"",""good_move"",7106,2912.7,2564.9,4193.3,347.8,""oops"",""down"",""down"",""good_move"",10385.4,3279.1,2990.4,7106.3,288.7,""oops"",""down"",""right"",""bad_move"",17261.2,6875.4,2875.8,14078.5,306.9,""smooth"",""down"",""down"",""good_move"",20159,2897.5,2591.6,17261.5,305.9,""while_blue"",""left"",""right"",""bad_move"",22763.9,2604.7,2267.1,20159.2,337.6,""oops"",""left"",""left"",""good_move"",26357.6,3593.4,3223.2,22764.2,370.2,""smooth"",""left"",""left"",""good_move""]"
"5236","","<div style=""width:500px;"">
  <p>What determined the result of this run?</p>
  </div>","39","html-slider-response","69","1086686","0.0-7.0-1.11","36","1","2025-07-30 08:41:54","36c45c0696341be0efffe67d72a12abb","94.101.25.101","Mozilla/5.0 (X11; Linux x86_64) AppleWebKit/537.36 (KHTML, like Gecko) Chrome/138.0.0.0 Safari/537.36","WebKit","Chrome","138.0.0.0","Linux","","https://app.prolific.com/","pl-PL,pl;q=0.9,en-US;q=0.8,en;q=0.7","5d6e3252dfe6d10001dbe508","687a19d2168e237449fb8af4","6889d9d712c7a3052d0e7f79","0","5d6e3252dfe6d10001dbe508","0","2025-07-30T09:00:02.100Z","","","","AttribQ","","","","","","","","","","","50","","","","","","","","","","","","","","","","","","","","","","","","","","",""
"3758","","<div style=""width:500px;"">
  <p>How much control did you have over the ball?</p>
  </div>","60","html-slider-response","70","1090445","0.0-7.0-2.11","36","1","2025-07-30 08:41:54","36c45c0696341be0efffe67d72a12abb","94.101.25.101","Mozilla/5.0 (X11; Linux x86_64) AppleWebKit/537.36 (KHTML, like Gecko) Chrome/138.0.0.0 Safari/537.36","WebKit","Chrome","138.0.0.0","Linux","","https://app.prolific.com/","pl-PL,pl;q=0.9,en-US;q=0.8,en;q=0.7","5d6e3252dfe6d10001dbe508","687a19d2168e237449fb8af4","6889d9d712c7a3052d0e7f79","0","5d6e3252dfe6d10001dbe508","0","2025-07-30T09:00:05.859Z","","","","ControlQ","","","","","","","","","","","50","","","","","","","","","","","","","","","","","","","","","","","","","","",""
"2509","","<div style=""width:500px;"">
  <p>How would you describe your current emotional state?</p>
  </div>","19","html-slider-response","71","1092956","0.0-7.0-3.11","36","1","2025-07-30 08:41:54","36c45c0696341be0efffe67d72a12abb","94.101.25.101","Mozilla/5.0 (X11; Linux x86_64) AppleWebKit/537.36 (KHTML, like Gecko) Chrome/138.0.0.0 Safari/537.36","WebKit","Chrome","138.0.0.0","Linux","","https://app.prolific.com/","pl-PL,pl;q=0.9,en-US;q=0.8,en;q=0.7","5d6e3252dfe6d10001dbe508","687a19d2168e237449fb8af4","6889d9d712c7a3052d0e7f79","0","5d6e3252dfe6d10001dbe508","0","2025-07-30T09:00:08.370Z","","","","StressQ","","","","","","","","","","","50","","","","","","","","","","","","","","","","","","","","","","","","","","",""
"2022","","<div style=""width:500px;"">
  <p>What best describes how you currently feel?</p>
  </div>","83","html-slider-response","72","1094979","0.0-7.0-4.11","36","1","2025-07-30 08:41:54","36c45c0696341be0efffe67d72a12abb","94.101.25.101","Mozilla/5.0 (X11; Linux x86_64) AppleWebKit/537.36 (KHTML, like Gecko) Chrome/138.0.0.0 Safari/537.36","WebKit","Chrome","138.0.0.0","Linux","","https://app.prolific.com/","pl-PL,pl;q=0.9,en-US;q=0.8,en;q=0.7","5d6e3252dfe6d10001dbe508","687a19d2168e237449fb8af4","6889d9d712c7a3052d0e7f79","0","5d6e3252dfe6d10001dbe508","0","2025-07-30T09:00:10.393Z","","","","MotivationQ","","","","","","","","","","","50","","","","","","","","","","","","","","","","","","","","","","","","","","",""
"","","","","ctl-task-cpt","73","1118728","0.0-7.0-0.12","36","1","2025-07-30 08:41:54","36c45c0696341be0efffe67d72a12abb","94.101.25.101","Mozilla/5.0 (X11; Linux x86_64) AppleWebKit/537.36 (KHTML, like Gecko) Chrome/138.0.0.0 Safari/537.36","WebKit","Chrome","138.0.0.0","Linux","","https://app.prolific.com/","pl-PL,pl;q=0.9,en-US;q=0.8,en;q=0.7","5d6e3252dfe6d10001dbe508","687a19d2168e237449fb8af4","6889d9d712c7a3052d0e7f79","0","5d6e3252dfe6d10001dbe508","0","2025-07-30T09:00:34.142Z","","","","","","","","","","","","","","","","win-only","0","g1:NW,g2:SE","0.8","13","0","1096217.5","729.6","5737.2","20729.3","1","4","4","6","2","4","4","28","24","0.21212121212121213","846.4","3000","1985","[""down"",""right""]","{""num_key_presses"":6,""num_perfect"":5,""num_errors"":0,""num_randdir"":1,""num_randdir_good_moves"":1,""num_whilered"":0,""num_whileblue"":0,""num_blue"":0,""num_good_moves"":6}","[414.57142857142856,409.47767857142856,0.2,414.57142857142856,409.47767857142856,105.2,414.57142857142856,409.47767857142856,206.6,408.57142857142856,412.47767857142856,313.7,285.57142857142856,308.47767857142856,415.3,491.57142857142856,441.47767857142856,523.1,677.5714285714286,727.4776785714286,629.2,702.5714285714286,774.4776785714286,732,713.5714285714286,773.4776785714286,833.6,714.5714285714286,772.4776785714286,935.4,724.5714285714286,761.4776785714286,1042.6,966.5714285714286,695.4776785714286,1152.4,1150.5714285714287,611.4776785714286,1254.6,1151.5714285714287,610.4776785714286,1361.2,1151.5714285714287,610.4776785714286,1470,1151.5714285714287,610.4776785714286,1572.7,1151.5714285714287,609.4776785714286,1679.4,1151.5714285714287,609.4776785714286,1789.3,1151.5714285714287,609.4776785714286,1892.2,1151.5714285714287,609.4776785714286,1993,1151.5714285714287,609.4776785714286,2098.6,1151.5714285714287,609.4776785714286,2205.4,1151.5714285714287,609.4776785714286,2306.8,1151.5714285714287,609.4776785714286,2417.2,1151.5714285714287,609.4776785714286,2519.6,1151.5714285714287,609.4776785714286,2621.6,1151.5714285714287,609.4776785714286,2726.6,1151.5714285714287,609.4776785714286,2836.3,1151.5714285714287,609.4776785714286,2937,1151.5714285714287,609.4776785714286,3043.9,1151.5714285714287,609.4776785714286,3146.7,1151.5714285714287,609.4776785714286,3251.7,1151.5714285714287,609.4776785714286,3352.2,1151.5714285714287,609.4776785714286,3455.2,1151.5714285714287,609.4776785714286,3558.1,1151.5714285714287,609.4776785714286,3659.4,1151.5714285714287,609.4776785714286,3765.9,1151.5714285714287,609.4776785714286,3870.1,1151.5714285714287,609.4776785714286,3976.2,1151.5714285714287,609.4776785714286,4081.3,1151.5714285714287,609.4776785714286,4192.5,1151.5714285714287,609.4776785714286,4303.7,1151.5714285714287,609.4776785714286,4406.1,1151.5714285714287,609.4776785714286,4517.2,1151.5714285714287,609.4776785714286,4628.8,1151.5714285714287,609.4776785714286,4732.9,1151.5714285714287,609.4776785714286,4842,1151.5714285714287,609.4776785714286,4954.3]","[1373.3,1373.3,1000,0,373.3,""smooth"",""right"",""right"",""good_move"",4279.7,2906,2537.1,1373.7,368.9,""smooth"",""right"",""right"",""good_move"",6828.4,2548.4,2177.1,4280,371.3,""smooth"",""right"",""right"",""good_move"",9963.2,3134.6,2872,6828.6,262.6,""smooth"",""down"",""down"",""good_move"",12802.8,2839.2,2465.9,9963.6,373.3,""smooth"",""down"",""down"",""good_move"",14850.2,2047.2,1647.4,12803,399.8,""oops"",""down"",""down"",""good_move""]"
"3193","","<div style=""width:500px;"">
  <p>What determined the result of this run?</p>
  </div>","93","html-slider-response","74","1121922","0.0-7.0-1.12","36","1","2025-07-30 08:41:54","36c45c0696341be0efffe67d72a12abb","94.101.25.101","Mozilla/5.0 (X11; Linux x86_64) AppleWebKit/537.36 (KHTML, like Gecko) Chrome/138.0.0.0 Safari/537.36","WebKit","Chrome","138.0.0.0","Linux","","https://app.prolific.com/","pl-PL,pl;q=0.9,en-US;q=0.8,en;q=0.7","5d6e3252dfe6d10001dbe508","687a19d2168e237449fb8af4","6889d9d712c7a3052d0e7f79","0","5d6e3252dfe6d10001dbe508","0","2025-07-30T09:00:37.336Z","","","","AttribQ","","","","","","","","","","","50","","","","","","","","","","","","","","","","","","","","","","","","","","",""
"2908","","<div style=""width:500px;"">
  <p>How much control did you have over the ball?</p>
  </div>","91","html-slider-response","75","1124831","0.0-7.0-2.12","36","1","2025-07-30 08:41:54","36c45c0696341be0efffe67d72a12abb","94.101.25.101","Mozilla/5.0 (X11; Linux x86_64) AppleWebKit/537.36 (KHTML, like Gecko) Chrome/138.0.0.0 Safari/537.36","WebKit","Chrome","138.0.0.0","Linux","","https://app.prolific.com/","pl-PL,pl;q=0.9,en-US;q=0.8,en;q=0.7","5d6e3252dfe6d10001dbe508","687a19d2168e237449fb8af4","6889d9d712c7a3052d0e7f79","0","5d6e3252dfe6d10001dbe508","0","2025-07-30T09:00:40.245Z","","","","ControlQ","","","","","","","","","","","50","","","","","","","","","","","","","","","","","","","","","","","","","","",""
"3367","","<div style=""width:500px;"">
  <p>How would you describe your current emotional state?</p>
