"rt","response_timestamp","stimulus","response","trial_type","trial_index","time_elapsed","internal_node_id","run_id","condition","recorded_at","source_code_version","ip","user_agent","device","browser","browser_version","platform","platform_version","referer","accept_language","PROLIFIC_PID","STUDY_ID","SESSION_ID","BATCH","prolific_id","batch","realtime","success","question_order","question_id","eventType","responses","item_order","radio_event_ids","radio_event_times","key_event_times","mouse_event_times","straightlining","zigzagging","honeypot","view_history","slider_start","which_type","canvas_config","goals_layout","control_level","trial_number","tutorial_trial_number","trial_start_time","phase1_start_time","phase2_start_time","phase3_start_time","goal_1_value","goal_1_distance","goal_2_value","goal_2_distance","goal_selected","outcome","outcome_total","participant_final_score","participant_initial_score","participant_final_score_prop","goal_choice_rt","allocated_time","allocated_time_remaining","goal_direction","counts","mouse_movements","key_presses"
"173066","1753864866500","<p style='font-size:40px;line-height:1.25'><strong>Welcome to the experiment!</strong></p><p style='font-size:1.1em;line-height:1.25'>Thank you for participanting in our experiment again! You will be asked to play the Dysfunctional Ball Game again. We will briefly recap the rules before we start.</p><p style='font-size:1.1em;line-height:1.25'>Press <strong>Next</strong> to continue.</p>","0","custom-html-button-response","0","173077","0.0-0.0","8","1","2025-07-30 08:38:12","36c45c0696341be0efffe67d72a12abb","212.159.106.248","Mozilla/5.0 (Windows NT 10.0; Win64; x64) AppleWebKit/537.36 (KHTML, like Gecko) Chrome/138.0.0.0 Safari/537.36","WebKit","Chrome","138.0.0.0","Windows","10.0","https://app.prolific.com/","en-US,en;q=0.9","5d8e154af2858200171fdb95","683dba9a53627eb9ab41b36a","6889d9ef6958b2f21a9e983f","0","5d8e154af2858200171fdb95","0","2025-07-30T08:41:06.509Z","","","","","","","","","","","","","","","","","","","","","","","","","","","","","","","","","","","","","","","","","",""
"1056","","","","fullscreen","1","175155","0.0-1.0","8","1","2025-07-30 08:38:12","36c45c0696341be0efffe67d72a12abb","212.159.106.248","Mozilla/5.0 (Windows NT 10.0; Win64; x64) AppleWebKit/537.36 (KHTML, like Gecko) Chrome/138.0.0.0 Safari/537.36","WebKit","Chrome","138.0.0.0","Windows","10.0","https://app.prolific.com/","en-US,en;q=0.9","5d8e154af2858200171fdb95","683dba9a53627eb9ab41b36a","6889d9ef6958b2f21a9e983f","0","5d8e154af2858200171fdb95","0","","true","","","","","","","","","","","","","","","","","","","","","","","","","","","","","","","","","","","","","","","","",""
"1715","1753864870307"," <p style='font-size:1.1em;line-height:1.25'>Thank you for closing all other tabs.</p><p style='font-size:1.1em;line-height:1.25'>We will now invite you to fill in some questionnaires, before starting the game.<br>This will take about 5 minutes.<br></p><p style='font-size:1.1em;line-height:1.25'>Press the <strong>Next</strong> button to continue.</p>","0","custom-html-button-response","2","176877","0.0-2.0","8","1","2025-07-30 08:38:12","36c45c0696341be0efffe67d72a12abb","212.159.106.248","Mozilla/5.0 (Windows NT 10.0; Win64; x64) AppleWebKit/537.36 (KHTML, like Gecko) Chrome/138.0.0.0 Safari/537.36","WebKit","Chrome","138.0.0.0","Windows","10.0","https://app.prolific.com/","en-US,en;q=0.9","5d8e154af2858200171fdb95","683dba9a53627eb9ab41b36a","6889d9ef6958b2f21a9e983f","0","5d8e154af2858200171fdb95","0","2025-07-30T08:41:10.309Z","","","","","","","","","","","","","","","","","","","","","","","","","","","","","","","","","","","","","","","","","",""
"2329","","","{""assigned_sex"":""female""}","survey-multi-choice","3","179222","0.0-3.0-0.0","8","1","2025-07-30 08:38:12","36c45c0696341be0efffe67d72a12abb","212.159.106.248","Mozilla/5.0 (Windows NT 10.0; Win64; x64) AppleWebKit/537.36 (KHTML, like Gecko) Chrome/138.0.0.0 Safari/537.36","WebKit","Chrome","138.0.0.0","Windows","10.0","https://app.prolific.com/","en-US,en;q=0.9","5d8e154af2858200171fdb95","683dba9a53627eb9ab41b36a","6889d9ef6958b2f21a9e983f","0","5d8e154af2858200171fdb95","0","","","[0]","0","demographics","","","","","","","","","","","","","","","","","","","","","","","","","","","","","","","","","","","","","",""
"987","1753864873645","<p style='font-size:1.1em;line-height:1.25'>In the following, we will perform a baseline assessment. This means that we will ask you a few questions relating to your experiences over the past month.<br></p><p style='font-size:1.1em;line-height:1.25'>Press the <strong>Next</strong> button to continue.</p>","0","custom-html-button-response","4","180218","0.0-4.0-0.0","8","1","2025-07-30 08:38:12","36c45c0696341be0efffe67d72a12abb","212.159.106.248","Mozilla/5.0 (Windows NT 10.0; Win64; x64) AppleWebKit/537.36 (KHTML, like Gecko) Chrome/138.0.0.0 Safari/537.36","WebKit","Chrome","138.0.0.0","Windows","10.0","https://app.prolific.com/","en-US,en;q=0.9","5d8e154af2858200171fdb95","683dba9a53627eb9ab41b36a","6889d9ef6958b2f21a9e983f","0","5d8e154af2858200171fdb95","0","2025-07-30T08:41:13.649Z","","","","","","","","","","","","","","","","","","","","","","","","","","","","","","","","","","","","","","","","","",""
"30285.099999904633","","","","survey-template","5","210532","0.0-4.0-1.0","8","1","2025-07-30 08:38:12","36c45c0696341be0efffe67d72a12abb","212.159.106.248","Mozilla/5.0 (Windows NT 10.0; Win64; x64) AppleWebKit/537.36 (KHTML, like Gecko) Chrome/138.0.0.0 Safari/537.36","WebKit","Chrome","138.0.0.0","Windows","10.0","https://app.prolific.com/","en-US,en;q=0.9","5d8e154af2858200171fdb95","683dba9a53627eb9ab41b36a","6889d9ef6958b2f21a9e983f","0","5d8e154af2858200171fdb95","0","2025-07-30T08:41:43.963Z","","","","pss","{""Q01"":""1"",""Q02"":""0"",""Q03"":""1"",""Q04"":""1"",""Q05"":""2"",""Q06"":""1"",""Q07"":""1"",""Q08"":""2"",""Q09"":""1"",""Q10"":""1""}","[0,1,2,3,4,5,6,7,8,9]","[""Q01"",""Q02"",""Q03"",""Q03"",""Q04"",""Q05"",""Q06"",""Q07"",""Q07"",""Q08"",""Q09"",""Q09"",""Q10""]","[4259.399999976158,6551.899999976158,6934.5,8105,10211.5,14867.799999952316,17818.699999928474,18802.399999976158,21484.599999904633,25519.299999952316,25753.899999976158,27861.799999952316,28820.299999952316]","[]","[1.899999976158142,4259.399999976158,6551.899999976158,6934.5,8105,8345.199999928474,10211.5,14867.799999952316,17818.699999928474,18802.399999976158,21484.599999904633,25519.299999952316,25753.899999976158,27861.799999952316,28820.299999952316,30274.799999952316]","0.5","0.6666666666666666","0","","","","","","","","","","","","","","","","","","","","","","","","","","","","",""
"7868","1753864911837","<p style='font-size:1.1em;line-height:1.25'>Thank you for your answers! Now we will ask you a few more questions relating to your feelings in the last 24 hours.<br></p><p style='font-size:1.1em;line-height:1.25'>Press the <strong>Next</strong> button to continue.</p>","0","custom-html-button-response","6","218406","0.0-4.0-2.0","8","1","2025-07-30 08:38:12","36c45c0696341be0efffe67d72a12abb","212.159.106.248","Mozilla/5.0 (Windows NT 10.0; Win64; x64) AppleWebKit/537.36 (KHTML, like Gecko) Chrome/138.0.0.0 Safari/537.36","WebKit","Chrome","138.0.0.0","Windows","10.0","https://app.prolific.com/","en-US,en;q=0.9","5d8e154af2858200171fdb95","683dba9a53627eb9ab41b36a","6889d9ef6958b2f21a9e983f","0","5d8e154af2858200171fdb95","0","2025-07-30T08:41:51.837Z","","","","","","","","","","","","","","","","","","","","","","","","","","","","","","","","","","","","","","","","","",""
"51323.5","","","","survey-template","7","269736","0.0-4.0-3.0","8","1","2025-07-30 08:38:12","36c45c0696341be0efffe67d72a12abb","212.159.106.248","Mozilla/5.0 (Windows NT 10.0; Win64; x64) AppleWebKit/537.36 (KHTML, like Gecko) Chrome/138.0.0.0 Safari/537.36","WebKit","Chrome","138.0.0.0","Windows","10.0","https://app.prolific.com/","en-US,en;q=0.9","5d8e154af2858200171fdb95","683dba9a53627eb9ab41b36a","6889d9ef6958b2f21a9e983f","0","5d8e154af2858200171fdb95","0","2025-07-30T08:42:43.167Z","","","","drsp","{""Q01"":""1"",""Q02"":""0"",""Q03"":""0"",""Q04"":""1"",""Q05"":""2"",""Q06"":""1"",""Q07"":""2"",""Q08"":""0"",""Q09"":""0"",""Q10"":""0"",""Q11"":""0"",""Q12"":""0"",""Q13"":""5"",""Q14"":""0"",""Q15"":""0"",""Q16"":""0"",""Q17"":""0"",""Q18"":""0"",""Q19"":""0"",""Q20"":""0"",""Q21"":""0"",""Q22"":""0""}","[0,1,2,3,4,5,6,7,8,9,10,11,12,13,14,15,16,17,18,19,20,21]","[""Q01"",""Q02"",""Q03"",""Q04"",""Q05"",""Q06"",""Q07"",""Q08"",""Q09"",""Q10"",""Q11"",""Q12"",""Q13"",""Q15"",""Q16"",""Q17"",""Q18"",""Q19"",""Q20"",""Q21"",""Q22"",""Q14""]","[2056.899999976158,3275.399999976158,4301.100000023842,5735,6786.799999952316,8842,10103.200000047684,14351.5,15062.399999976158,17252.5,18118.5,18438.5,20685.799999952316,23484.200000047684,23718,26733.799999952316,28535.399999976158,32985.60000002384,39254.5,40686,43805.39999997616,46803.700000047684]","[]","[0.20000004768371582,2056.899999976158,3275.399999976158,4301.100000023842,5735,6786.799999952316,8842,10103.200000047684,14351.5,15062.399999976158,17252.5,18118.5,18438.5,20685.799999952316,23484.200000047684,23718,26733.799999952316,28535.399999976158,32985.60000002384,39254.5,40686,43805.39999997616,44784.5,46803.700000047684,50338,51316.60000002384]","0.7272727272727273","0.3333333333333333","0","","","","","","","","","","","","","","","","","","","","","","","","","","","","",""
"15726.5","","","","survey-template","8","285466","0.0-4.0-4.0","8","1","2025-07-30 08:38:12","36c45c0696341be0efffe67d72a12abb","212.159.106.248","Mozilla/5.0 (Windows NT 10.0; Win64; x64) AppleWebKit/537.36 (KHTML, like Gecko) Chrome/138.0.0.0 Safari/537.36","WebKit","Chrome","138.0.0.0","Windows","10.0","https://app.prolific.com/","en-US,en;q=0.9","5d8e154af2858200171fdb95","683dba9a53627eb9ab41b36a","6889d9ef6958b2f21a9e983f","0","5d8e154af2858200171fdb95","0","2025-07-30T08:42:58.897Z","","","","stress","{""Q01"":""1"",""Q02"":""3"",""Q03"":""0""}","[0,1,2]","[""Q01"",""Q02"",""Q02"",""Q03""]","[8857.300000071526,10805.5,12156.400000095367,14940.300000071526]","[]","[8857.300000071526,10805.5,12156.400000095367,14240.900000095367,14940.300000071526,15725.5]","0.3333333333333333","0.5","0","","","","","","","","","","","","","","","","","","","","","","","","","","","","",""
"11730","","","","instructions","9","297198","0.0-5.0-0.0","8","1","2025-07-30 08:38:12","36c45c0696341be0efffe67d72a12abb","212.159.106.248","Mozilla/5.0 (Windows NT 10.0; Win64; x64) AppleWebKit/537.36 (KHTML, like Gecko) Chrome/138.0.0.0 Safari/537.36","WebKit","Chrome","138.0.0.0","Windows","10.0","https://app.prolific.com/","en-US,en;q=0.9","5d8e154af2858200171fdb95","683dba9a53627eb9ab41b36a","6889d9ef6958b2f21a9e983f","0","5d8e154af2858200171fdb95","0","","","","","","","","","","","","","","","[{""page_index"":0,""viewing_time"":11730}]","","","","","","","","","","","","","","","","","","","","","","","","","","","",""
"2035","","<p>Before you start with this game please answer the following three questions yourself. </p>
  <p>Through this game, we measure several aspects of your cognitive performance, such as reaction times, multi-tasking capabilities </p>
  <p>and the ability to assess the situation you are in.</p>
  <p></p>
  <p><b>How good do you usually are in such tasks?</b></p>","37","html-slider-response","10","299236","0.0-6.0-0.0","8","1","2025-07-30 08:38:12","36c45c0696341be0efffe67d72a12abb","212.159.106.248","Mozilla/5.0 (Windows NT 10.0; Win64; x64) AppleWebKit/537.36 (KHTML, like Gecko) Chrome/138.0.0.0 Safari/537.36","WebKit","Chrome","138.0.0.0","Windows","10.0","https://app.prolific.com/","en-US,en;q=0.9","5d8e154af2858200171fdb95","683dba9a53627eb9ab41b36a","6889d9ef6958b2f21a9e983f","0","5d8e154af2858200171fdb95","0","2025-07-30T08:43:12.667Z","","","","PreSkillQ","","","","","","","","","","","50","","","","","","","","","","","","","","","","","","","","","","","","","","",""
"2487","","<div style=""width:500px;"">
  <p>How well do you think you will perform in this task compared to other participants?</p>
  </div>","33","html-slider-response","11","301725","0.0-6.0-1.0","8","1","2025-07-30 08:38:12","36c45c0696341be0efffe67d72a12abb","212.159.106.248","Mozilla/5.0 (Windows NT 10.0; Win64; x64) AppleWebKit/537.36 (KHTML, like Gecko) Chrome/138.0.0.0 Safari/537.36","WebKit","Chrome","138.0.0.0","Windows","10.0","https://app.prolific.com/","en-US,en;q=0.9","5d8e154af2858200171fdb95","683dba9a53627eb9ab41b36a","6889d9ef6958b2f21a9e983f","0","5d8e154af2858200171fdb95","0","2025-07-30T08:43:15.156Z","","","","PrePerfQ","","","","","","","","","","","50","","","","","","","","","","","","","","","","","","","","","","","","","","",""
"2359","","<div style=""width:500px;"">
  <p>What best describes how you currently feel?</p>
  </div>","60","html-slider-response","12","304085","0.0-6.0-2.0","8","1","2025-07-30 08:38:12","36c45c0696341be0efffe67d72a12abb","212.159.106.248","Mozilla/5.0 (Windows NT 10.0; Win64; x64) AppleWebKit/537.36 (KHTML, like Gecko) Chrome/138.0.0.0 Safari/537.36","WebKit","Chrome","138.0.0.0","Windows","10.0","https://app.prolific.com/","en-US,en;q=0.9","5d8e154af2858200171fdb95","683dba9a53627eb9ab41b36a","6889d9ef6958b2f21a9e983f","0","5d8e154af2858200171fdb95","0","2025-07-30T08:43:17.516Z","","","","PreMotivationQ","","","","","","","","","","","50","","","","","","","","","","","","","","","","","","","","","","","","","","",""
"","","","","ctl-task-cpt","13","330126","0.0-7.0-0.0","8","1","2025-07-30 08:38:12","36c45c0696341be0efffe67d72a12abb","212.159.106.248","Mozilla/5.0 (Windows NT 10.0; Win64; x64) AppleWebKit/537.36 (KHTML, like Gecko) Chrome/138.0.0.0 Safari/537.36","WebKit","Chrome","138.0.0.0","Windows","10.0","https://app.prolific.com/","en-US,en;q=0.9","5d8e154af2858200171fdb95","683dba9a53627eb9ab41b36a","6889d9ef6958b2f21a9e983f","0","5d8e154af2858200171fdb95","0","2025-07-30T08:43:43.557Z","","","","","","","","","","","","","","","","win-only","3","g1:SW,g2:NE","1","1","0","305403.2","1772.4","6776.9","23023.4","1","4","4","6","2","4","4","4","0","0.030303030303030304","1044.7","3000","850","[""up"",""right""]","{""num_key_presses"":6,""num_perfect"":6,""num_errors"":0,""num_randdir"":0,""num_randdir_good_moves"":0,""num_whilered"":0,""num_whileblue"":0,""num_blue"":0,""num_good_moves"":6}","[391.9683035714286,393.8745535714286,0.3,391.9683035714286,393.8745535714286,110.3,391.9683035714286,393.8745535714286,212.2,391.9683035714286,393.8745535714286,312.6,391.9683035714286,393.8745535714286,414.2,344.9683035714286,436.8745535714286,519.1,257.9683035714286,532.8745535714286,628.6,765.9683035714286,-1.1254464285714363,729.8,766.9683035714286,4.874553571428564,830.2,756.9683035714286,32.874553571428564,935.1,716.9683035714286,69.87455357142856,1038.5,716.9683035714286,69.87455357142856,1145.7,716.9683035714286,69.87455357142856,1245.8,716.9683035714286,69.87455357142856,1349.2,716.9683035714286,69.87455357142856,1449.3,716.9683035714286,69.87455357142856,1554.9,716.9683035714286,69.87455357142856,1662.4,716.9683035714286,69.87455357142856,1763.6,716.9683035714286,69.87455357142856,1863.7,716.9683035714286,69.87455357142856,1965.2,716.9683035714286,69.87455357142856,2068.5,716.9683035714286,69.87455357142856,2168.7,716.9683035714286,69.87455357142856,2278.7,716.9683035714286,69.87455357142856,2378.9,716.9683035714286,69.87455357142856,2479.1,716.9683035714286,69.87455357142856,2584.1,716.9683035714286,69.87455357142856,2688.9,716.9683035714286,69.87455357142856,2790.2,716.9683035714286,69.87455357142856,2895.7,716.9683035714286,69.87455357142856,2996.2,716.9683035714286,69.87455357142856,3098.7,716.9683035714286,69.87455357142856,3199.4,716.9683035714286,69.87455357142856,3304,716.9683035714286,69.87455357142856,3404.2,716.9683035714286,69.87455357142856,3512.4,716.9683035714286,69.87455357142856,3612.6,716.9683035714286,69.87455357142856,3712.6,716.9683035714286,69.87455357142856,3812.8,716.9683035714286,69.87455357142856,3913.1,716.9683035714286,69.87455357142856,4014.2,716.9683035714286,69.87455357142856,4118.5,716.9683035714286,69.87455357142856,4229,716.9683035714286,69.87455357142856,4329,716.9683035714286,69.87455357142856,4429,716.9683035714286,69.87455357142856,4533.8,716.9683035714286,69.87455357142856,4634.3,716.9683035714286,69.87455357142856,4740.2,716.9683035714286,69.87455357142856,4846.2,716.9683035714286,69.87455357142856,4948.4]","[1910.5,1910.5,1000,0,910.5,""smooth"",""up"",""up"",""good_move"",4324.7,2413.5,2111,1911.2,302.5,""smooth"",""right"",""right"",""good_move"",7275.9,2950.5,2634.5,4325.4,316,""smooth"",""up"",""up"",""good_move"",10210.7,2934.5,2629.1,7276.2,305.4,""smooth"",""right"",""right"",""good_move"",13083.7,2872.4,2553.1,10211.4,319.3,""smooth"",""right"",""right"",""good_move"",16134.1,3050.1,2722.5,13084,327.6,""smooth"",""up"",""up"",""good_move""]"
"3598","","<div style=""width:500px;"">
  <p>What determined the result of this run?</p>
  </div>","94","html-slider-response","14","333726","0.0-7.0-1.0","8","1","2025-07-30 08:38:12","36c45c0696341be0efffe67d72a12abb","212.159.106.248","Mozilla/5.0 (Windows NT 10.0; Win64; x64) AppleWebKit/537.36 (KHTML, like Gecko) Chrome/138.0.0.0 Safari/537.36","WebKit","Chrome","138.0.0.0","Windows","10.0","https://app.prolific.com/","en-US,en;q=0.9","5d8e154af2858200171fdb95","683dba9a53627eb9ab41b36a","6889d9ef6958b2f21a9e983f","0","5d8e154af2858200171fdb95","0","2025-07-30T08:43:47.157Z","","","","AttribQ","","","","","","","","","","","50","","","","","","","","","","","","","","","","","","","","","","","","","","",""
"2311","","<div style=""width:500px;"">
  <p>How much control did you have over the ball?</p>
  </div>","98","html-slider-response","15","336038","0.0-7.0-2.0","8","1","2025-07-30 08:38:12","36c45c0696341be0efffe67d72a12abb","212.159.106.248","Mozilla/5.0 (Windows NT 10.0; Win64; x64) AppleWebKit/537.36 (KHTML, like Gecko) Chrome/138.0.0.0 Safari/537.36","WebKit","Chrome","138.0.0.0","Windows","10.0","https://app.prolific.com/","en-US,en;q=0.9","5d8e154af2858200171fdb95","683dba9a53627eb9ab41b36a","6889d9ef6958b2f21a9e983f","0","5d8e154af2858200171fdb95","0","2025-07-30T08:43:49.470Z","","","","ControlQ","","","","","","","","","","","50","","","","","","","","","","","","","","","","","","","","","","","","","","",""
"2636","","<div style=""width:500px;"">
  <p>How would you describe your current emotional state?</p>
  </div>","2","html-slider-response","16","338677","0.0-7.0-3.0","8","1","2025-07-30 08:38:12","36c45c0696341be0efffe67d72a12abb","212.159.106.248","Mozilla/5.0 (Windows NT 10.0; Win64; x64) AppleWebKit/537.36 (KHTML, like Gecko) Chrome/138.0.0.0 Safari/537.36","WebKit","Chrome","138.0.0.0","Windows","10.0","https://app.prolific.com/","en-US,en;q=0.9","5d8e154af2858200171fdb95","683dba9a53627eb9ab41b36a","6889d9ef6958b2f21a9e983f","0","5d8e154af2858200171fdb95","0","2025-07-30T08:43:52.108Z","","","","StressQ","","","","","","","","","","","50","","","","","","","","","","","","","","","","","","","","","","","","","","",""
"2576","","<div style=""width:500px;"">
  <p>What best describes how you currently feel?</p>
  </div>","78","html-slider-response","17","341255","0.0-7.0-4.0","8","1","2025-07-30 08:38:12","36c45c0696341be0efffe67d72a12abb","212.159.106.248","Mozilla/5.0 (Windows NT 10.0; Win64; x64) AppleWebKit/537.36 (KHTML, like Gecko) Chrome/138.0.0.0 Safari/537.36","WebKit","Chrome","138.0.0.0","Windows","10.0","https://app.prolific.com/","en-US,en;q=0.9","5d8e154af2858200171fdb95","683dba9a53627eb9ab41b36a","6889d9ef6958b2f21a9e983f","0","5d8e154af2858200171fdb95","0","2025-07-30T08:43:54.686Z","","","","MotivationQ","","","","","","","","","","","50","","","","","","","","","","","","","","","","","","","","","","","","","","",""
"","","","","ctl-task-cpt","18","379713","0.0-7.0-0.1","8","1","2025-07-30 08:38:12","36c45c0696341be0efffe67d72a12abb","212.159.106.248","Mozilla/5.0 (Windows NT 10.0; Win64; x64) AppleWebKit/537.36 (KHTML, like Gecko) Chrome/138.0.0.0 Safari/537.36","WebKit","Chrome","138.0.0.0","Windows","10.0","https://app.prolific.com/","en-US,en;q=0.9","5d8e154af2858200171fdb95","683dba9a53627eb9ab41b36a","6889d9ef6958b2f21a9e983f","0","5d8e154af2858200171fdb95","0","2025-07-30T08:44:33.144Z","","","","","","","","","","","","","","","","win-only","2","g1:SE,g2:NW","0.9","2","0","342569.9","1169.4","6170.7","35439.8","1","4","8","6","2","8","5","9","4","0.06818181818181818","822.9","3000","980","[""left"",""up""]","{""num_key_presses"":10,""num_perfect"":6,""num_errors"":3,""num_randdir"":1,""num_randdir_good_moves"":1,""num_whilered"":0,""num_whileblue"":1,""num_blue"":2,""num_good_moves"":7}","[399.9683035714286,395.8745535714286,0.5,399.9683035714286,395.8745535714286,101.5,399.9683035714286,395.8745535714286,206.9,399.9683035714286,395.8745535714286,312,413.9683035714286,399.8745535714286,420.9,173.96830357142858,149.87455357142858,522,75.96830357142856,62.874553571428564,622.5,74.96830357142856,59.874553571428564,727.8,72.96830357142856,71.87455357142856,833.6,72.96830357142856,71.87455357142856,934.3,72.96830357142856,71.87455357142856,1034.6,72.96830357142856,71.87455357142856,1137,72.96830357142856,71.87455357142856,1243.4,72.96830357142856,71.87455357142856,1351.1,72.96830357142856,71.87455357142856,1451.4,72.96830357142856,71.87455357142856,1551.4,72.96830357142856,71.87455357142856,1651.6,72.96830357142856,71.87455357142856,1757.4,72.96830357142856,71.87455357142856,1867.1,72.96830357142856,71.87455357142856,1967.2,72.96830357142856,71.87455357142856,2067.2,72.96830357142856,71.87455357142856,2172.2,72.96830357142856,71.87455357142856,2276.2,72.96830357142856,71.87455357142856,2378.1,72.96830357142856,71.87455357142856,2483.5,72.96830357142856,71.87455357142856,2583.9,72.96830357142856,71.87455357142856,2683.9,72.96830357142856,71.87455357142856,2786.9,72.96830357142856,71.87455357142856,2887.6,72.96830357142856,71.87455357142856,2991.6,72.96830357142856,71.87455357142856,3092.5,72.96830357142856,71.87455357142856,3201.5,72.96830357142856,71.87455357142856,3306.7,72.96830357142856,71.87455357142856,3416.2,72.96830357142856,71.87455357142856,3517,72.96830357142856,71.87455357142856,3620.4,72.96830357142856,71.87455357142856,3722,72.96830357142856,71.87455357142856,3826.1,72.96830357142856,71.87455357142856,3927.1,72.96830357142856,71.87455357142856,4032.9,72.96830357142856,71.87455357142856,4134.5,72.96830357142856,71.87455357142856,4237.1,72.96830357142856,71.87455357142856,4337.4,72.96830357142856,71.87455357142856,4441.6,72.96830357142856,71.87455357142856,4542,72.96830357142856,71.87455357142856,4650.7,72.96830357142856,71.87455357142856,4751.5,72.96830357142856,71.87455357142856,4857.2,72.96830357142856,71.87455357142856,4967.4]","[281.5,281.5,1000,0,-718.5,""error"",""-"",""-"",""no_move"",1648.9,1366.9,2245.6,1282.9,-1879.6,""error"",""-"",""-"",""no_move"",5417.2,3767.8,2472.6,2652.5,292.1,""while_blue"",""left"",""down"",""bad_move"",8467.5,3049.8,2655.2,5417.7,394.6,""smooth"",""left"",""left"",""good_move"",11288.7,2820.5,2480,8468.2,340.5,""smooth"",""left"",""left"",""good_move"",14317.5,3028.4,2742.2,11289.1,286.2,""smooth"",""up"",""up"",""good_move"",16823.1,2505.1,2177.6,14318,327.5,""oops"",""up"",""up"",""good_move"",19606.3,2782.7,2451.3,16823.6,331.4,""smooth"",""left"",""left"",""good_move"",22752.3,3145.7,2827.9,19606.7,317.7,""smooth"",""up"",""up"",""good_move"",29157.5,6404.8,2558.1,26303.1,296.3,""smooth"",""up"",""up"",""good_move""]"
"3058","","<div style=""width:500px;"">
  <p>What determined the result of this run?</p>
  </div>","96","html-slider-response","19","382773","0.0-7.0-1.1","8","1","2025-07-30 08:38:12","36c45c0696341be0efffe67d72a12abb","212.159.106.248","Mozilla/5.0 (Windows NT 10.0; Win64; x64) AppleWebKit/537.36 (KHTML, like Gecko) Chrome/138.0.0.0 Safari/537.36","WebKit","Chrome","138.0.0.0","Windows","10.0","https://app.prolific.com/","en-US,en;q=0.9","5d8e154af2858200171fdb95","683dba9a53627eb9ab41b36a","6889d9ef6958b2f21a9e983f","0","5d8e154af2858200171fdb95","0","2025-07-30T08:44:36.205Z","","","","AttribQ","","","","","","","","","","","50","","","","","","","","","","","","","","","","","","","","","","","","","","",""
"2092","","<div style=""width:500px;"">
  <p>How much control did you have over the ball?</p>
  </div>","97","html-slider-response","20","384867","0.0-7.0-2.1","8","1","2025-07-30 08:38:12","36c45c0696341be0efffe67d72a12abb","212.159.106.248","Mozilla/5.0 (Windows NT 10.0; Win64; x64) AppleWebKit/537.36 (KHTML, like Gecko) Chrome/138.0.0.0 Safari/537.36","WebKit","Chrome","138.0.0.0","Windows","10.0","https://app.prolific.com/","en-US,en;q=0.9","5d8e154af2858200171fdb95","683dba9a53627eb9ab41b36a","6889d9ef6958b2f21a9e983f","0","5d8e154af2858200171fdb95","0","2025-07-30T08:44:38.299Z","","","","ControlQ","","","","","","","","","","","50","","","","","","","","","","","","","","","","","","","","","","","","","","",""
"2176","","<div style=""width:500px;"">
  <p>How would you describe your current emotional state?</p>
  </div>","8","html-slider-response","21","387045","0.0-7.0-3.1","8","1","2025-07-30 08:38:12","36c45c0696341be0efffe67d72a12abb","212.159.106.248","Mozilla/5.0 (Windows NT 10.0; Win64; x64) AppleWebKit/537.36 (KHTML, like Gecko) Chrome/138.0.0.0 Safari/537.36","WebKit","Chrome","138.0.0.0","Windows","10.0","https://app.prolific.com/","en-US,en;q=0.9","5d8e154af2858200171fdb95","683dba9a53627eb9ab41b36a","6889d9ef6958b2f21a9e983f","0","5d8e154af2858200171fdb95","0","2025-07-30T08:44:40.476Z","","","","StressQ","","","","","","","","","","","50","","","","","","","","","","","","","","","","","","","","","","","","","","",""
"2829","","<div style=""width:500px;"">
  <p>What best describes how you currently feel?</p>
  </div>","78","html-slider-response","22","389875","0.0-7.0-4.1","8","1","2025-07-30 08:38:12","36c45c0696341be0efffe67d72a12abb","212.159.106.248","Mozilla/5.0 (Windows NT 10.0; Win64; x64) AppleWebKit/537.36 (KHTML, like Gecko) Chrome/138.0.0.0 Safari/537.36","WebKit","Chrome","138.0.0.0","Windows","10.0","https://app.prolific.com/","en-US,en;q=0.9","5d8e154af2858200171fdb95","683dba9a53627eb9ab41b36a","6889d9ef6958b2f21a9e983f","0","5d8e154af2858200171fdb95","0","2025-07-30T08:44:43.307Z","","","","MotivationQ","","","","","","","","","","","50","","","","","","","","","","","","","","","","","","","","","","","","","","",""
"","","","","ctl-task-cpt","23","439216","0.0-7.0-0.2","8","1","2025-07-30 08:38:12","36c45c0696341be0efffe67d72a12abb","212.159.106.248","Mozilla/5.0 (Windows NT 10.0; Win64; x64) AppleWebKit/537.36 (KHTML, like Gecko) Chrome/138.0.0.0 Safari/537.36","WebKit","Chrome","138.0.0.0","Windows","10.0","https://app.prolific.com/","en-US,en;q=0.9","5d8e154af2858200171fdb95","683dba9a53627eb9ab41b36a","6889d9ef6958b2f21a9e983f","0","5d8e154af2858200171fdb95","0","2025-07-30T08:45:32.647Z","","","","","","","","","","","","","","","","win-only","3","g1:SW,g2:NE","0.8","3","0","391192.9","1031.8","6036.6","46320.7","1","4","4","6","2","4","4","13","9","0.09848484848484848","1123.7","3000","525","[""up"",""right""]","{""num_key_presses"":8,""num_perfect"":7,""num_errors"":0,""num_randdir"":1,""num_randdir_good_moves"":0,""num_whilered"":0,""num_whileblue"":0,""num_blue"":5,""num_good_moves"":7}","[389.9683035714286,397.8745535714286,0.2,389.9683035714286,397.8745535714286,104.7,389.9683035714286,397.8745535714286,209.2,389.9683035714286,397.8745535714286,314.4,389.9683035714286,397.8745535714286,418.7,252.96830357142858,532.8745535714286,519.4,226.96830357142858,548.8745535714286,625.5,757.9683035714286,171.87455357142858,735.1,756.9683035714286,168.87455357142858,835.9,749.9683035714286,134.87455357142858,936.1,742.9683035714286,99.87455357142856,1038,738.9683035714286,100.87455357142856,1139.9,738.9683035714286,100.87455357142856,1240,738.9683035714286,100.87455357142856,1344.8,738.9683035714286,100.87455357142856,1453,738.9683035714286,100.87455357142856,1553.9,738.9683035714286,100.87455357142856,1659.2,738.9683035714286,100.87455357142856,1759.4,738.9683035714286,100.87455357142856,1864.6,738.9683035714286,100.87455357142856,1969,738.9683035714286,100.87455357142856,2069.1,738.9683035714286,100.87455357142856,2169.1,738.9683035714286,100.87455357142856,2274.7,738.9683035714286,100.87455357142856,2385.3,738.9683035714286,100.87455357142856,2487.8,738.9683035714286,100.87455357142856,2588.6,738.9683035714286,100.87455357142856,2689.4,738.9683035714286,100.87455357142856,2790,738.9683035714286,100.87455357142856,2894.5,738.9683035714286,100.87455357142856,3002.6,738.9683035714286,100.87455357142856,3104.6,738.9683035714286,100.87455357142856,3209.1,738.9683035714286,100.87455357142856,3318.6,738.9683035714286,100.87455357142856,3418.7,738.9683035714286,100.87455357142856,3523,738.9683035714286,100.87455357142856,3624.4,738.9683035714286,100.87455357142856,3736.6,738.9683035714286,100.87455357142856,3838,738.9683035714286,100.87455357142856,3939.1,738.9683035714286,100.87455357142856,4039.1,738.9683035714286,100.87455357142856,4144.7,738.9683035714286,100.87455357142856,4251.6,738.9683035714286,100.87455357142856,4351.8,738.9683035714286,100.87455357142856,4452.5,738.9683035714286,100.87455357142856,4553.9,738.9683035714286,100.87455357142856,4654.7,738.9683035714286,100.87455357142856,4759,738.9683035714286,100.87455357142856,4859.5,738.9683035714286,100.87455357142856,4969.5]","[1321.5,1321.5,1000,0,321.5,""smooth"",""up"",""up"",""good_move"",7522.5,6200.3,2716.5,4463.9,342.1,""smooth"",""up"",""up"",""good_move"",17374.1,9851.2,2388.6,14649.6,335.9,""oops"",""up"",""down"",""bad_move"",19963.4,2588.7,2208.2,17374.7,380.5,""smooth"",""up"",""up"",""good_move"",30795.7,10831.7,2292.6,28153.8,349.3,""smooth"",""up"",""up"",""good_move"",33938.3,3142,2800.2,30796.3,341.8,""smooth"",""right"",""right"",""good_move"",37181.3,3242.3,2799.2,33939,443.1,""smooth"",""right"",""right"",""good_move"",40182.7,3000.8,2586.3,37181.9,414.5,""smooth"",""right"",""right"",""good_move""]"
"13386","","<div style=""width:500px;"">
  <p>What determined the result of this run?</p>
  </div>","97","html-slider-response","24","452604","0.0-7.0-1.2","8","1","2025-07-30 08:38:12","36c45c0696341be0efffe67d72a12abb","212.159.106.248","Mozilla/5.0 (Windows NT 10.0; Win64; x64) AppleWebKit/537.36 (KHTML, like Gecko) Chrome/138.0.0.0 Safari/537.36","WebKit","Chrome","138.0.0.0","Windows","10.0","https://app.prolific.com/","en-US,en;q=0.9","5d8e154af2858200171fdb95","683dba9a53627eb9ab41b36a","6889d9ef6958b2f21a9e983f","0","5d8e154af2858200171fdb95","0","2025-07-30T08:45:46.035Z","","","","AttribQ","","","","","","","","","","","50","","","","","","","","","","","","","","","","","","","","","","","","","","",""
"1032","","<div style=""width:500px;"">
  <p>How much control did you have over the ball?</p>
  </div>","88","html-slider-response","25","453638","0.0-7.0-2.2","8","1","2025-07-30 08:38:12","36c45c0696341be0efffe67d72a12abb","212.159.106.248","Mozilla/5.0 (Windows NT 10.0; Win64; x64) AppleWebKit/537.36 (KHTML, like Gecko) Chrome/138.0.0.0 Safari/537.36","WebKit","Chrome","138.0.0.0","Windows","10.0","https://app.prolific.com/","en-US,en;q=0.9","5d8e154af2858200171fdb95","683dba9a53627eb9ab41b36a","6889d9ef6958b2f21a9e983f","0","5d8e154af2858200171fdb95","0","2025-07-30T08:45:47.069Z","","","","ControlQ","","","","","","","","","","","50","","","","","","","","","","","","","","","","","","","","","","","","","","",""
"1716","","<div style=""width:500px;"">
  <p>How would you describe your current emotional state?</p>
  </div>","14","html-slider-response","26","455355","0.0-7.0-3.2","8","1","2025-07-30 08:38:12","36c45c0696341be0efffe67d72a12abb","212.159.106.248","Mozilla/5.0 (Windows NT 10.0; Win64; x64) AppleWebKit/537.36 (KHTML, like Gecko) Chrome/138.0.0.0 Safari/537.36","WebKit","Chrome","138.0.0.0","Windows","10.0","https://app.prolific.com/","en-US,en;q=0.9","5d8e154af2858200171fdb95","683dba9a53627eb9ab41b36a","6889d9ef6958b2f21a9e983f","0","5d8e154af2858200171fdb95","0","2025-07-30T08:45:48.786Z","","","","StressQ","","","","","","","","","","","50","","","","","","","","","","","","","","","","","","","","","","","","","","",""
"1050","","<div style=""width:500px;"">
  <p>What best describes how you currently feel?</p>
  </div>","76","html-slider-response","27","456407","0.0-7.0-4.2","8","1","2025-07-30 08:38:12","36c45c0696341be0efffe67d72a12abb","212.159.106.248","Mozilla/5.0 (Windows NT 10.0; Win64; x64) AppleWebKit/537.36 (KHTML, like Gecko) Chrome/138.0.0.0 Safari/537.36","WebKit","Chrome","138.0.0.0","Windows","10.0","https://app.prolific.com/","en-US,en;q=0.9","5d8e154af2858200171fdb95","683dba9a53627eb9ab41b36a","6889d9ef6958b2f21a9e983f","0","5d8e154af2858200171fdb95","0","2025-07-30T08:45:49.838Z","","","","MotivationQ","","","","","","","","","","","50","","","","","","","","","","","","","","","","","","","","","","","","","","",""
"","","","","ctl-task-cpt","28","501923","0.0-7.0-0.3","8","1","2025-07-30 08:38:12","36c45c0696341be0efffe67d72a12abb","212.159.106.248","Mozilla/5.0 (Windows NT 10.0; Win64; x64) AppleWebKit/537.36 (KHTML, like Gecko) Chrome/138.0.0.0 Safari/537.36","WebKit","Chrome","138.0.0.0","Windows","10.0","https://app.prolific.com/","en-US,en;q=0.9","5d8e154af2858200171fdb95","683dba9a53627eb9ab41b36a","6889d9ef6958b2f21a9e983f","0","5d8e154af2858200171fdb95","0","2025-07-30T08:46:35.355Z","","","","","","","","","","","","","","","","win-only","0","g1:NW,g2:SE","0.7","4","0","457723.9","958.4","5961.1","42496.3","1","4","8","6","2","-8","-8","5","13","0.03787878787878788","1134","3000","-2490","[""down"",""right""]","{""num_key_presses"":11,""num_perfect"":8,""num_errors"":0,""num_randdir"":3,""num_randdir_good_moves"":0,""num_whilered"":0,""num_whileblue"":0,""num_blue"":2,""num_good_moves"":8}","[391.9683035714286,394.8745535714286,0.3,391.9683035714286,394.8745535714286,102.4,391.9683035714286,394.8745535714286,204.1,391.9683035714286,394.8745535714286,307.8,391.9683035714286,394.8745535714286,411.8,391.9683035714286,394.8745535714286,512.9,391.9683035714286,394.8745535714286,617.5,391.9683035714286,394.8745535714286,718,391.9683035714286,394.8745535714286,822.7,391.9683035714286,394.8745535714286,923,391.9683035714286,394.8745535714286,1023.2,391.9683035714286,394.8745535714286,1128.6,715.9683035714286,754.8745535714286,1232.7,715.9683035714286,754.8745535714286,1333.8,715.9683035714286,754.8745535714286,1437.6,715.9683035714286,754.8745535714286,1537.9,715.9683035714286,754.8745535714286,1643.3,715.9683035714286,754.8745535714286,1749,715.9683035714286,754.8745535714286,1852.8,715.9683035714286,754.8745535714286,1953.5,715.9683035714286,754.8745535714286,2057.3,715.9683035714286,754.8745535714286,2161.7,715.9683035714286,754.8745535714286,2262,715.9683035714286,754.8745535714286,2364,715.9683035714286,754.8745535714286,2468.1,715.9683035714286,754.8745535714286,2570.4,715.9683035714286,754.8745535714286,2672.1,715.9683035714286,754.8745535714286,2772.9,715.9683035714286,754.8745535714286,2884.1,715.9683035714286,754.8745535714286,2988.6,715.9683035714286,754.8745535714286,3097.8,715.9683035714286,754.8745535714286,3198.4,715.9683035714286,754.8745535714286,3302.2,715.9683035714286,754.8745535714286,3402.8,715.9683035714286,754.8745535714286,3503.2,715.9683035714286,754.8745535714286,3612.3,715.9683035714286,754.8745535714286,3717.4,715.9683035714286,754.8745535714286,3822,715.9683035714286,754.8745535714286,3922.4,715.9683035714286,754.8745535714286,4023,715.9683035714286,754.8745535714286,4123,715.9683035714286,754.8745535714286,4227.2,715.9683035714286,754.8745535714286,4327.6,715.9683035714286,754.8745535714286,4433.5,715.9683035714286,754.8745535714286,4537.4,715.9683035714286,754.8745535714286,4647.6,715.9683035714286,754.8745535714286,4752.1,715.9683035714286,754.8745535714286,4852.5,715.9683035714286,754.8745535714286,4952.9]","[1387,1387,1000,0,387,""smooth"",""right"",""right"",""good_move"",3518.5,2130.7,1805,1387.8,325.7,""smooth"",""right"",""right"",""good_move"",5598.7,2079.9,1754.5,3518.8,325.4,""smooth"",""right"",""right"",""good_move"",8209.7,2610.6,2288.4,5599.2,322.1,""smooth"",""down"",""down"",""good_move"",10851.4,2640.9,2329.6,8210.6,311.2,""oops"",""down"",""up"",""bad_move"",13915.2,3063,2738.2,10852.2,324.8,""oops"",""down"",""left"",""bad_move"",16410.8,2494.9,2171.3,13915.9,323.6,""smooth"",""down"",""down"",""good_move"",22478.9,6067.9,2183.3,20002.2,293.5,""smooth"",""down"",""down"",""good_move"",27910.9,5431.7,1996.9,25600.8,313.2,""smooth"",""down"",""down"",""good_move"",30769.2,2858,2519,27911.2,339,""oops"",""right"",""left"",""bad_move"",33483.3,2713.8,2389.4,30769.6,324.4,""smooth"",""right"",""right"",""good_move""]"
"3108","","<div style=""width:500px;"">
  <p>What determined the result of this run?</p>
  </div>","70","html-slider-response","29","505034","0.0-7.0-1.3","8","1","2025-07-30 08:38:12","36c45c0696341be0efffe67d72a12abb","212.159.106.248","Mozilla/5.0 (Windows NT 10.0; Win64; x64) AppleWebKit/537.36 (KHTML, like Gecko) Chrome/138.0.0.0 Safari/537.36","WebKit","Chrome","138.0.0.0","Windows","10.0","https://app.prolific.com/","en-US,en;q=0.9","5d8e154af2858200171fdb95","683dba9a53627eb9ab41b36a","6889d9ef6958b2f21a9e983f","0","5d8e154af2858200171fdb95","0","2025-07-30T08:46:38.465Z","","","","AttribQ","","","","","","","","","","","50","","","","","","","","","","","","","","","","","","","","","","","","","","",""
"2038","","<div style=""width:500px;"">
  <p>How much control did you have over the ball?</p>
  </div>","63","html-slider-response","30","507074","0.0-7.0-2.3","8","1","2025-07-30 08:38:12","36c45c0696341be0efffe67d72a12abb","212.159.106.248","Mozilla/5.0 (Windows NT 10.0; Win64; x64) AppleWebKit/537.36 (KHTML, like Gecko) Chrome/138.0.0.0 Safari/537.36","WebKit","Chrome","138.0.0.0","Windows","10.0","https://app.prolific.com/","en-US,en;q=0.9","5d8e154af2858200171fdb95","683dba9a53627eb9ab41b36a","6889d9ef6958b2f21a9e983f","0","5d8e154af2858200171fdb95","0","2025-07-30T08:46:40.505Z","","","","ControlQ","","","","","","","","","","","50","","","","","","","","","","","","","","","","","","","","","","","","","","",""
"1857","","<div style=""width:500px;"">
  <p>How would you describe your current emotional state?</p>
  </div>","6","html-slider-response","31","508932","0.0-7.0-3.3","8","1","2025-07-30 08:38:12","36c45c0696341be0efffe67d72a12abb","212.159.106.248","Mozilla/5.0 (Windows NT 10.0; Win64; x64) AppleWebKit/537.36 (KHTML, like Gecko) Chrome/138.0.0.0 Safari/537.36","WebKit","Chrome","138.0.0.0","Windows","10.0","https://app.prolific.com/","en-US,en;q=0.9","5d8e154af2858200171fdb95","683dba9a53627eb9ab41b36a","6889d9ef6958b2f21a9e983f","0","5d8e154af2858200171fdb95","0","2025-07-30T08:46:42.363Z","","","","StressQ","","","","","","","","","","","50","","","","","","","","","","","","","","","","","","","","","","","","","","",""
"1439","","<div style=""width:500px;"">
  <p>What best describes how you currently feel?</p>
  </div>","72","html-slider-response","32","510373","0.0-7.0-4.3","8","1","2025-07-30 08:38:12","36c45c0696341be0efffe67d72a12abb","212.159.106.248","Mozilla/5.0 (Windows NT 10.0; Win64; x64) AppleWebKit/537.36 (KHTML, like Gecko) Chrome/138.0.0.0 Safari/537.36","WebKit","Chrome","138.0.0.0","Windows","10.0","https://app.prolific.com/","en-US,en;q=0.9","5d8e154af2858200171fdb95","683dba9a53627eb9ab41b36a","6889d9ef6958b2f21a9e983f","0","5d8e154af2858200171fdb95","0","2025-07-30T08:46:43.804Z","","","","MotivationQ","","","","","","","","","","","50","","","","","","","","","","","","","","","","","","","","","","","","","","",""
"","","","","ctl-task-cpt","33","547289","0.0-7.0-0.4","8","1","2025-07-30 08:38:12","36c45c0696341be0efffe67d72a12abb","212.159.106.248","Mozilla/5.0 (Windows NT 10.0; Win64; x64) AppleWebKit/537.36 (KHTML, like Gecko) Chrome/138.0.0.0 Safari/537.36","WebKit","Chrome","138.0.0.0","Windows","10.0","https://app.prolific.com/","en-US,en;q=0.9","5d8e154af2858200171fdb95","683dba9a53627eb9ab41b36a","6889d9ef6958b2f21a9e983f","0","5d8e154af2858200171fdb95","0","2025-07-30T08:47:20.720Z","","","","","","","","","","","","","","","","win-only","0","g1:NW,g2:SE","0.6","5","0","511690.9","1424.4","6429.8","33901","1","4","8","6","2","8","8","13","5","0.09848484848484848","1027.5","3000","1635","[""down"",""right""]","{""num_key_presses"":6,""num_perfect"":5,""num_errors"":0,""num_randdir"":1,""num_randdir_good_moves"":1,""num_whilered"":0,""num_whileblue"":0,""num_blue"":3,""num_good_moves"":6}","[402.9683035714286,398.8745535714286,0.3,402.9683035714286,398.8745535714286,114,402.9683035714286,398.8745535714286,217.9,402.9683035714286,398.8745535714286,320.9,402.9683035714286,398.8745535714286,421.4,402.9683035714286,398.8745535714286,522.1,663.9683035714286,621.8745535714286,626.6,830.9683035714286,784.8745535714286,726.7,829.9683035714286,785.8745535714286,827.1,723.9683035714286,744.8745535714286,931.1,715.9683035714286,737.8745535714286,1031.2,715.9683035714286,737.8745535714286,1135,715.9683035714286,737.8745535714286,1239.8,715.9683035714286,737.8745535714286,1341.6,715.9683035714286,737.8745535714286,1441.8,715.9683035714286,737.8745535714286,1542.3,715.9683035714286,737.8745535714286,1647.1,715.9683035714286,737.8745535714286,1747.4,715.9683035714286,737.8745535714286,1851.7,715.9683035714286,737.8745535714286,1956.8,715.9683035714286,737.8745535714286,2061.9,715.9683035714286,737.8745535714286,2162.2,715.9683035714286,737.8745535714286,2271.7,715.9683035714286,737.8745535714286,2374.6,715.9683035714286,737.8745535714286,2485.5,715.9683035714286,737.8745535714286,2587.5,715.9683035714286,737.8745535714286,2689,715.9683035714286,737.8745535714286,2791.2,715.9683035714286,737.8745535714286,2891.7,715.9683035714286,737.8745535714286,2991.9,715.9683035714286,737.8745535714286,3102.1,715.9683035714286,737.8745535714286,3204.3,715.9683035714286,737.8745535714286,3306.3,715.9683035714286,737.8745535714286,3406.7,715.9683035714286,737.8745535714286,3513.7,715.9683035714286,737.8745535714286,3625.7,715.9683035714286,737.8745535714286,3726.8,715.9683035714286,737.8745535714286,3827.4,715.9683035714286,737.8745535714286,3937.9,715.9683035714286,737.8745535714286,4039,715.9683035714286,737.8745535714286,4141.5,715.9683035714286,737.8745535714286,4246.8,715.9683035714286,737.8745535714286,4352.5,715.9683035714286,737.8745535714286,4453.2,715.9683035714286,737.8745535714286,4556.5,715.9683035714286,737.8745535714286,4657,715.9683035714286,737.8745535714286,4762.2,715.9683035714286,737.8745535714286,4863.4,715.9683035714286,737.8745535714286,4972.2]","[5061.4,5061.4,2739.9,2013,308.5,""smooth"",""right"",""right"",""good_move"",7890.4,2828,2516,5062.4,312,""smooth"",""right"",""right"",""good_move"",13306.5,5415.5,1682.1,11305.5,318.9,""smooth"",""right"",""right"",""good_move"",17034.1,3726.9,3373.6,13307.2,353.3,""oops"",""down"",""down"",""good_move"",23960.2,6924.8,3008.5,20705.9,245.9,""smooth"",""down"",""down"",""good_move"",27342.5,3381.7,3033,23960.8,348.7,""smooth"",""down"",""down"",""good_move""]"
"3234","","<div style=""width:500px;"">
  <p>What determined the result of this run?</p>
  </div>","85","html-slider-response","34","550525","0.0-7.0-1.4","8","1","2025-07-30 08:38:12","36c45c0696341be0efffe67d72a12abb","212.159.106.248","Mozilla/5.0 (Windows NT 10.0; Win64; x64) AppleWebKit/537.36 (KHTML, like Gecko) Chrome/138.0.0.0 Safari/537.36","WebKit","Chrome","138.0.0.0","Windows","10.0","https://app.prolific.com/","en-US,en;q=0.9","5d8e154af2858200171fdb95","683dba9a53627eb9ab41b36a","6889d9ef6958b2f21a9e983f","0","5d8e154af2858200171fdb95","0","2025-07-30T08:47:23.956Z","","","","AttribQ","","","","","","","","","","","50","","","","","","","","","","","","","","","","","","","","","","","","","","",""
"2058","","<div style=""width:500px;"">
  <p>How much control did you have over the ball?</p>
  </div>","85","html-slider-response","35","552586","0.0-7.0-2.4","8","1","2025-07-30 08:38:12","36c45c0696341be0efffe67d72a12abb","212.159.106.248","Mozilla/5.0 (Windows NT 10.0; Win64; x64) AppleWebKit/537.36 (KHTML, like Gecko) Chrome/138.0.0.0 Safari/537.36","WebKit","Chrome","138.0.0.0","Windows","10.0","https://app.prolific.com/","en-US,en;q=0.9","5d8e154af2858200171fdb95","683dba9a53627eb9ab41b36a","6889d9ef6958b2f21a9e983f","0","5d8e154af2858200171fdb95","0","2025-07-30T08:47:26.017Z","","","","ControlQ","","","","","","","","","","","50","","","","","","","","","","","","","","","","","","","","","","","","","","",""
"1641","","<div style=""width:500px;"">
  <p>How would you describe your current emotional state?</p>
  </div>","9","html-slider-response","36","554229","0.0-7.0-3.4","8","1","2025-07-30 08:38:12","36c45c0696341be0efffe67d72a12abb","212.159.106.248","Mozilla/5.0 (Windows NT 10.0; Win64; x64) AppleWebKit/537.36 (KHTML, like Gecko) Chrome/138.0.0.0 Safari/537.36","WebKit","Chrome","138.0.0.0","Windows","10.0","https://app.prolific.com/","en-US,en;q=0.9","5d8e154af2858200171fdb95","683dba9a53627eb9ab41b36a","6889d9ef6958b2f21a9e983f","0","5d8e154af2858200171fdb95","0","2025-07-30T08:47:27.660Z","","","","StressQ","","","","","","","","","","","50","","","","","","","","","","","","","","","","","","","","","","","","","","",""
"1864","","<div style=""width:500px;"">
  <p>What best describes how you currently feel?</p>
  </div>","56","html-slider-response","37","556094","0.0-7.0-4.4","8","1","2025-07-30 08:38:12","36c45c0696341be0efffe67d72a12abb","212.159.106.248","Mozilla/5.0 (Windows NT 10.0; Win64; x64) AppleWebKit/537.36 (KHTML, like Gecko) Chrome/138.0.0.0 Safari/537.36","WebKit","Chrome","138.0.0.0","Windows","10.0","https://app.prolific.com/","en-US,en;q=0.9","5d8e154af2858200171fdb95","683dba9a53627eb9ab41b36a","6889d9ef6958b2f21a9e983f","0","5d8e154af2858200171fdb95","0","2025-07-30T08:47:29.526Z","","","","MotivationQ","","","","","","","","","","","50","","","","","","","","","","","","","","","","","","","","","","","","","","",""
"","","","","ctl-task-cpt","38","578842","0.0-7.0-0.5","8","1","2025-07-30 08:38:12","36c45c0696341be0efffe67d72a12abb","212.159.106.248","Mozilla/5.0 (Windows NT 10.0; Win64; x64) AppleWebKit/537.36 (KHTML, like Gecko) Chrome/138.0.0.0 Safari/537.36","WebKit","Chrome","138.0.0.0","Windows","10.0","https://app.prolific.com/","en-US,en;q=0.9","5d8e154af2858200171fdb95","683dba9a53627eb9ab41b36a","6889d9ef6958b2f21a9e983f","0","5d8e154af2858200171fdb95","0","2025-07-30T08:47:52.273Z","","","","","","","","","","","","","","","","win-only","2","g1:SE,g2:NW","0.5","6","0","557411.2","1183.3","6186.8","19726.6","1","4","4","6","1","1","1","14","13","0.10606060606060606","961.5","3000","2175","[""down"",""right""]","{""num_key_presses"":4,""num_perfect"":2,""num_errors"":0,""num_randdir"":2,""num_randdir_good_moves"":2,""num_whilered"":0,""num_whileblue"":0,""num_blue"":1,""num_good_moves"":4}","[402.9683035714286,395.8745535714286,0.3,402.9683035714286,395.8745535714286,114.9,402.9683035714286,395.8745535714286,223.8,402.9683035714286,395.8745535714286,344.2,402.9683035714286,395.8745535714286,448.3,537.9683035714286,481.8745535714286,554.7,731.9683035714286,649.8745535714286,662.7,731.9683035714286,650.8745535714286,763,718.9683035714286,673.8745535714286,864.7,706.9683035714286,714.8745535714286,973.6,706.9683035714286,714.8745535714286,1076.8,706.9683035714286,714.8745535714286,1178.1,706.9683035714286,714.8745535714286,1278.6,706.9683035714286,714.8745535714286,1382.5,706.9683035714286,714.8745535714286,1510.7,706.9683035714286,714.8745535714286,1613.3,706.9683035714286,714.8745535714286,1713.4,706.9683035714286,714.8745535714286,1815.2,706.9683035714286,714.8745535714286,1926.7,706.9683035714286,714.8745535714286,2029.4,706.9683035714286,714.8745535714286,2180.7,706.9683035714286,714.8745535714286,2282.7,706.9683035714286,714.8745535714286,2387.5,706.9683035714286,714.8745535714286,2503,706.9683035714286,714.8745535714286,2608.3,706.9683035714286,714.8745535714286,2716.2,706.9683035714286,714.8745535714286,2908.1,706.9683035714286,714.8745535714286,3013.4,706.9683035714286,714.8745535714286,3126.3,706.9683035714286,714.8745535714286,3227.9,706.9683035714286,714.8745535714286,3332.5,706.9683035714286,714.8745535714286,3433.8,706.9683035714286,714.8745535714286,3538.2,706.9683035714286,714.8745535714286,3638.8,706.9683035714286,714.8745535714286,3743.3,706.9683035714286,714.8745535714286,3856,706.9683035714286,714.8745535714286,3959,706.9683035714286,714.8745535714286,4063.3,706.9683035714286,714.8745535714286,4163.5,706.9683035714286,714.8745535714286,4266.2,706.9683035714286,714.8745535714286,4372,706.9683035714286,714.8745535714286,4473.2,706.9683035714286,714.8745535714286,4574.1,706.9683035714286,714.8745535714286,4684.1,706.9683035714286,714.8745535714286,4786.2,706.9683035714286,714.8745535714286,4888,706.9683035714286,714.8745535714286,4988.9]","[4621.2,4621.3,2315.5,2024.9,280.9,""smooth"",""right"",""right"",""good_move"",8341.6,3718.2,3362,4623.4,356.2,""smooth"",""right"",""right"",""good_move"",10726.1,2384.2,2078.3,8341.9,305.9,""oops"",""down"",""down"",""good_move"",13373.9,2647.4,2304.9,10726.6,342.5,""oops"",""down"",""down"",""good_move""]"
"3143","","<div style=""width:500px;"">
  <p>What determined the result of this run?</p>
  </div>","80","html-slider-response","39","581987","0.0-7.0-1.5","8","1","2025-07-30 08:38:12","36c45c0696341be0efffe67d72a12abb","212.159.106.248","Mozilla/5.0 (Windows NT 10.0; Win64; x64) AppleWebKit/537.36 (KHTML, like Gecko) Chrome/138.0.0.0 Safari/537.36","WebKit","Chrome","138.0.0.0","Windows","10.0","https://app.prolific.com/","en-US,en;q=0.9","5d8e154af2858200171fdb95","683dba9a53627eb9ab41b36a","6889d9ef6958b2f21a9e983f","0","5d8e154af2858200171fdb95","0","2025-07-30T08:47:55.418Z","","","","AttribQ","","","","","","","","","","","50","","","","","","","","","","","","","","","","","","","","","","","","","","",""
"5141","","<div style=""width:500px;"">
  <p>How much control did you have over the ball?</p>
  </div>","81","html-slider-response","40","587129","0.0-7.0-2.5","8","1","2025-07-30 08:38:12","36c45c0696341be0efffe67d72a12abb","212.159.106.248","Mozilla/5.0 (Windows NT 10.0; Win64; x64) AppleWebKit/537.36 (KHTML, like Gecko) Chrome/138.0.0.0 Safari/537.36","WebKit","Chrome","138.0.0.0","Windows","10.0","https://app.prolific.com/","en-US,en;q=0.9","5d8e154af2858200171fdb95","683dba9a53627eb9ab41b36a","6889d9ef6958b2f21a9e983f","0","5d8e154af2858200171fdb95","0","2025-07-30T08:48:00.560Z","","","","ControlQ","","","","","","","","","","","50","","","","","","","","","","","","","","","","","","","","","","","","","","",""
"5682","","<div style=""width:500px;"">
  <p>How would you describe your current emotional state?</p>
  </div>","9","html-slider-response","41","592815","0.0-7.0-3.5","8","1","2025-07-30 08:38:12","36c45c0696341be0efffe67d72a12abb","212.159.106.248","Mozilla/5.0 (Windows NT 10.0; Win64; x64) AppleWebKit/537.36 (KHTML, like Gecko) Chrome/138.0.0.0 Safari/537.36","WebKit","Chrome","138.0.0.0","Windows","10.0","https://app.prolific.com/","en-US,en;q=0.9","5d8e154af2858200171fdb95","683dba9a53627eb9ab41b36a","6889d9ef6958b2f21a9e983f","0","5d8e154af2858200171fdb95","0","2025-07-30T08:48:06.246Z","","","","StressQ","","","","","","","","","","","50","","","","","","","","","","","","","","","","","","","","","","","","","","",""
"6874","","<div style=""width:500px;"">
  <p>What best describes how you currently feel?</p>
  </div>","58","html-slider-response","42","599694","0.0-7.0-4.5","8","1","2025-07-30 08:38:12","36c45c0696341be0efffe67d72a12abb","212.159.106.248","Mozilla/5.0 (Windows NT 10.0; Win64; x64) AppleWebKit/537.36 (KHTML, like Gecko) Chrome/138.0.0.0 Safari/537.36","WebKit","Chrome","138.0.0.0","Windows","10.0","https://app.prolific.com/","en-US,en;q=0.9","5d8e154af2858200171fdb95","683dba9a53627eb9ab41b36a","6889d9ef6958b2f21a9e983f","0","5d8e154af2858200171fdb95","0","2025-07-30T08:48:13.126Z","","","","MotivationQ","","","","","","","","","","","50","","","","","","","","","","","","","","","","","","","","","","","","","","",""
"","","","","ctl-task-cpt","43","639678","0.0-7.0-0.6","8","1","2025-07-30 08:38:12","36c45c0696341be0efffe67d72a12abb","212.159.106.248","Mozilla/5.0 (Windows NT 10.0; Win64; x64) AppleWebKit/537.36 (KHTML, like Gecko) Chrome/138.0.0.0 Safari/537.36","WebKit","Chrome","138.0.0.0","Windows","10.0","https://app.prolific.com/","en-US,en;q=0.9","5d8e154af2858200171fdb95","683dba9a53627eb9ab41b36a","6889d9ef6958b2f21a9e983f","0","5d8e154af2858200171fdb95","0","2025-07-30T08:48:53.110Z","","","","","","","","","","","","","","","","win-only","0","g1:NW,g2:SE","0.4","7","0","601021.7","8468.3","13473.2","36947.8","1","4","4","6","1","1","1","15","14","0.11363636363636363","1502.4","3000","1945","[""left"",""up""]","{""num_key_presses"":6,""num_perfect"":3,""num_errors"":0,""num_randdir"":3,""num_randdir_good_moves"":2,""num_whilered"":0,""num_whileblue"":0,""num_blue"":2,""num_good_moves"":5}","[394.9683035714286,389.8745535714286,0.6,394.9683035714286,389.8745535714286,100.5,394.9683035714286,389.8745535714286,203,394.9683035714286,389.8745535714286,303.9,394.9683035714286,389.8745535714286,418.3,434.9683035714286,448.8745535714286,522.6,567.9683035714286,604.8745535714286,631.3,630.9683035714286,655.8745535714286,733.6,356.9683035714286,447.8745535714286,838.3,79.96830357142856,84.87455357142856,1312.2,70.96830357142856,87.87455357142856,1507.8,70.96830357142856,87.87455357142856,1611.9,70.96830357142856,87.87455357142856,1748.2,70.96830357142856,87.87455357142856,1849,70.96830357142856,87.87455357142856,1952.9,70.96830357142856,87.87455357142856,2146.1,70.96830357142856,87.87455357142856,2256.4,70.96830357142856,87.87455357142856,2363.6,70.96830357142856,87.87455357142856,2553.9,70.96830357142856,87.87455357142856,2660.8,70.96830357142856,87.87455357142856,2763.4,70.96830357142856,87.87455357142856,2868.6,70.96830357142856,87.87455357142856,3019.7,70.96830357142856,87.87455357142856,3122.2,70.96830357142856,87.87455357142856,3223,70.96830357142856,87.87455357142856,3323.4,70.96830357142856,87.87455357142856,3426.2,70.96830357142856,87.87455357142856,3535.7,70.96830357142856,87.87455357142856,3638.2,70.96830357142856,87.87455357142856,3743.5,70.96830357142856,87.87455357142856,3845.1,70.96830357142856,87.87455357142856,3953.3,70.96830357142856,87.87455357142856,4053.4,70.96830357142856,87.87455357142856,4213.4,70.96830357142856,87.87455357142856,4314.8,70.96830357142856,87.87455357142856,4419,70.96830357142856,87.87455357142856,4523.3,70.96830357142856,87.87455357142856,4625,70.96830357142856,87.87455357142856,4737.7,70.96830357142856,87.87455357142856,4837.9,70.96830357142856,87.87455357142856,4939.1]","[4989.1,4989.1,2629,2069.5,290.6,""smooth"",""left"",""left"",""good_move"",7679.8,2690,2325.4,4989.8,364.7,""oops"",""left"",""right"",""bad_move"",10782.7,3102.3,2415.2,7680.6,687,""smooth"",""left"",""left"",""good_move"",17744.3,6959.6,2689.7,14749.9,304.7,""oops"",""left"",""up"",""good_move"",20857.5,3112.5,2768.2,17745,344.3,""smooth"",""left"",""left"",""good_move"",23331.1,2473.1,2114.1,20858,359,""oops"",""up"",""up"",""good_move""]"
"8762","","<div style=""width:500px;"">
  <p>What determined the result of this run?</p>
  </div>","82","html-slider-response","44","648444","0.0-7.0-1.6","8","1","2025-07-30 08:38:12","36c45c0696341be0efffe67d72a12abb","212.159.106.248","Mozilla/5.0 (Windows NT 10.0; Win64; x64) AppleWebKit/537.36 (KHTML, like Gecko) Chrome/138.0.0.0 Safari/537.36","WebKit","Chrome","138.0.0.0","Windows","10.0","https://app.prolific.com/","en-US,en;q=0.9","5d8e154af2858200171fdb95","683dba9a53627eb9ab41b36a","6889d9ef6958b2f21a9e983f","0","5d8e154af2858200171fdb95","0","2025-07-30T08:49:01.875Z","","","","AttribQ","","","","","","","","","","","50","","","","","","","","","","","","","","","","","","","","","","","","","","",""
"3355","","<div style=""width:500px;"">
  <p>How much control did you have over the ball?</p>
  </div>","71","html-slider-response","45","651806","0.0-7.0-2.6","8","1","2025-07-30 08:38:12","36c45c0696341be0efffe67d72a12abb","212.159.106.248","Mozilla/5.0 (Windows NT 10.0; Win64; x64) AppleWebKit/537.36 (KHTML, like Gecko) Chrome/138.0.0.0 Safari/537.36","WebKit","Chrome","138.0.0.0","Windows","10.0","https://app.prolific.com/","en-US,en;q=0.9","5d8e154af2858200171fdb95","683dba9a53627eb9ab41b36a","6889d9ef6958b2f21a9e983f","0","5d8e154af2858200171fdb95","0","2025-07-30T08:49:05.238Z","","","","ControlQ","","","","","","","","","","","50","","","","","","","","","","","","","","","","","","","","","","","","","","",""
"5683","","<div style=""width:500px;"">
  <p>How would you describe your current emotional state?</p>
  </div>","10","html-slider-response","46","657493","0.0-7.0-3.6","8","1","2025-07-30 08:38:12","36c45c0696341be0efffe67d72a12abb","212.159.106.248","Mozilla/5.0 (Windows NT 10.0; Win64; x64) AppleWebKit/537.36 (KHTML, like Gecko) Chrome/138.0.0.0 Safari/537.36","WebKit","Chrome","138.0.0.0","Windows","10.0","https://app.prolific.com/","en-US,en;q=0.9","5d8e154af2858200171fdb95","683dba9a53627eb9ab41b36a","6889d9ef6958b2f21a9e983f","0","5d8e154af2858200171fdb95","0","2025-07-30T08:49:10.925Z","","","","StressQ","","","","","","","","","","","50","","","","","","","","","","","","","","","","","","","","","","","","","","",""
"3613","","<div style=""width:500px;"">
  <p>What best describes how you currently feel?</p>
  </div>","57","html-slider-response","47","661110","0.0-7.0-4.6","8","1","2025-07-30 08:38:12","36c45c0696341be0efffe67d72a12abb","212.159.106.248","Mozilla/5.0 (Windows NT 10.0; Win64; x64) AppleWebKit/537.36 (KHTML, like Gecko) Chrome/138.0.0.0 Safari/537.36","WebKit","Chrome","138.0.0.0","Windows","10.0","https://app.prolific.com/","en-US,en;q=0.9","5d8e154af2858200171fdb95","683dba9a53627eb9ab41b36a","6889d9ef6958b2f21a9e983f","0","5d8e154af2858200171fdb95","0","2025-07-30T08:49:14.541Z","","","","MotivationQ","","","","","","","","","","","50","","","","","","","","","","","","","","","","","","","","","","","","","","",""
"","","","","ctl-task-cpt","48","710458","0.0-7.0-0.7","8","1","2025-07-30 08:38:12","36c45c0696341be0efffe67d72a12abb","212.159.106.248","Mozilla/5.0 (Windows NT 10.0; Win64; x64) AppleWebKit/537.36 (KHTML, like Gecko) Chrome/138.0.0.0 Safari/537.36","WebKit","Chrome","138.0.0.0","Windows","10.0","https://app.prolific.com/","en-US,en;q=0.9","5d8e154af2858200171fdb95","683dba9a53627eb9ab41b36a","6889d9ef6958b2f21a9e983f","0","5d8e154af2858200171fdb95","0","2025-07-30T08:50:03.889Z","","","","","","","","","","","","","","","","win-only","0","g1:NW,g2:SE","0.3","8","0","662432.4","3782.8","8791.8","46310.5","1","4","8","6","2","-8","-9","6","15","0.045454545454545456","976.2","3000","-1485","[""down"",""right""]","{""num_key_presses"":9,""num_perfect"":2,""num_errors"":1,""num_randdir"":6,""num_randdir_good_moves"":2,""num_whilered"":0,""num_whileblue"":1,""num_blue"":3,""num_good_moves"":4}","[397.9683035714286,394.8745535714286,0.6,397.9683035714286,394.8745535714286,107.7,397.9683035714286,394.8745535714286,208.4,397.9683035714286,394.8745535714286,313.2,397.9683035714286,394.8745535714286,418.4,434.9683035714286,412.8745535714286,519.8,696.9683035714286,626.8745535714286,626.1,721.9683035714286,659.8745535714286,729.1,729.9683035714286,679.8745535714286,835.6,722.9683035714286,742.8745535714286,938.7,721.9683035714286,742.8745535714286,1040.9,721.9683035714286,742.8745535714286,1147.3,721.9683035714286,742.8745535714286,1248.9,721.9683035714286,742.8745535714286,1350.5,721.9683035714286,742.8745535714286,1474.1,721.9683035714286,742.8745535714286,1578.1,721.9683035714286,742.8745535714286,1683.5,721.9683035714286,742.8745535714286,1828.4,721.9683035714286,742.8745535714286,1932.8,721.9683035714286,742.8745535714286,2053.5,721.9683035714286,742.8745535714286,2164.8,721.9683035714286,742.8745535714286,2267.2,721.9683035714286,742.8745535714286,2373.5,721.9683035714286,742.8745535714286,2480.1,721.9683035714286,742.8745535714286,2597.3,721.9683035714286,742.8745535714286,2705.6,721.9683035714286,742.8745535714286,2805.7,721.9683035714286,742.8745535714286,2910.4,721.9683035714286,742.8745535714286,3018,721.9683035714286,742.8745535714286,3133.2,721.9683035714286,742.8745535714286,3241.4,721.9683035714286,742.8745535714286,3356.6,721.9683035714286,742.8745535714286,3458.7,721.9683035714286,742.8745535714286,3564.3,721.9683035714286,742.8745535714286,3689.5,721.9683035714286,742.8745535714286,3790.3,721.9683035714286,742.8745535714286,3893.4,721.9683035714286,742.8745535714286,3994.2,721.9683035714286,742.8745535714286,4096.7,721.9683035714286,742.8745535714286,4199.2,721.9683035714286,742.8745535714286,4300.9,721.9683035714286,742.8745535714286,4445.7,721.9683035714286,742.8745535714286,4545.9,721.9683035714286,742.8745535714286,4650.9,721.9683035714286,742.8745535714286,4760.2,721.9683035714286,742.8745535714286,4866.9,721.9683035714286,742.8745535714286,4967.2]","[1367.5,1367.5,1000,0,367.5,""oops"",""right"",""up"",""bad_move"",7289.7,5921.3,2447,4421.1,421.6,""oops"",""right"",""right"",""good_move"",10687.6,3397,2929.6,7290.6,467.4,""oops"",""right"",""up"",""bad_move"",13807.1,3119,2792.3,10688.1,326.7,""smooth"",""right"",""right"",""good_move"",16853.3,3045.8,2579.9,13807.5,465.9,""smooth"",""right"",""right"",""good_move"",19535.9,2681.8,2359.4,16854.1,322.5,""oops"",""down"",""left"",""bad_move"",22227.8,2690.9,2385.7,19536.9,305.3,""oops"",""down"",""right"",""good_move"",25665.1,3436.6,3169.5,22228.5,267.1,""while_blue"",""down"",""up"",""bad_move"",27722.2,2056.5,1686.3,25665.8,370.1,""oops"",""down"",""left"",""bad_move""]"
"7501","","<div style=""width:500px;"">
  <p>What determined the result of this run?</p>
  </div>","10","html-slider-response","49","717961","0.0-7.0-1.7","8","1","2025-07-30 08:38:12","36c45c0696341be0efffe67d72a12abb","212.159.106.248","Mozilla/5.0 (Windows NT 10.0; Win64; x64) AppleWebKit/537.36 (KHTML, like Gecko) Chrome/138.0.0.0 Safari/537.36","WebKit","Chrome","138.0.0.0","Windows","10.0","https://app.prolific.com/","en-US,en;q=0.9","5d8e154af2858200171fdb95","683dba9a53627eb9ab41b36a","6889d9ef6958b2f21a9e983f","0","5d8e154af2858200171fdb95","0","2025-07-30T08:50:11.393Z","","","","AttribQ","","","","","","","","","","","50","","","","","","","","","","","","","","","","","","","","","","","","","","",""
"2735","","<div style=""width:500px;"">
  <p>How much control did you have over the ball?</p>
  </div>","19","html-slider-response","50","720699","0.0-7.0-2.7","8","1","2025-07-30 08:38:12","36c45c0696341be0efffe67d72a12abb","212.159.106.248","Mozilla/5.0 (Windows NT 10.0; Win64; x64) AppleWebKit/537.36 (KHTML, like Gecko) Chrome/138.0.0.0 Safari/537.36","WebKit","Chrome","138.0.0.0","Windows","10.0","https://app.prolific.com/","en-US,en;q=0.9","5d8e154af2858200171fdb95","683dba9a53627eb9ab41b36a","6889d9ef6958b2f21a9e983f","0","5d8e154af2858200171fdb95","0","2025-07-30T08:50:14.131Z","","","","ControlQ","","","","","","","","","","","50","","","","","","","","","","","","","","","","","","","","","","","","","","",""
"1772","","<div style=""width:500px;"">
  <p>How would you describe your current emotional state?</p>
  </div>","14","html-slider-response","51","722476","0.0-7.0-3.7","8","1","2025-07-30 08:38:12","36c45c0696341be0efffe67d72a12abb","212.159.106.248","Mozilla/5.0 (Windows NT 10.0; Win64; x64) AppleWebKit/537.36 (KHTML, like Gecko) Chrome/138.0.0.0 Safari/537.36","WebKit","Chrome","138.0.0.0","Windows","10.0","https://app.prolific.com/","en-US,en;q=0.9","5d8e154af2858200171fdb95","683dba9a53627eb9ab41b36a","6889d9ef6958b2f21a9e983f","0","5d8e154af2858200171fdb95","0","2025-07-30T08:50:15.907Z","","","","StressQ","","","","","","","","","","","50","","","","","","","","","","","","","","","","","","","","","","","","","","",""
"2141","","<div style=""width:500px;"">
  <p>What best describes how you currently feel?</p>
  </div>","33","html-slider-response","52","724621","0.0-7.0-4.7","8","1","2025-07-30 08:38:12","36c45c0696341be0efffe67d72a12abb","212.159.106.248","Mozilla/5.0 (Windows NT 10.0; Win64; x64) AppleWebKit/537.36 (KHTML, like Gecko) Chrome/138.0.0.0 Safari/537.36","WebKit","Chrome","138.0.0.0","Windows","10.0","https://app.prolific.com/","en-US,en;q=0.9","5d8e154af2858200171fdb95","683dba9a53627eb9ab41b36a","6889d9ef6958b2f21a9e983f","0","5d8e154af2858200171fdb95","0","2025-07-30T08:50:18.052Z","","","","MotivationQ","","","","","","","","","","","50","","","","","","","","","","","","","","","","","","","","","","","","","","",""
"","","","","ctl-task-cpt","53","762586","0.0-7.0-0.8","8","1","2025-07-30 08:38:12","36c45c0696341be0efffe67d72a12abb","212.159.106.248","Mozilla/5.0 (Windows NT 10.0; Win64; x64) AppleWebKit/537.36 (KHTML, like Gecko) Chrome/138.0.0.0 Safari/537.36","WebKit","Chrome","138.0.0.0","Windows","10.0","https://app.prolific.com/","en-US,en;q=0.9","5d8e154af2858200171fdb95","683dba9a53627eb9ab41b36a","6889d9ef6958b2f21a9e983f","0","5d8e154af2858200171fdb95","0","2025-07-30T08:50:56.017Z","","","","","","","","","","","","","","","","win-only","1","g1:NE,g2:SW","0.4","9","0","725940.1","949.1","5981.6","34921.9","1","4","4","6","2","-4","-5","1","6","0.007575757575757576","1813.1","3000","-555","[""down"",""left""]","{""num_key_presses"":2,""num_perfect"":0,""num_errors"":1,""num_randdir"":1,""num_randdir_good_moves"":0,""num_whilered"":0,""num_whileblue"":0,""num_blue"":0,""num_good_moves"":0}","[389.9683035714286,395.8745535714286,0.6,389.9683035714286,395.8745535714286,127.8,389.9683035714286,395.8745535714286,241.4,389.9683035714286,395.8745535714286,359.7,389.9683035714286,395.8745535714286,476.1,654.9683035714286,287.8745535714286,586.2,740.9683035714286,118.87455357142856,703.6,743.9683035714286,64.87455357142856,1002.9,743.9683035714286,69.87455357142856,1104,260.9683035714286,433.8745535714286,1208.9,31.968303571428564,652.8745535714286,1329.8,42.968303571428564,661.8745535714286,1444.9,73.96830357142856,675.8745535714286,1575.6,83.96830357142856,677.8745535714286,1687.4,69.96830357142856,722.8745535714286,1789.4,68.96830357142856,723.8745535714286,1904.7,68.96830357142856,723.8745535714286,2012.4,68.96830357142856,723.8745535714286,2131.4,68.96830357142856,723.8745535714286,2240.4,68.96830357142856,723.8745535714286,2481.8,68.96830357142856,723.8745535714286,2587.5,68.96830357142856,723.8745535714286,2723.5,68.96830357142856,723.8745535714286,2835,68.96830357142856,723.8745535714286,2957.8,68.96830357142856,723.8745535714286,3080.8,68.96830357142856,723.8745535714286,3201.5,68.96830357142856,723.8745535714286,3312.9,68.96830357142856,723.8745535714286,3595.5,68.96830357142856,723.8745535714286,3705.2,68.96830357142856,723.8745535714286,3818.5,68.96830357142856,723.8745535714286,3931.4,68.96830357142856,723.8745535714286,4074.6,68.96830357142856,723.8745535714286,4221,68.96830357142856,723.8745535714286,4322.9,68.96830357142856,723.8745535714286,4456,68.96830357142856,723.8745535714286,4569.6,68.96830357142856,723.8745535714286,4721.4,68.96830357142856,723.8745535714286,4885.6,68.96830357142856,723.8745535714286,4987.7]","[757.9,757.9,1000,0,-242.1,""error"",""-"",""-"",""no_move"",4439.5,3681,2252,1768.3,419.2,""oops"",""left"",""up"",""bad_move""]"
"3328","","<div style=""width:500px;"">
  <p>What determined the result of this run?</p>
  </div>","9","html-slider-response","54","765917","0.0-7.0-1.8","8","1","2025-07-30 08:38:12","36c45c0696341be0efffe67d72a12abb","212.159.106.248","Mozilla/5.0 (Windows NT 10.0; Win64; x64) AppleWebKit/537.36 (KHTML, like Gecko) Chrome/138.0.0.0 Safari/537.36","WebKit","Chrome","138.0.0.0","Windows","10.0","https://app.prolific.com/","en-US,en;q=0.9","5d8e154af2858200171fdb95","683dba9a53627eb9ab41b36a","6889d9ef6958b2f21a9e983f","0","5d8e154af2858200171fdb95","0","2025-07-30T08:50:59.348Z","","","","AttribQ","","","","","","","","","","","50","","","","","","","","","","","","","","","","","","","","","","","","","","",""
"1195","","<div style=""width:500px;"">
  <p>How much control did you have over the ball?</p>
  </div>","8","html-slider-response","55","767118","0.0-7.0-2.8","8","1","2025-07-30 08:38:12","36c45c0696341be0efffe67d72a12abb","212.159.106.248","Mozilla/5.0 (Windows NT 10.0; Win64; x64) AppleWebKit/537.36 (KHTML, like Gecko) Chrome/138.0.0.0 Safari/537.36","WebKit","Chrome","138.0.0.0","Windows","10.0","https://app.prolific.com/","en-US,en;q=0.9","5d8e154af2858200171fdb95","683dba9a53627eb9ab41b36a","6889d9ef6958b2f21a9e983f","0","5d8e154af2858200171fdb95","0","2025-07-30T08:51:00.549Z","","","","ControlQ","","","","","","","","","","","50","","","","","","","","","","","","","","","","","","","","","","","","","","",""
"1448","","<div style=""width:500px;"">
  <p>How would you describe your current emotional state?</p>
  </div>","8","html-slider-response","56","768576","0.0-7.0-3.8","8","1","2025-07-30 08:38:12","36c45c0696341be0efffe67d72a12abb","212.159.106.248","Mozilla/5.0 (Windows NT 10.0; Win64; x64) AppleWebKit/537.36 (KHTML, like Gecko) Chrome/138.0.0.0 Safari/537.36","WebKit","Chrome","138.0.0.0","Windows","10.0","https://app.prolific.com/","en-US,en;q=0.9","5d8e154af2858200171fdb95","683dba9a53627eb9ab41b36a","6889d9ef6958b2f21a9e983f","0","5d8e154af2858200171fdb95","0","2025-07-30T08:51:02.007Z","","","","StressQ","","","","","","","","","","","50","","","","","","","","","","","","","","","","","","","","","","","","","","",""
"1134","","<div style=""width:500px;"">
  <p>What best describes how you currently feel?</p>
  </div>","0","html-slider-response","57","769713","0.0-7.0-4.8","8","1","2025-07-30 08:38:12","36c45c0696341be0efffe67d72a12abb","212.159.106.248","Mozilla/5.0 (Windows NT 10.0; Win64; x64) AppleWebKit/537.36 (KHTML, like Gecko) Chrome/138.0.0.0 Safari/537.36","WebKit","Chrome","138.0.0.0","Windows","10.0","https://app.prolific.com/","en-US,en;q=0.9","5d8e154af2858200171fdb95","683dba9a53627eb9ab41b36a","6889d9ef6958b2f21a9e983f","0","5d8e154af2858200171fdb95","0","2025-07-30T08:51:03.145Z","","","","MotivationQ","","","","","","","","","","","50","","","","","","","","","","","","","","","","","","","","","","","","","","",""
"","","","","ctl-task-cpt","58","804371","0.0-7.0-0.9","8","1","2025-07-30 08:38:12","36c45c0696341be0efffe67d72a12abb","212.159.106.248","Mozilla/5.0 (Windows NT 10.0; Win64; x64) AppleWebKit/537.36 (KHTML, like Gecko) Chrome/138.0.0.0 Safari/537.36","WebKit","Chrome","138.0.0.0","Windows","10.0","https://app.prolific.com/","en-US,en;q=0.9","5d8e154af2858200171fdb95","683dba9a53627eb9ab41b36a","6889d9ef6958b2f21a9e983f","0","5d8e154af2858200171fdb95","0","2025-07-30T08:51:37.802Z","","","","","","","","","","","","","","","","win-only","3","g1:SW,g2:NE","0.5","10","0","771033.8","2742","7743.9","31627.9","1","4","8","6","1","1","1","2","1","0.015151515151515152","1175.2","3000","1815","[""down"",""left""]","{""num_key_presses"":8,""num_perfect"":5,""num_errors"":0,""num_randdir"":3,""num_randdir_good_moves"":1,""num_whilered"":0,""num_whileblue"":0,""num_blue"":0,""num_good_moves"":6}","[397.9683035714286,391.8745535714286,0.4,397.9683035714286,391.8745535714286,195.3,397.9683035714286,391.8745535714286,318,450.9683035714286,348.8745535714286,426.1,585.9683035714286,236.87455357142858,554.6,633.9683035714286,192.87455357142858,691.1,485.9683035714286,284.8745535714286,807.1,100.96830357142856,706.8745535714286,1158.8,98.96830357142856,706.8745535714286,1273.2,98.96830357142856,706.8745535714286,1376.6,98.96830357142856,706.8745535714286,1494.4,98.96830357142856,706.8745535714286,1790.8,98.96830357142856,706.8745535714286,1893.8,98.96830357142856,706.8745535714286,1995.7,98.96830357142856,706.8745535714286,2100.7,98.96830357142856,706.8745535714286,2201.1,98.96830357142856,706.8745535714286,2411.2,98.96830357142856,706.8745535714286,2511.4,98.96830357142856,706.8745535714286,2645,98.96830357142856,706.8745535714286,2746,98.96830357142856,706.8745535714286,2849.6,98.96830357142856,706.8745535714286,3050.4,98.96830357142856,706.8745535714286,3151,98.96830357142856,706.8745535714286,3252.3,98.96830357142856,706.8745535714286,3354.2,98.96830357142856,706.8745535714286,3477.2,98.96830357142856,706.8745535714286,3583.2,98.96830357142856,706.8745535714286,3684.2,98.96830357142856,706.8745535714286,3788.7,98.96830357142856,706.8745535714286,3961.8,98.96830357142856,706.8745535714286,4062,98.96830357142856,706.8745535714286,4165.5,98.96830357142856,706.8745535714286,4272,98.96830357142856,706.8745535714286,4379.4,98.96830357142856,706.8745535714286,4572.8,98.96830357142856,706.8745535714286,4676.3,98.96830357142856,706.8745535714286,4778.9,98.96830357142856,706.8745535714286,4895.8]","[1384.7,1384.7,1000,0,384.7,""smooth"",""left"",""left"",""good_move"",4321.9,2936.3,2399.3,1385.7,537,""oops"",""left"",""down"",""good_move"",7094.4,2771.8,2278.7,4322.6,493.1,""oops"",""left"",""up"",""bad_move"",10849.7,3753.4,2350,7096.4,1403.3,""smooth"",""left"",""left"",""good_move"",14479.5,3629,2970,10850.5,659,""oops"",""down"",""right"",""bad_move"",17513.5,3033.1,2224.2,14480.4,808.9,""smooth"",""down"",""down"",""good_move"",20266.2,2751.9,1918.1,17514.3,833.8,""smooth"",""down"",""down"",""good_move"",23584.6,3318.3,2844.9,20266.5,473.3,""smooth"",""left"",""left"",""good_move""]"
"6714","","<div style=""width:500px;"">
  <p>What determined the result of this run?</p>
  </div>","9","html-slider-response","59","811087","0.0-7.0-1.9","8","1","2025-07-30 08:38:12","36c45c0696341be0efffe67d72a12abb","212.159.106.248","Mozilla/5.0 (Windows NT 10.0; Win64; x64) AppleWebKit/537.36 (KHTML, like Gecko) Chrome/138.0.0.0 Safari/537.36","WebKit","Chrome","138.0.0.0","Windows","10.0","https://app.prolific.com/","en-US,en;q=0.9","5d8e154af2858200171fdb95","683dba9a53627eb9ab41b36a","6889d9ef6958b2f21a9e983f","0","5d8e154af2858200171fdb95","0","2025-07-30T08:51:44.518Z","","","","AttribQ","","","","","","","","","","","50","","","","","","","","","","","","","","","","","","","","","","","","","","",""
"9880","","<div style=""width:500px;"">
  <p>How much control did you have over the ball?</p>
  </div>","21","html-slider-response","60","820969","0.0-7.0-2.9","8","1","2025-07-30 08:38:12","36c45c0696341be0efffe67d72a12abb","212.159.106.248","Mozilla/5.0 (Windows NT 10.0; Win64; x64) AppleWebKit/537.36 (KHTML, like Gecko) Chrome/138.0.0.0 Safari/537.36","WebKit","Chrome","138.0.0.0","Windows","10.0","https://app.prolific.com/","en-US,en;q=0.9","5d8e154af2858200171fdb95","683dba9a53627eb9ab41b36a","6889d9ef6958b2f21a9e983f","0","5d8e154af2858200171fdb95","0","2025-07-30T08:51:54.400Z","","","","ControlQ","","","","","","","","","","","50","","","","","","","","","","","","","","","","","","","","","","","","","","",""
"4682","","<div style=""width:500px;"">
  <p>How would you describe your current emotional state?</p>
  </div>","6","html-slider-response","61","825653","0.0-7.0-3.9","8","1","2025-07-30 08:38:12","36c45c0696341be0efffe67d72a12abb","212.159.106.248","Mozilla/5.0 (Windows NT 10.0; Win64; x64) AppleWebKit/537.36 (KHTML, like Gecko) Chrome/138.0.0.0 Safari/537.36","WebKit","Chrome","138.0.0.0","Windows","10.0","https://app.prolific.com/","en-US,en;q=0.9","5d8e154af2858200171fdb95","683dba9a53627eb9ab41b36a","6889d9ef6958b2f21a9e983f","0","5d8e154af2858200171fdb95","0","2025-07-30T08:51:59.085Z","","","","StressQ","","","","","","","","","","","50","","","","","","","","","","","","","","","","","","","","","","","","","","",""
"4256","","<div style=""width:500px;"">
  <p>What best describes how you currently feel?</p>
  </div>","3","html-slider-response","62","829911","0.0-7.0-4.9","8","1","2025-07-30 08:38:12","36c45c0696341be0efffe67d72a12abb","212.159.106.248","Mozilla/5.0 (Windows NT 10.0; Win64; x64) AppleWebKit/537.36 (KHTML, like Gecko) Chrome/138.0.0.0 Safari/537.36","WebKit","Chrome","138.0.0.0","Windows","10.0","https://app.prolific.com/","en-US,en;q=0.9","5d8e154af2858200171fdb95","683dba9a53627eb9ab41b36a","6889d9ef6958b2f21a9e983f","0","5d8e154af2858200171fdb95","0","2025-07-30T08:52:03.343Z","","","","MotivationQ","","","","","","","","","","","50","","","","","","","","","","","","","","","","","","","","","","","","","","",""
"","","","","ctl-task-cpt","63","875986","0.0-7.0-0.10","8","1","2025-07-30 08:38:12","36c45c0696341be0efffe67d72a12abb","212.159.106.248","Mozilla/5.0 (Windows NT 10.0; Win64; x64) AppleWebKit/537.36 (KHTML, like Gecko) Chrome/138.0.0.0 Safari/537.36","WebKit","Chrome","138.0.0.0","Windows","10.0","https://app.prolific.com/","en-US,en;q=0.9","5d8e154af2858200171fdb95","683dba9a53627eb9ab41b36a","6889d9ef6958b2f21a9e983f","0","5d8e154af2858200171fdb95","0","2025-07-30T08:52:49.417Z","","","","","","","","","","","","","","","","win-only","2","g1:SE,g2:NW","0.6","11","0","831229.5","11673.1","16674.2","43022.9","1","4","8","6","1","1","1","3","2","0.022727272727272728","1111.7","3000","2715","[""down"",""right""]","{""num_key_presses"":4,""num_perfect"":2,""num_errors"":0,""num_randdir"":2,""num_randdir_good_moves"":2,""num_whilered"":0,""num_whileblue"":0,""num_blue"":3,""num_good_moves"":4}","[391.9683035714286,401.8745535714286,0.4,391.9683035714286,401.8745535714286,100.7,391.9683035714286,401.8745535714286,288.3,391.9683035714286,401.8745535714286,409.2,470.9683035714286,455.8745535714286,524.5,616.9683035714286,628.8745535714286,647,629.9683035714286,644.8745535714286,749.3,655.9683035714286,676.8745535714286,853.8,699.9683035714286,694.8745535714286,1119.2,699.9683035714286,694.8745535714286,1229.4,699.9683035714286,694.8745535714286,1347.2,699.9683035714286,694.8745535714286,1501.1,699.9683035714286,694.8745535714286,1601.6,699.9683035714286,694.8745535714286,1844.7,699.9683035714286,694.8745535714286,2010.2,699.9683035714286,694.8745535714286,2111.5,699.9683035714286,694.8745535714286,2216.9,699.9683035714286,694.8745535714286,2370.1,699.9683035714286,694.8745535714286,2487.3,699.9683035714286,694.8745535714286,2604.7,699.9683035714286,694.8745535714286,2707.5,699.9683035714286,694.8745535714286,2865.6,699.9683035714286,694.8745535714286,2966.9,699.9683035714286,694.8745535714286,3076.2,699.9683035714286,694.8745535714286,3182,699.9683035714286,694.8745535714286,3287.1,699.9683035714286,694.8745535714286,3396.3,699.9683035714286,694.8745535714286,3590.5,699.9683035714286,694.8745535714286,3699.9,699.9683035714286,694.8745535714286,3928.2,699.9683035714286,694.8745535714286,4034.7,699.9683035714286,694.8745535714286,4235.1,699.9683035714286,694.8745535714286,4344.5,699.9683035714286,694.8745535714286,4450.3,699.9683035714286,694.8745535714286,4555.9,699.9683035714286,694.8745535714286,4816.9,699.9683035714286,694.8745535714286,4922.8]","[11129.1,11129.2,3615.7,6581.8,931.7,""oops"",""right"",""right"",""good_move"",14187,3056.8,1998,11130.2,1058.8,""smooth"",""right"",""right"",""good_move"",17801.3,3613.9,2589.5,14187.5,1024.3,""smooth"",""down"",""down"",""good_move"",25739.9,7936.4,2640.6,22230.6,868.7,""oops"",""down"",""down"",""good_move""]"
"9653","","<div style=""width:500px;"">
  <p>What determined the result of this run?</p>
  </div>","21","html-slider-response","64","885647","0.0-7.0-1.10","8","1","2025-07-30 08:38:12","36c45c0696341be0efffe67d72a12abb","212.159.106.248","Mozilla/5.0 (Windows NT 10.0; Win64; x64) AppleWebKit/537.36 (KHTML, like Gecko) Chrome/138.0.0.0 Safari/537.36","WebKit","Chrome","138.0.0.0","Windows","10.0","https://app.prolific.com/","en-US,en;q=0.9","5d8e154af2858200171fdb95","683dba9a53627eb9ab41b36a","6889d9ef6958b2f21a9e983f","0","5d8e154af2858200171fdb95","0","2025-07-30T08:52:59.080Z","","","","AttribQ","","","","","","","","","","","50","","","","","","","","","","","","","","","","","","","","","","","","","","",""
"12721","","<div style=""width:500px;"">
  <p>How much control did you have over the ball?</p>
  </div>","36","html-slider-response","65","898378","0.0-7.0-2.10","8","1","2025-07-30 08:38:12","36c45c0696341be0efffe67d72a12abb","212.159.106.248","Mozilla/5.0 (Windows NT 10.0; Win64; x64) AppleWebKit/537.36 (KHTML, like Gecko) Chrome/138.0.0.0 Safari/537.36","WebKit","Chrome","138.0.0.0","Windows","10.0","https://app.prolific.com/","en-US,en;q=0.9","5d8e154af2858200171fdb95","683dba9a53627eb9ab41b36a","6889d9ef6958b2f21a9e983f","0","5d8e154af2858200171fdb95","0","2025-07-30T08:53:11.810Z","","","","ControlQ","","","","","","","","","","","50","","","","","","","","","","","","","","","","","","","","","","","","","","",""
"7232","","<div style=""width:500px;"">
  <p>How would you describe your current emotional state?</p>
  </div>","7","html-slider-response","66","905615","0.0-7.0-3.10","8","1","2025-07-30 08:38:12","36c45c0696341be0efffe67d72a12abb","212.159.106.248","Mozilla/5.0 (Windows NT 10.0; Win64; x64) AppleWebKit/537.36 (KHTML, like Gecko) Chrome/138.0.0.0 Safari/537.36","WebKit","Chrome","138.0.0.0","Windows","10.0","https://app.prolific.com/","en-US,en;q=0.9","5d8e154af2858200171fdb95","683dba9a53627eb9ab41b36a","6889d9ef6958b2f21a9e983f","0","5d8e154af2858200171fdb95","0","2025-07-30T08:53:19.047Z","","","","StressQ","","","","","","","","","","","50","","","","","","","","","","","","","","","","","","","","","","","","","","",""
"7160","","<div style=""width:500px;"">
  <p>What best describes how you currently feel?</p>
  </div>","0","html-slider-response","67","912783","0.0-7.0-4.10","8","1","2025-07-30 08:38:12","36c45c0696341be0efffe67d72a12abb","212.159.106.248","Mozilla/5.0 (Windows NT 10.0; Win64; x64) AppleWebKit/537.36 (KHTML, like Gecko) Chrome/138.0.0.0 Safari/537.36","WebKit","Chrome","138.0.0.0","Windows","10.0","https://app.prolific.com/","en-US,en;q=0.9","5d8e154af2858200171fdb95","683dba9a53627eb9ab41b36a","6889d9ef6958b2f21a9e983f","0","5d8e154af2858200171fdb95","0","2025-07-30T08:53:26.214Z","","","","MotivationQ","","","","","","","","","","","50","","","","","","","","","","","","","","","","","","","","","","","","","","",""
"","","","","ctl-task-cpt","68","959908","0.0-7.0-0.11","8","1","2025-07-30 08:38:12","36c45c0696341be0efffe67d72a12abb","212.159.106.248","Mozilla/5.0 (Windows NT 10.0; Win64; x64) AppleWebKit/537.36 (KHTML, like Gecko) Chrome/138.0.0.0 Safari/537.36","WebKit","Chrome","138.0.0.0","Windows","10.0","https://app.prolific.com/","en-US,en;q=0.9","5d8e154af2858200171fdb95","683dba9a53627eb9ab41b36a","6889d9ef6958b2f21a9e983f","0","5d8e154af2858200171fdb95","0","2025-07-30T08:54:13.339Z","","","","","","","","","","","","","","","","win-only","1","g1:NE,g2:SW","0.7","12","0","914114.9","1982.3","6984.3","44089.6","1","4","4","6","1","-1","-1","2","3","0.015151515151515152","2457.2","3000","-600","[""up"",""right""]","{""num_key_presses"":4,""num_perfect"":2,""num_errors"":0,""num_randdir"":2,""num_randdir_good_moves"":0,""num_whilered"":0,""num_whileblue"":0,""num_blue"":1,""num_good_moves"":2}","[387.9683035714286,398.8745535714286,1.6,387.9683035714286,398.8745535714286,117.7,387.9683035714286,398.8745535714286,233.3,393.9683035714286,395.8745535714286,455.8,743.9683035714286,-30.125446428571436,592.3,742.9683035714286,-21.125446428571436,724.6,733.9683035714286,59.874553571428564,849.3,722.9683035714286,88.87455357142856,962.6,697.9683035714286,122.87455357142856,1088.3,685.9683035714286,131.87455357142858,1273,685.9683035714286,131.87455357142858,1389,685.9683035714286,131.87455357142858,1563.8,685.9683035714286,131.87455357142858,1720.8,685.9683035714286,131.87455357142858,1821.3,685.9683035714286,131.87455357142858,1960.2,691.9683035714286,112.87455357142856,2091.1,689.9683035714286,108.87455357142856,2207.8,688.9683035714286,110.87455357142856,2371.2,687.9683035714286,109.87455357142856,2538.2,687.9683035714286,109.87455357142856,2681.1,687.9683035714286,109.87455357142856,2833.5,687.9683035714286,109.87455357142856,2986.2,687.9683035714286,109.87455357142856,3095.5,687.9683035714286,109.87455357142856,3198.8,687.9683035714286,109.87455357142856,3316.1,687.9683035714286,109.87455357142856,3453.3,687.9683035714286,109.87455357142856,3591.3,687.9683035714286,109.87455357142856,3705,687.9683035714286,109.87455357142856,3876.3,687.9683035714286,109.87455357142856,3989,687.9683035714286,109.87455357142856,4091.1,687.9683035714286,109.87455357142856,4201,687.9683035714286,109.87455357142856,4324.5,687.9683035714286,109.87455357142856,4444.7,687.9683035714286,109.87455357142856,4559.5,687.9683035714286,109.87455357142856,4679,687.9683035714286,109.87455357142856,4784.9,687.9683035714286,109.87455357142856,4892.1]","[1558.9,1558.9,1000,0,558.9,""smooth"",""up"",""up"",""good_move"",9033.6,7473.3,2814.2,1560.5,4659,""smooth"",""right"",""right"",""good_move"",12415.6,3379.9,2593.6,9035.7,786.4,""oops"",""right"",""down"",""bad_move"",18382.4,5966,2622,15275.7,484.7,""oops"",""right"",""left"",""bad_move""]"
"18781","","<div style=""width:500px;"">
  <p>What determined the result of this run?</p>
  </div>","24","html-slider-response","69","978692","0.0-7.0-1.11","8","1","2025-07-30 08:38:12","36c45c0696341be0efffe67d72a12abb","212.159.106.248","Mozilla/5.0 (Windows NT 10.0; Win64; x64) AppleWebKit/537.36 (KHTML, like Gecko) Chrome/138.0.0.0 Safari/537.36","WebKit","Chrome","138.0.0.0","Windows","10.0","https://app.prolific.com/","en-US,en;q=0.9","5d8e154af2858200171fdb95","683dba9a53627eb9ab41b36a","6889d9ef6958b2f21a9e983f","0","5d8e154af2858200171fdb95","0","2025-07-30T08:54:32.123Z","","","","AttribQ","","","","","","","","","","","50","","","","","","","","","","","","","","","","","","","","","","","","","","",""
"9236","","<div style=""width:500px;"">
  <p>How much control did you have over the ball?</p>
  </div>","23","html-slider-response","70","987932","0.0-7.0-2.11","8","1","2025-07-30 08:38:12","36c45c0696341be0efffe67d72a12abb","212.159.106.248","Mozilla/5.0 (Windows NT 10.0; Win64; x64) AppleWebKit/537.36 (KHTML, like Gecko) Chrome/138.0.0.0 Safari/537.36","WebKit","Chrome","138.0.0.0","Windows","10.0","https://app.prolific.com/","en-US,en;q=0.9","5d8e154af2858200171fdb95","683dba9a53627eb9ab41b36a","6889d9ef6958b2f21a9e983f","0","5d8e154af2858200171fdb95","0","2025-07-30T08:54:41.363Z","","","","ControlQ","","","","","","","","","","","50","","","","","","","","","","","","","","","","","","","","","","","","","","",""
"16928","","<div style=""width:500px;"">
  <p>How would you describe your current emotional state?</p>
  </div>","8","html-slider-response","71","1004863","0.0-7.0-3.11","8","1","2025-07-30 08:38:12","36c45c0696341be0efffe67d72a12abb","212.159.106.248","Mozilla/5.0 (Windows NT 10.0; Win64; x64) AppleWebKit/537.36 (KHTML, like Gecko) Chrome/138.0.0.0 Safari/537.36","WebKit","Chrome","138.0.0.0","Windows","10.0","https://app.prolific.com/","en-US,en;q=0.9","5d8e154af2858200171fdb95","683dba9a53627eb9ab41b36a","6889d9ef6958b2f21a9e983f","0","5d8e154af2858200171fdb95","0","2025-07-30T08:54:58.294Z","","","","StressQ","","","","","","","","","","","50","","","","","","","","","","","","","","","","","","","","","","","","","","",""
"7009","","<div style=""width:500px;"">
  <p>What best describes how you currently feel?</p>
  </div>","3","html-slider-response","72","1011878","0.0-7.0-4.11","8","1","2025-07-30 08:38:12","36c45c0696341be0efffe67d72a12abb","212.159.106.248","Mozilla/5.0 (Windows NT 10.0; Win64; x64) AppleWebKit/537.36 (KHTML, like Gecko) Chrome/138.0.0.0 Safari/537.36","WebKit","Chrome","138.0.0.0","Windows","10.0","https://app.prolific.com/","en-US,en;q=0.9","5d8e154af2858200171fdb95","683dba9a53627eb9ab41b36a","6889d9ef6958b2f21a9e983f","0","5d8e154af2858200171fdb95","0","2025-07-30T08:55:05.310Z","","","","MotivationQ","","","","","","","","","","","50","","","","","","","","","","","","","","","","","","","","","","","","","","",""
"","","","","ctl-task-cpt","73","1071985","0.0-7.0-0.12","8","1","2025-07-30 08:38:12","36c45c0696341be0efffe67d72a12abb","212.159.106.248","Mozilla/5.0 (Windows NT 10.0; Win64; x64) AppleWebKit/537.36 (KHTML, like Gecko) Chrome/138.0.0.0 Safari/537.36","WebKit","Chrome","138.0.0.0","Windows","10.0","https://app.prolific.com/","en-US,en;q=0.9","5d8e154af2858200171fdb95","683dba9a53627eb9ab41b36a","6889d9ef6958b2f21a9e983f","0","5d8e154af2858200171fdb95","0","2025-07-30T08:56:05.416Z","","","","","","","","","","","","","","","","win-only","0","g1:NW,g2:SE","0.8","13","0","1013198.5","33662","38663.9","57029.3","1","4","8","6","1","1","1","3","2","0.022727272727272728","1355.9","3000","2530","[""left"",""up""]","{""num_key_presses"":4,""num_perfect"":4,""num_errors"":0,""num_randdir"":0,""num_randdir_good_moves"":0,""num_whilered"":0,""num_whileblue"":0,""num_blue"":1,""num_good_moves"":4}","[395.4683035714286,395.1714285714286,0.7,395.4683035714286,395.1714285714286,117.1,395.4683035714286,395.1714285714286,424.5,417.4683035714286,388.1714285714286,548.3,476.4683035714286,369.1714285714286,676.7,446.4683035714286,366.1714285714286,792,153.46830357142858,162.17142857142858,910.1,123.46830357142856,114.17142857142856,1174.2,80.46830357142856,89.17142857142856,1310.3,76.46830357142856,87.17142857142856,1452.7,76.46830357142856,87.17142857142856,1562.3,76.46830357142856,87.17142857142856,1673.5,76.46830357142856,87.17142857142856,1958.7,76.46830357142856,87.17142857142856,2065.5,76.46830357142856,87.17142857142856,2187.2,76.46830357142856,87.17142857142856,2292.7,76.46830357142856,87.17142857142856,2418,76.46830357142856,87.17142857142856,2756.6,76.46830357142856,87.17142857142856,2868.3,76.46830357142856,87.17142857142856,2983.8,76.46830357142856,87.17142857142856,3096.5,76.46830357142856,87.17142857142856,3203.1,76.46830357142856,87.17142857142856,3308.1,76.46830357142856,87.17142857142856,3417.7,76.46830357142856,87.17142857142856,3533.8,76.46830357142856,87.17142857142856,3782.9,76.46830357142856,87.17142857142856,3900.5,76.46830357142856,87.17142857142856,4036.7,76.46830357142856,87.17142857142856,4153.8,76.46830357142856,87.17142857142856,4260.5,76.46830357142856,87.17142857142856,4369.7,76.46830357142856,87.17142857142856,4490.8,76.46830357142856,87.17142857142856,4601.5,76.46830357142856,87.17142857142856,4897.6]","[1418.9,1418.9,1000,0,418.9,""smooth"",""left"",""left"",""good_move"",10051.1,8630.6,2242.4,7229.7,579.1,""smooth"",""left"",""left"",""good_move"",13654,3602.7,1940.8,10051.4,1661.9,""smooth"",""up"",""up"",""good_move"",17995.2,4339.9,2282.3,13655.3,2057.6,""smooth"",""up"",""up"",""good_move""]"
"5825","","<div style=""width:500px;"">
  <p>What determined the result of this run?</p>
  </div>","97","html-slider-response","74","1077812","0.0-7.0-1.12","8","1","2025-07-30 08:38:12","36c45c0696341be0efffe67d72a12abb","212.159.106.248","Mozilla/5.0 (Windows NT 10.0; Win64; x64) AppleWebKit/537.36 (KHTML, like Gecko) Chrome/138.0.0.0 Safari/537.36","WebKit","Chrome","138.0.0.0","Windows","10.0","https://app.prolific.com/","en-US,en;q=0.9","5d8e154af2858200171fdb95","683dba9a53627eb9ab41b36a","6889d9ef6958b2f21a9e983f","0","5d8e154af2858200171fdb95","0","2025-07-30T08:56:11.243Z","","","","AttribQ","","","","","","","","","","","50","","","","","","","","","","","","","","","","","","","","","","","","","","",""
"5440","","<div style=""width:500px;"">
  <p>How much control did you have over the ball?</p>
  </div>","89","html-slider-response","75","1083253","0.0-7.0-2.12","8","1","2025-07-30 08:38:12","36c45c0696341be0efffe67d72a12abb","212.159.106.248","Mozilla/5.0 (Windows NT 10.0; Win64; x64) AppleWebKit/537.36 (KHTML, like Gecko) Chrome/138.0.0.0 Safari/537.36","WebKit","Chrome","138.0.0.0","Windows","10.0","https://app.prolific.com/","en-US,en;q=0.9","5d8e154af2858200171fdb95","683dba9a53627eb9ab41b36a","6889d9ef6958b2f21a9e983f","0","5d8e154af2858200171fdb95","0","2025-07-30T08:56:16.684Z","","","","ControlQ","","","","","","","","","","","50","","","","","","","","","","","","","","","","","","","","","","","","","","",""
"6602","","<div style=""width:500px;"">
  <p>How would you describe your current emotional state?</p>
  </div>","3","html-slider-response","76","1089857","0.0-7.0-3.12","8","1","2025-07-30 08:38:12","36c45c0696341be0efffe67d72a12abb","212.159.106.248","Mozilla/5.0 (Windows NT 10.0; Win64; x64) AppleWebKit/537.36 (KHTML, like Gecko) Chrome/138.0.0.0 Safari/537.36","WebKit","Chrome","138.0.0.0","Windows","10.0","https://app.prolific.com/","en-US,en;q=0.9","5d8e154af2858200171fdb95","683dba9a53627eb9ab41b36a","6889d9ef6958b2f21a9e983f","0","5d8e154af2858200171fdb95","0","2025-07-30T08:56:23.288Z","","","","StressQ","","","","","","","","","","","50","","","","","","","","","","","","","","","","","","","","","","","","","","",""
"5687","","<div style=""width:500px;"">
  <p>What best describes how you currently feel?</p>
  </div>","2","html-slider-response","77","1095546","0.0-7.0-4.12","8","1","2025-07-30 08:38:12","36c45c0696341be0efffe67d72a12abb","212.159.106.248","Mozilla/5.0 (Windows NT 10.0; Win64; x64) AppleWebKit/537.36 (KHTML, like Gecko) Chrome/138.0.0.0 Safari/537.36","WebKit","Chrome","138.0.0.0","Windows","10.0","https://app.prolific.com/","en-US,en;q=0.9","5d8e154af2858200171fdb95","683dba9a53627eb9ab41b36a","6889d9ef6958b2f21a9e983f","0","5d8e154af2858200171fdb95","0","2025-07-30T08:56:28.978Z","","","","MotivationQ","","","","","","","","","","","50","","","","","","","","","","","","","","","","","","","","","","","","","","",""
"","","","","ctl-task-cpt","78","1136007","0.0-7.0-0.13","8","1","2025-07-30 08:38:12","36c45c0696341be0efffe67d72a12abb","212.159.106.248","Mozilla/5.0 (Windows NT 10.0; Win64; x64) AppleWebKit/537.36 (KHTML, like Gecko) Chrome/138.0.0.0 Safari/537.36","WebKit","Chrome","138.0.0.0","Windows","10.0","https://app.prolific.com/","en-US,en;q=0.9","5d8e154af2858200171fdb95","683dba9a53627eb9ab41b36a","6889d9ef6958b2f21a9e983f","0","5d8e154af2858200171fdb95","0","2025-07-30T08:57:09.439Z","","","","","","","","","","","","","","","","win-only","2","g1:SE,g2:NW","0.9","14","0","1096871.1","12293.8","17356.9","37393.7","1","4","4","6","1","1","1","4","3","0.030303030303030304","828.2","3000","2640","[""down"",""right""]","{""num_key_presses"":4,""num_perfect"":4,""num_errors"":0,""num_randdir"":0,""num_randdir_good_moves"":0,""num_whilered"":0,""num_whileblue"":0,""num_blue"":2,""num_good_moves"":4}","[347.896875,342.303125,0.5,347.896875,342.303125,102.3,347.896875,342.303125,206.4,347.896875,342.303125,375.4,347.896875,342.303125,501.2,559.896875,550.303125,630,578.896875,594.303125,769.9,578.896875,597.303125,880.8,578.896875,597.303125,1021,578.896875,597.303125,1127.4,643.896875,608.303125,1446.3,641.896875,610.303125,1551.3,641.896875,610.303125,1666.4,639.896875,610.303125,1781.2,623.896875,603.303125,1887.7,623.896875,603.303125,2177.4,623.896875,603.303125,2282,623.896875,603.303125,2386.7,623.896875,603.303125,2489.8,623.896875,603.303125,2615.6,623.896875,603.303125,2716.8,623.896875,603.303125,3011.2,623.896875,603.303125,3130.4,623.896875,603.303125,3252.9,623.896875,603.303125,3355.6,623.896875,603.303125,3627.8,623.896875,603.303125,3734.3,623.896875,603.303125,3852.1,623.896875,603.303125,3961,623.896875,603.303125,4070.2,623.896875,603.303125,4178,623.896875,603.303125,4395.7,623.896875,603.303125,4506.1,623.896875,603.303125,4610,623.896875,603.303125,4723.6,623.896875,603.303125,4829.9]","[1538.5,1538.5,1000,0,538.5,""smooth"",""right"",""right"",""good_move"",12795.6,11255.6,2418.5,9874.4,502.7,""smooth"",""right"",""right"",""good_move"",16049.1,3253.2,2649.6,12795.9,603.6,""smooth"",""down"",""down"",""good_move"",19350,3300,2556,16050.1,743.9,""smooth"",""down"",""down"",""good_move""]"
"4959","","<div style=""width:500px;"">
  <p>What determined the result of this run?</p>
  </div>","69","html-slider-response","79","1140971","0.0-7.0-1.13","8","1","2025-07-30 08:38:12","36c45c0696341be0efffe67d72a12abb","212.159.106.248","Mozilla/5.0 (Windows NT 10.0; Win64; x64) AppleWebKit/537.36 (KHTML, like Gecko) Chrome/138.0.0.0 Safari/537.36","WebKit","Chrome","138.0.0.0","Windows","10.0","https://app.prolific.com/","en-US,en;q=0.9","5d8e154af2858200171fdb95","683dba9a53627eb9ab41b36a","6889d9ef6958b2f21a9e983f","0","5d8e154af2858200171fdb95","0","2025-07-30T08:57:14.402Z","","","","AttribQ","","","","","","","","","","","50","","","","","","","","","","","","","","","","","","","","","","","","","","",""
"5710","","<div style=""width:500px;"">
  <p>How much control did you have over the ball?</p>
  </div>","71","html-slider-response","80","1146683","0.0-7.0-2.13","8","1","2025-07-30 08:38:12","36c45c0696341be0efffe67d72a12abb","212.159.106.248","Mozilla/5.0 (Windows NT 10.0; Win64; x64) AppleWebKit/537.36 (KHTML, like Gecko) Chrome/138.0.0.0 Safari/537.36","WebKit","Chrome","138.0.0.0","Windows","10.0","https://app.prolific.com/","en-US,en;q=0.9","5d8e154af2858200171fdb95","683dba9a53627eb9ab41b36a","6889d9ef6958b2f21a9e983f","0","5d8e154af2858200171fdb95","0","2025-07-30T08:57:20.114Z","","","","ControlQ","","","","","","","","","","","50","","","","","","","","","","","","","","","","","","","","","","","","","","",""
"4763","","<div style=""width:500px;"">
  <p>How would you describe your current emotional state?</p>
  </div>","5","html-slider-response","81","1151451","0.0-7.0-3.13","8","1","2025-07-30 08:38:12","36c45c0696341be0efffe67d72a12abb","212.159.106.248","Mozilla/5.0 (Windows NT 10.0; Win64; x64) AppleWebKit/537.36 (KHTML, like Gecko) Chrome/138.0.0.0 Safari/537.36","WebKit","Chrome","138.0.0.0","Windows","10.0","https://app.prolific.com/","en-US,en;q=0.9","5d8e154af2858200171fdb95","683dba9a53627eb9ab41b36a","6889d9ef6958b2f21a9e983f","0","5d8e154af2858200171fdb95","0","2025-07-30T08:57:24.882Z","","","","StressQ","","","","","","","","","","","50","","","","","","","","","","","","","","","","","","","","","","","","","","",""
"4745","","<div style=""width:500px;"">
  <p>What best describes how you currently feel?</p>
  </div>","6","html-slider-response","82","1156198","0.0-7.0-4.13","8","1","2025-07-30 08:38:12","36c45c0696341be0efffe67d72a12abb","212.159.106.248","Mozilla/5.0 (Windows NT 10.0; Win64; x64) AppleWebKit/537.36 (KHTML, like Gecko) Chrome/138.0.0.0 Safari/537.36","WebKit","Chrome","138.0.0.0","Windows","10.0","https://app.prolific.com/","en-US,en;q=0.9","5d8e154af2858200171fdb95","683dba9a53627eb9ab41b36a","6889d9ef6958b2f21a9e983f","0","5d8e154af2858200171fdb95","0","2025-07-30T08:57:29.630Z","","","","MotivationQ","","","","","","","","","","","50","","","","","","","","","","","","","","","","","","","","","","","","","","",""
