"rt","response_timestamp","stimulus","response","trial_type","trial_index","time_elapsed","internal_node_id","run_id","condition","recorded_at","source_code_version","ip","user_agent","device","browser","browser_version","platform","platform_version","referer","accept_language","PROLIFIC_PID","STUDY_ID","SESSION_ID","BATCH","prolific_id","batch","realtime","success","question_order","question_id","eventType","responses","item_order","radio_event_ids","radio_event_times","key_event_times","mouse_event_times","straightlining","zigzagging","honeypot","view_history","slider_start","which_type","canvas_config","goals_layout","control_level","trial_number","tutorial_trial_number","trial_start_time","phase1_start_time","phase2_start_time","phase3_start_time","goal_1_value","goal_1_distance","goal_2_value","goal_2_distance","goal_selected","outcome","outcome_total","participant_final_score","participant_initial_score","participant_final_score_prop","goal_choice_rt","allocated_time","allocated_time_remaining","goal_direction","counts","mouse_movements","key_presses"
"2950","1753864743895","<p style='font-size:40px;line-height:1.25'><strong>Welcome to the experiment!</strong></p><p style='font-size:1.1em;line-height:1.25'>Thank you for participanting in our experiment again! You will be asked to play the Dysfunctional Ball Game again. We will briefly recap the rules before we start.</p><p style='font-size:1.1em;line-height:1.25'>Press <strong>Next</strong> to continue.</p>","0","custom-html-button-response","0","2955","0.0-0.0","17","1","2025-07-30 08:38:59","36c45c0696341be0efffe67d72a12abb","212.69.57.202","Mozilla/5.0 (X11; CrOS x86_64 14541.0.0) AppleWebKit/537.36 (KHTML, like Gecko) Chrome/137.0.0.0 Safari/537.36","WebKit","Chrome","137.0.0.0","ChromeOS","14541.0.0","https://app.prolific.com/","en-GB,en;q=0.9","5d9a55cb01556d0013fa8369","683dba9a53627eb9ab41b36a","6889da0a66ae07a4534c335e","0","5d9a55cb01556d0013fa8369","0","2025-07-30T08:39:03.897Z","","","","","","","","","","","","","","","","","","","","","","","","","","","","","","","","","","","","","","","","","",""
"1550","","","","fullscreen","1","5509","0.0-1.0","17","1","2025-07-30 08:38:59","36c45c0696341be0efffe67d72a12abb","212.69.57.202","Mozilla/5.0 (X11; CrOS x86_64 14541.0.0) AppleWebKit/537.36 (KHTML, like Gecko) Chrome/137.0.0.0 Safari/537.36","WebKit","Chrome","137.0.0.0","ChromeOS","14541.0.0","https://app.prolific.com/","en-GB,en;q=0.9","5d9a55cb01556d0013fa8369","683dba9a53627eb9ab41b36a","6889da0a66ae07a4534c335e","0","5d9a55cb01556d0013fa8369","0","","true","","","","","","","","","","","","","","","","","","","","","","","","","","","","","","","","","","","","","","","","",""
"2764","1753864749217"," <p style='font-size:1.1em;line-height:1.25'>Thank you for closing all other tabs.</p><p style='font-size:1.1em;line-height:1.25'>We will now invite you to fill in some questionnaires, before starting the game.<br>This will take about 5 minutes.<br></p><p style='font-size:1.1em;line-height:1.25'>Press the <strong>Next</strong> button to continue.</p>","0","custom-html-button-response","2","8275","0.0-2.0","17","1","2025-07-30 08:38:59","36c45c0696341be0efffe67d72a12abb","212.69.57.202","Mozilla/5.0 (X11; CrOS x86_64 14541.0.0) AppleWebKit/537.36 (KHTML, like Gecko) Chrome/137.0.0.0 Safari/537.36","WebKit","Chrome","137.0.0.0","ChromeOS","14541.0.0","https://app.prolific.com/","en-GB,en;q=0.9","5d9a55cb01556d0013fa8369","683dba9a53627eb9ab41b36a","6889da0a66ae07a4534c335e","0","5d9a55cb01556d0013fa8369","0","2025-07-30T08:39:09.217Z","","","","","","","","","","","","","","","","","","","","","","","","","","","","","","","","","","","","","","","","","",""
"9251","","","{""assigned_sex"":""female""}","survey-multi-choice","3","17529","0.0-3.0-0.0","17","1","2025-07-30 08:38:59","36c45c0696341be0efffe67d72a12abb","212.69.57.202","Mozilla/5.0 (X11; CrOS x86_64 14541.0.0) AppleWebKit/537.36 (KHTML, like Gecko) Chrome/137.0.0.0 Safari/537.36","WebKit","Chrome","137.0.0.0","ChromeOS","14541.0.0","https://app.prolific.com/","en-GB,en;q=0.9","5d9a55cb01556d0013fa8369","683dba9a53627eb9ab41b36a","6889da0a66ae07a4534c335e","0","5d9a55cb01556d0013fa8369","0","","","[0]","0","demographics","","","","","","","","","","","","","","","","","","","","","","","","","","","","","","","","","","","","","",""
"1502","1753864759974","<p style='font-size:1.1em;line-height:1.25'>In the following, we will perform a baseline assessment. This means that we will ask you a few questions relating to your experiences over the past month.<br></p><p style='font-size:1.1em;line-height:1.25'>Press the <strong>Next</strong> button to continue.</p>","0","custom-html-button-response","4","19033","0.0-4.0-0.0","17","1","2025-07-30 08:38:59","36c45c0696341be0efffe67d72a12abb","212.69.57.202","Mozilla/5.0 (X11; CrOS x86_64 14541.0.0) AppleWebKit/537.36 (KHTML, like Gecko) Chrome/137.0.0.0 Safari/537.36","WebKit","Chrome","137.0.0.0","ChromeOS","14541.0.0","https://app.prolific.com/","en-GB,en;q=0.9","5d9a55cb01556d0013fa8369","683dba9a53627eb9ab41b36a","6889da0a66ae07a4534c335e","0","5d9a55cb01556d0013fa8369","0","2025-07-30T08:39:19.975Z","","","","","","","","","","","","","","","","","","","","","","","","","","","","","","","","","","","","","","","","","",""
"39655","","","","survey-template","5","58696","0.0-4.0-1.0","17","1","2025-07-30 08:38:59","36c45c0696341be0efffe67d72a12abb","212.69.57.202","Mozilla/5.0 (X11; CrOS x86_64 14541.0.0) AppleWebKit/537.36 (KHTML, like Gecko) Chrome/137.0.0.0 Safari/537.36","WebKit","Chrome","137.0.0.0","ChromeOS","14541.0.0","https://app.prolific.com/","en-GB,en;q=0.9","5d9a55cb01556d0013fa8369","683dba9a53627eb9ab41b36a","6889da0a66ae07a4534c335e","0","5d9a55cb01556d0013fa8369","0","2025-07-30T08:39:59.638Z","","","","pss","{""Q01"":""2"",""Q02"":""3"",""Q03"":""2"",""Q04"":""2"",""Q05"":""3"",""Q06"":""3"",""Q07"":""2"",""Q08"":""2"",""Q09"":""1"",""Q10"":""1""}","[0,1,2,3,4,5,6,7,8,9]","[""Q01"",""Q02"",""Q03"",""Q04"",""Q05"",""Q05"",""Q06"",""Q07"",""Q08"",""Q09"",""Q10""]","[8775.699999988079,11925.100000023842,15793.199999988079,17766.899999976158,19630.600000023842,21754.5,24794.600000023842,27506.80000001192,31375.19999998808,36877.80000001192,38593.19999998808]","[]","[0.30000001192092896,8775.699999988079,11925.100000023842,14088.899999976158,15793.199999988079,17766.899999976158,19630.600000023842,21754.5,24794.600000023842,27506.80000001192,29011.899999976158,31375.19999998808,36877.80000001192,38593.19999998808,39649.39999997616]","0.5","0.5555555555555556","0","","","","","","","","","","","","","","","","","","","","","","","","","","","","",""
"2174","1753864801813","<p style='font-size:1.1em;line-height:1.25'>Thank you for your answers! Now we will ask you a few more questions relating to your feelings in the last 24 hours.<br></p><p style='font-size:1.1em;line-height:1.25'>Press the <strong>Next</strong> button to continue.</p>","0","custom-html-button-response","6","60872","0.0-4.0-2.0","17","1","2025-07-30 08:38:59","36c45c0696341be0efffe67d72a12abb","212.69.57.202","Mozilla/5.0 (X11; CrOS x86_64 14541.0.0) AppleWebKit/537.36 (KHTML, like Gecko) Chrome/137.0.0.0 Safari/537.36","WebKit","Chrome","137.0.0.0","ChromeOS","14541.0.0","https://app.prolific.com/","en-GB,en;q=0.9","5d9a55cb01556d0013fa8369","683dba9a53627eb9ab41b36a","6889da0a66ae07a4534c335e","0","5d9a55cb01556d0013fa8369","0","2025-07-30T08:40:01.814Z","","","","","","","","","","","","","","","","","","","","","","","","","","","","","","","","","","","","","","","","","",""
"48132.10000002384","","","","survey-template","7","109012","0.0-4.0-3.0","17","1","2025-07-30 08:38:59","36c45c0696341be0efffe67d72a12abb","212.69.57.202","Mozilla/5.0 (X11; CrOS x86_64 14541.0.0) AppleWebKit/537.36 (KHTML, like Gecko) Chrome/137.0.0.0 Safari/537.36","WebKit","Chrome","137.0.0.0","ChromeOS","14541.0.0","https://app.prolific.com/","en-GB,en;q=0.9","5d9a55cb01556d0013fa8369","683dba9a53627eb9ab41b36a","6889da0a66ae07a4534c335e","0","5d9a55cb01556d0013fa8369","0","2025-07-30T08:40:49.954Z","","","","drsp","{""Q01"":""3"",""Q02"":""2"",""Q03"":""0"",""Q04"":""1"",""Q05"":""1"",""Q06"":""2"",""Q07"":""0"",""Q08"":""0"",""Q09"":""3"",""Q10"":""3"",""Q11"":""5"",""Q12"":""3"",""Q13"":""5"",""Q14"":""3"",""Q15"":""3"",""Q16"":""3"",""Q17"":""3"",""Q18"":""0"",""Q19"":""3"",""Q20"":""3"",""Q21"":""3"",""Q22"":""3""}","[0,1,2,3,4,5,6,7,8,9,10,11,12,13,14,15,16,17,18,19,20,21]","[""Q01"",""Q02"",""Q03"",""Q04"",""Q05"",""Q06"",""Q07"",""Q08"",""Q09"",""Q10"",""Q11"",""Q12"",""Q13"",""Q14"",""Q15"",""Q16"",""Q17"",""Q18"",""Q19"",""Q20"",""Q21"",""Q22""]","[3605.400000035763,5279.900000035763,8429.800000011921,10224.700000047684,11819.5,13723.700000047684,15606.700000047684,16724,19125.80000001192,20432.5,24210,25475.80000001192,27379.700000047684,29871.900000035763,32154.200000047684,35373.40000003576,36809.5,38782.90000003576,41623.60000002384,43058.90000003576,45869.30000001192,46916.10000002384]","[]","[0,3605.400000035763,5279.900000035763,8429.800000011921,10224.700000047684,11819.5,13723.700000047684,15606.700000047684,16724,19125.80000001192,20432.5,22495.80000001192,24210,25475.80000001192,27379.700000047684,29871.900000035763,32154.200000047684,35373.40000003576,36809.5,38782.90000003576,41623.60000002384,43058.90000003576,45869.30000001192,46916.10000002384,48122.200000047684]","0.5454545454545454","0.14285714285714285","0","","","","","","","","","","","","","","","","","","","","","","","","","","","","",""
"10044.300000011921","","","","survey-template","8","119059","0.0-4.0-4.0","17","1","2025-07-30 08:38:59","36c45c0696341be0efffe67d72a12abb","212.69.57.202","Mozilla/5.0 (X11; CrOS x86_64 14541.0.0) AppleWebKit/537.36 (KHTML, like Gecko) Chrome/137.0.0.0 Safari/537.36","WebKit","Chrome","137.0.0.0","ChromeOS","14541.0.0","https://app.prolific.com/","en-GB,en;q=0.9","5d9a55cb01556d0013fa8369","683dba9a53627eb9ab41b36a","6889da0a66ae07a4534c335e","0","5d9a55cb01556d0013fa8369","0","2025-07-30T08:41:00.002Z","","","","stress","{""Q01"":""2"",""Q02"":""5"",""Q03"":""0""}","[0,1,2]","[""Q01"",""Q02"",""Q03""]","[4030.2000000476837,7857.300000011921,8913.800000011921]","[]","[4030.2000000476837,5126,6392.100000023842,7857.300000011921,8913.800000011921,10040.5]","0.6666666666666666","0","0","","","","","","","","","","","","","","","","","","","","","","","","","","","","",""
"2496","","","","instructions","9","121558","0.0-5.0-0.0","17","1","2025-07-30 08:38:59","36c45c0696341be0efffe67d72a12abb","212.69.57.202","Mozilla/5.0 (X11; CrOS x86_64 14541.0.0) AppleWebKit/537.36 (KHTML, like Gecko) Chrome/137.0.0.0 Safari/537.36","WebKit","Chrome","137.0.0.0","ChromeOS","14541.0.0","https://app.prolific.com/","en-GB,en;q=0.9","5d9a55cb01556d0013fa8369","683dba9a53627eb9ab41b36a","6889da0a66ae07a4534c335e","0","5d9a55cb01556d0013fa8369","0","","","","","","","","","","","","","","","[{""page_index"":0,""viewing_time"":2495}]","","","","","","","","","","","","","","","","","","","","","","","","","","","",""
"3853","","<p>Before you start with this game please answer the following three questions yourself. </p>
  <p>Through this game, we measure several aspects of your cognitive performance, such as reaction times, multi-tasking capabilities </p>
  <p>and the ability to assess the situation you are in.</p>
  <p></p>
  <p><b>How good do you usually are in such tasks?</b></p>","50","html-slider-response","10","125415","0.0-6.0-0.0","17","1","2025-07-30 08:38:59","36c45c0696341be0efffe67d72a12abb","212.69.57.202","Mozilla/5.0 (X11; CrOS x86_64 14541.0.0) AppleWebKit/537.36 (KHTML, like Gecko) Chrome/137.0.0.0 Safari/537.36","WebKit","Chrome","137.0.0.0","ChromeOS","14541.0.0","https://app.prolific.com/","en-GB,en;q=0.9","5d9a55cb01556d0013fa8369","683dba9a53627eb9ab41b36a","6889da0a66ae07a4534c335e","0","5d9a55cb01556d0013fa8369","0","2025-07-30T08:41:06.357Z","","","","PreSkillQ","","","","","","","","","","","50","","","","","","","","","","","","","","","","","","","","","","","","","","",""
"2558","","<div style=""width:500px;"">
  <p>How well do you think you will perform in this task compared to other participants?</p>
  </div>","50","html-slider-response","11","127975","0.0-6.0-1.0","17","1","2025-07-30 08:38:59","36c45c0696341be0efffe67d72a12abb","212.69.57.202","Mozilla/5.0 (X11; CrOS x86_64 14541.0.0) AppleWebKit/537.36 (KHTML, like Gecko) Chrome/137.0.0.0 Safari/537.36","WebKit","Chrome","137.0.0.0","ChromeOS","14541.0.0","https://app.prolific.com/","en-GB,en;q=0.9","5d9a55cb01556d0013fa8369","683dba9a53627eb9ab41b36a","6889da0a66ae07a4534c335e","0","5d9a55cb01556d0013fa8369","0","2025-07-30T08:41:08.918Z","","","","PrePerfQ","","","","","","","","","","","50","","","","","","","","","","","","","","","","","","","","","","","","","","",""
"3547","","<div style=""width:500px;"">
  <p>What best describes how you currently feel?</p>
  </div>","24","html-slider-response","12","131525","0.0-6.0-2.0","17","1","2025-07-30 08:38:59","36c45c0696341be0efffe67d72a12abb","212.69.57.202","Mozilla/5.0 (X11; CrOS x86_64 14541.0.0) AppleWebKit/537.36 (KHTML, like Gecko) Chrome/137.0.0.0 Safari/537.36","WebKit","Chrome","137.0.0.0","ChromeOS","14541.0.0","https://app.prolific.com/","en-GB,en;q=0.9","5d9a55cb01556d0013fa8369","683dba9a53627eb9ab41b36a","6889da0a66ae07a4534c335e","0","5d9a55cb01556d0013fa8369","0","2025-07-30T08:41:12.467Z","","","","PreMotivationQ","","","","","","","","","","","50","","","","","","","","","","","","","","","","","","","","","","","","","","",""
"","","","","ctl-task-cpt","13","154476","0.0-7.0-0.0","17","1","2025-07-30 08:38:59","36c45c0696341be0efffe67d72a12abb","212.69.57.202","Mozilla/5.0 (X11; CrOS x86_64 14541.0.0) AppleWebKit/537.36 (KHTML, like Gecko) Chrome/137.0.0.0 Safari/537.36","WebKit","Chrome","137.0.0.0","ChromeOS","14541.0.0","https://app.prolific.com/","en-GB,en;q=0.9","5d9a55cb01556d0013fa8369","683dba9a53627eb9ab41b36a","6889da0a66ae07a4534c335e","0","5d9a55cb01556d0013fa8369","0","2025-07-30T08:41:35.418Z","","","","","","","","","","","","","","","","win-only","1","g1:NE,g2:SW","1","1","0","133075","1239.6","6241.1","19933.4","1","4","8","6","1","1","1","1","0","0.007575757575757576","1274.7","3000","1900","[""up"",""right""]","{""num_key_presses"":4,""num_perfect"":4,""num_errors"":0,""num_randdir"":0,""num_randdir_good_moves"":0,""num_whilered"":0,""num_whileblue"":0,""num_blue"":1,""num_good_moves"":4}","[419.0714133126395,411.57142761775424,0.7,419.0714133126395,411.57142761775424,101.2,419.0714133126395,411.57142761775424,201.2,419.0714133126395,411.57142761775424,307.2,419.0714133126395,411.57142761775424,424.3,419.0714133126395,411.57142761775424,545.1,545.3214133126395,209.07142761775424,645.5,622.8214133126395,114.07142761775425,750.6,626.5714133126395,112.82142761775425,862.6,687.8214133126395,126.57142761775425,967.2,714.0714133126395,117.82142761775425,1077.6,734.0714133126395,94.07142761775425,1178.5,735.3214133126395,95.32142761775425,1283.4,735.3214133126395,95.32142761775425,1387.4,735.3214133126395,95.32142761775425,1506.6,735.3214133126395,95.32142761775425,1619.1,735.3214133126395,95.32142761775425,1741.8,735.3214133126395,95.32142761775425,1849.3,735.3214133126395,95.32142761775425,1952.1,735.3214133126395,95.32142761775425,2058,735.3214133126395,95.32142761775425,2181.1,735.3214133126395,95.32142761775425,2281.2,735.3214133126395,95.32142761775425,2381.4,735.3214133126395,95.32142761775425,2488.4,735.3214133126395,95.32142761775425,2593.9,735.3214133126395,95.32142761775425,2696.2,735.3214133126395,95.32142761775425,2812.3,735.3214133126395,95.32142761775425,2916.1,735.3214133126395,95.32142761775425,3031.5,735.3214133126395,95.32142761775425,3143.5,735.3214133126395,95.32142761775425,3246.2,735.3214133126395,95.32142761775425,3346.4,735.3214133126395,95.32142761775425,3451.2,735.3214133126395,95.32142761775425,3551.2,735.3214133126395,95.32142761775425,3660.5,735.3214133126395,95.32142761775425,3761.4,735.3214133126395,95.32142761775425,3866.1,735.3214133126395,95.32142761775425,3966.4,735.3214133126395,95.32142761775425,4066.4,735.3214133126395,95.32142761775425,4171.8,735.3214133126395,95.32142761775425,4272,735.3214133126395,95.32142761775425,4399.9,735.3214133126395,95.32142761775425,4514.9,735.3214133126395,95.32142761775425,4616.1,735.3214133126395,95.32142761775425,4728.2,735.3214133126395,95.32142761775425,4831.2,735.3214133126395,95.32142761775425,4936]","[4857.3,4857.2,2360,2032.9,464.5,""smooth"",""up"",""up"",""good_move"",7299.8,2441.5,2012.9,4858.3,428.6,""smooth"",""up"",""up"",""good_move"",10512.1,3212,2719.8,7300.1,492.2,""smooth"",""right"",""right"",""good_move"",13533.2,3005.6,2595,10527.6,410.6,""smooth"",""right"",""right"",""good_move""]"
"4629","","<div style=""width:500px;"">
  <p>What determined the result of this run?</p>
  </div>","50","html-slider-response","14","159107","0.0-7.0-1.0","17","1","2025-07-30 08:38:59","36c45c0696341be0efffe67d72a12abb","212.69.57.202","Mozilla/5.0 (X11; CrOS x86_64 14541.0.0) AppleWebKit/537.36 (KHTML, like Gecko) Chrome/137.0.0.0 Safari/537.36","WebKit","Chrome","137.0.0.0","ChromeOS","14541.0.0","https://app.prolific.com/","en-GB,en;q=0.9","5d9a55cb01556d0013fa8369","683dba9a53627eb9ab41b36a","6889da0a66ae07a4534c335e","0","5d9a55cb01556d0013fa8369","0","2025-07-30T08:41:40.049Z","","","","AttribQ","","","","","","","","","","","50","","","","","","","","","","","","","","","","","","","","","","","","","","",""
"2181","","<div style=""width:500px;"">
  <p>How much control did you have over the ball?</p>
  </div>","50","html-slider-response","15","161290","0.0-7.0-2.0","17","1","2025-07-30 08:38:59","36c45c0696341be0efffe67d72a12abb","212.69.57.202","Mozilla/5.0 (X11; CrOS x86_64 14541.0.0) AppleWebKit/537.36 (KHTML, like Gecko) Chrome/137.0.0.0 Safari/537.36","WebKit","Chrome","137.0.0.0","ChromeOS","14541.0.0","https://app.prolific.com/","en-GB,en;q=0.9","5d9a55cb01556d0013fa8369","683dba9a53627eb9ab41b36a","6889da0a66ae07a4534c335e","0","5d9a55cb01556d0013fa8369","0","2025-07-30T08:41:42.232Z","","","","ControlQ","","","","","","","","","","","50","","","","","","","","","","","","","","","","","","","","","","","","","","",""
"5221","","<div style=""width:500px;"">
  <p>How would you describe your current emotional state?</p>
  </div>","23","html-slider-response","16","166513","0.0-7.0-3.0","17","1","2025-07-30 08:38:59","36c45c0696341be0efffe67d72a12abb","212.69.57.202","Mozilla/5.0 (X11; CrOS x86_64 14541.0.0) AppleWebKit/537.36 (KHTML, like Gecko) Chrome/137.0.0.0 Safari/537.36","WebKit","Chrome","137.0.0.0","ChromeOS","14541.0.0","https://app.prolific.com/","en-GB,en;q=0.9","5d9a55cb01556d0013fa8369","683dba9a53627eb9ab41b36a","6889da0a66ae07a4534c335e","0","5d9a55cb01556d0013fa8369","0","2025-07-30T08:41:47.455Z","","","","StressQ","","","","","","","","","","","50","","","","","","","","","","","","","","","","","","","","","","","","","","",""
"3158","","<div style=""width:500px;"">
  <p>What best describes how you currently feel?</p>
  </div>","14","html-slider-response","17","169673","0.0-7.0-4.0","17","1","2025-07-30 08:38:59","36c45c0696341be0efffe67d72a12abb","212.69.57.202","Mozilla/5.0 (X11; CrOS x86_64 14541.0.0) AppleWebKit/537.36 (KHTML, like Gecko) Chrome/137.0.0.0 Safari/537.36","WebKit","Chrome","137.0.0.0","ChromeOS","14541.0.0","https://app.prolific.com/","en-GB,en;q=0.9","5d9a55cb01556d0013fa8369","683dba9a53627eb9ab41b36a","6889da0a66ae07a4534c335e","0","5d9a55cb01556d0013fa8369","0","2025-07-30T08:41:50.615Z","","","","MotivationQ","","","","","","","","","","","50","","","","","","","","","","","","","","","","","","","","","","","","","","",""
"","","","","ctl-task-cpt","18","193435","0.0-7.0-0.1","17","1","2025-07-30 08:38:59","36c45c0696341be0efffe67d72a12abb","212.69.57.202","Mozilla/5.0 (X11; CrOS x86_64 14541.0.0) AppleWebKit/537.36 (KHTML, like Gecko) Chrome/137.0.0.0 Safari/537.36","WebKit","Chrome","137.0.0.0","ChromeOS","14541.0.0","https://app.prolific.com/","en-GB,en;q=0.9","5d9a55cb01556d0013fa8369","683dba9a53627eb9ab41b36a","6889da0a66ae07a4534c335e","0","5d9a55cb01556d0013fa8369","0","2025-07-30T08:42:14.377Z","","","","","","","","","","","","","","","","win-only","3","g1:SW,g2:NE","0.9","2","0","171218.3","1096.2","6105.4","20738.2","1","4","4","6","2","4","4","5","1","0.03787878787878788","1909.6","3000","1250","[""up"",""right""]","{""num_key_presses"":6,""num_perfect"":6,""num_errors"":0,""num_randdir"":0,""num_randdir_good_moves"":0,""num_whilered"":0,""num_whileblue"":0,""num_blue"":0,""num_good_moves"":6}","[415.3214133126395,420.32142761775424,0.4,415.3214133126395,420.32142761775424,103.9,415.3214133126395,420.32142761775424,208.9,415.3214133126395,420.32142761775424,309.4,415.3214133126395,420.32142761775424,412.6,415.3214133126395,420.32142761775424,514.5,415.3214133126395,420.32142761775424,637.9,415.3214133126395,420.32142761775424,739.6,414.0714133126395,424.07142761775424,848.5,386.5714133126395,467.82142761775424,958.1,492.8214133126395,315.32142761775424,1071.7,519.0714133126395,287.82142761775424,1180.9,519.0714133126395,287.82142761775424,1285.5,519.0714133126395,287.82142761775424,1405.6,621.5714133126395,211.57142761775424,1510.2,765.3214133126395,104.07142761775425,1615.3,781.5714133126395,84.07142761775425,1721,780.3214133126395,81.57142761775425,1825.1,780.3214133126395,81.57142761775425,1949,780.3214133126395,81.57142761775425,2054.5,780.3214133126395,81.57142761775425,2155.2,919.0714133126395,54.07142761775425,2263.4,1000.3214133126395,79.07142761775425,2365.2,1015.3214133126395,80.32142761775425,2470.1,1015.3214133126395,80.32142761775425,2570.1,1015.3214133126395,80.32142761775425,2685.6,1015.3214133126395,80.32142761775425,2788.1,1015.3214133126395,80.32142761775425,2889.5,1015.3214133126395,80.32142761775425,2994,1015.3214133126395,80.32142761775425,3097.1,1015.3214133126395,80.32142761775425,3199.5,1015.3214133126395,80.32142761775425,3299.7,1015.3214133126395,80.32142761775425,3420.5,1015.3214133126395,80.32142761775425,3524.6,1015.3214133126395,80.32142761775425,3625.2,1015.3214133126395,80.32142761775425,3733.7,1015.3214133126395,80.32142761775425,3834.6,1015.3214133126395,80.32142761775425,3951,1015.3214133126395,80.32142761775425,4076.8,1015.3214133126395,80.32142761775425,4187.7,1015.3214133126395,80.32142761775425,4289.2,1015.3214133126395,80.32142761775425,4390.1,1015.3214133126395,80.32142761775425,4491.9,1015.3214133126395,80.32142761775425,4594.6,1015.3214133126395,80.32142761775425,4698.8,1015.3214133126395,80.32142761775425,4799.7,1015.3214133126395,80.32142761775425,4904.5]","[1361.5,1361.5,1000,0.1,361.4,""smooth"",""up"",""up"",""good_move"",4661.6,3299.1,2894.6,1362.5,404.5,""smooth"",""up"",""up"",""good_move"",6241.8,1579.5,935.1,4662.4,644.3,""smooth"",""up"",""up"",""good_move"",9060.2,2818.1,2452.1,6242.1,366,""smooth"",""right"",""right"",""good_move"",12162.3,3101.7,2710.8,9060.6,390.9,""smooth"",""right"",""right"",""good_move"",14511.2,2347.1,1995.2,12164.1,351.9,""smooth"",""right"",""right"",""good_move""]"
"5489","","<div style=""width:500px;"">
  <p>What determined the result of this run?</p>
  </div>","50","html-slider-response","19","198928","0.0-7.0-1.1","17","1","2025-07-30 08:38:59","36c45c0696341be0efffe67d72a12abb","212.69.57.202","Mozilla/5.0 (X11; CrOS x86_64 14541.0.0) AppleWebKit/537.36 (KHTML, like Gecko) Chrome/137.0.0.0 Safari/537.36","WebKit","Chrome","137.0.0.0","ChromeOS","14541.0.0","https://app.prolific.com/","en-GB,en;q=0.9","5d9a55cb01556d0013fa8369","683dba9a53627eb9ab41b36a","6889da0a66ae07a4534c335e","0","5d9a55cb01556d0013fa8369","0","2025-07-30T08:42:19.870Z","","","","AttribQ","","","","","","","","","","","50","","","","","","","","","","","","","","","","","","","","","","","","","","",""
"1862","","<div style=""width:500px;"">
  <p>How much control did you have over the ball?</p>
  </div>","50","html-slider-response","20","200792","0.0-7.0-2.1","17","1","2025-07-30 08:38:59","36c45c0696341be0efffe67d72a12abb","212.69.57.202","Mozilla/5.0 (X11; CrOS x86_64 14541.0.0) AppleWebKit/537.36 (KHTML, like Gecko) Chrome/137.0.0.0 Safari/537.36","WebKit","Chrome","137.0.0.0","ChromeOS","14541.0.0","https://app.prolific.com/","en-GB,en;q=0.9","5d9a55cb01556d0013fa8369","683dba9a53627eb9ab41b36a","6889da0a66ae07a4534c335e","0","5d9a55cb01556d0013fa8369","0","2025-07-30T08:42:21.734Z","","","","ControlQ","","","","","","","","","","","50","","","","","","","","","","","","","","","","","","","","","","","","","","",""
"3316","","<div style=""width:500px;"">
  <p>How would you describe your current emotional state?</p>
  </div>","30","html-slider-response","21","204110","0.0-7.0-3.1","17","1","2025-07-30 08:38:59","36c45c0696341be0efffe67d72a12abb","212.69.57.202","Mozilla/5.0 (X11; CrOS x86_64 14541.0.0) AppleWebKit/537.36 (KHTML, like Gecko) Chrome/137.0.0.0 Safari/537.36","WebKit","Chrome","137.0.0.0","ChromeOS","14541.0.0","https://app.prolific.com/","en-GB,en;q=0.9","5d9a55cb01556d0013fa8369","683dba9a53627eb9ab41b36a","6889da0a66ae07a4534c335e","0","5d9a55cb01556d0013fa8369","0","2025-07-30T08:42:25.053Z","","","","StressQ","","","","","","","","","","","50","","","","","","","","","","","","","","","","","","","","","","","","","","",""
"2237","","<div style=""width:500px;"">
  <p>What best describes how you currently feel?</p>
  </div>","27","html-slider-response","22","206350","0.0-7.0-4.1","17","1","2025-07-30 08:38:59","36c45c0696341be0efffe67d72a12abb","212.69.57.202","Mozilla/5.0 (X11; CrOS x86_64 14541.0.0) AppleWebKit/537.36 (KHTML, like Gecko) Chrome/137.0.0.0 Safari/537.36","WebKit","Chrome","137.0.0.0","ChromeOS","14541.0.0","https://app.prolific.com/","en-GB,en;q=0.9","5d9a55cb01556d0013fa8369","683dba9a53627eb9ab41b36a","6889da0a66ae07a4534c335e","0","5d9a55cb01556d0013fa8369","0","2025-07-30T08:42:27.292Z","","","","MotivationQ","","","","","","","","","","","50","","","","","","","","","","","","","","","","","","","","","","","","","","",""
"","","","","ctl-task-cpt","23","232648","0.0-7.0-0.2","17","1","2025-07-30 08:38:59","36c45c0696341be0efffe67d72a12abb","212.69.57.202","Mozilla/5.0 (X11; CrOS x86_64 14541.0.0) AppleWebKit/537.36 (KHTML, like Gecko) Chrome/137.0.0.0 Safari/537.36","WebKit","Chrome","137.0.0.0","ChromeOS","14541.0.0","https://app.prolific.com/","en-GB,en;q=0.9","5d9a55cb01556d0013fa8369","683dba9a53627eb9ab41b36a","6889da0a66ae07a4534c335e","0","5d9a55cb01556d0013fa8369","0","2025-07-30T08:42:53.590Z","","","","","","","","","","","","","","","","win-only","3","g1:SW,g2:NE","0.8","3","0","207897.7","1226.4","6237.9","23272.6","1","4","8","6","2","8","7","12","5","0.09090909090909091","947.3","3000","1600","[""up"",""right""]","{""num_key_presses"":6,""num_perfect"":5,""num_errors"":1,""num_randdir"":0,""num_randdir_good_moves"":0,""num_whilered"":0,""num_whileblue"":1,""num_blue"":1,""num_good_moves"":6}","[417.8214133126395,420.32142761775424,0.3,417.8214133126395,420.32142761775424,116.4,417.8214133126395,420.32142761775424,217.1,417.8214133126395,420.32142761775424,319.4,417.8214133126395,420.32142761775424,419.5,432.8214133126395,386.57142761775424,529.9,785.3214133126395,57.82142761775425,642.7,795.3214133126395,47.82142761775425,757,796.5714133126395,45.32142761775425,859.9,796.5714133126395,45.32142761775425,966.1,796.5714133126395,45.32142761775425,1070.2,796.5714133126395,45.32142761775425,1174.8,796.5714133126395,45.32142761775425,1303,962.8214133126395,26.571427617754253,1418.2,1001.5714133126395,50.32142761775425,1523.5,1001.5714133126395,50.32142761775425,1629.5,1001.5714133126395,50.32142761775425,1733.7,1001.5714133126395,50.32142761775425,1881,1001.5714133126395,50.32142761775425,1991.4,1001.5714133126395,50.32142761775425,2094.9,1001.5714133126395,50.32142761775425,2196.2,1001.5714133126395,50.32142761775425,2297.9,1001.5714133126395,50.32142761775425,2401,1001.5714133126395,50.32142761775425,2515,1001.5714133126395,50.32142761775425,2619.4,1001.5714133126395,50.32142761775425,2737.5,1001.5714133126395,50.32142761775425,2838.7,1001.5714133126395,50.32142761775425,2942.2,1001.5714133126395,50.32142761775425,3044.5,1001.5714133126395,50.32142761775425,3146,1001.5714133126395,50.32142761775425,3262.7,1001.5714133126395,50.32142761775425,3363.7,1001.5714133126395,50.32142761775425,3469.3,1001.5714133126395,50.32142761775425,3576.2,1001.5714133126395,50.32142761775425,3679.2,1001.5714133126395,50.32142761775425,3796.1,1001.5714133126395,50.32142761775425,3901.5,1001.5714133126395,50.32142761775425,4004.5,1001.5714133126395,50.32142761775425,4109.3,1001.5714133126395,50.32142761775425,4209.5,1001.5714133126395,50.32142761775425,4309.8,1001.5714133126395,50.32142761775425,4413.8,1001.5714133126395,50.32142761775425,4514.7,1001.5714133126395,50.32142761775425,4614.8,1001.5714133126395,50.32142761775425,4727.6,1001.5714133126395,50.32142761775425,4834.6,1001.5714133126395,50.32142761775425,4935.7]","[1396.2,1396.2,1000,0,396.2,""smooth"",""up"",""up"",""good_move"",4191.4,2794.5,2424.2,1396.9,370.3,""smooth"",""up"",""up"",""good_move"",7452.8,3260.8,2846.7,4192.1,414,""smooth"",""up"",""up"",""good_move"",11175.7,3721.2,3339.3,7454.5,381.9,""smooth"",""right"",""right"",""good_move"",14188.3,3011.8,2675,11176.5,336.8,""smooth"",""right"",""right"",""good_move"",16904.9,2715.8,2359,14189.1,356.8,""while_blue"",""right"",""right"",""good_move""]"
"3319","","<div style=""width:500px;"">
  <p>What determined the result of this run?</p>
  </div>","68","html-slider-response","24","235969","0.0-7.0-1.2","17","1","2025-07-30 08:38:59","36c45c0696341be0efffe67d72a12abb","212.69.57.202","Mozilla/5.0 (X11; CrOS x86_64 14541.0.0) AppleWebKit/537.36 (KHTML, like Gecko) Chrome/137.0.0.0 Safari/537.36","WebKit","Chrome","137.0.0.0","ChromeOS","14541.0.0","https://app.prolific.com/","en-GB,en;q=0.9","5d9a55cb01556d0013fa8369","683dba9a53627eb9ab41b36a","6889da0a66ae07a4534c335e","0","5d9a55cb01556d0013fa8369","0","2025-07-30T08:42:56.911Z","","","","AttribQ","","","","","","","","","","","50","","","","","","","","","","","","","","","","","","","","","","","","","","",""
"3087","","<div style=""width:500px;"">
  <p>How much control did you have over the ball?</p>
  </div>","69","html-slider-response","25","239057","0.0-7.0-2.2","17","1","2025-07-30 08:38:59","36c45c0696341be0efffe67d72a12abb","212.69.57.202","Mozilla/5.0 (X11; CrOS x86_64 14541.0.0) AppleWebKit/537.36 (KHTML, like Gecko) Chrome/137.0.0.0 Safari/537.36","WebKit","Chrome","137.0.0.0","ChromeOS","14541.0.0","https://app.prolific.com/","en-GB,en;q=0.9","5d9a55cb01556d0013fa8369","683dba9a53627eb9ab41b36a","6889da0a66ae07a4534c335e","0","5d9a55cb01556d0013fa8369","0","2025-07-30T08:43:00.000Z","","","","ControlQ","","","","","","","","","","","50","","","","","","","","","","","","","","","","","","","","","","","","","","",""
"2211","","<div style=""width:500px;"">
  <p>How would you describe your current emotional state?</p>
  </div>","22","html-slider-response","26","241270","0.0-7.0-3.2","17","1","2025-07-30 08:38:59","36c45c0696341be0efffe67d72a12abb","212.69.57.202","Mozilla/5.0 (X11; CrOS x86_64 14541.0.0) AppleWebKit/537.36 (KHTML, like Gecko) Chrome/137.0.0.0 Safari/537.36","WebKit","Chrome","137.0.0.0","ChromeOS","14541.0.0","https://app.prolific.com/","en-GB,en;q=0.9","5d9a55cb01556d0013fa8369","683dba9a53627eb9ab41b36a","6889da0a66ae07a4534c335e","0","5d9a55cb01556d0013fa8369","0","2025-07-30T08:43:02.212Z","","","","StressQ","","","","","","","","","","","50","","","","","","","","","","","","","","","","","","","","","","","","","","",""
"2321","","<div style=""width:500px;"">
  <p>What best describes how you currently feel?</p>
  </div>","20","html-slider-response","27","243594","0.0-7.0-4.2","17","1","2025-07-30 08:38:59","36c45c0696341be0efffe67d72a12abb","212.69.57.202","Mozilla/5.0 (X11; CrOS x86_64 14541.0.0) AppleWebKit/537.36 (KHTML, like Gecko) Chrome/137.0.0.0 Safari/537.36","WebKit","Chrome","137.0.0.0","ChromeOS","14541.0.0","https://app.prolific.com/","en-GB,en;q=0.9","5d9a55cb01556d0013fa8369","683dba9a53627eb9ab41b36a","6889da0a66ae07a4534c335e","0","5d9a55cb01556d0013fa8369","0","2025-07-30T08:43:04.536Z","","","","MotivationQ","","","","","","","","","","","50","","","","","","","","","","","","","","","","","","","","","","","","","","",""
"","","","","ctl-task-cpt","28","275847","0.0-7.0-0.3","17","1","2025-07-30 08:38:59","36c45c0696341be0efffe67d72a12abb","212.69.57.202","Mozilla/5.0 (X11; CrOS x86_64 14541.0.0) AppleWebKit/537.36 (KHTML, like Gecko) Chrome/137.0.0.0 Safari/537.36","WebKit","Chrome","137.0.0.0","ChromeOS","14541.0.0","https://app.prolific.com/","en-GB,en;q=0.9","5d9a55cb01556d0013fa8369","683dba9a53627eb9ab41b36a","6889da0a66ae07a4534c335e","0","5d9a55cb01556d0013fa8369","0","2025-07-30T08:43:36.789Z","","","","","","","","","","","","","","","","win-only","1","g1:NE,g2:SW","0.7","4","0","245141.8","1480.8","6481.3","29239.8","1","4","4","6","2","4","4","16","12","0.12121212121212122","1424.4","3000","1355","[""down"",""left""]","{""num_key_presses"":6,""num_perfect"":6,""num_errors"":0,""num_randdir"":0,""num_randdir_good_moves"":0,""num_whilered"":0,""num_whileblue"":0,""num_blue"":2,""num_good_moves"":6}","[414.0714133126395,407.82142761775424,0.4,414.0714133126395,407.82142761775424,121.7,414.0714133126395,407.82142761775424,227.5,414.0714133126395,407.82142761775424,329.7,414.0714133126395,407.82142761775424,430.5,414.0714133126395,407.82142761775424,535.6,414.0714133126395,407.82142761775424,637.6,414.0714133126395,407.82142761775424,749.9,414.0714133126395,407.82142761775424,853,310.3214133126395,519.0714276177542,954.7,130.3214133126395,722.8214276177542,1074.3,95.3214133126395,770.3214276177542,1179,94.0714133126395,770.3214276177542,1280.1,94.0714133126395,770.3214276177542,1388.9,94.0714133126395,770.3214276177542,1510.1,94.0714133126395,770.3214276177542,1610.9,94.0714133126395,770.3214276177542,1729.8,94.0714133126395,770.3214276177542,1830,-288.4285866873605,692.8214276177542,1937.2,-325.9285866873605,664.0714276177542,2046.7,-325.9285866873605,664.0714276177542,2151.2,-325.9285866873605,664.0714276177542,2258.9,-325.9285866873605,664.0714276177542,2360,-325.9285866873605,664.0714276177542,2464.8,-325.9285866873605,664.0714276177542,2567.5,-325.9285866873605,664.0714276177542,2677.9,-325.9285866873605,664.0714276177542,2780.6,-325.9285866873605,664.0714276177542,2880.9,-325.9285866873605,664.0714276177542,2989.3,-325.9285866873605,664.0714276177542,3118,-325.9285866873605,664.0714276177542,3224.7,-325.9285866873605,664.0714276177542,3324.9,-325.9285866873605,664.0714276177542,3433.5,-325.9285866873605,664.0714276177542,3533.6,-325.9285866873605,664.0714276177542,3637,-325.9285866873605,664.0714276177542,3740.6,-325.9285866873605,664.0714276177542,3846.4,-325.9285866873605,664.0714276177542,3946.8,-325.9285866873605,664.0714276177542,4048.4,-325.9285866873605,664.0714276177542,4164.4,-325.9285866873605,664.0714276177542,4265.3,-325.9285866873605,664.0714276177542,4369.8,-325.9285866873605,664.0714276177542,4478.7,-325.9285866873605,664.0714276177542,4579,-325.9285866873605,664.0714276177542,4692.9,-325.9285866873605,664.0714276177542,4795.8,-325.9285866873605,664.0714276177542,4897]","[1395.2,1395.2,1000,0,395.2,""smooth"",""down"",""down"",""good_move"",8850.7,7454.5,2770.7,5754.1,325.9,""smooth"",""down"",""down"",""good_move"",11168.9,2316.1,1848.6,8852.8,467.5,""smooth"",""down"",""down"",""good_move"",17921.3,6752.1,2611.6,14924.8,384.9,""smooth"",""left"",""left"",""good_move"",19765.9,1844.2,1251.2,17921.7,593,""smooth"",""left"",""left"",""good_move"",22571.9,2805.7,2352.7,19766.2,453,""smooth"",""left"",""left"",""good_move""]"
"3896","","<div style=""width:500px;"">
  <p>What determined the result of this run?</p>
  </div>","77","html-slider-response","29","279745","0.0-7.0-1.3","17","1","2025-07-30 08:38:59","36c45c0696341be0efffe67d72a12abb","212.69.57.202","Mozilla/5.0 (X11; CrOS x86_64 14541.0.0) AppleWebKit/537.36 (KHTML, like Gecko) Chrome/137.0.0.0 Safari/537.36","WebKit","Chrome","137.0.0.0","ChromeOS","14541.0.0","https://app.prolific.com/","en-GB,en;q=0.9","5d9a55cb01556d0013fa8369","683dba9a53627eb9ab41b36a","6889da0a66ae07a4534c335e","0","5d9a55cb01556d0013fa8369","0","2025-07-30T08:43:40.687Z","","","","AttribQ","","","","","","","","","","","50","","","","","","","","","","","","","","","","","","","","","","","","","","",""
"2917","","<div style=""width:500px;"">
  <p>How much control did you have over the ball?</p>
  </div>","75","html-slider-response","30","282663","0.0-7.0-2.3","17","1","2025-07-30 08:38:59","36c45c0696341be0efffe67d72a12abb","212.69.57.202","Mozilla/5.0 (X11; CrOS x86_64 14541.0.0) AppleWebKit/537.36 (KHTML, like Gecko) Chrome/137.0.0.0 Safari/537.36","WebKit","Chrome","137.0.0.0","ChromeOS","14541.0.0","https://app.prolific.com/","en-GB,en;q=0.9","5d9a55cb01556d0013fa8369","683dba9a53627eb9ab41b36a","6889da0a66ae07a4534c335e","0","5d9a55cb01556d0013fa8369","0","2025-07-30T08:43:43.606Z","","","","ControlQ","","","","","","","","","","","50","","","","","","","","","","","","","","","","","","","","","","","","","","",""
"2411","","<div style=""width:500px;"">
  <p>How would you describe your current emotional state?</p>
  </div>","24","html-slider-response","31","285077","0.0-7.0-3.3","17","1","2025-07-30 08:38:59","36c45c0696341be0efffe67d72a12abb","212.69.57.202","Mozilla/5.0 (X11; CrOS x86_64 14541.0.0) AppleWebKit/537.36 (KHTML, like Gecko) Chrome/137.0.0.0 Safari/537.36","WebKit","Chrome","137.0.0.0","ChromeOS","14541.0.0","https://app.prolific.com/","en-GB,en;q=0.9","5d9a55cb01556d0013fa8369","683dba9a53627eb9ab41b36a","6889da0a66ae07a4534c335e","0","5d9a55cb01556d0013fa8369","0","2025-07-30T08:43:46.020Z","","","","StressQ","","","","","","","","","","","50","","","","","","","","","","","","","","","","","","","","","","","","","","",""
"2499","","<div style=""width:500px;"">
  <p>What best describes how you currently feel?</p>
  </div>","19","html-slider-response","32","287579","0.0-7.0-4.3","17","1","2025-07-30 08:38:59","36c45c0696341be0efffe67d72a12abb","212.69.57.202","Mozilla/5.0 (X11; CrOS x86_64 14541.0.0) AppleWebKit/537.36 (KHTML, like Gecko) Chrome/137.0.0.0 Safari/537.36","WebKit","Chrome","137.0.0.0","ChromeOS","14541.0.0","https://app.prolific.com/","en-GB,en;q=0.9","5d9a55cb01556d0013fa8369","683dba9a53627eb9ab41b36a","6889da0a66ae07a4534c335e","0","5d9a55cb01556d0013fa8369","0","2025-07-30T08:43:48.521Z","","","","MotivationQ","","","","","","","","","","","50","","","","","","","","","","","","","","","","","","","","","","","","","","",""
"","","","","ctl-task-cpt","33","334801","0.0-7.0-0.4","17","1","2025-07-30 08:38:59","36c45c0696341be0efffe67d72a12abb","212.69.57.202","Mozilla/5.0 (X11; CrOS x86_64 14541.0.0) AppleWebKit/537.36 (KHTML, like Gecko) Chrome/137.0.0.0 Safari/537.36","WebKit","Chrome","137.0.0.0","ChromeOS","14541.0.0","https://app.prolific.com/","en-GB,en;q=0.9","5d9a55cb01556d0013fa8369","683dba9a53627eb9ab41b36a","6889da0a66ae07a4534c335e","0","5d9a55cb01556d0013fa8369","0","2025-07-30T08:44:35.744Z","","","","","","","","","","","","","","","","win-only","2","g1:SE,g2:NW","0.6","5","0","289126.2","1391.7","6404.8","44191.9","1","4","4","6","2","-4","-4","12","16","0.09090909090909091","1630.6","3000","-1860","[""left"",""up""]","{""num_key_presses"":10,""num_perfect"":6,""num_errors"":0,""num_randdir"":4,""num_randdir_good_moves"":1,""num_whilered"":0,""num_whileblue"":0,""num_blue"":2,""num_good_moves"":7}","[424.0714133126395,426.57142761775424,0.5,424.0714133126395,426.57142761775424,108.1,424.0714133126395,426.57142761775424,216.5,424.0714133126395,426.57142761775424,318,424.0714133126395,426.57142761775424,437.3,424.0714133126395,426.57142761775424,541.5,424.0714133126395,426.57142761775424,649.9,424.0714133126395,426.57142761775424,754.8,424.0714133126395,426.57142761775424,861.7,222.8214133126395,279.07142761775424,976.7,155.3214133126395,204.07142761775424,1085.3,131.5714133126395,167.82142761775424,1185.8,130.3214133126395,165.32142761775424,1286.2,110.3214133126395,106.57142761775425,1387.1,105.3214133126395,94.07142761775425,1534.8,105.3214133126395,94.07142761775425,1653,105.3214133126395,94.07142761775425,1775.9,105.3214133126395,94.07142761775425,1877.7,105.3214133126395,94.07142761775425,1983.3,105.3214133126395,94.07142761775425,2089.7,105.3214133126395,94.07142761775425,2192,105.3214133126395,94.07142761775425,2294.3,105.3214133126395,94.07142761775425,2396.2,105.3214133126395,94.07142761775425,2501,127.8214133126395,-59.67857238224575,2637.7,129.0714133126395,-63.42857238224575,2743.5,129.0714133126395,-63.42857238224575,2846,129.0714133126395,-63.42857238224575,2947.8,129.0714133126395,-63.42857238224575,3056.6,129.0714133126395,-63.42857238224575,3161.1,129.0714133126395,-63.42857238224575,3271.3,129.0714133126395,-63.42857238224575,3376.7,129.0714133126395,-63.42857238224575,3484.9,129.0714133126395,-63.42857238224575,3585.6,129.0714133126395,-63.42857238224575,3691.8,129.0714133126395,-63.42857238224575,3792.4,129.0714133126395,-63.42857238224575,3901.3,129.0714133126395,-63.42857238224575,4006.6,129.0714133126395,-63.42857238224575,4113.2,129.0714133126395,-63.42857238224575,4224.4,129.0714133126395,-63.42857238224575,4335,129.0714133126395,-63.42857238224575,4436.5,129.0714133126395,-63.42857238224575,4541,129.0714133126395,-63.42857238224575,4644.6,129.0714133126395,-63.42857238224575,4751.5,129.0714133126395,-63.42857238224575,4859.1,129.0714133126395,-63.42857238224575,4959.7]","[1556.4,1556.4,1000,0,556.4,""smooth"",""up"",""up"",""good_move"",4652.1,3095,2655.1,1557.1,439.9,""smooth"",""up"",""up"",""good_move"",7254.8,2600.6,2179.9,4654.2,420.7,""oops"",""up"",""down"",""bad_move"",10922.6,3665.7,3313,7256.9,352.7,""smooth"",""left"",""left"",""good_move"",14146.1,3222.3,2778.6,10923.8,443.7,""smooth"",""left"",""left"",""good_move"",16901.4,2753.5,2234.8,14147.9,518.7,""smooth"",""left"",""left"",""good_move"",19556.1,2654,2252.8,16902.3,401,""smooth"",""up"",""up"",""good_move"",26079.4,6521.3,2289.8,23361.7,427.9,""oops"",""up"",""down"",""bad_move"",28479.7,2398.4,1700.6,26081.3,697.8,""oops"",""up"",""down"",""bad_move"",31064.5,2581.4,1815.4,28483.2,766,""oops"",""up"",""up"",""good_move""]"
"3355","","<div style=""width:500px;"">
  <p>What determined the result of this run?</p>
  </div>","0","html-slider-response","34","338159","0.0-7.0-1.4","17","1","2025-07-30 08:38:59","36c45c0696341be0efffe67d72a12abb","212.69.57.202","Mozilla/5.0 (X11; CrOS x86_64 14541.0.0) AppleWebKit/537.36 (KHTML, like Gecko) Chrome/137.0.0.0 Safari/537.36","WebKit","Chrome","137.0.0.0","ChromeOS","14541.0.0","https://app.prolific.com/","en-GB,en;q=0.9","5d9a55cb01556d0013fa8369","683dba9a53627eb9ab41b36a","6889da0a66ae07a4534c335e","0","5d9a55cb01556d0013fa8369","0","2025-07-30T08:44:39.101Z","","","","AttribQ","","","","","","","","","","","50","","","","","","","","","","","","","","","","","","","","","","","","","","",""
"3327","","<div style=""width:500px;"">
  <p>How much control did you have over the ball?</p>
  </div>","0","html-slider-response","35","341488","0.0-7.0-2.4","17","1","2025-07-30 08:38:59","36c45c0696341be0efffe67d72a12abb","212.69.57.202","Mozilla/5.0 (X11; CrOS x86_64 14541.0.0) AppleWebKit/537.36 (KHTML, like Gecko) Chrome/137.0.0.0 Safari/537.36","WebKit","Chrome","137.0.0.0","ChromeOS","14541.0.0","https://app.prolific.com/","en-GB,en;q=0.9","5d9a55cb01556d0013fa8369","683dba9a53627eb9ab41b36a","6889da0a66ae07a4534c335e","0","5d9a55cb01556d0013fa8369","0","2025-07-30T08:44:42.430Z","","","","ControlQ","","","","","","","","","","","50","","","","","","","","","","","","","","","","","","","","","","","","","","",""
"2950","","<div style=""width:500px;"">
  <p>How would you describe your current emotional state?</p>
  </div>","17","html-slider-response","36","344441","0.0-7.0-3.4","17","1","2025-07-30 08:38:59","36c45c0696341be0efffe67d72a12abb","212.69.57.202","Mozilla/5.0 (X11; CrOS x86_64 14541.0.0) AppleWebKit/537.36 (KHTML, like Gecko) Chrome/137.0.0.0 Safari/537.36","WebKit","Chrome","137.0.0.0","ChromeOS","14541.0.0","https://app.prolific.com/","en-GB,en;q=0.9","5d9a55cb01556d0013fa8369","683dba9a53627eb9ab41b36a","6889da0a66ae07a4534c335e","0","5d9a55cb01556d0013fa8369","0","2025-07-30T08:44:45.383Z","","","","StressQ","","","","","","","","","","","50","","","","","","","","","","","","","","","","","","","","","","","","","","",""
"2666","","<div style=""width:500px;"">
  <p>What best describes how you currently feel?</p>
  </div>","12","html-slider-response","37","347109","0.0-7.0-4.4","17","1","2025-07-30 08:38:59","36c45c0696341be0efffe67d72a12abb","212.69.57.202","Mozilla/5.0 (X11; CrOS x86_64 14541.0.0) AppleWebKit/537.36 (KHTML, like Gecko) Chrome/137.0.0.0 Safari/537.36","WebKit","Chrome","137.0.0.0","ChromeOS","14541.0.0","https://app.prolific.com/","en-GB,en;q=0.9","5d9a55cb01556d0013fa8369","683dba9a53627eb9ab41b36a","6889da0a66ae07a4534c335e","0","5d9a55cb01556d0013fa8369","0","2025-07-30T08:44:48.051Z","","","","MotivationQ","","","","","","","","","","","50","","","","","","","","","","","","","","","","","","","","","","","","","","",""
"","","","","ctl-task-cpt","38","381085","0.0-7.0-0.5","17","1","2025-07-30 08:38:59","36c45c0696341be0efffe67d72a12abb","212.69.57.202","Mozilla/5.0 (X11; CrOS x86_64 14541.0.0) AppleWebKit/537.36 (KHTML, like Gecko) Chrome/137.0.0.0 Safari/537.36","WebKit","Chrome","137.0.0.0","ChromeOS","14541.0.0","https://app.prolific.com/","en-GB,en;q=0.9","5d9a55cb01556d0013fa8369","683dba9a53627eb9ab41b36a","6889da0a66ae07a4534c335e","0","5d9a55cb01556d0013fa8369","0","2025-07-30T08:45:22.027Z","","","","","","","","","","","","","","","","win-only","2","g1:SE,g2:NW","0.5","6","0","348656.1","1454.7","6463","30960.5","1","4","8","6","1","1","1","13","12","0.09848484848484848","1375","3000","1380","[""down"",""right""]","{""num_key_presses"":8,""num_perfect"":4,""num_errors"":0,""num_randdir"":4,""num_randdir_good_moves"":2,""num_whilered"":0,""num_whileblue"":0,""num_blue"":1,""num_good_moves"":6}","[416.5714133126395,414.07142761775424,0.7,416.5714133126395,414.07142761775424,112,416.5714133126395,414.07142761775424,215.7,416.5714133126395,414.07142761775424,318.9,416.5714133126395,414.07142761775424,420.9,416.5714133126395,414.07142761775424,522.1,416.5714133126395,414.07142761775424,628.1,416.5714133126395,414.07142761775424,730.2,657.8214133126395,585.3214276177542,847.8,774.0714133126395,706.5714276177542,949.3,774.0714133126395,706.5714276177542,1055.5,777.8214133126395,714.0714276177542,1159.8,777.8214133126395,724.0714276177542,1272.7,777.8214133126395,726.5714276177542,1401.1,777.8214133126395,726.5714276177542,1515.6,777.8214133126395,726.5714276177542,1626.1,777.8214133126395,726.5714276177542,1733.4,1052.8214133126396,686.5714276177542,1833.7,1061.5714133126396,690.3214276177542,1943.6,1061.5714133126396,690.3214276177542,2048.3,1061.5714133126396,690.3214276177542,2160.8,1061.5714133126396,690.3214276177542,2261,1061.5714133126396,690.3214276177542,2365.6,1061.5714133126396,690.3214276177542,2487.7,1061.5714133126396,690.3214276177542,2594.6,1061.5714133126396,690.3214276177542,2698.4,1061.5714133126396,690.3214276177542,2808,1061.5714133126396,690.3214276177542,2931.9,1061.5714133126396,690.3214276177542,3033.6,1061.5714133126396,690.3214276177542,3139,1061.5714133126396,690.3214276177542,3247.7,1061.5714133126396,690.3214276177542,3350,1061.5714133126396,690.3214276177542,3455,1061.5714133126396,690.3214276177542,3560.3,1061.5714133126396,690.3214276177542,3661.2,1061.5714133126396,690.3214276177542,3765.7,1061.5714133126396,690.3214276177542,3867.6,1061.5714133126396,690.3214276177542,3982.2,1061.5714133126396,690.3214276177542,4087.4,1061.5714133126396,690.3214276177542,4204.9,1061.5714133126396,690.3214276177542,4308.4,1061.5714133126396,690.3214276177542,4409.6,1061.5714133126396,690.3214276177542,4510.2,1061.5714133126396,690.3214276177542,4626.3,1061.5714133126396,690.3214276177542,4729,1061.5714133126396,690.3214276177542,4832.1,1061.5714133126396,690.3214276177542,4946.5]","[1448.9,1448.9,1000,0,448.9,""oops"",""down"",""down"",""good_move"",4759.3,3292.1,2830.1,1467.2,462,""oops"",""down"",""up"",""bad_move"",7730.3,2959.2,2535.5,4771.1,423.7,""smooth"",""right"",""right"",""good_move"",9792.4,2059.1,1706.1,7733.3,353,""oops"",""down"",""right"",""good_move"",12836.8,3044,2600.3,9792.8,443.7,""smooth"",""down"",""down"",""good_move"",14961.7,2124.1,1762.9,12837.7,361.2,""oops"",""down"",""left"",""bad_move"",17841.8,2878.1,2491.6,14963.7,386.5,""smooth"",""down"",""down"",""good_move"",24300,6457.4,2591.7,21281.7,426.6,""smooth"",""right"",""right"",""good_move""]"
"7531","","<div style=""width:500px;"">
  <p>What determined the result of this run?</p>
  </div>","0","html-slider-response","39","388618","0.0-7.0-1.5","17","1","2025-07-30 08:38:59","36c45c0696341be0efffe67d72a12abb","212.69.57.202","Mozilla/5.0 (X11; CrOS x86_64 14541.0.0) AppleWebKit/537.36 (KHTML, like Gecko) Chrome/137.0.0.0 Safari/537.36","WebKit","Chrome","137.0.0.0","ChromeOS","14541.0.0","https://app.prolific.com/","en-GB,en;q=0.9","5d9a55cb01556d0013fa8369","683dba9a53627eb9ab41b36a","6889da0a66ae07a4534c335e","0","5d9a55cb01556d0013fa8369","0","2025-07-30T08:45:29.560Z","","","","AttribQ","","","","","","","","","","","50","","","","","","","","","","","","","","","","","","","","","","","","","","",""
"2239","","<div style=""width:500px;"">
  <p>How much control did you have over the ball?</p>
  </div>","0","html-slider-response","40","390860","0.0-7.0-2.5","17","1","2025-07-30 08:38:59","36c45c0696341be0efffe67d72a12abb","212.69.57.202","Mozilla/5.0 (X11; CrOS x86_64 14541.0.0) AppleWebKit/537.36 (KHTML, like Gecko) Chrome/137.0.0.0 Safari/537.36","WebKit","Chrome","137.0.0.0","ChromeOS","14541.0.0","https://app.prolific.com/","en-GB,en;q=0.9","5d9a55cb01556d0013fa8369","683dba9a53627eb9ab41b36a","6889da0a66ae07a4534c335e","0","5d9a55cb01556d0013fa8369","0","2025-07-30T08:45:31.802Z","","","","ControlQ","","","","","","","","","","","50","","","","","","","","","","","","","","","","","","","","","","","","","","",""
"3528","","<div style=""width:500px;"">
  <p>How would you describe your current emotional state?</p>
  </div>","12","html-slider-response","41","394389","0.0-7.0-3.5","17","1","2025-07-30 08:38:59","36c45c0696341be0efffe67d72a12abb","212.69.57.202","Mozilla/5.0 (X11; CrOS x86_64 14541.0.0) AppleWebKit/537.36 (KHTML, like Gecko) Chrome/137.0.0.0 Safari/537.36","WebKit","Chrome","137.0.0.0","ChromeOS","14541.0.0","https://app.prolific.com/","en-GB,en;q=0.9","5d9a55cb01556d0013fa8369","683dba9a53627eb9ab41b36a","6889da0a66ae07a4534c335e","0","5d9a55cb01556d0013fa8369","0","2025-07-30T08:45:35.331Z","","","","StressQ","","","","","","","","","","","50","","","","","","","","","","","","","","","","","","","","","","","","","","",""
"2739","","<div style=""width:500px;"">
  <p>What best describes how you currently feel?</p>
  </div>","11","html-slider-response","42","397130","0.0-7.0-4.5","17","1","2025-07-30 08:38:59","36c45c0696341be0efffe67d72a12abb","212.69.57.202","Mozilla/5.0 (X11; CrOS x86_64 14541.0.0) AppleWebKit/537.36 (KHTML, like Gecko) Chrome/137.0.0.0 Safari/537.36","WebKit","Chrome","137.0.0.0","ChromeOS","14541.0.0","https://app.prolific.com/","en-GB,en;q=0.9","5d9a55cb01556d0013fa8369","683dba9a53627eb9ab41b36a","6889da0a66ae07a4534c335e","0","5d9a55cb01556d0013fa8369","0","2025-07-30T08:45:38.072Z","","","","MotivationQ","","","","","","","","","","","50","","","","","","","","","","","","","","","","","","","","","","","","","","",""
"","","","","ctl-task-cpt","43","442027","0.0-7.0-0.6","17","1","2025-07-30 08:38:59","36c45c0696341be0efffe67d72a12abb","212.69.57.202","Mozilla/5.0 (X11; CrOS x86_64 14541.0.0) AppleWebKit/537.36 (KHTML, like Gecko) Chrome/137.0.0.0 Safari/537.36","WebKit","Chrome","137.0.0.0","ChromeOS","14541.0.0","https://app.prolific.com/","en-GB,en;q=0.9","5d9a55cb01556d0013fa8369","683dba9a53627eb9ab41b36a","6889da0a66ae07a4534c335e","0","5d9a55cb01556d0013fa8369","0","2025-07-30T08:46:22.969Z","","","","","","","","","","","","","","","","win-only","3","g1:SW,g2:NE","0.4","7","0","398676.8","1224.6","6231.3","41878.5","1","4","8","6","1","-1","-1","12","13","0.09090909090909091","1466.8","3000","-1615","[""down"",""left""]","{""num_key_presses"":10,""num_perfect"":4,""num_errors"":0,""num_randdir"":6,""num_randdir_good_moves"":2,""num_whilered"":0,""num_whileblue"":0,""num_blue"":1,""num_good_moves"":6}","[415.3214133126395,422.82142761775424,0.8,415.3214133126395,422.82142761775424,104.2,415.3214133126395,422.82142761775424,206.4,415.3214133126395,422.82142761775424,307.2,415.3214133126395,422.82142761775424,417.2,415.3214133126395,422.82142761775424,518.3,415.3214133126395,422.82142761775424,621.3,415.3214133126395,422.82142761775424,726.5,415.3214133126395,422.82142761775424,835.4,259.0714133126395,554.0714276177542,939.5,201.5714133126395,621.5714276177542,1050.1,169.0714133126395,681.5714276177542,1151.6,90.3214133126395,755.3214276177542,1251.6,66.5714133126395,774.0714276177542,1355.3,65.3214133126395,774.0714276177542,1457.4,65.3214133126395,774.0714276177542,1561.8,65.3214133126395,774.0714276177542,1664.3,65.3214133126395,774.0714276177542,1769.9,-130.9285866873605,779.0714276177542,1874.7,-155.9285866873605,772.8214276177542,1983.3,-159.6785866873605,771.5714276177542,2099.1,-159.6785866873605,771.5714276177542,2199.9,-159.6785866873605,771.5714276177542,2308.6,-159.6785866873605,771.5714276177542,2415.9,-159.6785866873605,771.5714276177542,2518.7,-159.6785866873605,771.5714276177542,2625,-159.6785866873605,771.5714276177542,2725.9,-159.6785866873605,771.5714276177542,2831.6,-159.6785866873605,771.5714276177542,2938.7,-159.6785866873605,771.5714276177542,3047.8,-159.6785866873605,771.5714276177542,3150.3,-159.6785866873605,771.5714276177542,3256.3,-159.6785866873605,771.5714276177542,3364,-159.6785866873605,771.5714276177542,3464.4,-159.6785866873605,771.5714276177542,3576.2,-159.6785866873605,771.5714276177542,3680.7,-159.6785866873605,771.5714276177542,3781.7,-159.6785866873605,771.5714276177542,3884.8,-159.6785866873605,771.5714276177542,3991.4,-159.6785866873605,771.5714276177542,4097.9,-159.6785866873605,771.5714276177542,4203.6,-159.6785866873605,771.5714276177542,4304.5,-159.6785866873605,771.5714276177542,4409.4,-159.6785866873605,771.5714276177542,4517,-159.6785866873605,771.5714276177542,4622.7,-159.6785866873605,771.5714276177542,4725.1,-159.6785866873605,771.5714276177542,4827.9,-159.6785866873605,771.5714276177542,4928.6]","[1559.6,1559.6,1000,0,559.6,""smooth"",""down"",""down"",""good_move"",4558.4,2998.4,2533.8,1560.1,464.6,""smooth"",""down"",""down"",""good_move"",7510,2951.1,2397,4559,554,""oops"",""left"",""up"",""bad_move"",10201.2,2690.5,2035.8,7510.7,654.7,""oops"",""left"",""up"",""bad_move"",14135.4,3933.6,3263.2,10201.9,670.3,""smooth"",""left"",""left"",""good_move"",17417,3280.8,2698.7,14136.2,582.1,""oops"",""left"",""right"",""bad_move"",20555.6,3137.7,2738.2,17417.9,399.6,""smooth"",""down"",""down"",""good_move"",23609.7,3053.5,2646.3,20556.2,407.2,""oops"",""down"",""left"",""good_move"",29745.6,6135.5,1879.4,27508.6,357.6,""oops"",""down"",""up"",""bad_move"",33274.3,3528,2798.4,29746.3,729.6,""oops"",""left"",""down"",""good_move""]"
"4099","","<div style=""width:500px;"">
  <p>What determined the result of this run?</p>
  </div>","0","html-slider-response","44","446129","0.0-7.0-1.6","17","1","2025-07-30 08:38:59","36c45c0696341be0efffe67d72a12abb","212.69.57.202","Mozilla/5.0 (X11; CrOS x86_64 14541.0.0) AppleWebKit/537.36 (KHTML, like Gecko) Chrome/137.0.0.0 Safari/537.36","WebKit","Chrome","137.0.0.0","ChromeOS","14541.0.0","https://app.prolific.com/","en-GB,en;q=0.9","5d9a55cb01556d0013fa8369","683dba9a53627eb9ab41b36a","6889da0a66ae07a4534c335e","0","5d9a55cb01556d0013fa8369","0","2025-07-30T08:46:27.071Z","","","","AttribQ","","","","","","","","","","","50","","","","","","","","","","","","","","","","","","","","","","","","","","",""
"3437","","<div style=""width:500px;"">
  <p>How much control did you have over the ball?</p>
  </div>","1","html-slider-response","45","449568","0.0-7.0-2.6","17","1","2025-07-30 08:38:59","36c45c0696341be0efffe67d72a12abb","212.69.57.202","Mozilla/5.0 (X11; CrOS x86_64 14541.0.0) AppleWebKit/537.36 (KHTML, like Gecko) Chrome/137.0.0.0 Safari/537.36","WebKit","Chrome","137.0.0.0","ChromeOS","14541.0.0","https://app.prolific.com/","en-GB,en;q=0.9","5d9a55cb01556d0013fa8369","683dba9a53627eb9ab41b36a","6889da0a66ae07a4534c335e","0","5d9a55cb01556d0013fa8369","0","2025-07-30T08:46:30.510Z","","","","ControlQ","","","","","","","","","","","50","","","","","","","","","","","","","","","","","","","","","","","","","","",""
"2331","","<div style=""width:500px;"">
  <p>How would you describe your current emotional state?</p>
  </div>","21","html-slider-response","46","451901","0.0-7.0-3.6","17","1","2025-07-30 08:38:59","36c45c0696341be0efffe67d72a12abb","212.69.57.202","Mozilla/5.0 (X11; CrOS x86_64 14541.0.0) AppleWebKit/537.36 (KHTML, like Gecko) Chrome/137.0.0.0 Safari/537.36","WebKit","Chrome","137.0.0.0","ChromeOS","14541.0.0","https://app.prolific.com/","en-GB,en;q=0.9","5d9a55cb01556d0013fa8369","683dba9a53627eb9ab41b36a","6889da0a66ae07a4534c335e","0","5d9a55cb01556d0013fa8369","0","2025-07-30T08:46:32.843Z","","","","StressQ","","","","","","","","","","","50","","","","","","","","","","","","","","","","","","","","","","","","","","",""
"2180","","<div style=""width:500px;"">
  <p>What best describes how you currently feel?</p>
  </div>","10","html-slider-response","47","454083","0.0-7.0-4.6","17","1","2025-07-30 08:38:59","36c45c0696341be0efffe67d72a12abb","212.69.57.202","Mozilla/5.0 (X11; CrOS x86_64 14541.0.0) AppleWebKit/537.36 (KHTML, like Gecko) Chrome/137.0.0.0 Safari/537.36","WebKit","Chrome","137.0.0.0","ChromeOS","14541.0.0","https://app.prolific.com/","en-GB,en;q=0.9","5d9a55cb01556d0013fa8369","683dba9a53627eb9ab41b36a","6889da0a66ae07a4534c335e","0","5d9a55cb01556d0013fa8369","0","2025-07-30T08:46:35.025Z","","","","MotivationQ","","","","","","","","","","","50","","","","","","","","","","","","","","","","","","","","","","","","","","",""
"","","","","ctl-task-cpt","48","544482","0.0-7.0-0.7","17","1","2025-07-30 08:38:59","36c45c0696341be0efffe67d72a12abb","212.69.57.202","Mozilla/5.0 (X11; CrOS x86_64 14541.0.0) AppleWebKit/537.36 (KHTML, like Gecko) Chrome/137.0.0.0 Safari/537.36","WebKit","Chrome","137.0.0.0","ChromeOS","14541.0.0","https://app.prolific.com/","en-GB,en;q=0.9","5d9a55cb01556d0013fa8369","683dba9a53627eb9ab41b36a","6889da0a66ae07a4534c335e","0","5d9a55cb01556d0013fa8369","0","2025-07-30T08:48:05.424Z","","","","","","","","","","","","","","","","win-only","2","g1:SE,g2:NW","0.3","8","0","455630.5","1582.3","6593.2","87344.5","1","4","4","6","1","1","-1","11","12","0.08333333333333333","1187.9","3000","1235","[""down"",""right""]","{""num_key_presses"":21,""num_perfect"":5,""num_errors"":2,""num_randdir"":14,""num_randdir_good_moves"":7,""num_whilered"":0,""num_whileblue"":1,""num_blue"":3,""num_good_moves"":12}","[417.8214133126395,406.57142761775424,1.1,417.8214133126395,406.57142761775424,110.7,417.8214133126395,406.57142761775424,220.5,417.8214133126395,406.57142761775424,322.3,417.8214133126395,406.57142761775424,429,417.8214133126395,406.57142761775424,534.9,417.8214133126395,406.57142761775424,637.7,651.5714133126395,625.3214276177542,746.1,704.0714133126395,697.8214276177542,846.4,707.8214133126395,710.3214276177542,957.9,727.8214133126395,730.3214276177542,1062.1,740.3214133126395,739.0714276177542,1172.7,740.3214133126395,739.0714276177542,1277.9,740.3214133126395,739.0714276177542,1378,740.3214133126395,739.0714276177542,1486.9,740.3214133126395,739.0714276177542,1598.5,920.3214133126395,729.0714276177542,1701,965.3214133126395,742.8214276177542,1811.7,965.3214133126395,742.8214276177542,1918.2,965.3214133126395,742.8214276177542,2032.3,965.3214133126395,742.8214276177542,2146.3,965.3214133126395,742.8214276177542,2261.2,965.3214133126395,742.8214276177542,2373.3,965.3214133126395,742.8214276177542,2473.3,965.3214133126395,742.8214276177542,2583.9,965.3214133126395,742.8214276177542,2687.3,965.3214133126395,742.8214276177542,2801,965.3214133126395,742.8214276177542,2914.2,965.3214133126395,742.8214276177542,3023.7,965.3214133126395,742.8214276177542,3137,965.3214133126395,742.8214276177542,3239.6,965.3214133126395,742.8214276177542,3346.3,965.3214133126395,742.8214276177542,3454.9,965.3214133126395,742.8214276177542,3564.1,965.3214133126395,742.8214276177542,3669.6,965.3214133126395,742.8214276177542,3776.5,965.3214133126395,742.8214276177542,3884.4,965.3214133126395,742.8214276177542,3992.7,965.3214133126395,742.8214276177542,4104.4,965.3214133126395,742.8214276177542,4211.2,965.3214133126395,742.8214276177542,4317,965.3214133126395,742.8214276177542,4422.6,965.3214133126395,742.8214276177542,4533.6,965.3214133126395,742.8214276177542,4640.3,965.3214133126395,742.8214276177542,4750,965.3214133126395,742.8214276177542,4858.6,965.3214133126395,742.8214276177542,4964]","[1569.9,1569.9,1000,0,569.9,""oops"",""down"",""right"",""good_move"",4613.5,3042.9,2499.7,1570.7,543.1,""smooth"",""down"",""down"",""good_move"",7916.4,3302.3,2924.4,4614.1,377.9,""oops"",""down"",""up"",""bad_move"",11119.8,3202.7,2288.7,7917.1,914,""smooth"",""down"",""down"",""good_move"",14377.9,3257.4,2804.3,11120.5,453.1,""oops"",""down"",""up"",""bad_move"",18134.1,3755.6,3176.4,14378.5,579.2,""smooth"",""right"",""right"",""good_move"",21040.6,2906.2,2467,18134.5,439.2,""oops"",""down"",""down"",""good_move"",23982.3,2941,2444.1,21041.3,496.9,""oops"",""down"",""left"",""bad_move"",28530.5,4547.6,2619.1,23982.9,1928.5,""oops"",""right"",""down"",""good_move"",28648,116.8,2093.9,28531.3,-1977.2,""error"",""-"",""-"",""no_move"",32748.4,4099.8,2711.5,29666.1,370.8,""oops"",""right"",""left"",""bad_move"",37352.4,4603.7,4225.2,32748.7,378.5,""while_blue"",""left"",""up"",""bad_move"",45111.5,7758.8,2006.2,42743.6,361.7,""oops"",""right"",""right"",""good_move"",48472.6,3360.8,2842.8,45111.8,518,""oops"",""down"",""left"",""bad_move"",53382.5,4909.4,2476.5,48473.1,2432.9,""oops"",""down"",""right"",""good_move"",60965.2,7582.3,3191.9,57365.7,407.7,""oops"",""down"",""left"",""bad_move"",65929.2,4963.7,2447.9,60965.6,2515.8,""oops"",""down"",""left"",""bad_move"",70985.9,5056,2436.4,65929.9,2619.6,""smooth"",""right"",""right"",""good_move"",74179.6,3193.4,2669.3,70986.2,524.1,""smooth"",""right"",""right"",""good_move"",77216.6,3036.7,2653,74180,383.6,""oops"",""right"",""right"",""good_move"",80008.5,2791.5,2311.1,77217,480.4,""oops"",""down"",""down"",""good_move""]"
"3560","","<div style=""width:500px;"">
  <p>What determined the result of this run?</p>
  </div>","0","html-slider-response","49","548048","0.0-7.0-1.7","17","1","2025-07-30 08:38:59","36c45c0696341be0efffe67d72a12abb","212.69.57.202","Mozilla/5.0 (X11; CrOS x86_64 14541.0.0) AppleWebKit/537.36 (KHTML, like Gecko) Chrome/137.0.0.0 Safari/537.36","WebKit","Chrome","137.0.0.0","ChromeOS","14541.0.0","https://app.prolific.com/","en-GB,en;q=0.9","5d9a55cb01556d0013fa8369","683dba9a53627eb9ab41b36a","6889da0a66ae07a4534c335e","0","5d9a55cb01556d0013fa8369","0","2025-07-30T08:48:08.990Z","","","","AttribQ","","","","","","","","","","","50","","","","","","","","","","","","","","","","","","","","","","","","","","",""
"3263","","<div style=""width:500px;"">
  <p>How much control did you have over the ball?</p>
  </div>","0","html-slider-response","50","551318","0.0-7.0-2.7","17","1","2025-07-30 08:38:59","36c45c0696341be0efffe67d72a12abb","212.69.57.202","Mozilla/5.0 (X11; CrOS x86_64 14541.0.0) AppleWebKit/537.36 (KHTML, like Gecko) Chrome/137.0.0.0 Safari/537.36","WebKit","Chrome","137.0.0.0","ChromeOS","14541.0.0","https://app.prolific.com/","en-GB,en;q=0.9","5d9a55cb01556d0013fa8369","683dba9a53627eb9ab41b36a","6889da0a66ae07a4534c335e","0","5d9a55cb01556d0013fa8369","0","2025-07-30T08:48:12.260Z","","","","ControlQ","","","","","","","","","","","50","","","","","","","","","","","","","","","","","","","","","","","","","","",""
"2423","","<div style=""width:500px;"">
  <p>How would you describe your current emotional state?</p>
  </div>","16","html-slider-response","51","553747","0.0-7.0-3.7","17","1","2025-07-30 08:38:59","36c45c0696341be0efffe67d72a12abb","212.69.57.202","Mozilla/5.0 (X11; CrOS x86_64 14541.0.0) AppleWebKit/537.36 (KHTML, like Gecko) Chrome/137.0.0.0 Safari/537.36","WebKit","Chrome","137.0.0.0","ChromeOS","14541.0.0","https://app.prolific.com/","en-GB,en;q=0.9","5d9a55cb01556d0013fa8369","683dba9a53627eb9ab41b36a","6889da0a66ae07a4534c335e","0","5d9a55cb01556d0013fa8369","0","2025-07-30T08:48:14.691Z","","","","StressQ","","","","","","","","","","","50","","","","","","","","","","","","","","","","","","","","","","","","","","",""
"2633","","<div style=""width:500px;"">
  <p>What best describes how you currently feel?</p>
  </div>","12","html-slider-response","52","556389","0.0-7.0-4.7","17","1","2025-07-30 08:38:59","36c45c0696341be0efffe67d72a12abb","212.69.57.202","Mozilla/5.0 (X11; CrOS x86_64 14541.0.0) AppleWebKit/537.36 (KHTML, like Gecko) Chrome/137.0.0.0 Safari/537.36","WebKit","Chrome","137.0.0.0","ChromeOS","14541.0.0","https://app.prolific.com/","en-GB,en;q=0.9","5d9a55cb01556d0013fa8369","683dba9a53627eb9ab41b36a","6889da0a66ae07a4534c335e","0","5d9a55cb01556d0013fa8369","0","2025-07-30T08:48:17.331Z","","","","MotivationQ","","","","","","","","","","","50","","","","","","","","","","","","","","","","","","","","","","","","","","",""
"","","","","ctl-task-cpt","53","655803","0.0-7.0-0.8","17","1","2025-07-30 08:38:59","36c45c0696341be0efffe67d72a12abb","212.69.57.202","Mozilla/5.0 (X11; CrOS x86_64 14541.0.0) AppleWebKit/537.36 (KHTML, like Gecko) Chrome/137.0.0.0 Safari/537.36","WebKit","Chrome","137.0.0.0","ChromeOS","14541.0.0","https://app.prolific.com/","en-GB,en;q=0.9","5d9a55cb01556d0013fa8369","683dba9a53627eb9ab41b36a","6889da0a66ae07a4534c335e","0","5d9a55cb01556d0013fa8369","0","2025-07-30T08:49:56.745Z","","","","","","","","","","","","","","","","win-only","0","g1:NW,g2:SE","0.4","9","0","557940.1","1414.1","6461.2","96341.6","1","4","4","6","1","1","1","12","11","0.09090909090909091","1330.9","3000","2350","[""left"",""up""]","{""num_key_presses"":12,""num_perfect"":6,""num_errors"":0,""num_randdir"":6,""num_randdir_good_moves"":2,""num_whilered"":0,""num_whileblue"":0,""num_blue"":3,""num_good_moves"":8}","[421.5714133126395,410.32142761775424,0.3,421.5714133126395,410.32142761775424,125,421.5714133126395,410.32142761775424,265,421.5714133126395,410.32142761775424,406.5,335.3214133126395,360.32142761775424,546.3,225.3214133126395,236.57142761775424,689.3,117.8214133126395,171.57142761775424,830.6,104.0714133126395,154.07142761775424,973.5,104.0714133126395,129.07142761775424,1114.7,102.8214133126395,124.07142761775425,1257.4,102.8214133126395,124.07142761775425,1403.6,102.8214133126395,124.07142761775425,1547,102.8214133126395,124.07142761775425,1688.5,102.8214133126395,124.07142761775425,1828.2,102.8214133126395,124.07142761775425,1970.8,102.8214133126395,124.07142761775425,2111.5,102.8214133126395,124.07142761775425,2254.4,102.8214133126395,124.07142761775425,2394.5,102.8214133126395,124.07142761775425,2536.9,102.8214133126395,124.07142761775425,2678.7,102.8214133126395,124.07142761775425,2819.3,102.8214133126395,124.07142761775425,2960.6,102.8214133126395,124.07142761775425,3100.9,102.8214133126395,124.07142761775425,3244.9,102.8214133126395,124.07142761775425,3387.4,102.8214133126395,124.07142761775425,3529.4,102.8214133126395,124.07142761775425,3670.1,102.8214133126395,124.07142761775425,3812.5,102.8214133126395,124.07142761775425,3953.4,102.8214133126395,124.07142761775425,4095.7,102.8214133126395,124.07142761775425,4242.4,102.8214133126395,124.07142761775425,4383.4,102.8214133126395,124.07142761775425,4525.3,102.8214133126395,124.07142761775425,4666.7,102.8214133126395,124.07142761775425,4809,102.8214133126395,124.07142761775425,4951.8]","[5115.4,5115.4,2550.7,2065.8,498.9,""smooth"",""left"",""left"",""good_move"",13785.1,8669.3,2879,5115.8,5790.3,""oops"",""up"",""right"",""bad_move"",20497.2,6711.6,2809,16742.1,946.1,""oops"",""up"",""down"",""bad_move"",23134.6,2637,2054.1,20497.6,582.9,""oops"",""left"",""down"",""bad_move"",26416.9,3281.9,2707.2,23135,574.7,""smooth"",""up"",""up"",""good_move"",39203.4,12785.9,2862.1,35854.8,486.5,""oops"",""left"",""right"",""bad_move"",42986.5,3782.7,3241.6,39203.8,541.1,""smooth"",""up"",""up"",""good_move"",52082.2,9095.3,1897.1,42986.9,7198.2,""oops"",""up"",""left"",""good_move"",61348.6,9265.9,2383.9,52082.7,6882,""smooth"",""left"",""left"",""good_move"",70595,9246.1,2954.4,61348.9,6291.7,""oops"",""up"",""left"",""good_move"",79966.2,9370.9,3097.9,70595.3,6273.1,""smooth"",""up"",""up"",""good_move"",89325.7,9359,1917.2,79966.7,7441.8,""smooth"",""up"",""up"",""good_move""]"
"3108","","<div style=""width:500px;"">
  <p>What determined the result of this run?</p>
  </div>","0","html-slider-response","54","658918","0.0-7.0-1.8","17","1","2025-07-30 08:38:59","36c45c0696341be0efffe67d72a12abb","212.69.57.202","Mozilla/5.0 (X11; CrOS x86_64 14541.0.0) AppleWebKit/537.36 (KHTML, like Gecko) Chrome/137.0.0.0 Safari/537.36","WebKit","Chrome","137.0.0.0","ChromeOS","14541.0.0","https://app.prolific.com/","en-GB,en;q=0.9","5d9a55cb01556d0013fa8369","683dba9a53627eb9ab41b36a","6889da0a66ae07a4534c335e","0","5d9a55cb01556d0013fa8369","0","2025-07-30T08:49:59.860Z","","","","AttribQ","","","","","","","","","","","50","","","","","","","","","","","","","","","","","","","","","","","","","","",""
"2508","","<div style=""width:500px;"">
  <p>How much control did you have over the ball?</p>
  </div>","1","html-slider-response","55","661433","0.0-7.0-2.8","17","1","2025-07-30 08:38:59","36c45c0696341be0efffe67d72a12abb","212.69.57.202","Mozilla/5.0 (X11; CrOS x86_64 14541.0.0) AppleWebKit/537.36 (KHTML, like Gecko) Chrome/137.0.0.0 Safari/537.36","WebKit","Chrome","137.0.0.0","ChromeOS","14541.0.0","https://app.prolific.com/","en-GB,en;q=0.9","5d9a55cb01556d0013fa8369","683dba9a53627eb9ab41b36a","6889da0a66ae07a4534c335e","0","5d9a55cb01556d0013fa8369","0","2025-07-30T08:50:02.375Z","","","","ControlQ","","","","","","","","","","","50","","","","","","","","","","","","","","","","","","","","","","","","","","",""
"2506","","<div style=""width:500px;"">
  <p>How would you describe your current emotional state?</p>
  </div>","18","html-slider-response","56","663946","0.0-7.0-3.8","17","1","2025-07-30 08:38:59","36c45c0696341be0efffe67d72a12abb","212.69.57.202","Mozilla/5.0 (X11; CrOS x86_64 14541.0.0) AppleWebKit/537.36 (KHTML, like Gecko) Chrome/137.0.0.0 Safari/537.36","WebKit","Chrome","137.0.0.0","ChromeOS","14541.0.0","https://app.prolific.com/","en-GB,en;q=0.9","5d9a55cb01556d0013fa8369","683dba9a53627eb9ab41b36a","6889da0a66ae07a4534c335e","0","5d9a55cb01556d0013fa8369","0","2025-07-30T08:50:04.888Z","","","","StressQ","","","","","","","","","","","50","","","","","","","","","","","","","","","","","","","","","","","","","","",""
"2650","","<div style=""width:500px;"">
  <p>What best describes how you currently feel?</p>
  </div>","10","html-slider-response","57","666603","0.0-7.0-4.8","17","1","2025-07-30 08:38:59","36c45c0696341be0efffe67d72a12abb","212.69.57.202","Mozilla/5.0 (X11; CrOS x86_64 14541.0.0) AppleWebKit/537.36 (KHTML, like Gecko) Chrome/137.0.0.0 Safari/537.36","WebKit","Chrome","137.0.0.0","ChromeOS","14541.0.0","https://app.prolific.com/","en-GB,en;q=0.9","5d9a55cb01556d0013fa8369","683dba9a53627eb9ab41b36a","6889da0a66ae07a4534c335e","0","5d9a55cb01556d0013fa8369","0","2025-07-30T08:50:07.545Z","","","","MotivationQ","","","","","","","","","","","50","","","","","","","","","","","","","","","","","","","","","","","","","","",""
"","","","","ctl-task-cpt","58","713126","0.0-7.0-0.9","17","1","2025-07-30 08:38:59","36c45c0696341be0efffe67d72a12abb","212.69.57.202","Mozilla/5.0 (X11; CrOS x86_64 14541.0.0) AppleWebKit/537.36 (KHTML, like Gecko) Chrome/137.0.0.0 Safari/537.36","WebKit","Chrome","137.0.0.0","ChromeOS","14541.0.0","https://app.prolific.com/","en-GB,en;q=0.9","5d9a55cb01556d0013fa8369","683dba9a53627eb9ab41b36a","6889da0a66ae07a4534c335e","0","5d9a55cb01556d0013fa8369","0","2025-07-30T08:50:54.068Z","","","","","","","","","","","","","","","","win-only","2","g1:SE,g2:NW","0.5","10","0","668154.4","2556.7","7561.9","43441.2","1","4","8","6","1","1","0","12","12","0.09090909090909091","1495.3","3000","2670","[""down"",""right""]","{""num_key_presses"":6,""num_perfect"":4,""num_errors"":1,""num_randdir"":1,""num_randdir_good_moves"":0,""num_whilered"":0,""num_whileblue"":1,""num_blue"":3,""num_good_moves"":5}","[419.0714133126395,416.57142761775424,0.4,419.0714133126395,416.57142761775424,158.7,419.0714133126395,416.57142761775424,279.4,419.0714133126395,416.57142761775424,397.6,419.0714133126395,416.57142761775424,515.9,419.0714133126395,416.57142761775424,635.1,419.0714133126395,416.57142761775424,753.6,419.0714133126395,416.57142761775424,872.8,652.8214133126395,589.0714276177542,991.3,702.8214133126395,644.0714276177542,1111.5,710.3214133126395,654.0714276177542,1231.8,745.3214133126395,694.0714276177542,1350.9,766.5714133126395,735.3214276177542,1471.8,766.5714133126395,735.3214276177542,1594.7,766.5714133126395,735.3214276177542,1714,766.5714133126395,735.3214276177542,1831.8,1149.0714133126396,769.0714276177542,1951.6,1182.8214133126396,775.3214276177542,2072.3,1182.8214133126396,775.3214276177542,2194.8,1182.8214133126396,775.3214276177542,2315.5,1182.8214133126396,775.3214276177542,2442.8,1182.8214133126396,775.3214276177542,2564,1182.8214133126396,775.3214276177542,2685.5,1182.8214133126396,775.3214276177542,2806.6,1182.8214133126396,775.3214276177542,2928.1,1182.8214133126396,775.3214276177542,3049.4,1182.8214133126396,775.3214276177542,3172.1,1182.8214133126396,775.3214276177542,3292.3,1182.8214133126396,775.3214276177542,3415.5,1182.8214133126396,775.3214276177542,3535.1,1182.8214133126396,775.3214276177542,3657.6,1182.8214133126396,775.3214276177542,3778.8,1182.8214133126396,775.3214276177542,3903.5,1182.8214133126396,775.3214276177542,4024.3,1182.8214133126396,775.3214276177542,4145.5,1182.8214133126396,775.3214276177542,4269.1,1182.8214133126396,775.3214276177542,4388.7,1182.8214133126396,775.3214276177542,4511.2,1182.8214133126396,775.3214276177542,4635.4,1182.8214133126396,775.3214276177542,4757.5,1182.8214133126396,775.3214276177542,4882.2]","[4728.7,4728.7,2262.9,2031.9,433.9,""while_blue"",""down"",""down"",""good_move"",8236.6,3507.1,2839,4729.5,668.1,""oops"",""down"",""up"",""bad_move"",19065,10827.9,1955.2,8237.1,8872.7,""smooth"",""right"",""right"",""good_move"",22396.1,3330.5,2691.9,19065.6,638.7,""smooth"",""right"",""right"",""good_move"",30701.3,8304.9,2460,26292.6,1948.7,""smooth"",""down"",""down"",""good_move"",33893.9,3192.2,2598.6,30701.7,593.7,""smooth"",""down"",""down"",""good_move""]"
"2911","","<div style=""width:500px;"">
  <p>What determined the result of this run?</p>
  </div>","0","html-slider-response","59","716043","0.0-7.0-1.9","17","1","2025-07-30 08:38:59","36c45c0696341be0efffe67d72a12abb","212.69.57.202","Mozilla/5.0 (X11; CrOS x86_64 14541.0.0) AppleWebKit/537.36 (KHTML, like Gecko) Chrome/137.0.0.0 Safari/537.36","WebKit","Chrome","137.0.0.0","ChromeOS","14541.0.0","https://app.prolific.com/","en-GB,en;q=0.9","5d9a55cb01556d0013fa8369","683dba9a53627eb9ab41b36a","6889da0a66ae07a4534c335e","0","5d9a55cb01556d0013fa8369","0","2025-07-30T08:50:56.985Z","","","","AttribQ","","","","","","","","","","","50","","","","","","","","","","","","","","","","","","","","","","","","","","",""
"2712","","<div style=""width:500px;"">
  <p>How much control did you have over the ball?</p>
  </div>","0","html-slider-response","60","718762","0.0-7.0-2.9","17","1","2025-07-30 08:38:59","36c45c0696341be0efffe67d72a12abb","212.69.57.202","Mozilla/5.0 (X11; CrOS x86_64 14541.0.0) AppleWebKit/537.36 (KHTML, like Gecko) Chrome/137.0.0.0 Safari/537.36","WebKit","Chrome","137.0.0.0","ChromeOS","14541.0.0","https://app.prolific.com/","en-GB,en;q=0.9","5d9a55cb01556d0013fa8369","683dba9a53627eb9ab41b36a","6889da0a66ae07a4534c335e","0","5d9a55cb01556d0013fa8369","0","2025-07-30T08:50:59.704Z","","","","ControlQ","","","","","","","","","","","50","","","","","","","","","","","","","","","","","","","","","","","","","","",""
"2283","","<div style=""width:500px;"">
  <p>How would you describe your current emotional state?</p>
  </div>","14","html-slider-response","61","721053","0.0-7.0-3.9","17","1","2025-07-30 08:38:59","36c45c0696341be0efffe67d72a12abb","212.69.57.202","Mozilla/5.0 (X11; CrOS x86_64 14541.0.0) AppleWebKit/537.36 (KHTML, like Gecko) Chrome/137.0.0.0 Safari/537.36","WebKit","Chrome","137.0.0.0","ChromeOS","14541.0.0","https://app.prolific.com/","en-GB,en;q=0.9","5d9a55cb01556d0013fa8369","683dba9a53627eb9ab41b36a","6889da0a66ae07a4534c335e","0","5d9a55cb01556d0013fa8369","0","2025-07-30T08:51:01.995Z","","","","StressQ","","","","","","","","","","","50","","","","","","","","","","","","","","","","","","","","","","","","","","",""
"2774","","<div style=""width:500px;"">
  <p>What best describes how you currently feel?</p>
  </div>","4","html-slider-response","62","723833","0.0-7.0-4.9","17","1","2025-07-30 08:38:59","36c45c0696341be0efffe67d72a12abb","212.69.57.202","Mozilla/5.0 (X11; CrOS x86_64 14541.0.0) AppleWebKit/537.36 (KHTML, like Gecko) Chrome/137.0.0.0 Safari/537.36","WebKit","Chrome","137.0.0.0","ChromeOS","14541.0.0","https://app.prolific.com/","en-GB,en;q=0.9","5d9a55cb01556d0013fa8369","683dba9a53627eb9ab41b36a","6889da0a66ae07a4534c335e","0","5d9a55cb01556d0013fa8369","0","2025-07-30T08:51:04.775Z","","","","MotivationQ","","","","","","","","","","","50","","","","","","","","","","","","","","","","","","","","","","","","","","",""
"","","","","ctl-task-cpt","63","752296","0.0-7.0-0.10","17","1","2025-07-30 08:38:59","36c45c0696341be0efffe67d72a12abb","212.69.57.202","Mozilla/5.0 (X11; CrOS x86_64 14541.0.0) AppleWebKit/537.36 (KHTML, like Gecko) Chrome/137.0.0.0 Safari/537.36","WebKit","Chrome","137.0.0.0","ChromeOS","14541.0.0","https://app.prolific.com/","en-GB,en;q=0.9","5d9a55cb01556d0013fa8369","683dba9a53627eb9ab41b36a","6889da0a66ae07a4534c335e","0","5d9a55cb01556d0013fa8369","0","2025-07-30T08:51:33.239Z","","","","","","","","","","","","","","","","win-only","3","g1:SW,g2:NE","0.6","11","0","725383.7","1537.8","6543.8","25435.1","1","4","8","6","1","1","1","13","12","0.09848484848484848","1247.8","3000","2335","[""down"",""left""]","{""num_key_presses"":4,""num_perfect"":3,""num_errors"":0,""num_randdir"":1,""num_randdir_good_moves"":1,""num_whilered"":0,""num_whileblue"":0,""num_blue"":2,""num_good_moves"":4}","[411.5714133126395,419.07142761775424,0.6,411.5714133126395,419.07142761775424,112.8,411.5714133126395,419.07142761775424,217.8,411.5714133126395,419.07142761775424,322.9,411.5714133126395,419.07142761775424,430.8,411.5714133126395,419.07142761775424,537.8,411.5714133126395,419.07142761775424,643,247.8214133126395,564.0714276177542,751.9,184.0714133126395,646.5714276177542,856.4,150.3214133126395,696.5714276177542,964.3,104.0714133126395,756.5714276177542,1077.2,82.8214133126395,777.8214276177542,1185.1,82.8214133126395,777.8214276177542,1288.7,82.8214133126395,777.8214276177542,1390.5,82.8214133126395,777.8214276177542,1497.5,82.8214133126395,777.8214276177542,1599.3,82.8214133126395,777.8214276177542,1706.2,82.8214133126395,777.8214276177542,1814.3,82.8214133126395,777.8214276177542,1922.7,82.8214133126395,777.8214276177542,2040.9,82.8214133126395,777.8214276177542,2141.2,82.8214133126395,777.8214276177542,2246.2,82.8214133126395,777.8214276177542,2352.3,82.8214133126395,777.8214276177542,2452.4,82.8214133126395,777.8214276177542,2556.3,82.8214133126395,777.8214276177542,2662.8,82.8214133126395,777.8214276177542,2763.4,82.8214133126395,777.8214276177542,2865.8,82.8214133126395,777.8214276177542,2978,82.8214133126395,777.8214276177542,3090.6,82.8214133126395,777.8214276177542,3191.4,82.8214133126395,777.8214276177542,3303.6,82.8214133126395,777.8214276177542,3415.3,82.8214133126395,777.8214276177542,3525.4,82.8214133126395,777.8214276177542,3626.9,82.8214133126395,777.8214276177542,3727.4,82.8214133126395,777.8214276177542,3831.7,82.8214133126395,777.8214276177542,3947.8,82.8214133126395,777.8214276177542,4058.4,82.8214133126395,777.8214276177542,4160.3,82.8214133126395,777.8214276177542,4267.8,82.8214133126395,777.8214276177542,4371.5,82.8214133126395,777.8214276177542,4475,82.8214133126395,777.8214276177542,4584.7,82.8214133126395,777.8214276177542,4694,82.8214133126395,777.8214276177542,4794.5,82.8214133126395,777.8214276177542,4905.8]","[1705.4,1705.4,1000,0,705.4,""smooth"",""left"",""left"",""good_move"",8950.6,7244.5,2718.8,5784.4,447.4,""oops"",""left"",""left"",""good_move"",12447.3,3496.3,2332,8951.1,1164.2,""smooth"",""down"",""down"",""good_move"",18659,6211.1,3257.6,15025.9,375.5,""smooth"",""down"",""down"",""good_move""]"
"3736","","<div style=""width:500px;"">
  <p>What determined the result of this run?</p>
  </div>","0","html-slider-response","64","756034","0.0-7.0-1.10","17","1","2025-07-30 08:38:59","36c45c0696341be0efffe67d72a12abb","212.69.57.202","Mozilla/5.0 (X11; CrOS x86_64 14541.0.0) AppleWebKit/537.36 (KHTML, like Gecko) Chrome/137.0.0.0 Safari/537.36","WebKit","Chrome","137.0.0.0","ChromeOS","14541.0.0","https://app.prolific.com/","en-GB,en;q=0.9","5d9a55cb01556d0013fa8369","683dba9a53627eb9ab41b36a","6889da0a66ae07a4534c335e","0","5d9a55cb01556d0013fa8369","0","2025-07-30T08:51:36.976Z","","","","AttribQ","","","","","","","","","","","50","","","","","","","","","","","","","","","","","","","","","","","","","","",""
"2123","","<div style=""width:500px;"">
  <p>How much control did you have over the ball?</p>
  </div>","1","html-slider-response","65","758159","0.0-7.0-2.10","17","1","2025-07-30 08:38:59","36c45c0696341be0efffe67d72a12abb","212.69.57.202","Mozilla/5.0 (X11; CrOS x86_64 14541.0.0) AppleWebKit/537.36 (KHTML, like Gecko) Chrome/137.0.0.0 Safari/537.36","WebKit","Chrome","137.0.0.0","ChromeOS","14541.0.0","https://app.prolific.com/","en-GB,en;q=0.9","5d9a55cb01556d0013fa8369","683dba9a53627eb9ab41b36a","6889da0a66ae07a4534c335e","0","5d9a55cb01556d0013fa8369","0","2025-07-30T08:51:39.102Z","","","","ControlQ","","","","","","","","","","","50","","","","","","","","","","","","","","","","","","","","","","","","","","",""
"3544","","<div style=""width:500px;"">
  <p>How would you describe your current emotional state?</p>
  </div>","18","html-slider-response","66","761706","0.0-7.0-3.10","17","1","2025-07-30 08:38:59","36c45c0696341be0efffe67d72a12abb","212.69.57.202","Mozilla/5.0 (X11; CrOS x86_64 14541.0.0) AppleWebKit/537.36 (KHTML, like Gecko) Chrome/137.0.0.0 Safari/537.36","WebKit","Chrome","137.0.0.0","ChromeOS","14541.0.0","https://app.prolific.com/","en-GB,en;q=0.9","5d9a55cb01556d0013fa8369","683dba9a53627eb9ab41b36a","6889da0a66ae07a4534c335e","0","5d9a55cb01556d0013fa8369","0","2025-07-30T08:51:42.648Z","","","","StressQ","","","","","","","","","","","50","","","","","","","","","","","","","","","","","","","","","","","","","","",""
"2968","","<div style=""width:500px;"">
  <p>What best describes how you currently feel?</p>
  </div>","4","html-slider-response","67","764676","0.0-7.0-4.10","17","1","2025-07-30 08:38:59","36c45c0696341be0efffe67d72a12abb","212.69.57.202","Mozilla/5.0 (X11; CrOS x86_64 14541.0.0) AppleWebKit/537.36 (KHTML, like Gecko) Chrome/137.0.0.0 Safari/537.36","WebKit","Chrome","137.0.0.0","ChromeOS","14541.0.0","https://app.prolific.com/","en-GB,en;q=0.9","5d9a55cb01556d0013fa8369","683dba9a53627eb9ab41b36a","6889da0a66ae07a4534c335e","0","5d9a55cb01556d0013fa8369","0","2025-07-30T08:51:45.618Z","","","","MotivationQ","","","","","","","","","","","50","","","","","","","","","","","","","","","","","","","","","","","","","","",""
"","","","","ctl-task-cpt","68","798141","0.0-7.0-0.11","17","1","2025-07-30 08:38:59","36c45c0696341be0efffe67d72a12abb","212.69.57.202","Mozilla/5.0 (X11; CrOS x86_64 14541.0.0) AppleWebKit/537.36 (KHTML, like Gecko) Chrome/137.0.0.0 Safari/537.36","WebKit","Chrome","137.0.0.0","ChromeOS","14541.0.0","https://app.prolific.com/","en-GB,en;q=0.9","5d9a55cb01556d0013fa8369","683dba9a53627eb9ab41b36a","6889da0a66ae07a4534c335e","0","5d9a55cb01556d0013fa8369","0","2025-07-30T08:52:19.083Z","","","","","","","","","","","","","","","","win-only","3","g1:SW,g2:NE","0.7","12","0","766223.3","1146.1","6150.1","30418.8","1","4","4","6","1","1","1","14","13","0.10606060606060606","2032.6","3000","2005","[""down"",""left""]","{""num_key_presses"":6,""num_perfect"":5,""num_errors"":0,""num_randdir"":1,""num_randdir_good_moves"":0,""num_whilered"":0,""num_whileblue"":0,""num_blue"":0,""num_good_moves"":5}","[409.0714133126395,420.32142761775424,0.8,409.0714133126395,420.32142761775424,114.3,409.0714133126395,420.32142761775424,215.3,409.0714133126395,420.32142761775424,324.6,409.0714133126395,420.32142761775424,428.1,409.0714133126395,420.32142761775424,531.5,409.0714133126395,420.32142761775424,637.9,409.0714133126395,420.32142761775424,741.6,201.5714133126395,595.3214276177542,844,146.5714133126395,650.3214276177542,957.1,130.3214133126395,675.3214276177542,1067.2,122.8214133126395,684.0714276177542,1172.9,120.3214133126395,689.0714276177542,1281.9,120.3214133126395,689.0714276177542,1387.2,120.3214133126395,689.0714276177542,1490.5,120.3214133126395,689.0714276177542,1595.9,120.3214133126395,689.0714276177542,1700.8,120.3214133126395,689.0714276177542,1807.4,107.8214133126395,750.3214276177542,1922.7,107.8214133126395,751.5714276177542,2035.6,107.8214133126395,751.5714276177542,2159.5,107.8214133126395,751.5714276177542,2267.8,-4.678586687360493,760.3214276177542,2375,-207.1785866873605,766.5714276177542,2486,-208.4285866873605,765.3214276177542,2597.8,-208.4285866873605,765.3214276177542,2703.6,-208.4285866873605,765.3214276177542,2818.8,-208.4285866873605,765.3214276177542,2930.3,-208.4285866873605,765.3214276177542,3050,-208.4285866873605,765.3214276177542,3152,-208.4285866873605,765.3214276177542,3280.3,-208.4285866873605,765.3214276177542,3396,-208.4285866873605,765.3214276177542,3518.6,-208.4285866873605,765.3214276177542,3633.8,-208.4285866873605,765.3214276177542,3755.7,-208.4285866873605,765.3214276177542,3870.3,-208.4285866873605,765.3214276177542,3984.2,-208.4285866873605,765.3214276177542,4104.1,-208.4285866873605,765.3214276177542,4218.4,-208.4285866873605,765.3214276177542,4332.7,-208.4285866873605,765.3214276177542,4454,-208.4285866873605,765.3214276177542,4566.6,-208.4285866873605,765.3214276177542,4679.3,-208.4285866873605,765.3214276177542,4800,-208.4285866873605,765.3214276177542,4911.2]","[1614.7,1614.7,1000,0,614.7,""smooth"",""down"",""down"",""good_move"",4568.5,2953.3,2361,1615.2,592.3,""smooth"",""down"",""down"",""good_move"",7868.2,3299.3,2682.2,4568.9,617.1,""oops"",""left"",""right"",""bad_move"",10658.4,2789.5,1819.2,7868.9,970.3,""smooth"",""left"",""left"",""good_move"",15413.9,4754.7,2572.7,10659.2,2182,""smooth"",""left"",""left"",""good_move"",23629.2,8214.7,2094.1,15414.5,6120.6,""smooth"",""left"",""left"",""good_move""]"
"6893","","<div style=""width:500px;"">
  <p>What determined the result of this run?</p>
  </div>","0","html-slider-response","69","805037","0.0-7.0-1.11","17","1","2025-07-30 08:38:59","36c45c0696341be0efffe67d72a12abb","212.69.57.202","Mozilla/5.0 (X11; CrOS x86_64 14541.0.0) AppleWebKit/537.36 (KHTML, like Gecko) Chrome/137.0.0.0 Safari/537.36","WebKit","Chrome","137.0.0.0","ChromeOS","14541.0.0","https://app.prolific.com/","en-GB,en;q=0.9","5d9a55cb01556d0013fa8369","683dba9a53627eb9ab41b36a","6889da0a66ae07a4534c335e","0","5d9a55cb01556d0013fa8369","0","2025-07-30T08:52:25.980Z","","","","AttribQ","","","","","","","","","","","50","","","","","","","","","","","","","","","","","","","","","","","","","","",""
"3224","","<div style=""width:500px;"">
  <p>How much control did you have over the ball?</p>
  </div>","0","html-slider-response","70","808265","0.0-7.0-2.11","17","1","2025-07-30 08:38:59","36c45c0696341be0efffe67d72a12abb","212.69.57.202","Mozilla/5.0 (X11; CrOS x86_64 14541.0.0) AppleWebKit/537.36 (KHTML, like Gecko) Chrome/137.0.0.0 Safari/537.36","WebKit","Chrome","137.0.0.0","ChromeOS","14541.0.0","https://app.prolific.com/","en-GB,en;q=0.9","5d9a55cb01556d0013fa8369","683dba9a53627eb9ab41b36a","6889da0a66ae07a4534c335e","0","5d9a55cb01556d0013fa8369","0","2025-07-30T08:52:29.208Z","","","","ControlQ","","","","","","","","","","","50","","","","","","","","","","","","","","","","","","","","","","","","","","",""
"2897","","<div style=""width:500px;"">
  <p>How would you describe your current emotional state?</p>
  </div>","10","html-slider-response","71","811166","0.0-7.0-3.11","17","1","2025-07-30 08:38:59","36c45c0696341be0efffe67d72a12abb","212.69.57.202","Mozilla/5.0 (X11; CrOS x86_64 14541.0.0) AppleWebKit/537.36 (KHTML, like Gecko) Chrome/137.0.0.0 Safari/537.36","WebKit","Chrome","137.0.0.0","ChromeOS","14541.0.0","https://app.prolific.com/","en-GB,en;q=0.9","5d9a55cb01556d0013fa8369","683dba9a53627eb9ab41b36a","6889da0a66ae07a4534c335e","0","5d9a55cb01556d0013fa8369","0","2025-07-30T08:52:32.108Z","","","","StressQ","","","","","","","","","","","50","","","","","","","","","","","","","","","","","","","","","","","","","","",""
"2517","","<div style=""width:500px;"">
  <p>What best describes how you currently feel?</p>
  </div>","4","html-slider-response","72","813688","0.0-7.0-4.11","17","1","2025-07-30 08:38:59","36c45c0696341be0efffe67d72a12abb","212.69.57.202","Mozilla/5.0 (X11; CrOS x86_64 14541.0.0) AppleWebKit/537.36 (KHTML, like Gecko) Chrome/137.0.0.0 Safari/537.36","WebKit","Chrome","137.0.0.0","ChromeOS","14541.0.0","https://app.prolific.com/","en-GB,en;q=0.9","5d9a55cb01556d0013fa8369","683dba9a53627eb9ab41b36a","6889da0a66ae07a4534c335e","0","5d9a55cb01556d0013fa8369","0","2025-07-30T08:52:34.630Z","","","","MotivationQ","","","","","","","","","","","50","","","","","","","","","","","","","","","","","","","","","","","","","","",""
"","","","","ctl-task-cpt","73","866517","0.0-7.0-0.12","17","1","2025-07-30 08:38:59","36c45c0696341be0efffe67d72a12abb","212.69.57.202","Mozilla/5.0 (X11; CrOS x86_64 14541.0.0) AppleWebKit/537.36 (KHTML, like Gecko) Chrome/137.0.0.0 Safari/537.36","WebKit","Chrome","137.0.0.0","ChromeOS","14541.0.0","https://app.prolific.com/","en-GB,en;q=0.9","5d9a55cb01556d0013fa8369","683dba9a53627eb9ab41b36a","6889da0a66ae07a4534c335e","0","5d9a55cb01556d0013fa8369","0","2025-07-30T08:53:27.459Z","","","","","","","","","","","","","","","","win-only","0","g1:NW,g2:SE","0.8","13","0","815236.7","2038.3","7077.5","49801.1","1","4","4","6","1","1","1","15","14","0.11363636363636363","1245.4","3000","2685","[""left"",""up""]","{""num_key_presses"":4,""num_perfect"":4,""num_errors"":0,""num_randdir"":0,""num_randdir_good_moves"":0,""num_whilered"":0,""num_whileblue"":0,""num_blue"":4,""num_good_moves"":4}","[411.5714133126395,409.07142761775424,0.4,411.5714133126395,409.07142761775424,117.9,411.5714133126395,409.07142761775424,244.8,411.5714133126395,409.07142761775424,373.6,411.5714133126395,409.07142761775424,500.5,411.5714133126395,409.07142761775424,627.9,167.8214133126395,80.32142761775425,756.4,137.8214133126395,31.571427617754253,884,126.5714133126395,30.321427617754253,1016.9,90.3214133126395,55.32142761775425,1145.6,90.3214133126395,56.57142761775425,1285.5,90.3214133126395,56.57142761775425,1414.1,90.3214133126395,56.57142761775425,1540.8,-35.92858668736049,102.82142761775425,1671.3,-258.4285866873605,125.32142761775425,1801.1,-257.1785866873605,125.32142761775425,1929.8,-257.1785866873605,125.32142761775425,2057.4,-257.1785866873605,125.32142761775425,2189.3,-257.1785866873605,125.32142761775425,2318.7,-257.1785866873605,125.32142761775425,2446.5,-257.1785866873605,125.32142761775425,2579.1,-257.1785866873605,125.32142761775425,2709.2,-257.1785866873605,125.32142761775425,2841.9,-257.1785866873605,125.32142761775425,2974.9,-257.1785866873605,125.32142761775425,3106.3,-257.1785866873605,125.32142761775425,3240.6,-257.1785866873605,125.32142761775425,3371.3,-257.1785866873605,125.32142761775425,3505.1,-257.1785866873605,125.32142761775425,3635.6,-257.1785866873605,125.32142761775425,3768.4,-257.1785866873605,125.32142761775425,3900.8,-257.1785866873605,125.32142761775425,4033,-257.1785866873605,125.32142761775425,4167,-257.1785866873605,125.32142761775425,4296.4,-257.1785866873605,125.32142761775425,4429.9,-257.1785866873605,125.32142761775425,4561.5,-257.1785866873605,125.32142761775425,4692.4,-257.1785866873605,125.32142761775425,4823.2,-257.1785866873605,125.32142761775425,4953.1]","[16488.2,16488.2,2481.7,13448.4,558.1,""smooth"",""left"",""left"",""good_move"",26011.4,9522.4,2539,16489,6983.4,""smooth"",""up"",""up"",""good_move"",37599.9,11588,2845.5,26011.9,8742.5,""smooth"",""up"",""up"",""good_move"",42449.8,4849.3,2343,37600.5,2506.3,""smooth"",""left"",""left"",""good_move""]"
"4635","","<div style=""width:500px;"">
  <p>What determined the result of this run?</p>
  </div>","0","html-slider-response","74","871154","0.0-7.0-1.12","17","1","2025-07-30 08:38:59","36c45c0696341be0efffe67d72a12abb","212.69.57.202","Mozilla/5.0 (X11; CrOS x86_64 14541.0.0) AppleWebKit/537.36 (KHTML, like Gecko) Chrome/137.0.0.0 Safari/537.36","WebKit","Chrome","137.0.0.0","ChromeOS","14541.0.0","https://app.prolific.com/","en-GB,en;q=0.9","5d9a55cb01556d0013fa8369","683dba9a53627eb9ab41b36a","6889da0a66ae07a4534c335e","0","5d9a55cb01556d0013fa8369","0","2025-07-30T08:53:32.097Z","","","","AttribQ","","","","","","","","","","","50","","","","","","","","","","","","","","","","","","","","","","","","","","",""
"2937","","<div style=""width:500px;"">
  <p>How much control did you have over the ball?</p>
  </div>","0","html-slider-response","75","874094","0.0-7.0-2.12","17","1","2025-07-30 08:38:59","36c45c0696341be0efffe67d72a12abb","212.69.57.202","Mozilla/5.0 (X11; CrOS x86_64 14541.0.0) AppleWebKit/537.36 (KHTML, like Gecko) Chrome/137.0.0.0 Safari/537.36","WebKit","Chrome","137.0.0.0","ChromeOS","14541.0.0","https://app.prolific.com/","en-GB,en;q=0.9","5d9a55cb01556d0013fa8369","683dba9a53627eb9ab41b36a","6889da0a66ae07a4534c335e","0","5d9a55cb01556d0013fa8369","0","2025-07-30T08:53:35.036Z","","","","ControlQ","","","","","","","","","","","50","","","","","","","","","","","","","","","","","","","","","","","","","","",""
"2280","","<div style=""width:500px;"">
  <p>How would you describe your current emotional state?</p>
  </div>","10","html-slider-response","76","876376","0.0-7.0-3.12","17","1","2025-07-30 08:38:59","36c45c0696341be0efffe67d72a12abb","212.69.57.202","Mozilla/5.0 (X11; CrOS x86_64 14541.0.0) AppleWebKit/537.36 (KHTML, like Gecko) Chrome/137.0.0.0 Safari/537.36","WebKit","Chrome","137.0.0.0","ChromeOS","14541.0.0","https://app.prolific.com/","en-GB,en;q=0.9","5d9a55cb01556d0013fa8369","683dba9a53627eb9ab41b36a","6889da0a66ae07a4534c335e","0","5d9a55cb01556d0013fa8369","0","2025-07-30T08:53:37.318Z","","","","StressQ","","","","","","","","","","","50","","","","","","","","","","","","","","","","","","","","","","","","","","",""
"2350","","<div style=""width:500px;"">
  <p>What best describes how you currently feel?</p>
  </div>","0","html-slider-response","77","878729","0.0-7.0-4.12","17","1","2025-07-30 08:38:59","36c45c0696341be0efffe67d72a12abb","212.69.57.202","Mozilla/5.0 (X11; CrOS x86_64 14541.0.0) AppleWebKit/537.36 (KHTML, like Gecko) Chrome/137.0.0.0 Safari/537.36","WebKit","Chrome","137.0.0.0","ChromeOS","14541.0.0","https://app.prolific.com/","en-GB,en;q=0.9","5d9a55cb01556d0013fa8369","683dba9a53627eb9ab41b36a","6889da0a66ae07a4534c335e","0","5d9a55cb01556d0013fa8369","0","2025-07-30T08:53:39.671Z","","","","MotivationQ","","","","","","","","","","","50","","","","","","","","","","","","","","","","","","","","","","","","","","",""
"","","","","ctl-task-cpt","78","912539","0.0-7.0-0.13","17","1","2025-07-30 08:38:59","36c45c0696341be0efffe67d72a12abb","212.69.57.202","Mozilla/5.0 (X11; CrOS x86_64 14541.0.0) AppleWebKit/537.36 (KHTML, like Gecko) Chrome/137.0.0.0 Safari/537.36","WebKit","Chrome","137.0.0.0","ChromeOS","14541.0.0","https://app.prolific.com/","en-GB,en;q=0.9","5d9a55cb01556d0013fa8369","683dba9a53627eb9ab41b36a","6889da0a66ae07a4534c335e","0","5d9a55cb01556d0013fa8369","0","2025-07-30T08:54:13.481Z","","","","","","","","","","","","","","","","win-only","0","g1:NW,g2:SE","0.9","14","0","880276.2","1103.3","6122.6","30758.8","1","4","8","6","1","1","1","16","15","0.12121212121212122","1115.6","3000","2700","[""left"",""up""]","{""num_key_presses"":4,""num_perfect"":4,""num_errors"":0,""num_randdir"":0,""num_randdir_good_moves"":0,""num_whilered"":0,""num_whileblue"":0,""num_blue"":1,""num_good_moves"":4}","[414.0714133126395,421.57142761775424,0.2,414.0714133126395,421.57142761775424,122.6,414.0714133126395,421.57142761775424,241.2,414.0714133126395,421.57142761775424,358.9,414.0714133126395,421.57142761775424,463.2,401.5714133126395,416.57142761775424,568,126.5714133126395,131.57142761775424,678.4,124.0714133126395,131.57142761775424,785.4,124.0714133126395,131.57142761775424,888.4,124.0714133126395,131.57142761775424,992.1,122.8214133126395,135.32142761775424,1099.4,122.8214133126395,135.32142761775424,1211.5,122.8214133126395,135.32142761775424,1316.8,122.8214133126395,135.32142761775424,1421.1,40.32141331263951,144.07142761775424,1530.8,32.82141331263951,145.32142761775424,1641.1,-48.42858668736049,174.07142761775424,1746.4,-104.6785866873605,195.32142761775424,1855,-107.1785866873605,194.07142761775424,1965.6,-107.1785866873605,194.07142761775424,2075.5,-107.1785866873605,194.07142761775424,2186.5,-107.1785866873605,194.07142761775424,2299.1,-107.1785866873605,194.07142761775424,2408.2,-107.1785866873605,194.07142761775424,2519.1,-107.1785866873605,194.07142761775424,2633.3,-107.1785866873605,194.07142761775424,2743.5,-107.1785866873605,194.07142761775424,2857.6,-107.1785866873605,194.07142761775424,2966.3,-107.1785866873605,194.07142761775424,3076.5,-107.1785866873605,194.07142761775424,3186.4,-107.1785866873605,194.07142761775424,3296,-107.1785866873605,194.07142761775424,3406,-107.1785866873605,194.07142761775424,3522.6,-107.1785866873605,194.07142761775424,3630.7,-107.1785866873605,194.07142761775424,3742.7,-107.1785866873605,194.07142761775424,3855,-107.1785866873605,194.07142761775424,3961.4,-107.1785866873605,194.07142761775424,4072.5,-107.1785866873605,194.07142761775424,4183.7,-107.1785866873605,194.07142761775424,4290.3,-107.1785866873605,194.07142761775424,4398.2,-107.1785866873605,194.07142761775424,4506.9,-107.1785866873605,194.07142761775424,4613.5,-107.1785866873605,194.07142761775424,4724,-107.1785866873605,194.07142761775424,4832.9,-107.1785866873605,194.07142761775424,4938.3]","[1497.8,1497.8,1000,0,497.8,""smooth"",""left"",""left"",""good_move"",9970.4,8472.1,2153.3,7262.7,554.5,""smooth"",""left"",""left"",""good_move"",16388.4,6417.3,2402.2,9971.1,4015.1,""smooth"",""up"",""up"",""good_move"",23855.1,7466.2,1903.9,16389,5562.2,""smooth"",""up"",""up"",""good_move""]"
"4404","","<div style=""width:500px;"">
  <p>What determined the result of this run?</p>
