"rt","response_timestamp","stimulus","response","trial_type","trial_index","time_elapsed","internal_node_id","run_id","condition","recorded_at","source_code_version","ip","user_agent","device","browser","browser_version","platform","platform_version","referer","accept_language","PROLIFIC_PID","STUDY_ID","SESSION_ID","BATCH","prolific_id","batch","realtime","success","question_order","question_id","eventType","responses","item_order","radio_event_ids","radio_event_times","key_event_times","mouse_event_times","straightlining","zigzagging","honeypot","view_history","slider_start","which_type","canvas_config","goals_layout","control_level","trial_number","tutorial_trial_number","trial_start_time","phase1_start_time","phase2_start_time","phase3_start_time","goal_1_value","goal_1_distance","goal_2_value","goal_2_distance","goal_selected","outcome","outcome_total","participant_final_score","participant_initial_score","participant_final_score_prop","goal_choice_rt","allocated_time","allocated_time_remaining","goal_direction","counts","mouse_movements","key_presses"
"15642","1753867885022","<p style='font-size:40px;line-height:1.25'><strong>Welcome to the experiment!</strong></p><p style='font-size:1.1em;line-height:1.25'>Thank you for participanting in our experiment again! You will be asked to play the Dysfunctional Ball Game again. We will briefly recap the rules before we start.</p><p style='font-size:1.1em;line-height:1.25'>Press <strong>Next</strong> to continue.</p>","0","custom-html-button-response","0","15645","0.0-0.0","82","1","2025-07-30 09:31:09","36c45c0696341be0efffe67d72a12abb","94.60.138.208","Mozilla/5.0 (Windows NT 10.0; Win64; x64) AppleWebKit/537.36 (KHTML, like Gecko) Chrome/138.0.0.0 Safari/537.36","WebKit","Chrome","138.0.0.0","Windows","10.0","https://app.prolific.com/","pt-PT,pt;q=0.9,en-US;q=0.8,en;q=0.7","5da03c3607c83700140a3d8f","687a360dabe5252b5ada7185","6889e652eda61d816791b24a","0","5da03c3607c83700140a3d8f","0","2025-07-30T09:31:25.024Z","","","","","","","","","","","","","","","","","","","","","","","","","","","","","","","","","","","","","","","","","",""
"7440","","","","fullscreen","1","24106","0.0-1.0","82","1","2025-07-30 09:31:09","36c45c0696341be0efffe67d72a12abb","94.60.138.208","Mozilla/5.0 (Windows NT 10.0; Win64; x64) AppleWebKit/537.36 (KHTML, like Gecko) Chrome/138.0.0.0 Safari/537.36","WebKit","Chrome","138.0.0.0","Windows","10.0","https://app.prolific.com/","pt-PT,pt;q=0.9,en-US;q=0.8,en;q=0.7","5da03c3607c83700140a3d8f","687a360dabe5252b5ada7185","6889e652eda61d816791b24a","0","5da03c3607c83700140a3d8f","0","","true","","","","","","","","","","","","","","","","","","","","","","","","","","","","","","","","","","","","","","","","",""
"5583","1753867899069"," <p style='font-size:1.1em;line-height:1.25'>Thank you for closing all other tabs.</p><p style='font-size:1.1em;line-height:1.25'>We will now invite you to fill in some questionnaires, before starting the game.<br>This will take about 5 minutes.<br></p><p style='font-size:1.1em;line-height:1.25'>Press the <strong>Next</strong> button to continue.</p>","0","custom-html-button-response","2","29692","0.0-2.0","82","1","2025-07-30 09:31:09","36c45c0696341be0efffe67d72a12abb","94.60.138.208","Mozilla/5.0 (Windows NT 10.0; Win64; x64) AppleWebKit/537.36 (KHTML, like Gecko) Chrome/138.0.0.0 Safari/537.36","WebKit","Chrome","138.0.0.0","Windows","10.0","https://app.prolific.com/","pt-PT,pt;q=0.9,en-US;q=0.8,en;q=0.7","5da03c3607c83700140a3d8f","687a360dabe5252b5ada7185","6889e652eda61d816791b24a","0","5da03c3607c83700140a3d8f","0","2025-07-30T09:31:39.070Z","","","","","","","","","","","","","","","","","","","","","","","","","","","","","","","","","","","","","","","","","",""
"2831","","","{""assigned_sex"":""female""}","survey-multi-choice","3","32525","0.0-3.0-0.0","82","1","2025-07-30 09:31:09","36c45c0696341be0efffe67d72a12abb","94.60.138.208","Mozilla/5.0 (Windows NT 10.0; Win64; x64) AppleWebKit/537.36 (KHTML, like Gecko) Chrome/138.0.0.0 Safari/537.36","WebKit","Chrome","138.0.0.0","Windows","10.0","https://app.prolific.com/","pt-PT,pt;q=0.9,en-US;q=0.8,en;q=0.7","5da03c3607c83700140a3d8f","687a360dabe5252b5ada7185","6889e652eda61d816791b24a","0","5da03c3607c83700140a3d8f","0","","","[0]","0","demographics","","","","","","","","","","","","","","","","","","","","","","","","","","","","","","","","","","","","","",""
"7407","1753867909312","<p style='font-size:1.1em;line-height:1.25'>In the following, we will perform a baseline assessment. This means that we will ask you a few questions relating to your experiences over the past month.<br></p><p style='font-size:1.1em;line-height:1.25'>Press the <strong>Next</strong> button to continue.</p>","0","custom-html-button-response","4","39934","0.0-4.0-0.0","82","1","2025-07-30 09:31:09","36c45c0696341be0efffe67d72a12abb","94.60.138.208","Mozilla/5.0 (Windows NT 10.0; Win64; x64) AppleWebKit/537.36 (KHTML, like Gecko) Chrome/138.0.0.0 Safari/537.36","WebKit","Chrome","138.0.0.0","Windows","10.0","https://app.prolific.com/","pt-PT,pt;q=0.9,en-US;q=0.8,en;q=0.7","5da03c3607c83700140a3d8f","687a360dabe5252b5ada7185","6889e652eda61d816791b24a","0","5da03c3607c83700140a3d8f","0","2025-07-30T09:31:49.313Z","","","","","","","","","","","","","","","","","","","","","","","","","","","","","","","","","","","","","","","","","",""
"52781.299999952316","","","","survey-template","5","92722","0.0-4.0-1.0","82","1","2025-07-30 09:31:09","36c45c0696341be0efffe67d72a12abb","94.60.138.208","Mozilla/5.0 (Windows NT 10.0; Win64; x64) AppleWebKit/537.36 (KHTML, like Gecko) Chrome/138.0.0.0 Safari/537.36","WebKit","Chrome","138.0.0.0","Windows","10.0","https://app.prolific.com/","pt-PT,pt;q=0.9,en-US;q=0.8,en;q=0.7","5da03c3607c83700140a3d8f","687a360dabe5252b5ada7185","6889e652eda61d816791b24a","0","5da03c3607c83700140a3d8f","0","2025-07-30T09:32:42.100Z","","","","pss","{""Q01"":""2"",""Q02"":""1"",""Q03"":""2"",""Q04"":""1"",""Q05"":""1"",""Q06"":""2"",""Q07"":""1"",""Q08"":""2"",""Q09"":""1"",""Q10"":""2""}","[0,1,2,3,4,5,6,7,8,9]","[""Q01"",""Q02"",""Q03"",""Q04"",""Q05"",""Q06"",""Q07"",""Q08"",""Q09"",""Q10""]","[9895.099999904633,13694.299999952316,17741.599999904633,22667.5,25281.39999985695,31152.39999985695,37176.199999809265,41333.199999809265,45567.59999990463,51685.799999952316]","[]","[0.09999990463256836,8891,9895.099999904633,13694.299999952316,16783.89999985695,17741.599999904633,22667.5,25281.39999985695,30132.299999952316,31152.39999985695,35434.09999990463,36249.59999990463,37176.199999809265,40451.199999809265,41333.199999809265,45567.59999990463,50807.799999952316,51685.799999952316,52775.699999809265]","0.5","0.8888888888888888","0","","","","","","","","","","","","","","","","","","","","","","","","","","","","",""
"3106","1753867965207","<p style='font-size:1.1em;line-height:1.25'>Thank you for your answers! Now we will ask you a few more questions relating to your feelings in the last 24 hours.<br></p><p style='font-size:1.1em;line-height:1.25'>Press the <strong>Next</strong> button to continue.</p>","0","custom-html-button-response","6","95829","0.0-4.0-2.0","82","1","2025-07-30 09:31:09","36c45c0696341be0efffe67d72a12abb","94.60.138.208","Mozilla/5.0 (Windows NT 10.0; Win64; x64) AppleWebKit/537.36 (KHTML, like Gecko) Chrome/138.0.0.0 Safari/537.36","WebKit","Chrome","138.0.0.0","Windows","10.0","https://app.prolific.com/","pt-PT,pt;q=0.9,en-US;q=0.8,en;q=0.7","5da03c3607c83700140a3d8f","687a360dabe5252b5ada7185","6889e652eda61d816791b24a","0","5da03c3607c83700140a3d8f","0","2025-07-30T09:32:45.207Z","","","","","","","","","","","","","","","","","","","","","","","","","","","","","","","","","","","","","","","","","",""
"72951.60000014305","","","","survey-template","7","168787","0.0-4.0-3.0","82","1","2025-07-30 09:31:09","36c45c0696341be0efffe67d72a12abb","94.60.138.208","Mozilla/5.0 (Windows NT 10.0; Win64; x64) AppleWebKit/537.36 (KHTML, like Gecko) Chrome/138.0.0.0 Safari/537.36","WebKit","Chrome","138.0.0.0","Windows","10.0","https://app.prolific.com/","pt-PT,pt;q=0.9,en-US;q=0.8,en;q=0.7","5da03c3607c83700140a3d8f","687a360dabe5252b5ada7185","6889e652eda61d816791b24a","0","5da03c3607c83700140a3d8f","0","2025-07-30T09:33:58.165Z","","","","drsp","{""Q01"":""0"",""Q02"":""0"",""Q03"":""0"",""Q04"":""2"",""Q05"":""1"",""Q06"":""1"",""Q07"":""0"",""Q08"":""0"",""Q09"":""0"",""Q10"":""1"",""Q11"":""2"",""Q12"":""0"",""Q13"":""5"",""Q14"":""0"",""Q15"":""1"",""Q16"":""0"",""Q17"":""2"",""Q18"":""0"",""Q19"":""0"",""Q20"":""1"",""Q21"":""1"",""Q22"":""1""}","[0,1,2,3,4,5,6,7,8,9,10,11,12,13,14,15,16,17,18,19,20,21]","[""Q01"",""Q02"",""Q03"",""Q04"",""Q05"",""Q05"",""Q06"",""Q07"",""Q08"",""Q09"",""Q10"",""Q11"",""Q12"",""Q13"",""Q14"",""Q15"",""Q16"",""Q17"",""Q18"",""Q19"",""Q20"",""Q21"",""Q22""]","[4088.300000190735,6608.700000047684,11240.400000095367,13260.100000143051,15611.5,17949.200000047684,20542.60000014305,24269.400000095367,28581.5,29612.60000014305,30960.200000047684,33376,35581.800000190735,37397.700000047684,41967.300000190735,46141.60000014305,50287.10000014305,52852.800000190735,54941.300000190735,58375.800000190735,64374.200000047684,69833.70000004768,71848.10000014305]","[]","[0,4088.300000190735,6608.700000047684,9599.400000095367,11240.400000095367,12351.400000095367,13260.100000143051,14776,15611.5,16961,17949.200000047684,20542.60000014305,24269.400000095367,28581.5,29612.60000014305,30960.200000047684,33376,35581.800000190735,37397.700000047684,41113.300000190735,41967.300000190735,45443.60000014305,46141.60000014305,50287.10000014305,52852.800000190735,53984,54941.300000190735,58375.800000190735,62559.40000009537,63415.60000014305,64374.200000047684,68720.60000014305,69833.70000004768,71848.10000014305,72942.70000004768]","0.5","0.42857142857142855","0","","","","","","","","","","","","","","","","","","","","","","","","","","","","",""
"10467.900000095367","","","","survey-template","8","179257","0.0-4.0-4.0","82","1","2025-07-30 09:31:09","36c45c0696341be0efffe67d72a12abb","94.60.138.208","Mozilla/5.0 (Windows NT 10.0; Win64; x64) AppleWebKit/537.36 (KHTML, like Gecko) Chrome/138.0.0.0 Safari/537.36","WebKit","Chrome","138.0.0.0","Windows","10.0","https://app.prolific.com/","pt-PT,pt;q=0.9,en-US;q=0.8,en;q=0.7","5da03c3607c83700140a3d8f","687a360dabe5252b5ada7185","6889e652eda61d816791b24a","0","5da03c3607c83700140a3d8f","0","2025-07-30T09:34:08.636Z","","","","stress","{""Q01"":""2"",""Q02"":""2"",""Q03"":""2""}","[0,1,2]","[""Q01"",""Q02"",""Q03""]","[5696.900000095367,6757.5,8979.5]","[]","[4285.200000047684,5696.900000095367,6757.5,8979.5,10466.299999952316]","0.6666666666666666","1","0","","","","","","","","","","","","","","","","","","","","","","","","","","","","",""
"34585","","","","instructions","9","213845","0.0-5.0-0.0","82","1","2025-07-30 09:31:09","36c45c0696341be0efffe67d72a12abb","94.60.138.208","Mozilla/5.0 (Windows NT 10.0; Win64; x64) AppleWebKit/537.36 (KHTML, like Gecko) Chrome/138.0.0.0 Safari/537.36","WebKit","Chrome","138.0.0.0","Windows","10.0","https://app.prolific.com/","pt-PT,pt;q=0.9,en-US;q=0.8,en;q=0.7","5da03c3607c83700140a3d8f","687a360dabe5252b5ada7185","6889e652eda61d816791b24a","0","5da03c3607c83700140a3d8f","0","","","","","","","","","","","","","","","[{""page_index"":0,""viewing_time"":34585}]","","","","","","","","","","","","","","","","","","","","","","","","","","","",""
"10632","","<p>Before you start with this game please answer the following three questions yourself. </p>
  <p>Through this game, we measure several aspects of your cognitive performance, such as reaction times, multi-tasking capabilities </p>
  <p>and the ability to assess the situation you are in.</p>
  <p></p>
  <p><b>How good do you usually are in such tasks?</b></p>","27","html-slider-response","10","224481","0.0-6.0-0.0","82","1","2025-07-30 09:31:09","36c45c0696341be0efffe67d72a12abb","94.60.138.208","Mozilla/5.0 (Windows NT 10.0; Win64; x64) AppleWebKit/537.36 (KHTML, like Gecko) Chrome/138.0.0.0 Safari/537.36","WebKit","Chrome","138.0.0.0","Windows","10.0","https://app.prolific.com/","pt-PT,pt;q=0.9,en-US;q=0.8,en;q=0.7","5da03c3607c83700140a3d8f","687a360dabe5252b5ada7185","6889e652eda61d816791b24a","0","5da03c3607c83700140a3d8f","0","2025-07-30T09:34:53.859Z","","","","PreSkillQ","","","","","","","","","","","50","","","","","","","","","","","","","","","","","","","","","","","","","","",""
"4895","","<div style=""width:500px;"">
  <p>How well do you think you will perform in this task compared to other participants?</p>
  </div>","26","html-slider-response","11","229378","0.0-6.0-1.0","82","1","2025-07-30 09:31:09","36c45c0696341be0efffe67d72a12abb","94.60.138.208","Mozilla/5.0 (Windows NT 10.0; Win64; x64) AppleWebKit/537.36 (KHTML, like Gecko) Chrome/138.0.0.0 Safari/537.36","WebKit","Chrome","138.0.0.0","Windows","10.0","https://app.prolific.com/","pt-PT,pt;q=0.9,en-US;q=0.8,en;q=0.7","5da03c3607c83700140a3d8f","687a360dabe5252b5ada7185","6889e652eda61d816791b24a","0","5da03c3607c83700140a3d8f","0","2025-07-30T09:34:58.756Z","","","","PrePerfQ","","","","","","","","","","","50","","","","","","","","","","","","","","","","","","","","","","","","","","",""
"4199","","<div style=""width:500px;"">
  <p>What best describes how you currently feel?</p>
  </div>","67","html-slider-response","12","233578","0.0-6.0-2.0","82","1","2025-07-30 09:31:09","36c45c0696341be0efffe67d72a12abb","94.60.138.208","Mozilla/5.0 (Windows NT 10.0; Win64; x64) AppleWebKit/537.36 (KHTML, like Gecko) Chrome/138.0.0.0 Safari/537.36","WebKit","Chrome","138.0.0.0","Windows","10.0","https://app.prolific.com/","pt-PT,pt;q=0.9,en-US;q=0.8,en;q=0.7","5da03c3607c83700140a3d8f","687a360dabe5252b5ada7185","6889e652eda61d816791b24a","0","5da03c3607c83700140a3d8f","0","2025-07-30T09:35:02.956Z","","","","PreMotivationQ","","","","","","","","","","","50","","","","","","","","","","","","","","","","","","","","","","","","","","",""
"","","","","ctl-task-cpt","13","272367","0.0-7.0-0.0","82","1","2025-07-30 09:31:09","36c45c0696341be0efffe67d72a12abb","94.60.138.208","Mozilla/5.0 (Windows NT 10.0; Win64; x64) AppleWebKit/537.36 (KHTML, like Gecko) Chrome/138.0.0.0 Safari/537.36","WebKit","Chrome","138.0.0.0","Windows","10.0","https://app.prolific.com/","pt-PT,pt;q=0.9,en-US;q=0.8,en;q=0.7","5da03c3607c83700140a3d8f","687a360dabe5252b5ada7185","6889e652eda61d816791b24a","0","5da03c3607c83700140a3d8f","0","2025-07-30T09:35:41.745Z","","","","","","","","","","","","","","","","win-only","3","g1:SW,g2:NE","1","1","0","234802.8","3608.2","8610.9","35777.7","1","4","8","6","2","8","7","7","0","0.05303030303030303","1736.5","3000","195","[""up"",""right""]","{""num_key_presses"":8,""num_perfect"":7,""num_errors"":1,""num_randdir"":0,""num_randdir_good_moves"":0,""num_whilered"":0,""num_whileblue"":1,""num_blue"":3,""num_good_moves"":7}","[297.22232142857143,292.12857142857143,1.4,297.22232142857143,292.12857142857143,102.8,297.22232142857143,292.12857142857143,207.7,297.22232142857143,292.12857142857143,308,297.22232142857143,292.12857142857143,409,261.22232142857143,310.12857142857143,512.8,236.22232142857143,331.12857142857143,612.8,231.22232142857143,340.12857142857143,718.5,238.22232142857143,342.12857142857143,819.4,247.22232142857143,341.12857142857143,922.6,245.22232142857143,341.12857142857143,1022.8,23.222321428571426,533.1285714285714,1123.5,481.22232142857143,65.12857142857143,1229.1,490.22232142857143,55.128571428571426,1333.6,457.22232142857143,99.12857142857143,1434.5,543.2223214285714,54.128571428571426,1536.4,552.2223214285714,51.128571428571426,1641,552.2223214285714,51.128571428571426,1751,552.2223214285714,51.128571428571426,1853.3,552.2223214285714,51.128571428571426,1957.7,552.2223214285714,51.128571428571426,2058.6,552.2223214285714,51.128571428571426,2162.7,552.2223214285714,51.128571428571426,2263.2,552.2223214285714,51.128571428571426,2367.9,552.2223214285714,51.128571428571426,2468.6,552.2223214285714,51.128571428571426,2573.1,552.2223214285714,51.128571428571426,2678.7,552.2223214285714,51.128571428571426,2782.6,552.2223214285714,51.128571428571426,2882.9,552.2223214285714,51.128571428571426,2987.9,552.2223214285714,51.128571428571426,3088.2,552.2223214285714,51.128571428571426,3188.5,552.2223214285714,51.128571428571426,3292.7,552.2223214285714,51.128571428571426,3393,552.2223214285714,51.128571428571426,3493.2,552.2223214285714,51.128571428571426,3597.6,552.2223214285714,51.128571428571426,3697.7,552.2223214285714,51.128571428571426,3798.5,552.2223214285714,51.128571428571426,3902.2,552.2223214285714,51.128571428571426,4003.3,552.2223214285714,51.128571428571426,4108.3,552.2223214285714,51.128571428571426,4213.3,552.2223214285714,51.128571428571426,4318.6,552.2223214285714,51.128571428571426,4422.8,552.2223214285714,51.128571428571426,4523.4,552.2223214285714,51.128571428571426,4628,552.2223214285714,51.128571428571426,4728,552.2223214285714,51.128571428571426,4829,552.2223214285714,51.128571428571426,4932.4]","[1434.8,1434.7,1000,0.1,434.7,""smooth"",""right"",""right"",""good_move"",7355.9,5920.7,2418.2,4535.3,402.5,""smooth"",""right"",""right"",""good_move"",9699.7,2343.2,1945.7,7356.5,397.5,""smooth"",""right"",""right"",""good_move"",14848.1,5147.9,1909.6,12565.3,373.2,""smooth"",""up"",""up"",""good_move"",17814.5,2966,2597,14848.6,368.9,""smooth"",""up"",""up"",""good_move"",20657.1,2842.3,2479.6,17814.9,362.6,""while_blue"",""up"",""left"",""bad_move"",23816.8,3159.2,2666.6,20657.6,492.6,""smooth"",""up"",""up"",""good_move"",27067.5,3249.9,2839.2,23817.6,410.7,""smooth"",""right"",""right"",""good_move""]"
"5028","","<div style=""width:500px;"">
  <p>What determined the result of this run?</p>
  </div>","100","html-slider-response","14","277398","0.0-7.0-1.0","82","1","2025-07-30 09:31:09","36c45c0696341be0efffe67d72a12abb","94.60.138.208","Mozilla/5.0 (Windows NT 10.0; Win64; x64) AppleWebKit/537.36 (KHTML, like Gecko) Chrome/138.0.0.0 Safari/537.36","WebKit","Chrome","138.0.0.0","Windows","10.0","https://app.prolific.com/","pt-PT,pt;q=0.9,en-US;q=0.8,en;q=0.7","5da03c3607c83700140a3d8f","687a360dabe5252b5ada7185","6889e652eda61d816791b24a","0","5da03c3607c83700140a3d8f","0","2025-07-30T09:35:46.777Z","","","","AttribQ","","","","","","","","","","","50","","","","","","","","","","","","","","","","","","","","","","","","","","",""
"3177","","<div style=""width:500px;"">
  <p>How much control did you have over the ball?</p>
  </div>","100","html-slider-response","15","280578","0.0-7.0-2.0","82","1","2025-07-30 09:31:09","36c45c0696341be0efffe67d72a12abb","94.60.138.208","Mozilla/5.0 (Windows NT 10.0; Win64; x64) AppleWebKit/537.36 (KHTML, like Gecko) Chrome/138.0.0.0 Safari/537.36","WebKit","Chrome","138.0.0.0","Windows","10.0","https://app.prolific.com/","pt-PT,pt;q=0.9,en-US;q=0.8,en;q=0.7","5da03c3607c83700140a3d8f","687a360dabe5252b5ada7185","6889e652eda61d816791b24a","0","5da03c3607c83700140a3d8f","0","2025-07-30T09:35:49.956Z","","","","ControlQ","","","","","","","","","","","50","","","","","","","","","","","","","","","","","","","","","","","","","","",""
"5388","","<div style=""width:500px;"">
  <p>How would you describe your current emotional state?</p>
  </div>","37","html-slider-response","16","285968","0.0-7.0-3.0","82","1","2025-07-30 09:31:09","36c45c0696341be0efffe67d72a12abb","94.60.138.208","Mozilla/5.0 (Windows NT 10.0; Win64; x64) AppleWebKit/537.36 (KHTML, like Gecko) Chrome/138.0.0.0 Safari/537.36","WebKit","Chrome","138.0.0.0","Windows","10.0","https://app.prolific.com/","pt-PT,pt;q=0.9,en-US;q=0.8,en;q=0.7","5da03c3607c83700140a3d8f","687a360dabe5252b5ada7185","6889e652eda61d816791b24a","0","5da03c3607c83700140a3d8f","0","2025-07-30T09:35:55.346Z","","","","StressQ","","","","","","","","","","","50","","","","","","","","","","","","","","","","","","","","","","","","","","",""
"3513","","<div style=""width:500px;"">
  <p>What best describes how you currently feel?</p>
  </div>","70","html-slider-response","17","289482","0.0-7.0-4.0","82","1","2025-07-30 09:31:09","36c45c0696341be0efffe67d72a12abb","94.60.138.208","Mozilla/5.0 (Windows NT 10.0; Win64; x64) AppleWebKit/537.36 (KHTML, like Gecko) Chrome/138.0.0.0 Safari/537.36","WebKit","Chrome","138.0.0.0","Windows","10.0","https://app.prolific.com/","pt-PT,pt;q=0.9,en-US;q=0.8,en;q=0.7","5da03c3607c83700140a3d8f","687a360dabe5252b5ada7185","6889e652eda61d816791b24a","0","5da03c3607c83700140a3d8f","0","2025-07-30T09:35:58.861Z","","","","MotivationQ","","","","","","","","","","","50","","","","","","","","","","","","","","","","","","","","","","","","","","",""
"","","","","ctl-task-cpt","18","320690","0.0-7.0-0.1","82","1","2025-07-30 09:31:09","36c45c0696341be0efffe67d72a12abb","94.60.138.208","Mozilla/5.0 (Windows NT 10.0; Win64; x64) AppleWebKit/537.36 (KHTML, like Gecko) Chrome/138.0.0.0 Safari/537.36","WebKit","Chrome","138.0.0.0","Windows","10.0","https://app.prolific.com/","pt-PT,pt;q=0.9,en-US;q=0.8,en;q=0.7","5da03c3607c83700140a3d8f","687a360dabe5252b5ada7185","6889e652eda61d816791b24a","0","5da03c3607c83700140a3d8f","0","2025-07-30T09:36:30.068Z","","","","","","","","","","","","","","","","win-only","0","g1:NW,g2:SE","0.9","2","0","290703.2","3321.7","8326","28201.1","1","4","4","6","2","4","4","11","7","0.08333333333333333","1098.2","3000","495","[""down"",""right""]","{""num_key_presses"":6,""num_perfect"":5,""num_errors"":0,""num_randdir"":1,""num_randdir_good_moves"":1,""num_whilered"":0,""num_whileblue"":0,""num_blue"":1,""num_good_moves"":6}","[293.22232142857143,296.12857142857143,0.2,293.22232142857143,296.12857142857143,103.5,293.22232142857143,296.12857142857143,204.5,293.22232142857143,296.12857142857143,309.5,293.22232142857143,296.12857142857143,414.1,293.22232142857143,296.12857142857143,518.8,293.22232142857143,296.12857142857143,624.8,455.22232142857143,415.12857142857143,729.3,536.2223214285714,505.12857142857143,830.3,537.2223214285714,505.12857142857143,934.1,537.2223214285714,505.12857142857143,1034.4,537.2223214285714,505.12857142857143,1141.1,537.2223214285714,505.12857142857143,1244.5,537.2223214285714,505.12857142857143,1350.3,537.2223214285714,505.12857142857143,1455.3,537.2223214285714,505.12857142857143,1559.7,537.2223214285714,505.12857142857143,1663.9,537.2223214285714,505.12857142857143,1764.1,537.2223214285714,505.12857142857143,1864.8,537.2223214285714,505.12857142857143,1969.3,537.2223214285714,505.12857142857143,2069.4,537.2223214285714,505.12857142857143,2175,537.2223214285714,505.12857142857143,2275.6,537.2223214285714,505.12857142857143,2376.1,537.2223214285714,505.12857142857143,2479.3,537.2223214285714,505.12857142857143,2584.5,537.2223214285714,505.12857142857143,2689.5,537.2223214285714,505.12857142857143,2793.9,537.2223214285714,505.12857142857143,2894.1,537.2223214285714,505.12857142857143,2994.2,537.2223214285714,505.12857142857143,3094.7,537.2223214285714,505.12857142857143,3198.9,537.2223214285714,505.12857142857143,3299,537.2223214285714,505.12857142857143,3399.3,537.2223214285714,505.12857142857143,3505,537.2223214285714,505.12857142857143,3608.6,537.2223214285714,505.12857142857143,3708.9,537.2223214285714,505.12857142857143,3809.5,537.2223214285714,505.12857142857143,3914.2,537.2223214285714,505.12857142857143,4019.8,537.2223214285714,505.12857142857143,4124.2,537.2223214285714,505.12857142857143,4230.3,537.2223214285714,505.12857142857143,4334.6,537.2223214285714,505.12857142857143,4435,537.2223214285714,505.12857142857143,4535.2,537.2223214285714,505.12857142857143,4638.6,537.2223214285714,505.12857142857143,4739.6,537.2223214285714,505.12857142857143,4844.2,537.2223214285714,505.12857142857143,4944.2]","[5212.6,5212.6,2779.9,2009.6,423.1,""smooth"",""down"",""down"",""good_move"",8557.7,3344.8,2887,5212.9,457.8,""oops"",""down"",""right"",""good_move"",11487.1,2929.1,2438.6,8558,490.5,""smooth"",""down"",""down"",""good_move"",13843.1,2355.8,1919.6,11487.3,436.2,""smooth"",""down"",""down"",""good_move"",16849.5,3006.1,2622.5,13843.4,383.6,""smooth"",""right"",""right"",""good_move"",19778,2928.3,2584,16849.7,344.3,""smooth"",""right"",""right"",""good_move""]"
"4217","","<div style=""width:500px;"">
  <p>What determined the result of this run?</p>
  </div>","76","html-slider-response","19","324908","0.0-7.0-1.1","82","1","2025-07-30 09:31:09","36c45c0696341be0efffe67d72a12abb","94.60.138.208","Mozilla/5.0 (Windows NT 10.0; Win64; x64) AppleWebKit/537.36 (KHTML, like Gecko) Chrome/138.0.0.0 Safari/537.36","WebKit","Chrome","138.0.0.0","Windows","10.0","https://app.prolific.com/","pt-PT,pt;q=0.9,en-US;q=0.8,en;q=0.7","5da03c3607c83700140a3d8f","687a360dabe5252b5ada7185","6889e652eda61d816791b24a","0","5da03c3607c83700140a3d8f","0","2025-07-30T09:36:34.287Z","","","","AttribQ","","","","","","","","","","","50","","","","","","","","","","","","","","","","","","","","","","","","","","",""
"5080","","<div style=""width:500px;"">
  <p>How much control did you have over the ball?</p>
  </div>","80","html-slider-response","20","329990","0.0-7.0-2.1","82","1","2025-07-30 09:31:09","36c45c0696341be0efffe67d72a12abb","94.60.138.208","Mozilla/5.0 (Windows NT 10.0; Win64; x64) AppleWebKit/537.36 (KHTML, like Gecko) Chrome/138.0.0.0 Safari/537.36","WebKit","Chrome","138.0.0.0","Windows","10.0","https://app.prolific.com/","pt-PT,pt;q=0.9,en-US;q=0.8,en;q=0.7","5da03c3607c83700140a3d8f","687a360dabe5252b5ada7185","6889e652eda61d816791b24a","0","5da03c3607c83700140a3d8f","0","2025-07-30T09:36:39.368Z","","","","ControlQ","","","","","","","","","","","50","","","","","","","","","","","","","","","","","","","","","","","","","","",""
"3823","","<div style=""width:500px;"">
  <p>How would you describe your current emotional state?</p>
  </div>","37","html-slider-response","21","333814","0.0-7.0-3.1","82","1","2025-07-30 09:31:09","36c45c0696341be0efffe67d72a12abb","94.60.138.208","Mozilla/5.0 (Windows NT 10.0; Win64; x64) AppleWebKit/537.36 (KHTML, like Gecko) Chrome/138.0.0.0 Safari/537.36","WebKit","Chrome","138.0.0.0","Windows","10.0","https://app.prolific.com/","pt-PT,pt;q=0.9,en-US;q=0.8,en;q=0.7","5da03c3607c83700140a3d8f","687a360dabe5252b5ada7185","6889e652eda61d816791b24a","0","5da03c3607c83700140a3d8f","0","2025-07-30T09:36:43.192Z","","","","StressQ","","","","","","","","","","","50","","","","","","","","","","","","","","","","","","","","","","","","","","",""
"3091","","<div style=""width:500px;"">
  <p>What best describes how you currently feel?</p>
  </div>","80","html-slider-response","22","336906","0.0-7.0-4.1","82","1","2025-07-30 09:31:09","36c45c0696341be0efffe67d72a12abb","94.60.138.208","Mozilla/5.0 (Windows NT 10.0; Win64; x64) AppleWebKit/537.36 (KHTML, like Gecko) Chrome/138.0.0.0 Safari/537.36","WebKit","Chrome","138.0.0.0","Windows","10.0","https://app.prolific.com/","pt-PT,pt;q=0.9,en-US;q=0.8,en;q=0.7","5da03c3607c83700140a3d8f","687a360dabe5252b5ada7185","6889e652eda61d816791b24a","0","5da03c3607c83700140a3d8f","0","2025-07-30T09:36:46.284Z","","","","MotivationQ","","","","","","","","","","","50","","","","","","","","","","","","","","","","","","","","","","","","","","",""
"","","","","ctl-task-cpt","23","378186","0.0-7.0-0.2","82","1","2025-07-30 09:31:09","36c45c0696341be0efffe67d72a12abb","94.60.138.208","Mozilla/5.0 (Windows NT 10.0; Win64; x64) AppleWebKit/537.36 (KHTML, like Gecko) Chrome/138.0.0.0 Safari/537.36","WebKit","Chrome","138.0.0.0","Windows","10.0","https://app.prolific.com/","pt-PT,pt;q=0.9,en-US;q=0.8,en;q=0.7","5da03c3607c83700140a3d8f","687a360dabe5252b5ada7185","6889e652eda61d816791b24a","0","5da03c3607c83700140a3d8f","0","2025-07-30T09:37:27.564Z","","","","","","","","","","","","","","","","win-only","2","g1:SE,g2:NW","0.8","3","0","338127.6","1637.6","6640.9","38252.4","1","4","8","6","2","-8","-8","3","11","0.022727272727272728","1617","3000","-2720","[""left"",""up""]","{""num_key_presses"":8,""num_perfect"":6,""num_errors"":0,""num_randdir"":2,""num_randdir_good_moves"":0,""num_whilered"":0,""num_whileblue"":0,""num_blue"":2,""num_good_moves"":6}","[296.22232142857143,300.12857142857143,0.3,296.22232142857143,300.12857142857143,101.6,296.22232142857143,300.12857142857143,203.6,296.22232142857143,300.12857142857143,304.3,296.22232142857143,300.12857142857143,408.2,296.22232142857143,300.12857142857143,517.1,348.22232142857143,350.12857142857143,617.6,368.22232142857143,373.12857142857143,717.8,136.22232142857143,160.12857142857143,819,-45.777678571428574,38.128571428571426,923.2,-47.777678571428574,35.128571428571426,1033.8,-47.777678571428574,35.128571428571426,1133.9,-47.777678571428574,35.128571428571426,1237.7,-47.777678571428574,35.128571428571426,1338.6,35.222321428571426,41.128571428571426,1442.9,42.222321428571426,42.128571428571426,1543.3,42.222321428571426,42.128571428571426,1649.1,42.222321428571426,42.128571428571426,1752.9,42.222321428571426,42.128571428571426,1853.2,42.222321428571426,42.128571428571426,1953.2,42.222321428571426,42.128571428571426,2054.6,42.222321428571426,42.128571428571426,2159.4,42.222321428571426,42.128571428571426,2264.9,42.222321428571426,42.128571428571426,2368.2,42.222321428571426,42.128571428571426,2473.5,42.222321428571426,42.128571428571426,2573.6,42.222321428571426,42.128571428571426,2674.6,42.222321428571426,42.128571428571426,2780.7,42.222321428571426,42.128571428571426,2883.1,42.222321428571426,42.128571428571426,2983.6,42.222321428571426,42.128571428571426,3088.5,42.222321428571426,42.128571428571426,3197,42.222321428571426,42.128571428571426,3297.9,42.222321428571426,42.128571428571426,3402.8,42.222321428571426,42.128571428571426,3513.5,42.222321428571426,42.128571428571426,3618.6,42.222321428571426,42.128571428571426,3722.6,42.222321428571426,42.128571428571426,3823.5,42.222321428571426,42.128571428571426,3929,42.222321428571426,42.128571428571426,4029.6,42.222321428571426,42.128571428571426,4129.8,42.222321428571426,42.128571428571426,4233,42.222321428571426,42.128571428571426,4333.8,42.222321428571426,42.128571428571426,4439.2,42.222321428571426,42.128571428571426,4545.1,42.222321428571426,42.128571428571426,4645.3,42.222321428571426,42.128571428571426,4747.9,42.222321428571426,42.128571428571426,4848.2,42.222321428571426,42.128571428571426,4954]","[1609.3,1609.3,1000,0,609.3,""smooth"",""up"",""up"",""good_move"",4935.2,3325.6,2925.8,1609.6,399.8,""smooth"",""up"",""up"",""good_move"",11495.4,6560,2733.6,8355.1,406.7,""smooth"",""up"",""up"",""good_move"",17903.4,6407.7,2396.5,15144.3,362.7,""smooth"",""left"",""left"",""good_move"",21432.9,3529.3,3166.1,17903.7,363.2,""oops"",""left"",""down"",""bad_move"",23665.8,2232.6,1689.5,21433.2,543.1,""smooth"",""left"",""left"",""good_move"",27027.7,3361.7,3046.9,23666,314.8,""smooth"",""up"",""up"",""good_move"",29481.2,2453.4,2098.7,27027.9,354.7,""oops"",""left"",""right"",""bad_move""]"
"3437","","<div style=""width:500px;"">
  <p>What determined the result of this run?</p>
  </div>","17","html-slider-response","24","381624","0.0-7.0-1.2","82","1","2025-07-30 09:31:09","36c45c0696341be0efffe67d72a12abb","94.60.138.208","Mozilla/5.0 (Windows NT 10.0; Win64; x64) AppleWebKit/537.36 (KHTML, like Gecko) Chrome/138.0.0.0 Safari/537.36","WebKit","Chrome","138.0.0.0","Windows","10.0","https://app.prolific.com/","pt-PT,pt;q=0.9,en-US;q=0.8,en;q=0.7","5da03c3607c83700140a3d8f","687a360dabe5252b5ada7185","6889e652eda61d816791b24a","0","5da03c3607c83700140a3d8f","0","2025-07-30T09:37:31.002Z","","","","AttribQ","","","","","","","","","","","50","","","","","","","","","","","","","","","","","","","","","","","","","","",""
"3625","","<div style=""width:500px;"">
  <p>How much control did you have over the ball?</p>
  </div>","23","html-slider-response","25","385250","0.0-7.0-2.2","82","1","2025-07-30 09:31:09","36c45c0696341be0efffe67d72a12abb","94.60.138.208","Mozilla/5.0 (Windows NT 10.0; Win64; x64) AppleWebKit/537.36 (KHTML, like Gecko) Chrome/138.0.0.0 Safari/537.36","WebKit","Chrome","138.0.0.0","Windows","10.0","https://app.prolific.com/","pt-PT,pt;q=0.9,en-US;q=0.8,en;q=0.7","5da03c3607c83700140a3d8f","687a360dabe5252b5ada7185","6889e652eda61d816791b24a","0","5da03c3607c83700140a3d8f","0","2025-07-30T09:37:34.628Z","","","","ControlQ","","","","","","","","","","","50","","","","","","","","","","","","","","","","","","","","","","","","","","",""
"1916","","<div style=""width:500px;"">
  <p>How would you describe your current emotional state?</p>
  </div>","72","html-slider-response","26","387167","0.0-7.0-3.2","82","1","2025-07-30 09:31:09","36c45c0696341be0efffe67d72a12abb","94.60.138.208","Mozilla/5.0 (Windows NT 10.0; Win64; x64) AppleWebKit/537.36 (KHTML, like Gecko) Chrome/138.0.0.0 Safari/537.36","WebKit","Chrome","138.0.0.0","Windows","10.0","https://app.prolific.com/","pt-PT,pt;q=0.9,en-US;q=0.8,en;q=0.7","5da03c3607c83700140a3d8f","687a360dabe5252b5ada7185","6889e652eda61d816791b24a","0","5da03c3607c83700140a3d8f","0","2025-07-30T09:37:36.545Z","","","","StressQ","","","","","","","","","","","50","","","","","","","","","","","","","","","","","","","","","","","","","","",""
"3359","","<div style=""width:500px;"">
  <p>What best describes how you currently feel?</p>
  </div>","82","html-slider-response","27","390526","0.0-7.0-4.2","82","1","2025-07-30 09:31:09","36c45c0696341be0efffe67d72a12abb","94.60.138.208","Mozilla/5.0 (Windows NT 10.0; Win64; x64) AppleWebKit/537.36 (KHTML, like Gecko) Chrome/138.0.0.0 Safari/537.36","WebKit","Chrome","138.0.0.0","Windows","10.0","https://app.prolific.com/","pt-PT,pt;q=0.9,en-US;q=0.8,en;q=0.7","5da03c3607c83700140a3d8f","687a360dabe5252b5ada7185","6889e652eda61d816791b24a","0","5da03c3607c83700140a3d8f","0","2025-07-30T09:37:39.904Z","","","","MotivationQ","","","","","","","","","","","50","","","","","","","","","","","","","","","","","","","","","","","","","","",""
"","","","","ctl-task-cpt","28","431210","0.0-7.0-0.3","82","1","2025-07-30 09:31:09","36c45c0696341be0efffe67d72a12abb","94.60.138.208","Mozilla/5.0 (Windows NT 10.0; Win64; x64) AppleWebKit/537.36 (KHTML, like Gecko) Chrome/138.0.0.0 Safari/537.36","WebKit","Chrome","138.0.0.0","Windows","10.0","https://app.prolific.com/","pt-PT,pt;q=0.9,en-US;q=0.8,en;q=0.7","5da03c3607c83700140a3d8f","687a360dabe5252b5ada7185","6889e652eda61d816791b24a","0","5da03c3607c83700140a3d8f","0","2025-07-30T09:38:20.588Z","","","","","","","","","","","","","","","","win-only","3","g1:SW,g2:NE","0.7","4","0","391747.8","1164.7","6166.7","37676.2","1","4","4","6","2","-4","-5","0","3","0","1224.7","3000","-3005","[""up"",""right""]","{""num_key_presses"":8,""num_perfect"":5,""num_errors"":1,""num_randdir"":2,""num_randdir_good_moves"":1,""num_whilered"":0,""num_whileblue"":0,""num_blue"":2,""num_good_moves"":6}","[297.22232142857143,299.12857142857143,0.1,297.22232142857143,299.12857142857143,101.4,297.22232142857143,299.12857142857143,207.4,297.22232142857143,299.12857142857143,311.1,297.22232142857143,299.12857142857143,411.2,297.22232142857143,299.12857142857143,511.2,489.22232142857143,135.12857142857143,611.8,552.2223214285714,93.12857142857143,716.6,554.2223214285714,89.12857142857143,822.9,554.2223214285714,68.12857142857143,923.2,554.2223214285714,68.12857142857143,1026.3,554.2223214285714,68.12857142857143,1127,554.2223214285714,68.12857142857143,1238.6,554.2223214285714,68.12857142857143,1341.6,554.2223214285714,68.12857142857143,1442.1,554.2223214285714,68.12857142857143,1546.3,554.2223214285714,68.12857142857143,1646.6,554.2223214285714,68.12857142857143,1751.1,554.2223214285714,68.12857142857143,1851.4,554.2223214285714,68.12857142857143,1956.9,554.2223214285714,68.12857142857143,2056.9,554.2223214285714,68.12857142857143,2161.4,554.2223214285714,68.12857142857143,2261.4,554.2223214285714,68.12857142857143,2361.4,554.2223214285714,68.12857142857143,2466,554.2223214285714,68.12857142857143,2567.1,554.2223214285714,68.12857142857143,2671.2,554.2223214285714,68.12857142857143,2771.7,554.2223214285714,68.12857142857143,2875.9,554.2223214285714,68.12857142857143,2976.1,554.2223214285714,68.12857142857143,3076.2,554.2223214285714,68.12857142857143,3181.4,554.2223214285714,68.12857142857143,3286.6,554.2223214285714,68.12857142857143,3391.5,554.2223214285714,68.12857142857143,3496,554.2223214285714,68.12857142857143,3596.4,554.2223214285714,68.12857142857143,3696.4,554.2223214285714,68.12857142857143,3802.1,554.2223214285714,68.12857142857143,3906.7,554.2223214285714,68.12857142857143,4006.7,554.2223214285714,68.12857142857143,4110.6,554.2223214285714,68.12857142857143,4211.5,554.2223214285714,68.12857142857143,4316.7,554.2223214285714,68.12857142857143,4417.4,554.2223214285714,68.12857142857143,4522.1,554.2223214285714,68.12857142857143,4625.7,554.2223214285714,68.12857142857143,4726.5,554.2223214285714,68.12857142857143,4826.6,554.2223214285714,68.12857142857143,4926.8]","[4759.8,4759.8,2414.7,2009.6,335.5,""smooth"",""up"",""up"",""good_move"",12018,7257.9,3317.5,8374.4,326.1,""smooth"",""up"",""up"",""good_move"",15249.6,3231.4,2472.7,12018.2,758.7,""smooth"",""right"",""right"",""good_move"",15321.5,71.6,3832.8,15249.9,-3761.2,""error"",""-"",""-"",""no_move"",19523.5,4201.9,2888.9,16324.5,310.1,""smooth"",""up"",""up"",""good_move"",22518.8,2995.1,2553.3,19523.7,441.8,""oops"",""right"",""right"",""good_move"",25323.4,2804.2,2424.8,22519.2,379.4,""oops"",""right"",""left"",""bad_move"",28221.7,2897.8,2554.7,25323.9,343.1,""smooth"",""right"",""right"",""good_move""]"
"3885","","<div style=""width:500px;"">
  <p>What determined the result of this run?</p>
  </div>","25","html-slider-response","29","435096","0.0-7.0-1.3","82","1","2025-07-30 09:31:09","36c45c0696341be0efffe67d72a12abb","94.60.138.208","Mozilla/5.0 (Windows NT 10.0; Win64; x64) AppleWebKit/537.36 (KHTML, like Gecko) Chrome/138.0.0.0 Safari/537.36","WebKit","Chrome","138.0.0.0","Windows","10.0","https://app.prolific.com/","pt-PT,pt;q=0.9,en-US;q=0.8,en;q=0.7","5da03c3607c83700140a3d8f","687a360dabe5252b5ada7185","6889e652eda61d816791b24a","0","5da03c3607c83700140a3d8f","0","2025-07-30T09:38:24.474Z","","","","AttribQ","","","","","","","","","","","50","","","","","","","","","","","","","","","","","","","","","","","","","","",""
"3137","","<div style=""width:500px;"">
  <p>How much control did you have over the ball?</p>
  </div>","29","html-slider-response","30","438235","0.0-7.0-2.3","82","1","2025-07-30 09:31:09","36c45c0696341be0efffe67d72a12abb","94.60.138.208","Mozilla/5.0 (Windows NT 10.0; Win64; x64) AppleWebKit/537.36 (KHTML, like Gecko) Chrome/138.0.0.0 Safari/537.36","WebKit","Chrome","138.0.0.0","Windows","10.0","https://app.prolific.com/","pt-PT,pt;q=0.9,en-US;q=0.8,en;q=0.7","5da03c3607c83700140a3d8f","687a360dabe5252b5ada7185","6889e652eda61d816791b24a","0","5da03c3607c83700140a3d8f","0","2025-07-30T09:38:27.613Z","","","","ControlQ","","","","","","","","","","","50","","","","","","","","","","","","","","","","","","","","","","","","","","",""
"4009","","<div style=""width:500px;"">
  <p>How would you describe your current emotional state?</p>
  </div>","87","html-slider-response","31","442244","0.0-7.0-3.3","82","1","2025-07-30 09:31:09","36c45c0696341be0efffe67d72a12abb","94.60.138.208","Mozilla/5.0 (Windows NT 10.0; Win64; x64) AppleWebKit/537.36 (KHTML, like Gecko) Chrome/138.0.0.0 Safari/537.36","WebKit","Chrome","138.0.0.0","Windows","10.0","https://app.prolific.com/","pt-PT,pt;q=0.9,en-US;q=0.8,en;q=0.7","5da03c3607c83700140a3d8f","687a360dabe5252b5ada7185","6889e652eda61d816791b24a","0","5da03c3607c83700140a3d8f","0","2025-07-30T09:38:31.622Z","","","","StressQ","","","","","","","","","","","50","","","","","","","","","","","","","","","","","","","","","","","","","","",""
"2883","","<div style=""width:500px;"">
  <p>What best describes how you currently feel?</p>
  </div>","77","html-slider-response","32","445128","0.0-7.0-4.3","82","1","2025-07-30 09:31:09","36c45c0696341be0efffe67d72a12abb","94.60.138.208","Mozilla/5.0 (Windows NT 10.0; Win64; x64) AppleWebKit/537.36 (KHTML, like Gecko) Chrome/138.0.0.0 Safari/537.36","WebKit","Chrome","138.0.0.0","Windows","10.0","https://app.prolific.com/","pt-PT,pt;q=0.9,en-US;q=0.8,en;q=0.7","5da03c3607c83700140a3d8f","687a360dabe5252b5ada7185","6889e652eda61d816791b24a","0","5da03c3607c83700140a3d8f","0","2025-07-30T09:38:34.507Z","","","","MotivationQ","","","","","","","","","","","50","","","","","","","","","","","","","","","","","","","","","","","","","","",""
"","","","","ctl-task-cpt","33","499562","0.0-7.0-0.4","82","1","2025-07-30 09:31:09","36c45c0696341be0efffe67d72a12abb","94.60.138.208","Mozilla/5.0 (Windows NT 10.0; Win64; x64) AppleWebKit/537.36 (KHTML, like Gecko) Chrome/138.0.0.0 Safari/537.36","WebKit","Chrome","138.0.0.0","Windows","10.0","https://app.prolific.com/","pt-PT,pt;q=0.9,en-US;q=0.8,en;q=0.7","5da03c3607c83700140a3d8f","687a360dabe5252b5ada7185","6889e652eda61d816791b24a","0","5da03c3607c83700140a3d8f","0","2025-07-30T09:39:28.940Z","","","","","","","","","","","","","","","","win-only","1","g1:NE,g2:SW","0.6","5","0","446349.5","1962.9","6966.9","51416","1","4","8","6","2","-8","-8","0","0","0","1230","3000","-3000","[""down"",""left""]","{""num_key_presses"":8,""num_perfect"":5,""num_errors"":0,""num_randdir"":3,""num_randdir_good_moves"":1,""num_whilered"":0,""num_whileblue"":0,""num_blue"":6,""num_good_moves"":6}","[295.22232142857143,300.12857142857143,0.1,295.22232142857143,300.12857142857143,102.5,295.22232142857143,300.12857142857143,202.8,295.22232142857143,300.12857142857143,302.9,295.22232142857143,300.12857142857143,403.4,295.22232142857143,300.12857142857143,508.3,364.22232142857143,219.12857142857143,609.8,412.22232142857143,184.12857142857143,712.7,101.22232142857143,492.12857142857143,813.2,92.22232142857143,503.12857142857143,914.6,91.22232142857143,510.12857142857143,1017.3,91.22232142857143,510.12857142857143,1118.3,91.22232142857143,510.12857142857143,1224.2,91.22232142857143,510.12857142857143,1329.3,91.22232142857143,510.12857142857143,1429.3,91.22232142857143,510.12857142857143,1533.4,91.22232142857143,510.12857142857143,1637.5,91.22232142857143,510.12857142857143,1739,91.22232142857143,510.12857142857143,1839,91.22232142857143,510.12857142857143,1945,91.22232142857143,510.12857142857143,2048,91.22232142857143,510.12857142857143,2152.7,91.22232142857143,510.12857142857143,2253,91.22232142857143,510.12857142857143,2354.2,91.22232142857143,510.12857142857143,2460,91.22232142857143,510.12857142857143,2561.3,91.22232142857143,510.12857142857143,2662.5,91.22232142857143,510.12857142857143,2763,91.22232142857143,510.12857142857143,2867.5,91.22232142857143,510.12857142857143,2967.6,91.22232142857143,510.12857142857143,3067.6,91.22232142857143,510.12857142857143,3168.3,91.22232142857143,510.12857142857143,3272.8,91.22232142857143,510.12857142857143,3374.5,91.22232142857143,510.12857142857143,3477.6,91.22232142857143,510.12857142857143,3577.6,91.22232142857143,510.12857142857143,3678.9,91.22232142857143,510.12857142857143,3782.6,91.22232142857143,510.12857142857143,3884.2,91.22232142857143,510.12857142857143,3987.5,91.22232142857143,510.12857142857143,4087.6,91.22232142857143,510.12857142857143,4188.6,91.22232142857143,510.12857142857143,4291.5,91.22232142857143,510.12857142857143,4392.3,91.22232142857143,510.12857142857143,4493.4,91.22232142857143,510.12857142857143,4594.2,91.22232142857143,510.12857142857143,4697.9,91.22232142857143,510.12857142857143,4798.7,91.22232142857143,510.12857142857143,4903.3]","[11753.5,11753.5,2495,8834.3,424.2,""oops"",""down"",""right"",""bad_move"",15446.9,3692.5,3331,11754.4,361.5,""smooth"",""down"",""down"",""good_move"",18220.9,2773.7,2405.9,15447.2,367.8,""oops"",""down"",""down"",""good_move"",21608.6,3387.5,3030.9,18221.1,356.6,""smooth"",""down"",""down"",""good_move"",24361.4,2752.5,2378,21609,374.4,""smooth"",""left"",""left"",""good_move"",27032.7,2671,2313.5,24361.7,357.5,""oops"",""left"",""up"",""bad_move"",36841,9808,2636.9,33903.7,300.4,""smooth"",""left"",""left"",""good_move"",39002.7,2161.2,1752.7,36841.5,408.5,""smooth"",""left"",""left"",""good_move""]"
"2789","","<div style=""width:500px;"">
  <p>What determined the result of this run?</p>
  </div>","13","html-slider-response","34","502352","0.0-7.0-1.4","82","1","2025-07-30 09:31:09","36c45c0696341be0efffe67d72a12abb","94.60.138.208","Mozilla/5.0 (Windows NT 10.0; Win64; x64) AppleWebKit/537.36 (KHTML, like Gecko) Chrome/138.0.0.0 Safari/537.36","WebKit","Chrome","138.0.0.0","Windows","10.0","https://app.prolific.com/","pt-PT,pt;q=0.9,en-US;q=0.8,en;q=0.7","5da03c3607c83700140a3d8f","687a360dabe5252b5ada7185","6889e652eda61d816791b24a","0","5da03c3607c83700140a3d8f","0","2025-07-30T09:39:31.730Z","","","","AttribQ","","","","","","","","","","","50","","","","","","","","","","","","","","","","","","","","","","","","","","",""
"2364","","<div style=""width:500px;"">
  <p>How much control did you have over the ball?</p>
  </div>","18","html-slider-response","35","504717","0.0-7.0-2.4","82","1","2025-07-30 09:31:09","36c45c0696341be0efffe67d72a12abb","94.60.138.208","Mozilla/5.0 (Windows NT 10.0; Win64; x64) AppleWebKit/537.36 (KHTML, like Gecko) Chrome/138.0.0.0 Safari/537.36","WebKit","Chrome","138.0.0.0","Windows","10.0","https://app.prolific.com/","pt-PT,pt;q=0.9,en-US;q=0.8,en;q=0.7","5da03c3607c83700140a3d8f","687a360dabe5252b5ada7185","6889e652eda61d816791b24a","0","5da03c3607c83700140a3d8f","0","2025-07-30T09:39:34.095Z","","","","ControlQ","","","","","","","","","","","50","","","","","","","","","","","","","","","","","","","","","","","","","","",""
"2662","","<div style=""width:500px;"">
  <p>How would you describe your current emotional state?</p>
  </div>","95","html-slider-response","36","507380","0.0-7.0-3.4","82","1","2025-07-30 09:31:09","36c45c0696341be0efffe67d72a12abb","94.60.138.208","Mozilla/5.0 (Windows NT 10.0; Win64; x64) AppleWebKit/537.36 (KHTML, like Gecko) Chrome/138.0.0.0 Safari/537.36","WebKit","Chrome","138.0.0.0","Windows","10.0","https://app.prolific.com/","pt-PT,pt;q=0.9,en-US;q=0.8,en;q=0.7","5da03c3607c83700140a3d8f","687a360dabe5252b5ada7185","6889e652eda61d816791b24a","0","5da03c3607c83700140a3d8f","0","2025-07-30T09:39:36.758Z","","","","StressQ","","","","","","","","","","","50","","","","","","","","","","","","","","","","","","","","","","","","","","",""
"2998","","<div style=""width:500px;"">
  <p>What best describes how you currently feel?</p>
  </div>","68","html-slider-response","37","510381","0.0-7.0-4.4","82","1","2025-07-30 09:31:09","36c45c0696341be0efffe67d72a12abb","94.60.138.208","Mozilla/5.0 (Windows NT 10.0; Win64; x64) AppleWebKit/537.36 (KHTML, like Gecko) Chrome/138.0.0.0 Safari/537.36","WebKit","Chrome","138.0.0.0","Windows","10.0","https://app.prolific.com/","pt-PT,pt;q=0.9,en-US;q=0.8,en;q=0.7","5da03c3607c83700140a3d8f","687a360dabe5252b5ada7185","6889e652eda61d816791b24a","0","5da03c3607c83700140a3d8f","0","2025-07-30T09:39:39.759Z","","","","MotivationQ","","","","","","","","","","","50","","","","","","","","","","","","","","","","","","","","","","","","","","",""
"","","","","ctl-task-cpt","38","557216","0.0-7.0-0.5","82","1","2025-07-30 09:31:09","36c45c0696341be0efffe67d72a12abb","94.60.138.208","Mozilla/5.0 (Windows NT 10.0; Win64; x64) AppleWebKit/537.36 (KHTML, like Gecko) Chrome/138.0.0.0 Safari/537.36","WebKit","Chrome","138.0.0.0","Windows","10.0","https://app.prolific.com/","pt-PT,pt;q=0.9,en-US;q=0.8,en;q=0.7","5da03c3607c83700140a3d8f","687a360dabe5252b5ada7185","6889e652eda61d816791b24a","0","5da03c3607c83700140a3d8f","0","2025-07-30T09:40:26.594Z","","","","","","","","","","","","","","","","win-only","2","g1:SE,g2:NW","0.5","6","0","511605.2","1440.7","6442.3","43815.6","1","4","4","6","2","-4","-4","0","0","0","1201.8","3000","-2990","[""left"",""up""]","{""num_key_presses"":8,""num_perfect"":4,""num_errors"":0,""num_randdir"":4,""num_randdir_good_moves"":2,""num_whilered"":0,""num_whileblue"":0,""num_blue"":4,""num_good_moves"":6}","[295.22232142857143,297.12857142857143,0.1,295.22232142857143,297.12857142857143,101,295.22232142857143,297.12857142857143,202,295.22232142857143,297.12857142857143,305.6,295.22232142857143,297.12857142857143,410.1,295.22232142857143,297.12857142857143,510.1,224.22232142857143,265.12857142857143,610.6,77.22232142857143,175.12857142857143,711.1,68.22232142857143,171.12857142857143,814.8,68.22232142857143,171.12857142857143,914.8,45.222321428571426,25.128571428571426,1015.4,45.222321428571426,22.128571428571426,1116.4,45.222321428571426,22.128571428571426,1223,45.222321428571426,22.128571428571426,1324.7,45.222321428571426,22.128571428571426,1424.7,45.222321428571426,22.128571428571426,1524.8,45.222321428571426,22.128571428571426,1624.9,45.222321428571426,22.128571428571426,1725.9,45.222321428571426,22.128571428571426,1829.8,45.222321428571426,22.128571428571426,1930.3,45.222321428571426,22.128571428571426,2037,45.222321428571426,22.128571428571426,2137.4,45.222321428571426,22.128571428571426,2239.6,45.222321428571426,22.128571428571426,2340.1,45.222321428571426,22.128571428571426,2440.3,45.222321428571426,22.128571428571426,2541.2,45.222321428571426,22.128571428571426,2646,45.222321428571426,22.128571428571426,2750.7,45.222321428571426,22.128571428571426,2850.7,45.222321428571426,22.128571428571426,2951,45.222321428571426,22.128571428571426,3051.7,45.222321428571426,22.128571428571426,3154.8,45.222321428571426,22.128571428571426,3255.4,45.222321428571426,22.128571428571426,3361.8,45.222321428571426,22.128571428571426,3466.6,45.222321428571426,22.128571428571426,3569.6,45.222321428571426,22.128571428571426,3670.4,45.222321428571426,22.128571428571426,3775.7,45.222321428571426,22.128571428571426,3880.3,45.222321428571426,22.128571428571426,3981,45.222321428571426,22.128571428571426,4081.3,45.222321428571426,22.128571428571426,4182.1,45.222321428571426,22.128571428571426,4286.2,45.222321428571426,22.128571428571426,4390.3,45.222321428571426,22.128571428571426,4495,45.222321428571426,22.128571428571426,4595.2,45.222321428571426,22.128571428571426,4700.7,45.222321428571426,22.128571428571426,4800.8,45.222321428571426,22.128571428571426,4905.9]","[1331.1,1331.1,1000,0,331.1,""smooth"",""up"",""up"",""good_move"",4894.3,3563,3222.5,1331.4,340.5,""smooth"",""up"",""up"",""good_move"",7652.3,2757.8,2332.5,4894.5,425.3,""oops"",""up"",""down"",""bad_move"",10240.1,2586.9,2254.8,7653.2,332.1,""smooth"",""up"",""up"",""good_move"",19679.5,9439.3,2270,17044.9,364.6,""oops"",""up"",""up"",""good_move"",21895,2215.4,1862.8,19679.6,352.6,""smooth"",""left"",""left"",""good_move"",28673.9,6778.6,2746.5,25579.2,348.2,""oops"",""left"",""right"",""bad_move"",34185.5,5511.3,1665.4,32142.9,377.2,""oops"",""left"",""left"",""good_move""]"
"3270","","<div style=""width:500px;"">
  <p>What determined the result of this run?</p>
  </div>","20","html-slider-response","39","560486","0.0-7.0-1.5","82","1","2025-07-30 09:31:09","36c45c0696341be0efffe67d72a12abb","94.60.138.208","Mozilla/5.0 (Windows NT 10.0; Win64; x64) AppleWebKit/537.36 (KHTML, like Gecko) Chrome/138.0.0.0 Safari/537.36","WebKit","Chrome","138.0.0.0","Windows","10.0","https://app.prolific.com/","pt-PT,pt;q=0.9,en-US;q=0.8,en;q=0.7","5da03c3607c83700140a3d8f","687a360dabe5252b5ada7185","6889e652eda61d816791b24a","0","5da03c3607c83700140a3d8f","0","2025-07-30T09:40:29.864Z","","","","AttribQ","","","","","","","","","","","50","","","","","","","","","","","","","","","","","","","","","","","","","","",""
"2756","","<div style=""width:500px;"">
  <p>How much control did you have over the ball?</p>
  </div>","21","html-slider-response","40","563243","0.0-7.0-2.5","82","1","2025-07-30 09:31:09","36c45c0696341be0efffe67d72a12abb","94.60.138.208","Mozilla/5.0 (Windows NT 10.0; Win64; x64) AppleWebKit/537.36 (KHTML, like Gecko) Chrome/138.0.0.0 Safari/537.36","WebKit","Chrome","138.0.0.0","Windows","10.0","https://app.prolific.com/","pt-PT,pt;q=0.9,en-US;q=0.8,en;q=0.7","5da03c3607c83700140a3d8f","687a360dabe5252b5ada7185","6889e652eda61d816791b24a","0","5da03c3607c83700140a3d8f","0","2025-07-30T09:40:32.621Z","","","","ControlQ","","","","","","","","","","","50","","","","","","","","","","","","","","","","","","","","","","","","","","",""
"2217","","<div style=""width:500px;"">
  <p>How would you describe your current emotional state?</p>
  </div>","98","html-slider-response","41","565461","0.0-7.0-3.5","82","1","2025-07-30 09:31:09","36c45c0696341be0efffe67d72a12abb","94.60.138.208","Mozilla/5.0 (Windows NT 10.0; Win64; x64) AppleWebKit/537.36 (KHTML, like Gecko) Chrome/138.0.0.0 Safari/537.36","WebKit","Chrome","138.0.0.0","Windows","10.0","https://app.prolific.com/","pt-PT,pt;q=0.9,en-US;q=0.8,en;q=0.7","5da03c3607c83700140a3d8f","687a360dabe5252b5ada7185","6889e652eda61d816791b24a","0","5da03c3607c83700140a3d8f","0","2025-07-30T09:40:34.839Z","","","","StressQ","","","","","","","","","","","50","","","","","","","","","","","","","","","","","","","","","","","","","","",""
"3491","","<div style=""width:500px;"">
  <p>What best describes how you currently feel?</p>
  </div>","58","html-slider-response","42","568953","0.0-7.0-4.5","82","1","2025-07-30 09:31:09","36c45c0696341be0efffe67d72a12abb","94.60.138.208","Mozilla/5.0 (Windows NT 10.0; Win64; x64) AppleWebKit/537.36 (KHTML, like Gecko) Chrome/138.0.0.0 Safari/537.36","WebKit","Chrome","138.0.0.0","Windows","10.0","https://app.prolific.com/","pt-PT,pt;q=0.9,en-US;q=0.8,en;q=0.7","5da03c3607c83700140a3d8f","687a360dabe5252b5ada7185","6889e652eda61d816791b24a","0","5da03c3607c83700140a3d8f","0","2025-07-30T09:40:38.331Z","","","","MotivationQ","","","","","","","","","","","50","","","","","","","","","","","","","","","","","","","","","","","","","","",""
"","","","","ctl-task-cpt","43","611403","0.0-7.0-0.6","82","1","2025-07-30 09:31:09","36c45c0696341be0efffe67d72a12abb","94.60.138.208","Mozilla/5.0 (Windows NT 10.0; Win64; x64) AppleWebKit/537.36 (KHTML, like Gecko) Chrome/138.0.0.0 Safari/537.36","WebKit","Chrome","138.0.0.0","Windows","10.0","https://app.prolific.com/","pt-PT,pt;q=0.9,en-US;q=0.8,en;q=0.7","5da03c3607c83700140a3d8f","687a360dabe5252b5ada7185","6889e652eda61d816791b24a","0","5da03c3607c83700140a3d8f","0","2025-07-30T09:41:20.781Z","","","","","","","","","","","","","","","","win-only","3","g1:SW,g2:NE","0.4","7","0","570173.9","1621.9","6623.7","39440.2","1","4","4","6","2","-4","-4","0","0","0","1413.9","3000","-2975","[""up"",""right""]","{""num_key_presses"":8,""num_perfect"":4,""num_errors"":0,""num_randdir"":4,""num_randdir_good_moves"":2,""num_whilered"":0,""num_whileblue"":0,""num_blue"":3,""num_good_moves"":6}","[295.22232142857143,300.12857142857143,0.7,295.22232142857143,300.12857142857143,101.2,295.22232142857143,300.12857142857143,204.6,295.22232142857143,300.12857142857143,306.1,295.22232142857143,300.12857142857143,408.3,295.22232142857143,300.12857142857143,509.4,295.22232142857143,300.12857142857143,609.4,345.22232142857143,236.12857142857143,714.8,553.2223214285714,66.12857142857143,821.1,593.2223214285714,34.128571428571426,925.3,597.2223214285714,30.128571428571426,1029.3,597.2223214285714,30.128571428571426,1137.3,542.2223214285714,45.128571428571426,1238.9,540.2223214285714,45.128571428571426,1340.6,540.2223214285714,45.128571428571426,1444.4,540.2223214285714,45.128571428571426,1548.8,540.2223214285714,45.128571428571426,1650.3,540.2223214285714,45.128571428571426,1755.8,540.2223214285714,45.128571428571426,1858.8,540.2223214285714,45.128571428571426,1966.2,540.2223214285714,45.128571428571426,2068.8,540.2223214285714,45.128571428571426,2169.1,540.2223214285714,45.128571428571426,2274,540.2223214285714,45.128571428571426,2379.1,540.2223214285714,45.128571428571426,2486.3,540.2223214285714,45.128571428571426,2589.1,540.2223214285714,45.128571428571426,2694.2,540.2223214285714,45.128571428571426,2801.3,540.2223214285714,45.128571428571426,2903.4,540.2223214285714,45.128571428571426,3004.2,540.2223214285714,47.128571428571426,3108.6,541.2223214285714,53.128571428571426,3215.8,542.2223214285714,53.128571428571426,3320.2,542.2223214285714,53.128571428571426,3423.8,542.2223214285714,53.128571428571426,3528.8,542.2223214285714,53.128571428571426,3628.9,542.2223214285714,53.128571428571426,3735.1,542.2223214285714,53.128571428571426,3839.4,542.2223214285714,53.128571428571426,3939.5,542.2223214285714,53.128571428571426,4043.4,542.2223214285714,53.128571428571426,4144.3,542.2223214285714,53.128571428571426,4249.2,542.2223214285714,53.128571428571426,4349.4,542.2223214285714,53.128571428571426,4454.1,542.2223214285714,53.128571428571426,4558.3,542.2223214285714,53.128571428571426,4659.2,542.2223214285714,53.128571428571426,4760,542.2223214285714,53.128571428571426,4864.3,542.2223214285714,53.128571428571426,4969.3]","[4890.3,4890.3,2513.4,2001.8,375.1,""smooth"",""up"",""up"",""good_move"",7231.8,2341,1944.8,4890.8,396.2,""oops"",""up"",""right"",""good_move"",12313.7,5081.6,1641.2,10336.1,336.4,""oops"",""up"",""left"",""bad_move"",15046.7,2732.7,2382.6,12314,350.1,""oops"",""up"",""down"",""bad_move"",17851,2803.8,2406,15047.2,397.8,""oops"",""right"",""up"",""good_move"",21204.7,3353.4,3001.6,17851.3,351.8,""smooth"",""right"",""right"",""good_move"",27945,6740.1,3308.1,24181.9,455,""smooth"",""right"",""right"",""good_move"",30530.4,2585.2,2242.9,27945.2,342.3,""smooth"",""right"",""right"",""good_move""]"
"2457","","<div style=""width:500px;"">
  <p>What determined the result of this run?</p>
  </div>","15","html-slider-response","44","613861","0.0-7.0-1.6","82","1","2025-07-30 09:31:09","36c45c0696341be0efffe67d72a12abb","94.60.138.208","Mozilla/5.0 (Windows NT 10.0; Win64; x64) AppleWebKit/537.36 (KHTML, like Gecko) Chrome/138.0.0.0 Safari/537.36","WebKit","Chrome","138.0.0.0","Windows","10.0","https://app.prolific.com/","pt-PT,pt;q=0.9,en-US;q=0.8,en;q=0.7","5da03c3607c83700140a3d8f","687a360dabe5252b5ada7185","6889e652eda61d816791b24a","0","5da03c3607c83700140a3d8f","0","2025-07-30T09:41:23.239Z","","","","AttribQ","","","","","","","","","","","50","","","","","","","","","","","","","","","","","","","","","","","","","","",""
"3319","","<div style=""width:500px;"">
  <p>How much control did you have over the ball?</p>
  </div>","10","html-slider-response","45","617181","0.0-7.0-2.6","82","1","2025-07-30 09:31:09","36c45c0696341be0efffe67d72a12abb","94.60.138.208","Mozilla/5.0 (Windows NT 10.0; Win64; x64) AppleWebKit/537.36 (KHTML, like Gecko) Chrome/138.0.0.0 Safari/537.36","WebKit","Chrome","138.0.0.0","Windows","10.0","https://app.prolific.com/","pt-PT,pt;q=0.9,en-US;q=0.8,en;q=0.7","5da03c3607c83700140a3d8f","687a360dabe5252b5ada7185","6889e652eda61d816791b24a","0","5da03c3607c83700140a3d8f","0","2025-07-30T09:41:26.559Z","","","","ControlQ","","","","","","","","","","","50","","","","","","","","","","","","","","","","","","","","","","","","","","",""
"2552","","<div style=""width:500px;"">
  <p>How would you describe your current emotional state?</p>
  </div>","100","html-slider-response","46","619734","0.0-7.0-3.6","82","1","2025-07-30 09:31:09","36c45c0696341be0efffe67d72a12abb","94.60.138.208","Mozilla/5.0 (Windows NT 10.0; Win64; x64) AppleWebKit/537.36 (KHTML, like Gecko) Chrome/138.0.0.0 Safari/537.36","WebKit","Chrome","138.0.0.0","Windows","10.0","https://app.prolific.com/","pt-PT,pt;q=0.9,en-US;q=0.8,en;q=0.7","5da03c3607c83700140a3d8f","687a360dabe5252b5ada7185","6889e652eda61d816791b24a","0","5da03c3607c83700140a3d8f","0","2025-07-30T09:41:29.112Z","","","","StressQ","","","","","","","","","","","50","","","","","","","","","","","","","","","","","","","","","","","","","","",""
"2554","","<div style=""width:500px;"">
  <p>What best describes how you currently feel?</p>
  </div>","50","html-slider-response","47","622289","0.0-7.0-4.6","82","1","2025-07-30 09:31:09","36c45c0696341be0efffe67d72a12abb","94.60.138.208","Mozilla/5.0 (Windows NT 10.0; Win64; x64) AppleWebKit/537.36 (KHTML, like Gecko) Chrome/138.0.0.0 Safari/537.36","WebKit","Chrome","138.0.0.0","Windows","10.0","https://app.prolific.com/","pt-PT,pt;q=0.9,en-US;q=0.8,en;q=0.7","5da03c3607c83700140a3d8f","687a360dabe5252b5ada7185","6889e652eda61d816791b24a","0","5da03c3607c83700140a3d8f","0","2025-07-30T09:41:31.667Z","","","","MotivationQ","","","","","","","","","","","50","","","","","","","","","","","","","","","","","","","","","","","","","","",""
"","","","","ctl-task-cpt","48","667277","0.0-7.0-0.7","82","1","2025-07-30 09:31:09","36c45c0696341be0efffe67d72a12abb","94.60.138.208","Mozilla/5.0 (Windows NT 10.0; Win64; x64) AppleWebKit/537.36 (KHTML, like Gecko) Chrome/138.0.0.0 Safari/537.36","WebKit","Chrome","138.0.0.0","Windows","10.0","https://app.prolific.com/","pt-PT,pt;q=0.9,en-US;q=0.8,en;q=0.7","5da03c3607c83700140a3d8f","687a360dabe5252b5ada7185","6889e652eda61d816791b24a","0","5da03c3607c83700140a3d8f","0","2025-07-30T09:42:16.655Z","","","","","","","","","","","","","","","","win-only","2","g1:SE,g2:NW","0.3","8","0","623509.3","1332.4","6336.1","41970.2","1","4","8","6","2","-8","-8","0","0","0","1096.3","3000","-2925","[""left"",""up""]","{""num_key_presses"":8,""num_perfect"":3,""num_errors"":0,""num_randdir"":5,""num_randdir_good_moves"":3,""num_whilered"":0,""num_whileblue"":0,""num_blue"":3,""num_good_moves"":6}","[292.22232142857143,296.12857142857143,0.3,292.22232142857143,296.12857142857143,103.2,292.22232142857143,296.12857142857143,208.5,292.22232142857143,296.12857142857143,315.9,292.22232142857143,296.12857142857143,421.4,292.22232142857143,296.12857142857143,525.8,200.22232142857143,189.12857142857143,632.1,200.22232142857143,189.12857142857143,733,115.22232142857143,121.12857142857143,833.7,36.222321428571426,54.128571428571426,937.8,36.222321428571426,54.128571428571426,1038.9,36.222321428571426,54.128571428571426,1146.2,36.222321428571426,54.128571428571426,1248.9,36.222321428571426,54.128571428571426,1352.9,36.222321428571426,54.128571428571426,1454,36.222321428571426,54.128571428571426,1561.5,36.222321428571426,54.128571428571426,1663.1,36.222321428571426,54.128571428571426,1763.4,36.222321428571426,54.128571428571426,1865.5,36.222321428571426,54.128571428571426,1965.9,36.222321428571426,54.128571428571426,2068.4,36.222321428571426,54.128571428571426,2168.7,36.222321428571426,54.128571428571426,2272.8,36.222321428571426,54.128571428571426,2374.6,36.222321428571426,54.128571428571426,2481.1,36.222321428571426,54.128571428571426,2583.6,36.222321428571426,54.128571428571426,2688.3,36.222321428571426,54.128571428571426,2795.6,36.222321428571426,54.128571428571426,2898.6,36.222321428571426,54.128571428571426,3003.4,36.222321428571426,54.128571428571426,3103.7,36.222321428571426,54.128571428571426,3209.1,36.222321428571426,54.128571428571426,3315.3,36.222321428571426,54.128571428571426,3417.8,36.222321428571426,54.128571428571426,3518.2,36.222321428571426,54.128571428571426,3619.1,36.222321428571426,54.128571428571426,3724.3,36.222321428571426,54.128571428571426,3824.8,36.222321428571426,54.128571428571426,3928.6,36.222321428571426,54.128571428571426,4028.9,36.222321428571426,54.128571428571426,4132.8,36.222321428571426,54.128571428571426,4232.9,36.222321428571426,54.128571428571426,4333.5,36.222321428571426,54.128571428571426,4434.3,36.222321428571426,54.128571428571426,4540.3,36.222321428571426,54.128571428571426,4647.5,36.222321428571426,54.128571428571426,4748.5,36.222321428571426,54.128571428571426,4852.9,36.222321428571426,54.128571428571426,4956.2]","[4466.9,4466.9,2143.7,2000.6,322.6,""oops"",""up"",""right"",""bad_move"",7494.9,3027.7,2619.9,4467.2,407.8,""oops"",""up"",""up"",""good_move"",11070,3574.7,3269.1,7495.3,305.6,""smooth"",""up"",""up"",""good_move"",14452.3,3382.2,3051,11070.1,331.2,""smooth"",""up"",""up"",""good_move"",17645.6,3193,2841.3,14452.6,351.7,""oops"",""left"",""right"",""bad_move"",20022.3,2376.4,2043.7,17645.9,332.7,""oops"",""left"",""left"",""good_move"",22325.9,2303.2,2010.2,20022.7,293,""smooth"",""left"",""left"",""good_move"",32364.5,10038.4,2484.2,29510.9,369.4,""oops"",""left"",""left"",""good_move""]"
"3777","","<div style=""width:500px;"">
  <p>What determined the result of this run?</p>
  </div>","27","html-slider-response","49","671055","0.0-7.0-1.7","82","1","2025-07-30 09:31:09","36c45c0696341be0efffe67d72a12abb","94.60.138.208","Mozilla/5.0 (Windows NT 10.0; Win64; x64) AppleWebKit/537.36 (KHTML, like Gecko) Chrome/138.0.0.0 Safari/537.36","WebKit","Chrome","138.0.0.0","Windows","10.0","https://app.prolific.com/","pt-PT,pt;q=0.9,en-US;q=0.8,en;q=0.7","5da03c3607c83700140a3d8f","687a360dabe5252b5ada7185","6889e652eda61d816791b24a","0","5da03c3607c83700140a3d8f","0","2025-07-30T09:42:20.433Z","","","","AttribQ","","","","","","","","","","","50","","","","","","","","","","","","","","","","","","","","","","","","","","",""
"6266","","<div style=""width:500px;"">
  <p>How much control did you have over the ball?</p>
  </div>","22","html-slider-response","50","677322","0.0-7.0-2.7","82","1","2025-07-30 09:31:09","36c45c0696341be0efffe67d72a12abb","94.60.138.208","Mozilla/5.0 (Windows NT 10.0; Win64; x64) AppleWebKit/537.36 (KHTML, like Gecko) Chrome/138.0.0.0 Safari/537.36","WebKit","Chrome","138.0.0.0","Windows","10.0","https://app.prolific.com/","pt-PT,pt;q=0.9,en-US;q=0.8,en;q=0.7","5da03c3607c83700140a3d8f","687a360dabe5252b5ada7185","6889e652eda61d816791b24a","0","5da03c3607c83700140a3d8f","0","2025-07-30T09:42:26.700Z","","","","ControlQ","","","","","","","","","","","50","","","","","","","","","","","","","","","","","","","","","","","","","","",""
"3014","","<div style=""width:500px;"">
  <p>How would you describe your current emotional state?</p>
  </div>","100","html-slider-response","51","680338","0.0-7.0-3.7","82","1","2025-07-30 09:31:09","36c45c0696341be0efffe67d72a12abb","94.60.138.208","Mozilla/5.0 (Windows NT 10.0; Win64; x64) AppleWebKit/537.36 (KHTML, like Gecko) Chrome/138.0.0.0 Safari/537.36","WebKit","Chrome","138.0.0.0","Windows","10.0","https://app.prolific.com/","pt-PT,pt;q=0.9,en-US;q=0.8,en;q=0.7","5da03c3607c83700140a3d8f","687a360dabe5252b5ada7185","6889e652eda61d816791b24a","0","5da03c3607c83700140a3d8f","0","2025-07-30T09:42:29.716Z","","","","StressQ","","","","","","","","","","","50","","","","","","","","","","","","","","","","","","","","","","","","","","",""
"2869","","<div style=""width:500px;"">
  <p>What best describes how you currently feel?</p>
  </div>","33","html-slider-response","52","683208","0.0-7.0-4.7","82","1","2025-07-30 09:31:09","36c45c0696341be0efffe67d72a12abb","94.60.138.208","Mozilla/5.0 (Windows NT 10.0; Win64; x64) AppleWebKit/537.36 (KHTML, like Gecko) Chrome/138.0.0.0 Safari/537.36","WebKit","Chrome","138.0.0.0","Windows","10.0","https://app.prolific.com/","pt-PT,pt;q=0.9,en-US;q=0.8,en;q=0.7","5da03c3607c83700140a3d8f","687a360dabe5252b5ada7185","6889e652eda61d816791b24a","0","5da03c3607c83700140a3d8f","0","2025-07-30T09:42:32.586Z","","","","MotivationQ","","","","","","","","","","","50","","","","","","","","","","","","","","","","","","","","","","","","","","",""
"","","","","ctl-task-cpt","53","730664","0.0-7.0-0.8","82","1","2025-07-30 09:31:09","36c45c0696341be0efffe67d72a12abb","94.60.138.208","Mozilla/5.0 (Windows NT 10.0; Win64; x64) AppleWebKit/537.36 (KHTML, like Gecko) Chrome/138.0.0.0 Safari/537.36","WebKit","Chrome","138.0.0.0","Windows","10.0","https://app.prolific.com/","pt-PT,pt;q=0.9,en-US;q=0.8,en;q=0.7","5da03c3607c83700140a3d8f","687a360dabe5252b5ada7185","6889e652eda61d816791b24a","0","5da03c3607c83700140a3d8f","0","2025-07-30T09:43:20.042Z","","","","","","","","","","","","","","","","win-only","0","g1:NW,g2:SE","0.4","9","0","684428.4","2508.5","7511.1","44436.1","1","4","4","6","2","4","4","4","0","0.030303030303030304","1121.1","3000","25","[""down"",""right""]","{""num_key_presses"":8,""num_perfect"":4,""num_errors"":0,""num_randdir"":4,""num_randdir_good_moves"":3,""num_whilered"":0,""num_whileblue"":0,""num_blue"":5,""num_good_moves"":7}","[301.22232142857143,294.12857142857143,0.2,301.22232142857143,294.12857142857143,102.3,301.22232142857143,294.12857142857143,207.1,301.22232142857143,294.12857142857143,308.9,301.22232142857143,294.12857142857143,418.8,301.22232142857143,294.12857142857143,523.1,430.22232142857143,399.12857142857143,623.3,447.22232142857143,403.12857142857143,729.9,447.22232142857143,403.12857142857143,830.1,502.22232142857143,514.1285714285714,931.4,507.22232142857143,519.1285714285714,1032.8,507.22232142857143,519.1285714285714,1137.3,507.22232142857143,519.1285714285714,1238.3,507.22232142857143,519.1285714285714,1351.2,507.22232142857143,519.1285714285714,1452.3,507.22232142857143,519.1285714285714,1556.8,507.22232142857143,519.1285714285714,1657.3,507.22232142857143,519.1285714285714,1765,507.22232142857143,519.1285714285714,1867.3,507.22232142857143,519.1285714285714,1972.3,507.22232142857143,519.1285714285714,2072.4,507.22232142857143,519.1285714285714,2173.2,507.22232142857143,519.1285714285714,2283.4,507.22232142857143,519.1285714285714,2386.9,507.22232142857143,519.1285714285714,2487.3,507.22232142857143,519.1285714285714,2600.2,507.22232142857143,519.1285714285714,2702,507.22232142857143,519.1285714285714,2802.3,507.22232142857143,519.1285714285714,2903.2,507.22232142857143,519.1285714285714,3003.5,507.22232142857143,519.1285714285714,3116.5,507.22232142857143,519.1285714285714,3216.7,507.22232142857143,519.1285714285714,3317.6,507.22232142857143,519.1285714285714,3422.4,507.22232142857143,519.1285714285714,3522.9,507.22232142857143,519.1285714285714,3631.9,507.22232142857143,519.1285714285714,3737.1,507.22232142857143,519.1285714285714,3837.1,507.22232142857143,519.1285714285714,3937.2,507.22232142857143,519.1285714285714,4038.3,507.22232142857143,519.1285714285714,4148.6,507.22232142857143,519.1285714285714,4251.7,507.22232142857143,519.1285714285714,4364.4,507.22232142857143,519.1285714285714,4464.9,507.22232142857143,519.1285714285714,4567.4,507.22232142857143,519.1285714285714,4673.7,507.22232142857143,519.1285714285714,4781.5,507.22232142857143,519.1285714285714,4881.7,507.22232142857143,519.1285714285714,4982.5]","[4948.8,4948.8,2587.2,2014.2,347.4,""smooth"",""down"",""down"",""good_move"",11349.6,6399.9,2469.5,8516.1,364,""smooth"",""down"",""down"",""good_move"",13580.4,2230.5,1814.8,11349.9,415.7,""oops"",""down"",""down"",""good_move"",19085.6,5505,2498.9,16185.2,401.5,""oops"",""right"",""left"",""bad_move"",21741.2,2654.9,2302.2,19086.3,352.7,""smooth"",""right"",""right"",""good_move"",24739.3,2998,2543.7,21741.4,454.2,""smooth"",""right"",""right"",""good_move"",31121,6381.2,2697.7,27979.6,443.7,""oops"",""right"",""right"",""good_move"",36833.3,5711.9,2144.3,34318.7,370.3,""oops"",""right"",""right"",""good_move""]"
"3339","","<div style=""width:500px;"">
  <p>What determined the result of this run?</p>
  </div>","33","html-slider-response","54","734004","0.0-7.0-1.8","82","1","2025-07-30 09:31:09","36c45c0696341be0efffe67d72a12abb","94.60.138.208","Mozilla/5.0 (Windows NT 10.0; Win64; x64) AppleWebKit/537.36 (KHTML, like Gecko) Chrome/138.0.0.0 Safari/537.36","WebKit","Chrome","138.0.0.0","Windows","10.0","https://app.prolific.com/","pt-PT,pt;q=0.9,en-US;q=0.8,en;q=0.7","5da03c3607c83700140a3d8f","687a360dabe5252b5ada7185","6889e652eda61d816791b24a","0","5da03c3607c83700140a3d8f","0","2025-07-30T09:43:23.382Z","","","","AttribQ","","","","","","","","","","","50","","","","","","","","","","","","","","","","","","","","","","","","","","",""
"2355","","<div style=""width:500px;"">
  <p>How much control did you have over the ball?</p>
  </div>","38","html-slider-response","55","736360","0.0-7.0-2.8","82","1","2025-07-30 09:31:09","36c45c0696341be0efffe67d72a12abb","94.60.138.208","Mozilla/5.0 (Windows NT 10.0; Win64; x64) AppleWebKit/537.36 (KHTML, like Gecko) Chrome/138.0.0.0 Safari/537.36","WebKit","Chrome","138.0.0.0","Windows","10.0","https://app.prolific.com/","pt-PT,pt;q=0.9,en-US;q=0.8,en;q=0.7","5da03c3607c83700140a3d8f","687a360dabe5252b5ada7185","6889e652eda61d816791b24a","0","5da03c3607c83700140a3d8f","0","2025-07-30T09:43:25.739Z","","","","ControlQ","","","","","","","","","","","50","","","","","","","","","","","","","","","","","","","","","","","","","","",""
"2935","","<div style=""width:500px;"">
  <p>How would you describe your current emotional state?</p>
  </div>","96","html-slider-response","56","739297","0.0-7.0-3.8","82","1","2025-07-30 09:31:09","36c45c0696341be0efffe67d72a12abb","94.60.138.208","Mozilla/5.0 (Windows NT 10.0; Win64; x64) AppleWebKit/537.36 (KHTML, like Gecko) Chrome/138.0.0.0 Safari/537.36","WebKit","Chrome","138.0.0.0","Windows","10.0","https://app.prolific.com/","pt-PT,pt;q=0.9,en-US;q=0.8,en;q=0.7","5da03c3607c83700140a3d8f","687a360dabe5252b5ada7185","6889e652eda61d816791b24a","0","5da03c3607c83700140a3d8f","0","2025-07-30T09:43:28.675Z","","","","StressQ","","","","","","","","","","","50","","","","","","","","","","","","","","","","","","","","","","","","","","",""
"2575","","<div style=""width:500px;"">
  <p>What best describes how you currently feel?</p>
  </div>","48","html-slider-response","57","741873","0.0-7.0-4.8","82","1","2025-07-30 09:31:09","36c45c0696341be0efffe67d72a12abb","94.60.138.208","Mozilla/5.0 (Windows NT 10.0; Win64; x64) AppleWebKit/537.36 (KHTML, like Gecko) Chrome/138.0.0.0 Safari/537.36","WebKit","Chrome","138.0.0.0","Windows","10.0","https://app.prolific.com/","pt-PT,pt;q=0.9,en-US;q=0.8,en;q=0.7","5da03c3607c83700140a3d8f","687a360dabe5252b5ada7185","6889e652eda61d816791b24a","0","5da03c3607c83700140a3d8f","0","2025-07-30T09:43:31.251Z","","","","MotivationQ","","","","","","","","","","","50","","","","","","","","","","","","","","","","","","","","","","","","","","",""
"","","","","ctl-task-cpt","58","783541","0.0-7.0-0.9","82","1","2025-07-30 09:31:09","36c45c0696341be0efffe67d72a12abb","94.60.138.208","Mozilla/5.0 (Windows NT 10.0; Win64; x64) AppleWebKit/537.36 (KHTML, like Gecko) Chrome/138.0.0.0 Safari/537.36","WebKit","Chrome","138.0.0.0","Windows","10.0","https://app.prolific.com/","pt-PT,pt;q=0.9,en-US;q=0.8,en;q=0.7","5da03c3607c83700140a3d8f","687a360dabe5252b5ada7185","6889e652eda61d816791b24a","0","5da03c3607c83700140a3d8f","0","2025-07-30T09:44:12.919Z","","","","","","","","","","","","","","","","win-only","1","g1:NE,g2:SW","0.5","10","0","743093.3","1960.8","6968","38648.7","1","4","8","6","2","-8","-8","0","4","0","1088","3000","-2895","[""down"",""left""]","{""num_key_presses"":9,""num_perfect"":5,""num_errors"":0,""num_randdir"":4,""num_randdir_good_moves"":2,""num_whilered"":0,""num_whileblue"":0,""num_blue"":1,""num_good_moves"":7}","[291.22232142857143,303.12857142857143,0.3,291.22232142857143,303.12857142857143,102.6,291.22232142857143,303.12857142857143,203.6,291.22232142857143,303.12857142857143,305.2,291.22232142857143,303.12857142857143,405.2,291.22232142857143,303.12857142857143,520.1,420.22232142857143,156.12857142857143,635.3,142.22232142857143,434.12857142857143,736.5,54.222321428571426,548.1285714285714,840.8,54.222321428571426,548.1285714285714,947.7,54.222321428571426,548.1285714285714,1050.4,54.222321428571426,548.1285714285714,1151.2,54.222321428571426,548.1285714285714,1254.7,54.222321428571426,548.1285714285714,1362.1,54.222321428571426,548.1285714285714,1462.5,54.222321428571426,548.1285714285714,1566.2,54.222321428571426,548.1285714285714,1671.4,54.222321428571426,548.1285714285714,1774.9,54.222321428571426,548.1285714285714,1884.3,54.222321428571426,548.1285714285714,1985.7,54.222321428571426,548.1285714285714,2091.9,54.222321428571426,548.1285714285714,2196.8,54.222321428571426,548.1285714285714,2298.9,54.222321428571426,548.1285714285714,2400.4,54.222321428571426,548.1285714285714,2505.8,54.222321428571426,548.1285714285714,2619,54.222321428571426,548.1285714285714,2719.8,54.222321428571426,548.1285714285714,2821.1,54.222321428571426,548.1285714285714,2932.8,54.222321428571426,548.1285714285714,3033.1,54.222321428571426,548.1285714285714,3133.1,54.222321428571426,548.1285714285714,3235.1,54.222321428571426,548.1285714285714,3335.1,54.222321428571426,548.1285714285714,3435.9,54.222321428571426,548.1285714285714,3535.9,54.222321428571426,548.1285714285714,3649.4,54.222321428571426,548.1285714285714,3750.1,54.222321428571426,548.1285714285714,3857.6,54.222321428571426,548.1285714285714,3966.2,54.222321428571426,548.1285714285714,4070.5,54.222321428571426,548.1285714285714,4181.8,54.222321428571426,548.1285714285714,4285.4,54.222321428571426,548.1285714285714,4398,54.222321428571426,548.1285714285714,4498.5,54.222321428571426,548.1285714285714,4599.5,54.222321428571426,548.1285714285714,4701.2,54.222321428571426,548.1285714285714,4805.5,54.222321428571426,548.1285714285714,4914.1]","[1396.9,1396.9,1000,0,396.9,""smooth"",""down"",""down"",""good_move"",4494.3,3096.5,2733,1397.8,363.5,""smooth"",""down"",""down"",""good_move"",8108.7,3614.2,3288.9,4494.5,325.3,""oops"",""down"",""right"",""bad_move"",10265.9,2156.5,1769.3,8109.4,387.2,""oops"",""down"",""left"",""good_move"",17014.7,6748.6,2747.5,13918.9,348.3,""oops"",""down"",""up"",""bad_move"",19865.6,2850.2,2540.5,17015.4,309.7,""smooth"",""left"",""left"",""good_move"",23125.9,3260,2925.1,19865.9,334.9,""smooth"",""left"",""left"",""good_move"",25851.9,2725.6,2353.6,23126.3,372,""oops"",""left"",""down"",""good_move"",28951.4,3098.7,2820.2,25852.7,278.5,""smooth"",""left"",""left"",""good_move""]"
"3641","","<div style=""width:500px;"">
  <p>What determined the result of this run?</p>
  </div>","17","html-slider-response","59","787183","0.0-7.0-1.9","82","1","2025-07-30 09:31:09","36c45c0696341be0efffe67d72a12abb","94.60.138.208","Mozilla/5.0 (Windows NT 10.0; Win64; x64) AppleWebKit/537.36 (KHTML, like Gecko) Chrome/138.0.0.0 Safari/537.36","WebKit","Chrome","138.0.0.0","Windows","10.0","https://app.prolific.com/","pt-PT,pt;q=0.9,en-US;q=0.8,en;q=0.7","5da03c3607c83700140a3d8f","687a360dabe5252b5ada7185","6889e652eda61d816791b24a","0","5da03c3607c83700140a3d8f","0","2025-07-30T09:44:16.561Z","","","","AttribQ","","","","","","","","","","","50","","","","","","","","","","","","","","","","","","","","","","","","","","",""
"5241","","<div style=""width:500px;"">
  <p>How much control did you have over the ball?</p>
  </div>","15","html-slider-response","60","792424","0.0-7.0-2.9","82","1","2025-07-30 09:31:09","36c45c0696341be0efffe67d72a12abb","94.60.138.208","Mozilla/5.0 (Windows NT 10.0; Win64; x64) AppleWebKit/537.36 (KHTML, like Gecko) Chrome/138.0.0.0 Safari/537.36","WebKit","Chrome","138.0.0.0","Windows","10.0","https://app.prolific.com/","pt-PT,pt;q=0.9,en-US;q=0.8,en;q=0.7","5da03c3607c83700140a3d8f","687a360dabe5252b5ada7185","6889e652eda61d816791b24a","0","5da03c3607c83700140a3d8f","0","2025-07-30T09:44:21.803Z","","","","ControlQ","","","","","","","","","","","50","","","","","","","","","","","","","","","","","","","","","","","","","","",""
"2452","","<div style=""width:500px;"">
  <p>How would you describe your current emotional state?</p>
  </div>","100","html-slider-response","61","794878","0.0-7.0-3.9","82","1","2025-07-30 09:31:09","36c45c0696341be0efffe67d72a12abb","94.60.138.208","Mozilla/5.0 (Windows NT 10.0; Win64; x64) AppleWebKit/537.36 (KHTML, like Gecko) Chrome/138.0.0.0 Safari/537.36","WebKit","Chrome","138.0.0.0","Windows","10.0","https://app.prolific.com/","pt-PT,pt;q=0.9,en-US;q=0.8,en;q=0.7","5da03c3607c83700140a3d8f","687a360dabe5252b5ada7185","6889e652eda61d816791b24a","0","5da03c3607c83700140a3d8f","0","2025-07-30T09:44:24.256Z","","","","StressQ","","","","","","","","","","","50","","","","","","","","","","","","","","","","","","","","","","","","","","",""
"2459","","<div style=""width:500px;"">
  <p>What best describes how you currently feel?</p>
  </div>","27","html-slider-response","62","797338","0.0-7.0-4.9","82","1","2025-07-30 09:31:09","36c45c0696341be0efffe67d72a12abb","94.60.138.208","Mozilla/5.0 (Windows NT 10.0; Win64; x64) AppleWebKit/537.36 (KHTML, like Gecko) Chrome/138.0.0.0 Safari/537.36","WebKit","Chrome","138.0.0.0","Windows","10.0","https://app.prolific.com/","pt-PT,pt;q=0.9,en-US;q=0.8,en;q=0.7","5da03c3607c83700140a3d8f","687a360dabe5252b5ada7185","6889e652eda61d816791b24a","0","5da03c3607c83700140a3d8f","0","2025-07-30T09:44:26.716Z","","","","MotivationQ","","","","","","","","","","","50","","","","","","","","","","","","","","","","","","","","","","","","","","",""
"","","","","ctl-task-cpt","63","822252","0.0-7.0-0.10","82","1","2025-07-30 09:31:09","36c45c0696341be0efffe67d72a12abb","94.60.138.208","Mozilla/5.0 (Windows NT 10.0; Win64; x64) AppleWebKit/537.36 (KHTML, like Gecko) Chrome/138.0.0.0 Safari/537.36","WebKit","Chrome","138.0.0.0","Windows","10.0","https://app.prolific.com/","pt-PT,pt;q=0.9,en-US;q=0.8,en;q=0.7","5da03c3607c83700140a3d8f","687a360dabe5252b5ada7185","6889e652eda61d816791b24a","0","5da03c3607c83700140a3d8f","0","2025-07-30T09:44:51.631Z","","","","","","","","","","","","","","","","win-only","2","g1:SE,g2:NW","0.6","11","0","798558.7","1752.1","6758.5","21895.6","1","4","4","6","2","4","4","4","0","0.030303030303030304","1249.4","3000","1290","[""left"",""up""]","{""num_key_presses"":6,""num_perfect"":4,""num_errors"":0,""num_randdir"":2,""num_randdir_good_moves"":2,""num_whilered"":0,""num_whileblue"":0,""num_blue"":0,""num_good_moves"":6}","[296.22232142857143,297.12857142857143,0.3,296.22232142857143,297.12857142857143,103.4,296.22232142857143,297.12857142857143,210.6,296.22232142857143,297.12857142857143,317.7,296.22232142857143,297.12857142857143,418.1,296.22232142857143,297.12857142857143,518.7,378.22232142857143,339.12857142857143,633.7,224.22232142857143,179.12857142857143,740.7,51.222321428571426,60.128571428571426,844.3,53.222321428571426,61.128571428571426,946.2,57.222321428571426,61.128571428571426,1051.3,55.222321428571426,58.128571428571426,1153.7,55.222321428571426,58.128571428571426,1260.7,55.222321428571426,58.128571428571426,1360.7,55.222321428571426,58.128571428571426,1461.3,55.222321428571426,58.128571428571426,1564.4,55.222321428571426,58.128571428571426,1665.9,55.222321428571426,58.128571428571426,1769.3,55.222321428571426,58.128571428571426,1869.7,55.222321428571426,58.128571428571426,1975.6,55.222321428571426,58.128571428571426,2076.7,55.222321428571426,58.128571428571426,2179.6,55.222321428571426,58.128571428571426,2279.6,55.222321428571426,58.128571428571426,2384.5,55.222321428571426,58.128571428571426,2498.1,55.222321428571426,58.128571428571426,2598.3,55.222321428571426,58.128571428571426,2707.4,55.222321428571426,58.128571428571426,2809.9,55.222321428571426,58.128571428571426,2913.3,55.222321428571426,58.128571428571426,3013.4,55.222321428571426,58.128571428571426,3113.7,55.222321428571426,58.128571428571426,3213.8,55.222321428571426,58.128571428571426,3314.7,55.222321428571426,58.128571428571426,3419.1,55.222321428571426,58.128571428571426,3530.4,55.222321428571426,58.128571428571426,3633.6,55.222321428571426,58.128571428571426,3744.9,55.222321428571426,58.128571428571426,3847.9,55.222321428571426,58.128571428571426,3948.4,55.222321428571426,58.128571428571426,4050.3,55.222321428571426,58.128571428571426,4162.6,55.222321428571426,58.128571428571426,4263.5,55.222321428571426,58.128571428571426,4364.4,55.222321428571426,58.128571428571426,4471,55.222321428571426,58.128571428571426,4577.9,55.222321428571426,58.128571428571426,4678.3,55.222321428571426,58.128571428571426,4778.5,55.222321428571426,58.128571428571426,4878.6,55.222321428571426,58.128571428571426,4978.6]","[1384.4,1384.4,1000,0,384.4,""smooth"",""up"",""up"",""good_move"",3871.9,2487,2098.4,1384.9,388.6,""oops"",""up"",""up"",""good_move"",7060.9,3188.8,2840.1,3872.1,348.7,""oops"",""up"",""up"",""good_move"",9608.6,2547.5,2196.4,7061.1,351.1,""smooth"",""left"",""left"",""good_move"",12043.4,2434.5,2036.3,9608.9,398.2,""smooth"",""left"",""left"",""good_move"",15037.4,2993.8,2685.4,12043.7,308.4,""smooth"",""left"",""left"",""good_move""]"
"2523","","<div style=""width:500px;"">
  <p>What determined the result of this run?</p>
  </div>","89","html-slider-response","64","824778","0.0-7.0-1.10","82","1","2025-07-30 09:31:09","36c45c0696341be0efffe67d72a12abb","94.60.138.208","Mozilla/5.0 (Windows NT 10.0; Win64; x64) AppleWebKit/537.36 (KHTML, like Gecko) Chrome/138.0.0.0 Safari/537.36","WebKit","Chrome","138.0.0.0","Windows","10.0","https://app.prolific.com/","pt-PT,pt;q=0.9,en-US;q=0.8,en;q=0.7","5da03c3607c83700140a3d8f","687a360dabe5252b5ada7185","6889e652eda61d816791b24a","0","5da03c3607c83700140a3d8f","0","2025-07-30T09:44:54.156Z","","","","AttribQ","","","","","","","","","","","50","","","","","","","","","","","","","","","","","","","","","","","","","","",""
"2821","","<div style=""width:500px;"">
  <p>How much control did you have over the ball?</p>
  </div>","97","html-slider-response","65","827600","0.0-7.0-2.10","82","1","2025-07-30 09:31:09","36c45c0696341be0efffe67d72a12abb","94.60.138.208","Mozilla/5.0 (Windows NT 10.0; Win64; x64) AppleWebKit/537.36 (KHTML, like Gecko) Chrome/138.0.0.0 Safari/537.36","WebKit","Chrome","138.0.0.0","Windows","10.0","https://app.prolific.com/","pt-PT,pt;q=0.9,en-US;q=0.8,en;q=0.7","5da03c3607c83700140a3d8f","687a360dabe5252b5ada7185","6889e652eda61d816791b24a","0","5da03c3607c83700140a3d8f","0","2025-07-30T09:44:56.978Z","","","","ControlQ","","","","","","","","","","","50","","","","","","","","","","","","","","","","","","","","","","","","","","",""
"3730","","<div style=""width:500px;"">
  <p>How would you describe your current emotional state?</p>
  </div>","98","html-slider-response","66","831331","0.0-7.0-3.10","82","1","2025-07-30 09:31:09","36c45c0696341be0efffe67d72a12abb","94.60.138.208","Mozilla/5.0 (Windows NT 10.0; Win64; x64) AppleWebKit/537.36 (KHTML, like Gecko) Chrome/138.0.0.0 Safari/537.36","WebKit","Chrome","138.0.0.0","Windows","10.0","https://app.prolific.com/","pt-PT,pt;q=0.9,en-US;q=0.8,en;q=0.7","5da03c3607c83700140a3d8f","687a360dabe5252b5ada7185","6889e652eda61d816791b24a","0","5da03c3607c83700140a3d8f","0","2025-07-30T09:45:00.709Z","","","","StressQ","","","","","","","","","","","50","","","","","","","","","","","","","","","","","","","","","","","","","","",""
"2532","","<div style=""width:500px;"">
  <p>What best describes how you currently feel?</p>
  </div>","41","html-slider-response","67","833865","0.0-7.0-4.10","82","1","2025-07-30 09:31:09","36c45c0696341be0efffe67d72a12abb","94.60.138.208","Mozilla/5.0 (Windows NT 10.0; Win64; x64) AppleWebKit/537.36 (KHTML, like Gecko) Chrome/138.0.0.0 Safari/537.36","WebKit","Chrome","138.0.0.0","Windows","10.0","https://app.prolific.com/","pt-PT,pt;q=0.9,en-US;q=0.8,en;q=0.7","5da03c3607c83700140a3d8f","687a360dabe5252b5ada7185","6889e652eda61d816791b24a","0","5da03c3607c83700140a3d8f","0","2025-07-30T09:45:03.243Z","","","","MotivationQ","","","","","","","","","","","50","","","","","","","","","","","","","","","","","","","","","","","","","","",""
"","","","","ctl-task-cpt","68","859776","0.0-7.0-0.11","82","1","2025-07-30 09:31:09","36c45c0696341be0efffe67d72a12abb","94.60.138.208","Mozilla/5.0 (Windows NT 10.0; Win64; x64) AppleWebKit/537.36 (KHTML, like Gecko) Chrome/138.0.0.0 Safari/537.36","WebKit","Chrome","138.0.0.0","Windows","10.0","https://app.prolific.com/","pt-PT,pt;q=0.9,en-US;q=0.8,en;q=0.7","5da03c3607c83700140a3d8f","687a360dabe5252b5ada7185","6889e652eda61d816791b24a","0","5da03c3607c83700140a3d8f","0","2025-07-30T09:45:29.154Z","","","","","","","","","","","","","","","","win-only","1","g1:NE,g2:SW","0.7","12","0","835085.3","1483.5","6488.7","22891.6","1","4","8","6","2","8","8","12","4","0.09090909090909091","1066.8","3000","1425","[""down"",""left""]","{""num_key_presses"":6,""num_perfect"":4,""num_errors"":0,""num_randdir"":2,""num_randdir_good_moves"":2,""num_whilered"":0,""num_whileblue"":0,""num_blue"":0,""num_good_moves"":6}","[292.22232142857143,291.12857142857143,0.3,292.22232142857143,291.12857142857143,102.4,292.22232142857143,291.12857142857143,202.8,292.22232142857143,291.12857142857143,318.5,292.22232142857143,291.12857142857143,423,104.22232142857143,511.12857142857143,533.5,98.22232142857143,522.1285714285714,633.7,98.22232142857143,522.1285714285714,736.8,93.22232142857143,522.1285714285714,845.5,65.22232142857143,527.1285714285714,945.6,65.22232142857143,527.1285714285714,1047.1,65.22232142857143,527.1285714285714,1147.1,65.22232142857143,527.1285714285714,1251.9,65.22232142857143,527.1285714285714,1352.3,65.22232142857143,527.1285714285714,1452.7,65.22232142857143,527.1285714285714,1567.1,65.22232142857143,527.1285714285714,1668.2,65.22232142857143,527.1285714285714,1774.2,65.22232142857143,527.1285714285714,1876.6,65.22232142857143,527.1285714285714,1980,65.22232142857143,527.1285714285714,2082.9,65.22232142857143,527.1285714285714,2183.6,65.22232142857143,527.1285714285714,2286.8,65.22232142857143,527.1285714285714,2388.6,65.22232142857143,527.1285714285714,2489.9,65.22232142857143,527.1285714285714,2595.6,65.22232142857143,527.1285714285714,2696.8,65.22232142857143,527.1285714285714,2798.3,65.22232142857143,527.1285714285714,2903.3,65.22232142857143,527.1285714285714,3003.9,65.22232142857143,527.1285714285714,3109.3,65.22232142857143,527.1285714285714,3214.3,65.22232142857143,527.1285714285714,3317,65.22232142857143,527.1285714285714,3418.1,65.22232142857143,527.1285714285714,3518.2,65.22232142857143,527.1285714285714,3625.9,65.22232142857143,527.1285714285714,3726.6,65.22232142857143,527.1285714285714,3830.4,65.22232142857143,527.1285714285714,3931,65.22232142857143,527.1285714285714,4032.2,65.22232142857143,527.1285714285714,4133.1,65.22232142857143,527.1285714285714,4240.3,65.22232142857143,527.1285714285714,4343.4,65.22232142857143,527.1285714285714,4443.5,65.22232142857143,527.1285714285714,4546.9,65.22232142857143,527.1285714285714,4647.1,65.22232142857143,527.1285714285714,4747.2,65.22232142857143,527.1285714285714,4847.8,65.22232142857143,527.1285714285714,4962.5]","[1370.1,1370.1,1000,0,370.1,""smooth"",""left"",""left"",""good_move"",3984.5,2614,2215.8,1370.5,398.2,""smooth"",""left"",""left"",""good_move"",7402,3417.2,3050.6,3984.8,366.6,""oops"",""left"",""down"",""good_move"",9995.7,2593.1,2205.3,7402.6,387.8,""smooth"",""left"",""left"",""good_move"",13068.6,3072.7,2727,9995.9,345.7,""smooth"",""down"",""down"",""good_move"",16271.1,3201.9,2857,13069.2,344.9,""oops"",""down"",""down"",""good_move""]"
"2873","","<div style=""width:500px;"">
  <p>What determined the result of this run?</p>
  </div>","28","html-slider-response","69","862650","0.0-7.0-1.11","82","1","2025-07-30 09:31:09","36c45c0696341be0efffe67d72a12abb","94.60.138.208","Mozilla/5.0 (Windows NT 10.0; Win64; x64) AppleWebKit/537.36 (KHTML, like Gecko) Chrome/138.0.0.0 Safari/537.36","WebKit","Chrome","138.0.0.0","Windows","10.0","https://app.prolific.com/","pt-PT,pt;q=0.9,en-US;q=0.8,en;q=0.7","5da03c3607c83700140a3d8f","687a360dabe5252b5ada7185","6889e652eda61d816791b24a","0","5da03c3607c83700140a3d8f","0","2025-07-30T09:45:32.028Z","","","","AttribQ","","","","","","","","","","","50","","","","","","","","","","","","","","","","","","","","","","","","","","",""
"2018","","<div style=""width:500px;"">
  <p>How much control did you have over the ball?</p>
  </div>","30","html-slider-response","70","864669","0.0-7.0-2.11","82","1","2025-07-30 09:31:09","36c45c0696341be0efffe67d72a12abb","94.60.138.208","Mozilla/5.0 (Windows NT 10.0; Win64; x64) AppleWebKit/537.36 (KHTML, like Gecko) Chrome/138.0.0.0 Safari/537.36","WebKit","Chrome","138.0.0.0","Windows","10.0","https://app.prolific.com/","pt-PT,pt;q=0.9,en-US;q=0.8,en;q=0.7","5da03c3607c83700140a3d8f","687a360dabe5252b5ada7185","6889e652eda61d816791b24a","0","5da03c3607c83700140a3d8f","0","2025-07-30T09:45:34.047Z","","","","ControlQ","","","","","","","","","","","50","","","","","","","","","","","","","","","","","","","","","","","","","","",""
"3074","","<div style=""width:500px;"">
  <p>How would you describe your current emotional state?</p>
  </div>","88","html-slider-response","71","867746","0.0-7.0-3.11","82","1","2025-07-30 09:31:09","36c45c0696341be0efffe67d72a12abb","94.60.138.208","Mozilla/5.0 (Windows NT 10.0; Win64; x64) AppleWebKit/537.36 (KHTML, like Gecko) Chrome/138.0.0.0 Safari/537.36","WebKit","Chrome","138.0.0.0","Windows","10.0","https://app.prolific.com/","pt-PT,pt;q=0.9,en-US;q=0.8,en;q=0.7","5da03c3607c83700140a3d8f","687a360dabe5252b5ada7185","6889e652eda61d816791b24a","0","5da03c3607c83700140a3d8f","0","2025-07-30T09:45:37.124Z","","","","StressQ","","","","","","","","","","","50","","","","","","","","","","","","","","","","","","","","","","","","","","",""
"3564","","<div style=""width:500px;"">
  <p>What best describes how you currently feel?</p>
  </div>","38","html-slider-response","72","871311","0.0-7.0-4.11","82","1","2025-07-30 09:31:09","36c45c0696341be0efffe67d72a12abb","94.60.138.208","Mozilla/5.0 (Windows NT 10.0; Win64; x64) AppleWebKit/537.36 (KHTML, like Gecko) Chrome/138.0.0.0 Safari/537.36","WebKit","Chrome","138.0.0.0","Windows","10.0","https://app.prolific.com/","pt-PT,pt;q=0.9,en-US;q=0.8,en;q=0.7","5da03c3607c83700140a3d8f","687a360dabe5252b5ada7185","6889e652eda61d816791b24a","0","5da03c3607c83700140a3d8f","0","2025-07-30T09:45:40.689Z","","","","MotivationQ","","","","","","","","","","","50","","","","","","","","","","","","","","","","","","","","","","","","","","",""
"","","","","ctl-task-cpt","73","910883","0.0-7.0-0.12","82","1","2025-07-30 09:31:09","36c45c0696341be0efffe67d72a12abb","94.60.138.208","Mozilla/5.0 (Windows NT 10.0; Win64; x64) AppleWebKit/537.36 (KHTML, like Gecko) Chrome/138.0.0.0 Safari/537.36","WebKit","Chrome","138.0.0.0","Windows","10.0","https://app.prolific.com/","pt-PT,pt;q=0.9,en-US;q=0.8,en;q=0.7","5da03c3607c83700140a3d8f","687a360dabe5252b5ada7185","6889e652eda61d816791b24a","0","5da03c3607c83700140a3d8f","0","2025-07-30T09:46:20.261Z","","","","","","","","","","","","","","","","win-only","3","g1:SW,g2:NE","0.8","13","0","872531.9","1313.3","6317.4","36562.9","1","4","8","6","2","8","8","20","12","0.15151515151515152","1181.8","3000","575","[""up"",""right""]","{""num_key_presses"":10,""num_perfect"":8,""num_errors"":0,""num_randdir"":2,""num_randdir_good_moves"":0,""num_whilered"":0,""num_whileblue"":0,""num_blue"":1,""num_good_moves"":8}","[295.22232142857143,302.12857142857143,0.2,295.22232142857143,302.12857142857143,102.4,295.22232142857143,302.12857142857143,215.9,295.22232142857143,302.12857142857143,317.7,295.22232142857143,302.12857142857143,417.9,285.22232142857143,309.12857142857143,524.3,490.22232142857143,146.12857142857143,631.4,665.2223214285714,-7.871428571428574,732.4,642.2223214285714,9.128571428571426,848,598.2223214285714,29.128571428571426,948.7,567.2223214285714,44.128571428571426,1052.2,567.2223214285714,44.128571428571426,1153.3,567.2223214285714,44.128571428571426,1259.4,567.2223214285714,44.128571428571426,1360,567.2223214285714,44.128571428571426,1460.9,567.2223214285714,44.128571428571426,1562.8,567.2223214285714,44.128571428571426,1668.7,567.2223214285714,44.128571428571426,1779.1,567.2223214285714,44.128571428571426,1881.4,567.2223214285714,44.128571428571426,1982.8,567.2223214285714,44.128571428571426,2082.9,567.2223214285714,44.128571428571426,2183,567.2223214285714,44.128571428571426,2283,567.2223214285714,44.128571428571426,2383.7,567.2223214285714,44.128571428571426,2483.9,567.2223214285714,44.128571428571426,2583.9,567.2223214285714,44.128571428571426,2696.8,567.2223214285714,44.128571428571426,2798,567.2223214285714,44.128571428571426,2899.1,567.2223214285714,44.128571428571426,3012.4,567.2223214285714,44.128571428571426,3113,567.2223214285714,44.128571428571426,3229,567.2223214285714,44.128571428571426,3332.9,567.2223214285714,44.128571428571426,3433.2,567.2223214285714,44.128571428571426,3546.7,567.2223214285714,44.128571428571426,3646.9,567.2223214285714,44.128571428571426,3747,567.2223214285714,44.128571428571426,3848.3,567.2223214285714,44.128571428571426,3953.9,567.2223214285714,44.128571428571426,4060.3,567.2223214285714,44.128571428571426,4162.3,567.2223214285714,44.128571428571426,4262.3,567.2223214285714,44.128571428571426,4366,567.2223214285714,44.128571428571426,4467.8,567.2223214285714,44.128571428571426,4568.1,567.2223214285714,44.128571428571426,4675.5,567.2223214285714,44.128571428571426,4777.7,567.2223214285714,44.128571428571426,4882,567.2223214285714,44.128571428571426,4982.7]","[5030.7,5030.7,2669.1,2003.2,358.4,""smooth"",""right"",""right"",""good_move"",8143.1,3112,2747.3,5031.1,364.7,""smooth"",""right"",""right"",""good_move"",10924.6,2781.2,2393.4,8143.4,387.8,""oops"",""right"",""left"",""bad_move"",13786.3,2861.4,2503.2,10924.9,358.2,""smooth"",""right"",""right"",""good_move"",16051,2263.7,1914.6,13787.3,349.1,""smooth"",""right"",""right"",""good_move"",18964.3,2913.1,2617.9,16051.2,295.2,""oops"",""up"",""left"",""bad_move"",21711.5,2746.8,2387,18964.7,359.8,""smooth"",""right"",""right"",""good_move"",24307.6,2595.9,2275.2,21711.7,320.7,""smooth"",""up"",""up"",""good_move"",26944,2636.1,2288.6,24308,347.4,""smooth"",""up"",""up"",""good_move"",30120.1,3175.9,2844.2,26944.2,331.7,""smooth"",""up"",""up"",""good_move""]"
"4418","","<div style=""width:500px;"">
  <p>What determined the result of this run?</p>
  </div>","33","html-slider-response","74","915302","0.0-7.0-1.12","82","1","2025-07-30 09:31:09","36c45c0696341be0efffe67d72a12abb","94.60.138.208","Mozilla/5.0 (Windows NT 10.0; Win64; x64) AppleWebKit/537.36 (KHTML, like Gecko) Chrome/138.0.0.0 Safari/537.36","WebKit","Chrome","138.0.0.0","Windows","10.0","https://app.prolific.com/","pt-PT,pt;q=0.9,en-US;q=0.8,en;q=0.7","5da03c3607c83700140a3d8f","687a360dabe5252b5ada7185","6889e652eda61d816791b24a","0","5da03c3607c83700140a3d8f","0","2025-07-30T09:46:24.680Z","","","","AttribQ","","","","","","","","","","","50","","","","","","","","","","","","","","","","","","","","","","","","","","",""
"2735","","<div style=""width:500px;"">
  <p>How much control did you have over the ball?</p>
  </div>","34","html-slider-response","75","918038","0.0-7.0-2.12","82","1","2025-07-30 09:31:09","36c45c0696341be0efffe67d72a12abb","94.60.138.208","Mozilla/5.0 (Windows NT 10.0; Win64; x64) AppleWebKit/537.36 (KHTML, like Gecko) Chrome/138.0.0.0 Safari/537.36","WebKit","Chrome","138.0.0.0","Windows","10.0","https://app.prolific.com/","pt-PT,pt;q=0.9,en-US;q=0.8,en;q=0.7","5da03c3607c83700140a3d8f","687a360dabe5252b5ada7185","6889e652eda61d816791b24a","0","5da03c3607c83700140a3d8f","0","2025-07-30T09:46:27.416Z","","","","ControlQ","","","","","","","","","","","50","","","","","","","","","","","","","","","","","","","","","","","","","","",""
"4796","","<div style=""width:500px;"">
  <p>How would you describe your current emotional state?</p>
  </div>","85","html-slider-response","76","922835","0.0-7.0-3.12","82","1","2025-07-30 09:31:09","36c45c0696341be0efffe67d72a12abb","94.60.138.208","Mozilla/5.0 (Windows NT 10.0; Win64; x64) AppleWebKit/537.36 (KHTML, like Gecko) Chrome/138.0.0.0 Safari/537.36","WebKit","Chrome","138.0.0.0","Windows","10.0","https://app.prolific.com/","pt-PT,pt;q=0.9,en-US;q=0.8,en;q=0.7","5da03c3607c83700140a3d8f","687a360dabe5252b5ada7185","6889e652eda61d816791b24a","0","5da03c3607c83700140a3d8f","0","2025-07-30T09:46:32.213Z","","","","StressQ","","","","","","","","","","","50","","","","","","","","","","","","","","","","","","","","","","","","","","",""
"2069","","<div style=""width:500px;"">
  <p>What best describes how you currently feel?</p>
