"rt","response_timestamp","stimulus","response","trial_type","trial_index","time_elapsed","internal_node_id","run_id","condition","recorded_at","source_code_version","ip","user_agent","device","browser","browser_version","platform","platform_version","referer","accept_language","PROLIFIC_PID","STUDY_ID","SESSION_ID","BATCH","prolific_id","batch","realtime","success","question_order","question_id","eventType","responses","item_order","radio_event_ids","radio_event_times","key_event_times","mouse_event_times","straightlining","zigzagging","honeypot","view_history","slider_start","which_type","canvas_config","goals_layout","control_level","trial_number","tutorial_trial_number","trial_start_time","phase1_start_time","phase2_start_time","phase3_start_time","goal_1_value","goal_1_distance","goal_2_value","goal_2_distance","goal_selected","outcome","outcome_total","participant_final_score","participant_initial_score","participant_final_score_prop","goal_choice_rt","allocated_time","allocated_time_remaining","goal_direction","counts","mouse_movements","key_presses"
"10513","1754470583731","<p style='font-size:40px;line-height:1.25'><strong>Welcome to the experiment!</strong></p><p style='font-size:1.1em;line-height:1.25'>Thank you for participanting in our experiment again! You will be asked to play the Dysfunctional Ball Game again. We will briefly recap the rules before we start.</p><p style='font-size:1.1em;line-height:1.25'>Press <strong>Next</strong> to continue.</p>","0","custom-html-button-response","0","10516","0.0-0.0","146","1","2025-08-06 08:56:12","36c45c0696341be0efffe67d72a12abb","93.39.140.119","Mozilla/5.0 (Windows NT 10.0; Win64; x64) AppleWebKit/537.36 (KHTML, like Gecko) Chrome/138.0.0.0 Safari/537.36","WebKit","Chrome","138.0.0.0","Windows","10.0","https://app.prolific.com/","it-IT,it;q=0.9,en-US;q=0.8,en;q=0.7","5daae19f8a06b60016d1bc32","6877649eabb845cf142cd221","689318a6aab43342e14cb9ee","1","5daae19f8a06b60016d1bc32","1","2025-08-06T08:56:23.732Z","","","","","","","","","","","","","","","","","","","","","","","","","","","","","","","","","","","","","","","","","",""
"50060","","","","fullscreen","1","61589","0.0-1.0","146","1","2025-08-06 08:56:12","36c45c0696341be0efffe67d72a12abb","93.39.140.119","Mozilla/5.0 (Windows NT 10.0; Win64; x64) AppleWebKit/537.36 (KHTML, like Gecko) Chrome/138.0.0.0 Safari/537.36","WebKit","Chrome","138.0.0.0","Windows","10.0","https://app.prolific.com/","it-IT,it;q=0.9,en-US;q=0.8,en;q=0.7","5daae19f8a06b60016d1bc32","6877649eabb845cf142cd221","689318a6aab43342e14cb9ee","1","5daae19f8a06b60016d1bc32","1","","true","","","","","","","","","","","","","","","","","","","","","","","","","","","","","","","","","","","","","","","","",""
"1317","1754470636123"," <p style='font-size:1.1em;line-height:1.25'>Thank you for closing all other tabs.</p><p style='font-size:1.1em;line-height:1.25'>We will now invite you to fill in some questionnaires, before starting the game.<br>This will take about 5 minutes.<br></p><p style='font-size:1.1em;line-height:1.25'>Press the <strong>Next</strong> button to continue.</p>","0","custom-html-button-response","2","62907","0.0-2.0","146","1","2025-08-06 08:56:12","36c45c0696341be0efffe67d72a12abb","93.39.140.119","Mozilla/5.0 (Windows NT 10.0; Win64; x64) AppleWebKit/537.36 (KHTML, like Gecko) Chrome/138.0.0.0 Safari/537.36","WebKit","Chrome","138.0.0.0","Windows","10.0","https://app.prolific.com/","it-IT,it;q=0.9,en-US;q=0.8,en;q=0.7","5daae19f8a06b60016d1bc32","6877649eabb845cf142cd221","689318a6aab43342e14cb9ee","1","5daae19f8a06b60016d1bc32","1","2025-08-06T08:57:16.123Z","","","","","","","","","","","","","","","","","","","","","","","","","","","","","","","","","","","","","","","","","",""
"3095","","","{""assigned_sex"":""female""}","survey-multi-choice","3","66004","0.0-3.0-0.0","146","1","2025-08-06 08:56:12","36c45c0696341be0efffe67d72a12abb","93.39.140.119","Mozilla/5.0 (Windows NT 10.0; Win64; x64) AppleWebKit/537.36 (KHTML, like Gecko) Chrome/138.0.0.0 Safari/537.36","WebKit","Chrome","138.0.0.0","Windows","10.0","https://app.prolific.com/","it-IT,it;q=0.9,en-US;q=0.8,en;q=0.7","5daae19f8a06b60016d1bc32","6877649eabb845cf142cd221","689318a6aab43342e14cb9ee","1","5daae19f8a06b60016d1bc32","1","","","[0]","0","demographics","","","","","","","","","","","","","","","","","","","","","","","","","","","","","","","","","","","","","",""
"3886","1754470643107","<p style='font-size:1.1em;line-height:1.25'>In the following, we will perform a baseline assessment. This means that we will ask you a few questions relating to your experiences over the past month.<br></p><p style='font-size:1.1em;line-height:1.25'>Press the <strong>Next</strong> button to continue.</p>","0","custom-html-button-response","4","69892","0.0-4.0-0.0","146","1","2025-08-06 08:56:12","36c45c0696341be0efffe67d72a12abb","93.39.140.119","Mozilla/5.0 (Windows NT 10.0; Win64; x64) AppleWebKit/537.36 (KHTML, like Gecko) Chrome/138.0.0.0 Safari/537.36","WebKit","Chrome","138.0.0.0","Windows","10.0","https://app.prolific.com/","it-IT,it;q=0.9,en-US;q=0.8,en;q=0.7","5daae19f8a06b60016d1bc32","6877649eabb845cf142cd221","689318a6aab43342e14cb9ee","1","5daae19f8a06b60016d1bc32","1","2025-08-06T08:57:23.108Z","","","","","","","","","","","","","","","","","","","","","","","","","","","","","","","","","","","","","","","","","",""
"71610.19999885559","","","","survey-template","5","141505","0.0-4.0-1.0","146","1","2025-08-06 08:56:12","36c45c0696341be0efffe67d72a12abb","93.39.140.119","Mozilla/5.0 (Windows NT 10.0; Win64; x64) AppleWebKit/537.36 (KHTML, like Gecko) Chrome/138.0.0.0 Safari/537.36","WebKit","Chrome","138.0.0.0","Windows","10.0","https://app.prolific.com/","it-IT,it;q=0.9,en-US;q=0.8,en;q=0.7","5daae19f8a06b60016d1bc32","6877649eabb845cf142cd221","689318a6aab43342e14cb9ee","1","5daae19f8a06b60016d1bc32","1","2025-08-06T08:58:34.721Z","","","","pss","{""Q01"":""3"",""Q02"":""3"",""Q03"":""3"",""Q04"":""3"",""Q05"":""3"",""Q06"":""4"",""Q07"":""2"",""Q08"":""3"",""Q09"":""3"",""Q10"":""4""}","[0,1,2,3,4,5,6,7,8,9]","[""Q01"",""Q03"",""Q04"",""Q05"",""Q06"",""Q07"",""Q08"",""Q09"",""Q10"",""Q02""]","[8072.89999961853,19452.89999961853,27541.79999923706,32036.59999847412,37243.39999961853,42536.5,48010.89999961853,55705.59999847412,62309.79999923706,69247]","[]","[0,8072.89999961853,16088,19452.89999961853,27541.79999923706,31076.29999923706,32036.59999847412,37243.39999961853,42536.5,48010.89999961853,55705.59999847412,62309.79999923706,63358,69247,71606.5]","0.4","0.2222222222222222","0","","","","","","","","","","","","","","","","","","","","","","","","","","","","",""
"3744","1754470718466","<p style='font-size:1.1em;line-height:1.25'>Thank you for your answers! Now we will ask you a few more questions relating to your feelings in the last 24 hours.<br></p><p style='font-size:1.1em;line-height:1.25'>Press the <strong>Next</strong> button to continue.</p>","0","custom-html-button-response","6","145251","0.0-4.0-2.0","146","1","2025-08-06 08:56:12","36c45c0696341be0efffe67d72a12abb","93.39.140.119","Mozilla/5.0 (Windows NT 10.0; Win64; x64) AppleWebKit/537.36 (KHTML, like Gecko) Chrome/138.0.0.0 Safari/537.36","WebKit","Chrome","138.0.0.0","Windows","10.0","https://app.prolific.com/","it-IT,it;q=0.9,en-US;q=0.8,en;q=0.7","5daae19f8a06b60016d1bc32","6877649eabb845cf142cd221","689318a6aab43342e14cb9ee","1","5daae19f8a06b60016d1bc32","1","2025-08-06T08:58:38.467Z","","","","","","","","","","","","","","","","","","","","","","","","","","","","","","","","","","","","","","","","","",""
"118157.40000152588","","","","survey-template","7","263411","0.0-4.0-3.0","146","1","2025-08-06 08:56:12","36c45c0696341be0efffe67d72a12abb","93.39.140.119","Mozilla/5.0 (Windows NT 10.0; Win64; x64) AppleWebKit/537.36 (KHTML, like Gecko) Chrome/138.0.0.0 Safari/537.36","WebKit","Chrome","138.0.0.0","Windows","10.0","https://app.prolific.com/","it-IT,it;q=0.9,en-US;q=0.8,en;q=0.7","5daae19f8a06b60016d1bc32","6877649eabb845cf142cd221","689318a6aab43342e14cb9ee","1","5daae19f8a06b60016d1bc32","1","2025-08-06T09:00:36.627Z","","","","drsp","{""Q01"":""4"",""Q02"":""4"",""Q03"":""4"",""Q04"":""4"",""Q05"":""2"",""Q06"":""4"",""Q07"":""1"",""Q08"":""1"",""Q09"":""5"",""Q10"":""3"",""Q11"":""3"",""Q12"":""0"",""Q13"":""5"",""Q14"":""0"",""Q15"":""0"",""Q16"":""0"",""Q17"":""4"",""Q18"":""3"",""Q19"":""1"",""Q20"":""0"",""Q21"":""0"",""Q22"":""0""}","[0,1,2,3,4,5,6,7,8,9,10,11,12,13,14,15,16,17,18,19,20,21]","[""Q01"",""Q02"",""Q03"",""Q04"",""Q05"",""Q06"",""Q06"",""Q07"",""Q08"",""Q09"",""Q10"",""Q11"",""Q12"",""Q13"",""Q14"",""Q15"",""Q16"",""Q17"",""Q18"",""Q18"",""Q19"",""Q20"",""Q21"",""Q22""]","[5518.300001144409,8143,9843.80000114441,12328.20000076294,16848.90000152588,21090.10000038147,24427.20000076294,32104.40000152588,36965.20000076294,42342.10000038147,45503.90000152588,48903.5,53682.20000076294,55573.80000114441,57992.70000076294,63102.90000152588,66687.80000114441,70763.90000152588,73766.40000152588,85566.30000114441,93775.5,100402.20000076294,102081.10000038147,116621.10000038147]","[]","[0,5518.300001144409,8143,9843.80000114441,12328.20000076294,16848.90000152588,21090.10000038147,24427.20000076294,32104.40000152588,36965.20000076294,42342.10000038147,45503.90000152588,48903.5,53682.20000076294,55573.80000114441,57992.70000076294,63102.90000152588,66687.80000114441,70763.90000152588,73766.40000152588,85566.30000114441,93775.5,100402.20000076294,102081.10000038147,116621.10000038147,118154]","0.3181818181818182","0.19047619047619047","0","","","","","","","","","","","","","","","","","","","","","","","","","","","","",""
"32336.19999885559","","","","survey-template","8","295749","0.0-4.0-4.0","146","1","2025-08-06 08:56:12","36c45c0696341be0efffe67d72a12abb","93.39.140.119","Mozilla/5.0 (Windows NT 10.0; Win64; x64) AppleWebKit/537.36 (KHTML, like Gecko) Chrome/138.0.0.0 Safari/537.36","WebKit","Chrome","138.0.0.0","Windows","10.0","https://app.prolific.com/","it-IT,it;q=0.9,en-US;q=0.8,en;q=0.7","5daae19f8a06b60016d1bc32","6877649eabb845cf142cd221","689318a6aab43342e14cb9ee","1","5daae19f8a06b60016d1bc32","1","2025-08-06T09:01:08.965Z","","","","stress","{""Q01"":""2"",""Q02"":""5"",""Q03"":""5""}","[0,1,2]","[""Q01"",""Q02"",""Q03""]","[14746.099998474121,26882.5,31109.19999885559]","[]","[14746.099998474121,26882.5,31109.19999885559,32335.09999847412]","0.3333333333333333","0.5","0","","","","","","","","","","","","","","","","","","","","","","","","","","","","",""
"43105","","","","instructions","9","338855","0.0-5.0-0.0","146","1","2025-08-06 08:56:12","36c45c0696341be0efffe67d72a12abb","93.39.140.119","Mozilla/5.0 (Windows NT 10.0; Win64; x64) AppleWebKit/537.36 (KHTML, like Gecko) Chrome/138.0.0.0 Safari/537.36","WebKit","Chrome","138.0.0.0","Windows","10.0","https://app.prolific.com/","it-IT,it;q=0.9,en-US;q=0.8,en;q=0.7","5daae19f8a06b60016d1bc32","6877649eabb845cf142cd221","689318a6aab43342e14cb9ee","1","5daae19f8a06b60016d1bc32","1","","","","","","","","","","","","","","","[{""page_index"":0,""viewing_time"":43105}]","","","","","","","","","","","","","","","","","","","","","","","","","","","",""
"6329","","<p>Before you start with this game please answer the following three questions yourself. </p>
  <p>Through this game, we measure several aspects of your cognitive performance, such as reaction times, multi-tasking capabilities </p>
  <p>and the ability to assess the situation you are in.</p>
  <p></p>
  <p><b>How good do you usually are in such tasks?</b></p>","50","html-slider-response","10","345186","0.0-6.0-0.0","146","1","2025-08-06 08:56:12","36c45c0696341be0efffe67d72a12abb","93.39.140.119","Mozilla/5.0 (Windows NT 10.0; Win64; x64) AppleWebKit/537.36 (KHTML, like Gecko) Chrome/138.0.0.0 Safari/537.36","WebKit","Chrome","138.0.0.0","Windows","10.0","https://app.prolific.com/","it-IT,it;q=0.9,en-US;q=0.8,en;q=0.7","5daae19f8a06b60016d1bc32","6877649eabb845cf142cd221","689318a6aab43342e14cb9ee","1","5daae19f8a06b60016d1bc32","1","2025-08-06T09:01:58.402Z","","","","PreSkillQ","","","","","","","","","","","50","","","","","","","","","","","","","","","","","","","","","","","","","","",""
"2902","","<div style=""width:500px;"">
  <p>How well do you think you will perform in this task compared to other participants?</p>
  </div>","50","html-slider-response","11","348088","0.0-6.0-1.0","146","1","2025-08-06 08:56:12","36c45c0696341be0efffe67d72a12abb","93.39.140.119","Mozilla/5.0 (Windows NT 10.0; Win64; x64) AppleWebKit/537.36 (KHTML, like Gecko) Chrome/138.0.0.0 Safari/537.36","WebKit","Chrome","138.0.0.0","Windows","10.0","https://app.prolific.com/","it-IT,it;q=0.9,en-US;q=0.8,en;q=0.7","5daae19f8a06b60016d1bc32","6877649eabb845cf142cd221","689318a6aab43342e14cb9ee","1","5daae19f8a06b60016d1bc32","1","2025-08-06T09:02:01.304Z","","","","PrePerfQ","","","","","","","","","","","50","","","","","","","","","","","","","","","","","","","","","","","","","","",""
"4703","","<div style=""width:500px;"">
  <p>What best describes how you currently feel?</p>
  </div>","41","html-slider-response","12","352792","0.0-6.0-2.0","146","1","2025-08-06 08:56:12","36c45c0696341be0efffe67d72a12abb","93.39.140.119","Mozilla/5.0 (Windows NT 10.0; Win64; x64) AppleWebKit/537.36 (KHTML, like Gecko) Chrome/138.0.0.0 Safari/537.36","WebKit","Chrome","138.0.0.0","Windows","10.0","https://app.prolific.com/","it-IT,it;q=0.9,en-US;q=0.8,en;q=0.7","5daae19f8a06b60016d1bc32","6877649eabb845cf142cd221","689318a6aab43342e14cb9ee","1","5daae19f8a06b60016d1bc32","1","2025-08-06T09:02:06.008Z","","","","PreMotivationQ","","","","","","","","","","","50","","","","","","","","","","","","","","","","","","","","","","","","","","",""
"","","","","ctl-task-cpt","13","379325","0.0-7.0-0.0","146","1","2025-08-06 08:56:12","36c45c0696341be0efffe67d72a12abb","93.39.140.119","Mozilla/5.0 (Windows NT 10.0; Win64; x64) AppleWebKit/537.36 (KHTML, like Gecko) Chrome/138.0.0.0 Safari/537.36","WebKit","Chrome","138.0.0.0","Windows","10.0","https://app.prolific.com/","it-IT,it;q=0.9,en-US;q=0.8,en;q=0.7","5daae19f8a06b60016d1bc32","6877649eabb845cf142cd221","689318a6aab43342e14cb9ee","1","5daae19f8a06b60016d1bc32","1","2025-08-06T09:02:32.541Z","","","","","","","","","","","","","","","","win-only","1","g1:NE,g2:SW","1","1","0","354832.5","1423.1","6429.8","23519.5","1","4","4","6","2","4","4","4","0","0.030303030303030304","1369.8","3000","1490","[""down"",""left""]","{""num_key_presses"":6,""num_perfect"":6,""num_errors"":0,""num_randdir"":0,""num_randdir_good_moves"":0,""num_whilered"":0,""num_whileblue"":0,""num_blue"":1,""num_good_moves"":6}","[409.57142857142856,420.47767857142856,0.2,409.57142857142856,420.47767857142856,101.4,409.57142857142856,420.47767857142856,209.8,409.57142857142856,420.47767857142856,312.7,409.57142857142856,420.47767857142856,416.4,409.57142857142856,420.47767857142856,523.7,409.57142857142856,420.47767857142856,631,409.57142857142856,420.47767857142856,738.1,348.57142857142856,460.47767857142856,844,198.57142857142856,590.4776785714286,952.4,154.57142857142856,647.4776785714286,1053.1,130.57142857142856,691.4776785714286,1159.1,115.57142857142857,709.4776785714286,1266.5,115.57142857142857,709.4776785714286,1377.8,115.57142857142857,709.4776785714286,1478.9,115.57142857142857,709.4776785714286,1582.8,115.57142857142857,709.4776785714286,1689.9,115.57142857142857,709.4776785714286,1793.5,84.57142857142857,723.4776785714286,1894.1,-143.42857142857144,792.4776785714286,2002.4,-148.42857142857144,792.4776785714286,2109.4,-148.42857142857144,792.4776785714286,2210.9,-148.42857142857144,792.4776785714286,2318.1,-148.42857142857144,792.4776785714286,2426.2,-148.42857142857144,792.4776785714286,2527.4,-148.42857142857144,792.4776785714286,2627.7,-148.42857142857144,792.4776785714286,2736.4,-148.42857142857144,792.4776785714286,2844.2,-148.42857142857144,792.4776785714286,2951.1,-148.42857142857144,792.4776785714286,3059.2,-148.42857142857144,792.4776785714286,3166,-148.42857142857144,792.4776785714286,3281.2,-148.42857142857144,792.4776785714286,3387.5,-148.42857142857144,792.4776785714286,3494,-148.42857142857144,792.4776785714286,3597.3,-148.42857142857144,792.4776785714286,3697.3,-148.42857142857144,792.4776785714286,3804.4,-148.42857142857144,792.4776785714286,3905,-148.42857142857144,792.4776785714286,4011.8,-148.42857142857144,792.4776785714286,4112.2,-148.42857142857144,792.4776785714286,4218.1,-148.42857142857144,792.4776785714286,4324.6,-148.42857142857144,792.4776785714286,4428.2,-148.42857142857144,792.4776785714286,4528.7,-148.42857142857144,792.4776785714286,4636.3,-148.42857142857144,792.4776785714286,4742.7,-148.42857142857144,792.4776785714286,4850.4,-148.42857142857144,792.4776785714286,4957.2]","[1389.2,1389.1,1000,0.1,389.1,""smooth"",""down"",""down"",""good_move"",3886.6,2497.1,2165.7,1389.7,331.3,""smooth"",""left"",""left"",""good_move"",6499,2612,2286.4,3887,325.6,""smooth"",""down"",""down"",""good_move"",9394.3,2895,2571.5,6499.3,323.5,""smooth"",""left"",""left"",""good_move"",11414,2019.4,1618.1,9394.6,401.3,""smooth"",""down"",""down"",""good_move"",16961.4,5547.2,2090.2,14506.1,365.1,""smooth"",""left"",""left"",""good_move""]"
"5452","","<div style=""width:500px;"">
  <p>What determined the result of this run?</p>
  </div>","100","html-slider-response","14","384778","0.0-7.0-1.0","146","1","2025-08-06 08:56:12","36c45c0696341be0efffe67d72a12abb","93.39.140.119","Mozilla/5.0 (Windows NT 10.0; Win64; x64) AppleWebKit/537.36 (KHTML, like Gecko) Chrome/138.0.0.0 Safari/537.36","WebKit","Chrome","138.0.0.0","Windows","10.0","https://app.prolific.com/","it-IT,it;q=0.9,en-US;q=0.8,en;q=0.7","5daae19f8a06b60016d1bc32","6877649eabb845cf142cd221","689318a6aab43342e14cb9ee","1","5daae19f8a06b60016d1bc32","1","2025-08-06T09:02:37.994Z","","","","AttribQ","","","","","","","","","","","50","","","","","","","","","","","","","","","","","","","","","","","","","","",""
"2589","","<div style=""width:500px;"">
  <p>How much control did you have over the ball?</p>
  </div>","100","html-slider-response","15","387368","0.0-7.0-2.0","146","1","2025-08-06 08:56:12","36c45c0696341be0efffe67d72a12abb","93.39.140.119","Mozilla/5.0 (Windows NT 10.0; Win64; x64) AppleWebKit/537.36 (KHTML, like Gecko) Chrome/138.0.0.0 Safari/537.36","WebKit","Chrome","138.0.0.0","Windows","10.0","https://app.prolific.com/","it-IT,it;q=0.9,en-US;q=0.8,en;q=0.7","5daae19f8a06b60016d1bc32","6877649eabb845cf142cd221","689318a6aab43342e14cb9ee","1","5daae19f8a06b60016d1bc32","1","2025-08-06T09:02:40.584Z","","","","ControlQ","","","","","","","","","","","50","","","","","","","","","","","","","","","","","","","","","","","","","","",""
"12893","","<div style=""width:500px;"">
  <p>How would you describe your current emotional state?</p>
  </div>","22","html-slider-response","16","400261","0.0-7.0-3.0","146","1","2025-08-06 08:56:12","36c45c0696341be0efffe67d72a12abb","93.39.140.119","Mozilla/5.0 (Windows NT 10.0; Win64; x64) AppleWebKit/537.36 (KHTML, like Gecko) Chrome/138.0.0.0 Safari/537.36","WebKit","Chrome","138.0.0.0","Windows","10.0","https://app.prolific.com/","it-IT,it;q=0.9,en-US;q=0.8,en;q=0.7","5daae19f8a06b60016d1bc32","6877649eabb845cf142cd221","689318a6aab43342e14cb9ee","1","5daae19f8a06b60016d1bc32","1","2025-08-06T09:02:53.478Z","","","","StressQ","","","","","","","","","","","50","","","","","","","","","","","","","","","","","","","","","","","","","","",""
"7468","","<div style=""width:500px;"">
  <p>What best describes how you currently feel?</p>
  </div>","53","html-slider-response","17","407731","0.0-7.0-4.0","146","1","2025-08-06 08:56:12","36c45c0696341be0efffe67d72a12abb","93.39.140.119","Mozilla/5.0 (Windows NT 10.0; Win64; x64) AppleWebKit/537.36 (KHTML, like Gecko) Chrome/138.0.0.0 Safari/537.36","WebKit","Chrome","138.0.0.0","Windows","10.0","https://app.prolific.com/","it-IT,it;q=0.9,en-US;q=0.8,en;q=0.7","5daae19f8a06b60016d1bc32","6877649eabb845cf142cd221","689318a6aab43342e14cb9ee","1","5daae19f8a06b60016d1bc32","1","2025-08-06T09:03:00.947Z","","","","MotivationQ","","","","","","","","","","","50","","","","","","","","","","","","","","","","","","","","","","","","","","",""
"","","","","ctl-task-cpt","18","439304","0.0-7.0-0.1","146","1","2025-08-06 08:56:12","36c45c0696341be0efffe67d72a12abb","93.39.140.119","Mozilla/5.0 (Windows NT 10.0; Win64; x64) AppleWebKit/537.36 (KHTML, like Gecko) Chrome/138.0.0.0 Safari/537.36","WebKit","Chrome","138.0.0.0","Windows","10.0","https://app.prolific.com/","it-IT,it;q=0.9,en-US;q=0.8,en;q=0.7","5daae19f8a06b60016d1bc32","6877649eabb845cf142cd221","689318a6aab43342e14cb9ee","1","5daae19f8a06b60016d1bc32","1","2025-08-06T09:03:32.520Z","","","","","","","","","","","","","","","","win-only","1","g1:NE,g2:SW","0.9","2","0","409769.5","990.3","5991.6","28569.3","1","4","8","6","2","8","8","12","4","0.09090909090909091","817.6","3000","840","[""down"",""left""]","{""num_key_presses"":8,""num_perfect"":7,""num_errors"":0,""num_randdir"":1,""num_randdir_good_moves"":0,""num_whilered"":0,""num_whileblue"":0,""num_blue"":0,""num_good_moves"":7}","[408.57142857142856,416.47767857142856,0.1,408.57142857142856,416.47767857142856,104,408.57142857142856,416.47767857142856,211.1,408.57142857142856,416.47767857142856,314.9,400.57142857142856,425.47767857142856,417.5,219.57142857142856,631.4776785714286,520.3,89.57142857142857,771.4776785714286,629.3,56.57142857142857,794.4776785714286,734.6,52.57142857142857,793.4776785714286,837.1,52.57142857142857,793.4776785714286,947,52.57142857142857,793.4776785714286,1054.4,-22.42857142857143,763.4776785714286,1160.9,-148.42857142857144,729.4776785714286,1267.3,-148.42857142857144,729.4776785714286,1368.3,-212.42857142857144,695.4776785714286,1472.4,-277.42857142857144,659.4776785714286,1573.6,-277.42857142857144,659.4776785714286,1680.9,-277.42857142857144,659.4776785714286,1785.6,-277.42857142857144,659.4776785714286,1885.9,-277.42857142857144,659.4776785714286,1986.6,-277.42857142857144,659.4776785714286,2095.3,-277.42857142857144,659.4776785714286,2199.4,-277.42857142857144,659.4776785714286,2301.5,-277.42857142857144,659.4776785714286,2406.1,-277.42857142857144,659.4776785714286,2506.6,-277.42857142857144,659.4776785714286,2615.5,-277.42857142857144,659.4776785714286,2722.8,-277.42857142857144,659.4776785714286,2822.8,-277.42857142857144,659.4776785714286,2922.9,-277.42857142857144,659.4776785714286,3028.5,-277.42857142857144,659.4776785714286,3132.8,-277.42857142857144,659.4776785714286,3234.2,-277.42857142857144,659.4776785714286,3336.3,-277.42857142857144,659.4776785714286,3441.8,-277.42857142857144,659.4776785714286,3541.9,-277.42857142857144,659.4776785714286,3649.6,-277.42857142857144,659.4776785714286,3750.4,-277.42857142857144,659.4776785714286,3857.7,-277.42857142857144,659.4776785714286,3960.2,-277.42857142857144,659.4776785714286,4066,-277.42857142857144,659.4776785714286,4167.9,-277.42857142857144,659.4776785714286,4274.8,-277.42857142857144,659.4776785714286,4375.2,-277.42857142857144,659.4776785714286,4483,-277.42857142857144,659.4776785714286,4589.5,-277.42857142857144,659.4776785714286,4695.4,-277.42857142857144,659.4776785714286,4802.6,-277.42857142857144,659.4776785714286,4902.7]","[1394,1394,1000,0,394,""oops"",""left"",""up"",""bad_move"",3946.2,2551.8,2146.4,1394.4,405.4,""smooth"",""left"",""left"",""good_move"",6910.8,2964.4,2610.9,3946.4,353.5,""smooth"",""down"",""down"",""good_move"",9866.4,2955.5,2605.5,6911,350,""smooth"",""down"",""down"",""good_move"",13251.3,3384.6,3000.8,9866.7,383.8,""smooth"",""down"",""down"",""good_move"",16215.7,2964,2543.4,13251.7,420.6,""smooth"",""left"",""left"",""good_move"",19545.3,3329.3,2971.1,16216,358.2,""smooth"",""left"",""left"",""good_move"",22446.1,2900.6,2523.9,19545.5,376.7,""smooth"",""down"",""down"",""good_move""]"
"3867","","<div style=""width:500px;"">
  <p>What determined the result of this run?</p>
  </div>","95","html-slider-response","19","443171","0.0-7.0-1.1","146","1","2025-08-06 08:56:12","36c45c0696341be0efffe67d72a12abb","93.39.140.119","Mozilla/5.0 (Windows NT 10.0; Win64; x64) AppleWebKit/537.36 (KHTML, like Gecko) Chrome/138.0.0.0 Safari/537.36","WebKit","Chrome","138.0.0.0","Windows","10.0","https://app.prolific.com/","it-IT,it;q=0.9,en-US;q=0.8,en;q=0.7","5daae19f8a06b60016d1bc32","6877649eabb845cf142cd221","689318a6aab43342e14cb9ee","1","5daae19f8a06b60016d1bc32","1","2025-08-06T09:03:36.388Z","","","","AttribQ","","","","","","","","","","","50","","","","","","","","","","","","","","","","","","","","","","","","","","",""
"2927","","<div style=""width:500px;"">
  <p>How much control did you have over the ball?</p>
  </div>","92","html-slider-response","20","446100","0.0-7.0-2.1","146","1","2025-08-06 08:56:12","36c45c0696341be0efffe67d72a12abb","93.39.140.119","Mozilla/5.0 (Windows NT 10.0; Win64; x64) AppleWebKit/537.36 (KHTML, like Gecko) Chrome/138.0.0.0 Safari/537.36","WebKit","Chrome","138.0.0.0","Windows","10.0","https://app.prolific.com/","it-IT,it;q=0.9,en-US;q=0.8,en;q=0.7","5daae19f8a06b60016d1bc32","6877649eabb845cf142cd221","689318a6aab43342e14cb9ee","1","5daae19f8a06b60016d1bc32","1","2025-08-06T09:03:39.316Z","","","","ControlQ","","","","","","","","","","","50","","","","","","","","","","","","","","","","","","","","","","","","","","",""
"6004","","<div style=""width:500px;"">
  <p>How would you describe your current emotional state?</p>
  </div>","31","html-slider-response","21","452105","0.0-7.0-3.1","146","1","2025-08-06 08:56:12","36c45c0696341be0efffe67d72a12abb","93.39.140.119","Mozilla/5.0 (Windows NT 10.0; Win64; x64) AppleWebKit/537.36 (KHTML, like Gecko) Chrome/138.0.0.0 Safari/537.36","WebKit","Chrome","138.0.0.0","Windows","10.0","https://app.prolific.com/","it-IT,it;q=0.9,en-US;q=0.8,en;q=0.7","5daae19f8a06b60016d1bc32","6877649eabb845cf142cd221","689318a6aab43342e14cb9ee","1","5daae19f8a06b60016d1bc32","1","2025-08-06T09:03:45.321Z","","","","StressQ","","","","","","","","","","","50","","","","","","","","","","","","","","","","","","","","","","","","","","",""
"3081","","<div style=""width:500px;"">
  <p>What best describes how you currently feel?</p>
  </div>","56","html-slider-response","22","455187","0.0-7.0-4.1","146","1","2025-08-06 08:56:12","36c45c0696341be0efffe67d72a12abb","93.39.140.119","Mozilla/5.0 (Windows NT 10.0; Win64; x64) AppleWebKit/537.36 (KHTML, like Gecko) Chrome/138.0.0.0 Safari/537.36","WebKit","Chrome","138.0.0.0","Windows","10.0","https://app.prolific.com/","it-IT,it;q=0.9,en-US;q=0.8,en;q=0.7","5daae19f8a06b60016d1bc32","6877649eabb845cf142cd221","689318a6aab43342e14cb9ee","1","5daae19f8a06b60016d1bc32","1","2025-08-06T09:03:48.403Z","","","","MotivationQ","","","","","","","","","","","50","","","","","","","","","","","","","","","","","","","","","","","","","","",""
"","","","","ctl-task-cpt","23","500689","0.0-7.0-0.2","146","1","2025-08-06 08:56:12","36c45c0696341be0efffe67d72a12abb","93.39.140.119","Mozilla/5.0 (Windows NT 10.0; Win64; x64) AppleWebKit/537.36 (KHTML, like Gecko) Chrome/138.0.0.0 Safari/537.36","WebKit","Chrome","138.0.0.0","Windows","10.0","https://app.prolific.com/","it-IT,it;q=0.9,en-US;q=0.8,en;q=0.7","5daae19f8a06b60016d1bc32","6877649eabb845cf142cd221","689318a6aab43342e14cb9ee","1","5daae19f8a06b60016d1bc32","1","2025-08-06T09:04:33.905Z","","","","","","","","","","","","","","","","win-only","1","g1:NE,g2:SW","0.8","3","0","457226.2","933.8","5936","42491.9","1","4","8","6","2","8","8","20","12","0.15151515151515152","990.5","3000","860","[""down"",""left""]","{""num_key_presses"":8,""num_perfect"":7,""num_errors"":0,""num_randdir"":1,""num_randdir_good_moves"":0,""num_whilered"":0,""num_whileblue"":0,""num_blue"":4,""num_good_moves"":7}","[416.57142857142856,413.47767857142856,0.2,416.57142857142856,413.47767857142856,104,416.57142857142856,413.47767857142856,204.4,416.57142857142856,413.47767857142856,305.1,416.57142857142856,413.47767857142856,405.2,390.57142857142856,430.47767857142856,506.8,177.57142857142856,639.4776785714286,607.6,168.57142857142856,652.4776785714286,718.9,168.57142857142856,652.4776785714286,823.2,77.57142857142857,741.4776785714286,923.8,73.57142857142857,745.4776785714286,1033.7,73.57142857142857,745.4776785714286,1137.9,73.57142857142857,745.4776785714286,1245.6,-229.42857142857144,716.4776785714286,1351,-265.42857142857144,713.4776785714286,1455.7,-265.42857142857144,713.4776785714286,1555.9,-265.42857142857144,713.4776785714286,1657.7,-265.42857142857144,713.4776785714286,1763.5,-265.42857142857144,713.4776785714286,1872.9,-265.42857142857144,713.4776785714286,1976.7,-265.42857142857144,713.4776785714286,2079.4,-265.42857142857144,713.4776785714286,2187.9,-265.42857142857144,713.4776785714286,2288.3,-265.42857142857144,713.4776785714286,2388.8,-265.42857142857144,713.4776785714286,2489.8,-265.42857142857144,713.4776785714286,2590.3,-265.42857142857144,713.4776785714286,2697.3,-265.42857142857144,713.4776785714286,2805.7,-265.42857142857144,713.4776785714286,2905.8,-265.42857142857144,713.4776785714286,3008.6,-265.42857142857144,713.4776785714286,3114,-265.42857142857144,713.4776785714286,3221.5,-265.42857142857144,713.4776785714286,3325.2,-265.42857142857144,713.4776785714286,3428.4,-265.42857142857144,713.4776785714286,3531.1,-265.42857142857144,713.4776785714286,3637.5,-265.42857142857144,713.4776785714286,3739.4,-265.42857142857144,713.4776785714286,3840.2,-265.42857142857144,713.4776785714286,3942,-265.42857142857144,713.4776785714286,4046.4,-265.42857142857144,713.4776785714286,4146.6,-265.42857142857144,713.4776785714286,4246.7,-265.42857142857144,713.4776785714286,4355.7,-265.42857142857144,713.4776785714286,4457,-265.42857142857144,713.4776785714286,4558.6,-265.42857142857144,713.4776785714286,4658.9,-265.42857142857144,713.4776785714286,4762.1,-265.42857142857144,713.4776785714286,4862.4,-265.42857142857144,713.4776785714286,4962.9]","[1373.2,1373.3,1000,0,373.3,""smooth"",""down"",""down"",""good_move"",4076.4,2702.6,2333.1,1373.8,369.5,""smooth"",""down"",""down"",""good_move"",10839.3,6762.6,3053.8,7444.6,340.9,""smooth"",""left"",""left"",""good_move"",17169.9,6330.3,2459.8,14329.2,380.9,""smooth"",""left"",""left"",""good_move"",26410.5,9240.4,2061.1,23963.5,385.9,""smooth"",""down"",""down"",""good_move"",29203.8,2793.1,2401.2,26410.7,391.9,""oops"",""left"",""right"",""bad_move"",33157.8,3953.5,3538.9,29204.3,414.6,""smooth"",""left"",""left"",""good_move"",36418.1,3260,2878,33158.1,382,""smooth"",""left"",""left"",""good_move""]"
"8971","","<div style=""width:500px;"">
  <p>What determined the result of this run?</p>
  </div>","91","html-slider-response","24","509661","0.0-7.0-1.2","146","1","2025-08-06 08:56:12","36c45c0696341be0efffe67d72a12abb","93.39.140.119","Mozilla/5.0 (Windows NT 10.0; Win64; x64) AppleWebKit/537.36 (KHTML, like Gecko) Chrome/138.0.0.0 Safari/537.36","WebKit","Chrome","138.0.0.0","Windows","10.0","https://app.prolific.com/","it-IT,it;q=0.9,en-US;q=0.8,en;q=0.7","5daae19f8a06b60016d1bc32","6877649eabb845cf142cd221","689318a6aab43342e14cb9ee","1","5daae19f8a06b60016d1bc32","1","2025-08-06T09:04:42.878Z","","","","AttribQ","","","","","","","","","","","50","","","","","","","","","","","","","","","","","","","","","","","","","","",""
"2126","","<div style=""width:500px;"">
  <p>How much control did you have over the ball?</p>
  </div>","91","html-slider-response","25","511789","0.0-7.0-2.2","146","1","2025-08-06 08:56:12","36c45c0696341be0efffe67d72a12abb","93.39.140.119","Mozilla/5.0 (Windows NT 10.0; Win64; x64) AppleWebKit/537.36 (KHTML, like Gecko) Chrome/138.0.0.0 Safari/537.36","WebKit","Chrome","138.0.0.0","Windows","10.0","https://app.prolific.com/","it-IT,it;q=0.9,en-US;q=0.8,en;q=0.7","5daae19f8a06b60016d1bc32","6877649eabb845cf142cd221","689318a6aab43342e14cb9ee","1","5daae19f8a06b60016d1bc32","1","2025-08-06T09:04:45.005Z","","","","ControlQ","","","","","","","","","","","50","","","","","","","","","","","","","","","","","","","","","","","","","","",""
"3734","","<div style=""width:500px;"">
  <p>How would you describe your current emotional state?</p>
  </div>","39","html-slider-response","26","515524","0.0-7.0-3.2","146","1","2025-08-06 08:56:12","36c45c0696341be0efffe67d72a12abb","93.39.140.119","Mozilla/5.0 (Windows NT 10.0; Win64; x64) AppleWebKit/537.36 (KHTML, like Gecko) Chrome/138.0.0.0 Safari/537.36","WebKit","Chrome","138.0.0.0","Windows","10.0","https://app.prolific.com/","it-IT,it;q=0.9,en-US;q=0.8,en;q=0.7","5daae19f8a06b60016d1bc32","6877649eabb845cf142cd221","689318a6aab43342e14cb9ee","1","5daae19f8a06b60016d1bc32","1","2025-08-06T09:04:48.741Z","","","","StressQ","","","","","","","","","","","50","","","","","","","","","","","","","","","","","","","","","","","","","","",""
"3802","","<div style=""width:500px;"">
  <p>What best describes how you currently feel?</p>
  </div>","62","html-slider-response","27","519328","0.0-7.0-4.2","146","1","2025-08-06 08:56:12","36c45c0696341be0efffe67d72a12abb","93.39.140.119","Mozilla/5.0 (Windows NT 10.0; Win64; x64) AppleWebKit/537.36 (KHTML, like Gecko) Chrome/138.0.0.0 Safari/537.36","WebKit","Chrome","138.0.0.0","Windows","10.0","https://app.prolific.com/","it-IT,it;q=0.9,en-US;q=0.8,en;q=0.7","5daae19f8a06b60016d1bc32","6877649eabb845cf142cd221","689318a6aab43342e14cb9ee","1","5daae19f8a06b60016d1bc32","1","2025-08-06T09:04:52.544Z","","","","MotivationQ","","","","","","","","","","","50","","","","","","","","","","","","","","","","","","","","","","","","","","",""
"","","","","ctl-task-cpt","28","562801","0.0-7.0-0.3","146","1","2025-08-06 08:56:12","36c45c0696341be0efffe67d72a12abb","93.39.140.119","Mozilla/5.0 (Windows NT 10.0; Win64; x64) AppleWebKit/537.36 (KHTML, like Gecko) Chrome/138.0.0.0 Safari/537.36","WebKit","Chrome","138.0.0.0","Windows","10.0","https://app.prolific.com/","it-IT,it;q=0.9,en-US;q=0.8,en;q=0.7","5daae19f8a06b60016d1bc32","6877649eabb845cf142cd221","689318a6aab43342e14cb9ee","1","5daae19f8a06b60016d1bc32","1","2025-08-06T09:05:36.017Z","","","","","","","","","","","","","","","","win-only","3","g1:SW,g2:NE","0.7","4","0","521367.2","1231.8","6236.6","40464","1","4","4","6","2","-4","-4","16","20","0.12121212121212122","1146.5","3000","-2190","[""up"",""right""]","{""num_key_presses"":10,""num_perfect"":7,""num_errors"":0,""num_randdir"":3,""num_randdir_good_moves"":0,""num_whilered"":0,""num_whileblue"":0,""num_blue"":1,""num_good_moves"":7}","[417.57142857142856,415.47767857142856,0.2,417.57142857142856,415.47767857142856,111.1,417.57142857142856,415.47767857142856,215.7,417.57142857142856,415.47767857142856,323.9,417.57142857142856,415.47767857142856,424.4,262.57142857142856,555.4776785714286,530.9,184.57142857142856,659.4776785714286,634.4,409.57142857142856,465.47767857142856,738.9,726.5714285714286,119.47767857142857,845.9,766.5714285714286,50.47767857142857,949.8,766.5714285714286,50.47767857142857,1052.4,766.5714285714286,50.47767857142857,1160.2,766.5714285714286,50.47767857142857,1264.7,766.5714285714286,50.47767857142857,1374.5,917.5714285714286,275.47767857142856,1481.8,928.5714285714286,313.47767857142856,1590.9,928.5714285714286,313.47767857142856,1697.7,928.5714285714286,313.47767857142856,1797.9,928.5714285714286,313.47767857142856,1898.3,928.5714285714286,313.47767857142856,1998.6,928.5714285714286,313.47767857142856,2098.6,928.5714285714286,313.47767857142856,2198.7,928.5714285714286,313.47767857142856,2307.1,928.5714285714286,313.47767857142856,2415,928.5714285714286,313.47767857142856,2522.8,928.5714285714286,313.47767857142856,2629.3,928.5714285714286,313.47767857142856,2735.3,928.5714285714286,313.47767857142856,2836,928.5714285714286,313.47767857142856,2937.5,928.5714285714286,313.47767857142856,3045.5,928.5714285714286,313.47767857142856,3148.6,928.5714285714286,313.47767857142856,3250.4,928.5714285714286,313.47767857142856,3354.4,928.5714285714286,313.47767857142856,3463,928.5714285714286,313.47767857142856,3565.1,928.5714285714286,313.47767857142856,3666,928.5714285714286,313.47767857142856,3775.9,928.5714285714286,313.47767857142856,3880.9,928.5714285714286,313.47767857142856,3988.4,928.5714285714286,313.47767857142856,4092.1,928.5714285714286,313.47767857142856,4193.7,928.5714285714286,313.47767857142856,4294.5,928.5714285714286,313.47767857142856,4394.5,928.5714285714286,313.47767857142856,4498.5,928.5714285714286,313.47767857142856,4598.8,928.5714285714286,313.47767857142856,4706.2,928.5714285714286,313.47767857142856,4815.3,928.5714285714286,313.47767857142856,4922.5]","[1394.2,1394.2,1000,0,394.2,""oops"",""up"",""down"",""bad_move"",4085.9,2691.5,2301.1,1394.4,390.4,""smooth"",""right"",""right"",""good_move"",6553.6,2467.2,2056.1,4086.4,411.1,""smooth"",""up"",""up"",""good_move"",10001.1,3447,3036,6554.1,411,""smooth"",""up"",""up"",""good_move"",13188.8,3187.3,2767.2,10001.5,420.1,""smooth"",""right"",""right"",""good_move"",15675.5,2486.4,2092.6,13189.1,393.8,""oops"",""up"",""left"",""bad_move"",18649.7,2973.7,2594.5,15676,379.2,""smooth"",""right"",""right"",""good_move"",22150.1,3500.1,3137.9,18650,362.2,""smooth"",""up"",""up"",""good_move"",25005.3,2854.8,2551.1,22150.5,303.7,""smooth"",""right"",""right"",""good_move"",31404.6,6398.7,2901.8,28121.4,381.5,""oops"",""up"",""down"",""bad_move""]"
"5729","","<div style=""width:500px;"">
  <p>What determined the result of this run?</p>
  </div>","45","html-slider-response","29","568532","0.0-7.0-1.3","146","1","2025-08-06 08:56:12","36c45c0696341be0efffe67d72a12abb","93.39.140.119","Mozilla/5.0 (Windows NT 10.0; Win64; x64) AppleWebKit/537.36 (KHTML, like Gecko) Chrome/138.0.0.0 Safari/537.36","WebKit","Chrome","138.0.0.0","Windows","10.0","https://app.prolific.com/","it-IT,it;q=0.9,en-US;q=0.8,en;q=0.7","5daae19f8a06b60016d1bc32","6877649eabb845cf142cd221","689318a6aab43342e14cb9ee","1","5daae19f8a06b60016d1bc32","1","2025-08-06T09:05:41.748Z","","","","AttribQ","","","","","","","","","","","50","","","","","","","","","","","","","","","","","","","","","","","","","","",""
"4283","","<div style=""width:500px;"">
  <p>How much control did you have over the ball?</p>
  </div>","57","html-slider-response","30","572816","0.0-7.0-2.3","146","1","2025-08-06 08:56:12","36c45c0696341be0efffe67d72a12abb","93.39.140.119","Mozilla/5.0 (Windows NT 10.0; Win64; x64) AppleWebKit/537.36 (KHTML, like Gecko) Chrome/138.0.0.0 Safari/537.36","WebKit","Chrome","138.0.0.0","Windows","10.0","https://app.prolific.com/","it-IT,it;q=0.9,en-US;q=0.8,en;q=0.7","5daae19f8a06b60016d1bc32","6877649eabb845cf142cd221","689318a6aab43342e14cb9ee","1","5daae19f8a06b60016d1bc32","1","2025-08-06T09:05:46.032Z","","","","ControlQ","","","","","","","","","","","50","","","","","","","","","","","","","","","","","","","","","","","","","","",""
"3157","","<div style=""width:500px;"">
  <p>How would you describe your current emotional state?</p>
  </div>","54","html-slider-response","31","575973","0.0-7.0-3.3","146","1","2025-08-06 08:56:12","36c45c0696341be0efffe67d72a12abb","93.39.140.119","Mozilla/5.0 (Windows NT 10.0; Win64; x64) AppleWebKit/537.36 (KHTML, like Gecko) Chrome/138.0.0.0 Safari/537.36","WebKit","Chrome","138.0.0.0","Windows","10.0","https://app.prolific.com/","it-IT,it;q=0.9,en-US;q=0.8,en;q=0.7","5daae19f8a06b60016d1bc32","6877649eabb845cf142cd221","689318a6aab43342e14cb9ee","1","5daae19f8a06b60016d1bc32","1","2025-08-06T09:05:49.190Z","","","","StressQ","","","","","","","","","","","50","","","","","","","","","","","","","","","","","","","","","","","","","","",""
"3275","","<div style=""width:500px;"">
  <p>What best describes how you currently feel?</p>
  </div>","50","html-slider-response","32","579250","0.0-7.0-4.3","146","1","2025-08-06 08:56:12","36c45c0696341be0efffe67d72a12abb","93.39.140.119","Mozilla/5.0 (Windows NT 10.0; Win64; x64) AppleWebKit/537.36 (KHTML, like Gecko) Chrome/138.0.0.0 Safari/537.36","WebKit","Chrome","138.0.0.0","Windows","10.0","https://app.prolific.com/","it-IT,it;q=0.9,en-US;q=0.8,en;q=0.7","5daae19f8a06b60016d1bc32","6877649eabb845cf142cd221","689318a6aab43342e14cb9ee","1","5daae19f8a06b60016d1bc32","1","2025-08-06T09:05:52.466Z","","","","MotivationQ","","","","","","","","","","","50","","","","","","","","","","","","","","","","","","","","","","","","","","",""
"","","","","ctl-task-cpt","33","614771","0.0-7.0-0.4","146","1","2025-08-06 08:56:12","36c45c0696341be0efffe67d72a12abb","93.39.140.119","Mozilla/5.0 (Windows NT 10.0; Win64; x64) AppleWebKit/537.36 (KHTML, like Gecko) Chrome/138.0.0.0 Safari/537.36","WebKit","Chrome","138.0.0.0","Windows","10.0","https://app.prolific.com/","it-IT,it;q=0.9,en-US;q=0.8,en;q=0.7","5daae19f8a06b60016d1bc32","6877649eabb845cf142cd221","689318a6aab43342e14cb9ee","1","5daae19f8a06b60016d1bc32","1","2025-08-06T09:06:27.987Z","","","","","","","","","","","","","","","","win-only","1","g1:NE,g2:SW","0.6","5","0","581289.1","922.3","5931.8","32509.3","1","4","8","6","2","8","8","24","16","0.18181818181818182","901.2","3000","255","[""down"",""left""]","{""num_key_presses"":10,""num_perfect"":6,""num_errors"":0,""num_randdir"":4,""num_randdir_good_moves"":2,""num_whilered"":0,""num_whileblue"":0,""num_blue"":0,""num_good_moves"":8}","[423.57142857142856,412.47767857142856,0.2,423.57142857142856,412.47767857142856,100,423.57142857142856,412.47767857142856,202.6,423.57142857142856,412.47767857142856,309.1,423.57142857142856,412.47767857142856,411.2,423.57142857142856,412.47767857142856,513,187.57142857142856,621.4776785714286,620,67.57142857142857,767.4776785714286,728.3,56.57142857142857,780.4776785714286,832.8,56.57142857142857,780.4776785714286,937.8,56.57142857142857,780.4776785714286,1041.1,16.57142857142857,770.4776785714286,1142.4,-50.42857142857143,759.4776785714286,1246.2,-50.42857142857143,759.4776785714286,1348.5,-157.42857142857144,705.4776785714286,1457.8,-215.42857142857144,679.4776785714286,1564.6,-215.42857142857144,679.4776785714286,1671.5,-215.42857142857144,679.4776785714286,1779.1,-215.42857142857144,679.4776785714286,1880.4,-215.42857142857144,679.4776785714286,1982,-215.42857142857144,679.4776785714286,2089,-215.42857142857144,679.4776785714286,2189.3,-215.42857142857144,679.4776785714286,2292.6,-215.42857142857144,679.4776785714286,2396.8,-215.42857142857144,679.4776785714286,2498.4,-215.42857142857144,679.4776785714286,2600.9,-215.42857142857144,679.4776785714286,2703,-215.42857142857144,679.4776785714286,2809.7,-215.42857142857144,679.4776785714286,2909.8,-215.42857142857144,679.4776785714286,3014.5,-215.42857142857144,679.4776785714286,3115.4,-215.42857142857144,679.4776785714286,3225.7,-215.42857142857144,679.4776785714286,3331.4,-215.42857142857144,679.4776785714286,3441.1,-215.42857142857144,679.4776785714286,3543,-215.42857142857144,679.4776785714286,3644.5,-215.42857142857144,679.4776785714286,3745,-215.42857142857144,679.4776785714286,3848.9,-215.42857142857144,679.4776785714286,3960.8,-215.42857142857144,679.4776785714286,4064.8,-215.42857142857144,679.4776785714286,4166.1,-215.42857142857144,679.4776785714286,4275.6,-215.42857142857144,679.4776785714286,4381.2,-215.42857142857144,679.4776785714286,4481.2,-215.42857142857144,679.4776785714286,4581.7,-215.42857142857144,679.4776785714286,4689.1,-215.42857142857144,679.4776785714286,4790.4,-215.42857142857144,679.4776785714286,4893.1,-215.42857142857144,679.4776785714286,4997.2]","[1384.8,1384.8,1000,0,384.8,""oops"",""down"",""up"",""bad_move"",3962,2576.8,2111.8,1385.2,465,""smooth"",""down"",""down"",""good_move"",7294.1,3331.7,2953.3,3962.5,378.4,""oops"",""left"",""left"",""good_move"",10236.6,2942,2563.5,7294.6,378.5,""oops"",""down"",""up"",""bad_move"",13148.7,2911.8,2528,10236.9,383.8,""smooth"",""left"",""left"",""good_move"",16267.9,3118.9,2756.3,13149,362.6,""oops"",""down"",""left"",""good_move"",18495,2226.8,1801.6,16268.2,425.2,""smooth"",""down"",""down"",""good_move"",20683.4,2188.1,1833.1,18495.3,355,""smooth"",""down"",""down"",""good_move"",23687.4,3003.7,2641.3,20683.7,362.4,""smooth"",""down"",""down"",""good_move"",26449.2,2761.6,2384.3,23687.7,377.2,""smooth"",""down"",""down"",""good_move""]"
"3618","","<div style=""width:500px;"">
  <p>What determined the result of this run?</p>
  </div>","66","html-slider-response","34","618390","0.0-7.0-1.4","146","1","2025-08-06 08:56:12","36c45c0696341be0efffe67d72a12abb","93.39.140.119","Mozilla/5.0 (Windows NT 10.0; Win64; x64) AppleWebKit/537.36 (KHTML, like Gecko) Chrome/138.0.0.0 Safari/537.36","WebKit","Chrome","138.0.0.0","Windows","10.0","https://app.prolific.com/","it-IT,it;q=0.9,en-US;q=0.8,en;q=0.7","5daae19f8a06b60016d1bc32","6877649eabb845cf142cd221","689318a6aab43342e14cb9ee","1","5daae19f8a06b60016d1bc32","1","2025-08-06T09:06:31.606Z","","","","AttribQ","","","","","","","","","","","50","","","","","","","","","","","","","","","","","","","","","","","","","","",""
"1396","","<div style=""width:500px;"">
  <p>How much control did you have over the ball?</p>
  </div>","64","html-slider-response","35","619787","0.0-7.0-2.4","146","1","2025-08-06 08:56:12","36c45c0696341be0efffe67d72a12abb","93.39.140.119","Mozilla/5.0 (Windows NT 10.0; Win64; x64) AppleWebKit/537.36 (KHTML, like Gecko) Chrome/138.0.0.0 Safari/537.36","WebKit","Chrome","138.0.0.0","Windows","10.0","https://app.prolific.com/","it-IT,it;q=0.9,en-US;q=0.8,en;q=0.7","5daae19f8a06b60016d1bc32","6877649eabb845cf142cd221","689318a6aab43342e14cb9ee","1","5daae19f8a06b60016d1bc32","1","2025-08-06T09:06:33.003Z","","","","ControlQ","","","","","","","","","","","50","","","","","","","","","","","","","","","","","","","","","","","","","","",""
"7398","","<div style=""width:500px;"">
  <p>How would you describe your current emotional state?</p>
  </div>","50","html-slider-response","36","627185","0.0-7.0-3.4","146","1","2025-08-06 08:56:12","36c45c0696341be0efffe67d72a12abb","93.39.140.119","Mozilla/5.0 (Windows NT 10.0; Win64; x64) AppleWebKit/537.36 (KHTML, like Gecko) Chrome/138.0.0.0 Safari/537.36","WebKit","Chrome","138.0.0.0","Windows","10.0","https://app.prolific.com/","it-IT,it;q=0.9,en-US;q=0.8,en;q=0.7","5daae19f8a06b60016d1bc32","6877649eabb845cf142cd221","689318a6aab43342e14cb9ee","1","5daae19f8a06b60016d1bc32","1","2025-08-06T09:06:40.401Z","","","","StressQ","","","","","","","","","","","50","","","","","","","","","","","","","","","","","","","","","","","","","","",""
"4900","","<div style=""width:500px;"">
  <p>What best describes how you currently feel?</p>
  </div>","53","html-slider-response","37","632087","0.0-7.0-4.4","146","1","2025-08-06 08:56:12","36c45c0696341be0efffe67d72a12abb","93.39.140.119","Mozilla/5.0 (Windows NT 10.0; Win64; x64) AppleWebKit/537.36 (KHTML, like Gecko) Chrome/138.0.0.0 Safari/537.36","WebKit","Chrome","138.0.0.0","Windows","10.0","https://app.prolific.com/","it-IT,it;q=0.9,en-US;q=0.8,en;q=0.7","5daae19f8a06b60016d1bc32","6877649eabb845cf142cd221","689318a6aab43342e14cb9ee","1","5daae19f8a06b60016d1bc32","1","2025-08-06T09:06:45.303Z","","","","MotivationQ","","","","","","","","","","","50","","","","","","","","","","","","","","","","","","","","","","","","","","",""
"","","","","ctl-task-cpt","38","672906","0.0-7.0-0.5","146","1","2025-08-06 08:56:12","36c45c0696341be0efffe67d72a12abb","93.39.140.119","Mozilla/5.0 (Windows NT 10.0; Win64; x64) AppleWebKit/537.36 (KHTML, like Gecko) Chrome/138.0.0.0 Safari/537.36","WebKit","Chrome","138.0.0.0","Windows","10.0","https://app.prolific.com/","it-IT,it;q=0.9,en-US;q=0.8,en;q=0.7","5daae19f8a06b60016d1bc32","6877649eabb845cf142cd221","689318a6aab43342e14cb9ee","1","5daae19f8a06b60016d1bc32","1","2025-08-06T09:07:26.122Z","","","","","","","","","","","","","","","","win-only","1","g1:NE,g2:SW","0.5","6","0","634126.5","775.4","5781.5","37811.6","1","4","4","6","2","-4","-4","20","24","0.15151515151515152","1015.2","3000","-2250","[""down"",""left""]","{""num_key_presses"":10,""num_perfect"":5,""num_errors"":0,""num_randdir"":5,""num_randdir_good_moves"":2,""num_whilered"":0,""num_whileblue"":0,""num_blue"":1,""num_good_moves"":7}","[419.57142857142856,428.47767857142856,0.2,419.57142857142856,428.47767857142856,102.4,419.57142857142856,428.47767857142856,206.7,419.57142857142856,428.47767857142856,312.7,419.57142857142856,428.47767857142856,413.4,327.57142857142856,527.4776785714286,518.9,178.57142857142856,702.4776785714286,621.6,176.57142857142856,705.4776785714286,725,176.57142857142856,705.4776785714286,828,78.57142857142857,761.4776785714286,932.8,68.57142857142857,763.4776785714286,1035.4,68.57142857142857,763.4776785714286,1145.3,68.57142857142857,763.4776785714286,1249.1,-201.42857142857144,692.4776785714286,1353.1,-235.42857142857144,679.4776785714286,1458.6,-235.42857142857144,679.4776785714286,1559.3,-235.42857142857144,679.4776785714286,1665.9,-235.42857142857144,679.4776785714286,1772.3,-235.42857142857144,679.4776785714286,1880.2,-235.42857142857144,679.4776785714286,1983.7,-235.42857142857144,679.4776785714286,2085.7,-235.42857142857144,679.4776785714286,2191.3,-235.42857142857144,679.4776785714286,2296.9,-235.42857142857144,679.4776785714286,2397.3,-235.42857142857144,679.4776785714286,2501.6,-235.42857142857144,679.4776785714286,2610,-235.42857142857144,679.4776785714286,2712.4,-235.42857142857144,679.4776785714286,2816.3,-235.42857142857144,679.4776785714286,2920.9,-235.42857142857144,679.4776785714286,3022.2,-235.42857142857144,679.4776785714286,3129.2,-235.42857142857144,679.4776785714286,3229.8,-235.42857142857144,679.4776785714286,3333.4,-235.42857142857144,679.4776785714286,3436.5,-235.42857142857144,679.4776785714286,3539.4,-235.42857142857144,679.4776785714286,3639.4,-235.42857142857144,679.4776785714286,3741,-235.42857142857144,679.4776785714286,3849.1,-235.42857142857144,679.4776785714286,3952.7,-235.42857142857144,679.4776785714286,4053.7,-235.42857142857144,679.4776785714286,4162,-235.42857142857144,679.4776785714286,4262.8,-235.42857142857144,679.4776785714286,4367.5,-235.42857142857144,679.4776785714286,4474,-235.42857142857144,679.4776785714286,4574.2,-235.42857142857144,679.4776785714286,4682.9,-235.42857142857144,679.4776785714286,4783.8,-235.42857142857144,679.4776785714286,4884.8,-235.42857142857144,679.4776785714286,4985.1]","[4281.9,4281.9,1859.4,2011,411.5,""oops"",""down"",""right"",""bad_move"",6937.9,2655.6,2199.3,4282.3,456.3,""smooth"",""down"",""down"",""good_move"",9873.6,2935.4,2554,6938.3,381.4,""oops"",""left"",""down"",""good_move"",13437.9,3564,3178.2,9873.9,385.8,""oops"",""left"",""left"",""good_move"",16320,2881.7,2537.9,13438.3,343.8,""oops"",""left"",""up"",""bad_move"",19195.4,2875.1,2444.6,16320.3,430.5,""oops"",""left"",""up"",""bad_move"",21850.4,2654.7,2309.8,19195.7,344.9,""smooth"",""left"",""left"",""good_move"",24206.5,2355.9,1952.1,21850.7,403.7,""smooth"",""down"",""down"",""good_move"",27036.6,2829.5,2463.8,24207.1,365.7,""smooth"",""down"",""down"",""good_move"",29096,2059.1,1665.4,27036.9,393.7,""smooth"",""left"",""left"",""good_move""]"
"4461","","<div style=""width:500px;"">
  <p>What determined the result of this run?</p>
  </div>","45","html-slider-response","39","677368","0.0-7.0-1.5","146","1","2025-08-06 08:56:12","36c45c0696341be0efffe67d72a12abb","93.39.140.119","Mozilla/5.0 (Windows NT 10.0; Win64; x64) AppleWebKit/537.36 (KHTML, like Gecko) Chrome/138.0.0.0 Safari/537.36","WebKit","Chrome","138.0.0.0","Windows","10.0","https://app.prolific.com/","it-IT,it;q=0.9,en-US;q=0.8,en;q=0.7","5daae19f8a06b60016d1bc32","6877649eabb845cf142cd221","689318a6aab43342e14cb9ee","1","5daae19f8a06b60016d1bc32","1","2025-08-06T09:07:30.584Z","","","","AttribQ","","","","","","","","","","","50","","","","","","","","","","","","","","","","","","","","","","","","","","",""
"2269","","<div style=""width:500px;"">
  <p>How much control did you have over the ball?</p>
  </div>","50","html-slider-response","40","679637","0.0-7.0-2.5","146","1","2025-08-06 08:56:12","36c45c0696341be0efffe67d72a12abb","93.39.140.119","Mozilla/5.0 (Windows NT 10.0; Win64; x64) AppleWebKit/537.36 (KHTML, like Gecko) Chrome/138.0.0.0 Safari/537.36","WebKit","Chrome","138.0.0.0","Windows","10.0","https://app.prolific.com/","it-IT,it;q=0.9,en-US;q=0.8,en;q=0.7","5daae19f8a06b60016d1bc32","6877649eabb845cf142cd221","689318a6aab43342e14cb9ee","1","5daae19f8a06b60016d1bc32","1","2025-08-06T09:07:32.853Z","","","","ControlQ","","","","","","","","","","","50","","","","","","","","","","","","","","","","","","","","","","","","","","",""
"2743","","<div style=""width:500px;"">
  <p>How would you describe your current emotional state?</p>
  </div>","56","html-slider-response","41","682381","0.0-7.0-3.5","146","1","2025-08-06 08:56:12","36c45c0696341be0efffe67d72a12abb","93.39.140.119","Mozilla/5.0 (Windows NT 10.0; Win64; x64) AppleWebKit/537.36 (KHTML, like Gecko) Chrome/138.0.0.0 Safari/537.36","WebKit","Chrome","138.0.0.0","Windows","10.0","https://app.prolific.com/","it-IT,it;q=0.9,en-US;q=0.8,en;q=0.7","5daae19f8a06b60016d1bc32","6877649eabb845cf142cd221","689318a6aab43342e14cb9ee","1","5daae19f8a06b60016d1bc32","1","2025-08-06T09:07:35.598Z","","","","StressQ","","","","","","","","","","","50","","","","","","","","","","","","","","","","","","","","","","","","","","",""
"4553","","<div style=""width:500px;"">
  <p>What best describes how you currently feel?</p>
  </div>","48","html-slider-response","42","686936","0.0-7.0-4.5","146","1","2025-08-06 08:56:12","36c45c0696341be0efffe67d72a12abb","93.39.140.119","Mozilla/5.0 (Windows NT 10.0; Win64; x64) AppleWebKit/537.36 (KHTML, like Gecko) Chrome/138.0.0.0 Safari/537.36","WebKit","Chrome","138.0.0.0","Windows","10.0","https://app.prolific.com/","it-IT,it;q=0.9,en-US;q=0.8,en;q=0.7","5daae19f8a06b60016d1bc32","6877649eabb845cf142cd221","689318a6aab43342e14cb9ee","1","5daae19f8a06b60016d1bc32","1","2025-08-06T09:07:40.152Z","","","","MotivationQ","","","","","","","","","","","50","","","","","","","","","","","","","","","","","","","","","","","","","","",""
"","","","","ctl-task-cpt","43","735207","0.0-7.0-0.6","146","1","2025-08-06 08:56:12","36c45c0696341be0efffe67d72a12abb","93.39.140.119","Mozilla/5.0 (Windows NT 10.0; Win64; x64) AppleWebKit/537.36 (KHTML, like Gecko) Chrome/138.0.0.0 Safari/537.36","WebKit","Chrome","138.0.0.0","Windows","10.0","https://app.prolific.com/","it-IT,it;q=0.9,en-US;q=0.8,en;q=0.7","5daae19f8a06b60016d1bc32","6877649eabb845cf142cd221","689318a6aab43342e14cb9ee","1","5daae19f8a06b60016d1bc32","1","2025-08-06T09:08:28.423Z","","","","","","","","","","","","","","","","win-only","3","g1:SW,g2:NE","0.4","7","0","688975.7","837.4","5842.1","45252.7","1","4","4","6","2","-4","-5","15","20","0.11363636363636363","1092","3000","-2235","[""up"",""right""]","{""num_key_presses"":10,""num_perfect"":4,""num_errors"":1,""num_randdir"":5,""num_randdir_good_moves"":2,""num_whilered"":0,""num_whileblue"":0,""num_blue"":4,""num_good_moves"":6}","[417.57142857142856,417.47767857142856,0.2,417.57142857142856,417.47767857142856,103.5,417.57142857142856,417.47767857142856,211.7,417.57142857142856,417.47767857142856,317.4,417.57142857142856,417.47767857142856,421.2,377.57142857142856,444.47767857142856,526.9,534.5714285714286,332.47767857142856,632.6,737.5714285714286,173.47767857142856,733.7,737.5714285714286,173.47767857142856,842.9,737.5714285714286,173.47767857142856,946.6,758.5714285714286,74.47767857142857,1048.9,758.5714285714286,74.47767857142857,1159.6,758.5714285714286,74.47767857142857,1264.8,765.5714285714286,82.47767857142857,1369.1,1006.5714285714286,373.47767857142856,1475.7,1050.5714285714287,456.47767857142856,1581,1050.5714285714287,456.47767857142856,1688.1,1050.5714285714287,456.47767857142856,1788.9,1050.5714285714287,456.47767857142856,1896.8,1050.5714285714287,456.47767857142856,1998.7,1050.5714285714287,456.47767857142856,2109.7,1050.5714285714287,456.47767857142856,2214.2,1050.5714285714287,456.47767857142856,2314.7,1050.5714285714287,456.47767857142856,2425.4,1050.5714285714287,456.47767857142856,2531.2,1050.5714285714287,456.47767857142856,2632.3,1050.5714285714287,456.47767857142856,2733.8,1050.5714285714287,456.47767857142856,2838.1,1050.5714285714287,456.47767857142856,2940.1,1050.5714285714287,456.47767857142856,3040.1,1050.5714285714287,456.47767857142856,3143.6,1050.5714285714287,456.47767857142856,3245.6,1050.5714285714287,456.47767857142856,3347.4,1050.5714285714287,456.47767857142856,3447.9,1050.5714285714287,456.47767857142856,3548.6,1050.5714285714287,456.47767857142856,3656.3,1050.5714285714287,456.47767857142856,3762.5,1050.5714285714287,456.47767857142856,3863.4,1050.5714285714287,456.47767857142856,3963.4,1050.5714285714287,456.47767857142856,4067.3,1050.5714285714287,456.47767857142856,4171,1050.5714285714287,456.47767857142856,4272.9,1050.5714285714287,456.47767857142856,4381.6,1050.5714285714287,456.47767857142856,4484,1050.5714285714287,456.47767857142856,4587.2,1050.5714285714287,456.47767857142856,4694.3,1050.5714285714287,456.47767857142856,4798.7,1050.5714285714287,456.47767857142856,4899.2]","[4439.7,4439.7,2042.6,2007.8,389.3,""oops"",""right"",""down"",""bad_move"",6778,2337.8,1905.4,4440.2,432.4,""smooth"",""right"",""right"",""good_move"",12906.4,6128,1694.6,10800,411.8,""oops"",""up"",""down"",""bad_move"",13072.1,165.5,2735.7,12906.6,-2570.2,""error"",""-"",""-"",""no_move"",17054.3,3981.9,2335.5,14073.6,645.2,""smooth"",""right"",""right"",""good_move"",23274.1,6219.2,2405.1,20487.8,381.2,""smooth"",""up"",""up"",""good_move"",25845.3,2570.9,2169.9,23274.4,401,""oops"",""up"",""right"",""good_move"",28853.6,3008,2648.4,25845.6,359.6,""oops"",""up"",""down"",""bad_move"",34153.6,5299.5,1789.9,31918.7,445,""oops"",""up"",""up"",""good_move"",36598.5,2444.7,1966.2,34153.8,478.5,""smooth"",""up"",""up"",""good_move""]"
"3076","","<div style=""width:500px;"">
  <p>What determined the result of this run?</p>
  </div>","11","html-slider-response","44","738284","0.0-7.0-1.6","146","1","2025-08-06 08:56:12","36c45c0696341be0efffe67d72a12abb","93.39.140.119","Mozilla/5.0 (Windows NT 10.0; Win64; x64) AppleWebKit/537.36 (KHTML, like Gecko) Chrome/138.0.0.0 Safari/537.36","WebKit","Chrome","138.0.0.0","Windows","10.0","https://app.prolific.com/","it-IT,it;q=0.9,en-US;q=0.8,en;q=0.7","5daae19f8a06b60016d1bc32","6877649eabb845cf142cd221","689318a6aab43342e14cb9ee","1","5daae19f8a06b60016d1bc32","1","2025-08-06T09:08:31.500Z","","","","AttribQ","","","","","","","","","","","50","","","","","","","","","","","","","","","","","","","","","","","","","","",""
"2317","","<div style=""width:500px;"">
  <p>How much control did you have over the ball?</p>
  </div>","12","html-slider-response","45","740602","0.0-7.0-2.6","146","1","2025-08-06 08:56:12","36c45c0696341be0efffe67d72a12abb","93.39.140.119","Mozilla/5.0 (Windows NT 10.0; Win64; x64) AppleWebKit/537.36 (KHTML, like Gecko) Chrome/138.0.0.0 Safari/537.36","WebKit","Chrome","138.0.0.0","Windows","10.0","https://app.prolific.com/","it-IT,it;q=0.9,en-US;q=0.8,en;q=0.7","5daae19f8a06b60016d1bc32","6877649eabb845cf142cd221","689318a6aab43342e14cb9ee","1","5daae19f8a06b60016d1bc32","1","2025-08-06T09:08:33.818Z","","","","ControlQ","","","","","","","","","","","50","","","","","","","","","","","","","","","","","","","","","","","","","","",""
"2272","","<div style=""width:500px;"">
  <p>How would you describe your current emotional state?</p>
  </div>","100","html-slider-response","46","742875","0.0-7.0-3.6","146","1","2025-08-06 08:56:12","36c45c0696341be0efffe67d72a12abb","93.39.140.119","Mozilla/5.0 (Windows NT 10.0; Win64; x64) AppleWebKit/537.36 (KHTML, like Gecko) Chrome/138.0.0.0 Safari/537.36","WebKit","Chrome","138.0.0.0","Windows","10.0","https://app.prolific.com/","it-IT,it;q=0.9,en-US;q=0.8,en;q=0.7","5daae19f8a06b60016d1bc32","6877649eabb845cf142cd221","689318a6aab43342e14cb9ee","1","5daae19f8a06b60016d1bc32","1","2025-08-06T09:08:36.092Z","","","","StressQ","","","","","","","","","","","50","","","","","","","","","","","","","","","","","","","","","","","","","","",""
"3984","","<div style=""width:500px;"">
  <p>What best describes how you currently feel?</p>
  </div>","36","html-slider-response","47","746860","0.0-7.0-4.6","146","1","2025-08-06 08:56:12","36c45c0696341be0efffe67d72a12abb","93.39.140.119","Mozilla/5.0 (Windows NT 10.0; Win64; x64) AppleWebKit/537.36 (KHTML, like Gecko) Chrome/138.0.0.0 Safari/537.36","WebKit","Chrome","138.0.0.0","Windows","10.0","https://app.prolific.com/","it-IT,it;q=0.9,en-US;q=0.8,en;q=0.7","5daae19f8a06b60016d1bc32","6877649eabb845cf142cd221","689318a6aab43342e14cb9ee","1","5daae19f8a06b60016d1bc32","1","2025-08-06T09:08:40.076Z","","","","MotivationQ","","","","","","","","","","","50","","","","","","","","","","","","","","","","","","","","","","","","","","",""
"","","","","ctl-task-cpt","48","806046","0.0-7.0-0.7","146","1","2025-08-06 08:56:12","36c45c0696341be0efffe67d72a12abb","93.39.140.119","Mozilla/5.0 (Windows NT 10.0; Win64; x64) AppleWebKit/537.36 (KHTML, like Gecko) Chrome/138.0.0.0 Safari/537.36","WebKit","Chrome","138.0.0.0","Windows","10.0","https://app.prolific.com/","it-IT,it;q=0.9,en-US;q=0.8,en;q=0.7","5daae19f8a06b60016d1bc32","6877649eabb845cf142cd221","689318a6aab43342e14cb9ee","1","5daae19f8a06b60016d1bc32","1","2025-08-06T09:09:39.262Z","","","","","","","","","","","","","","","","win-only","2","g1:SE,g2:NW","0.3","8","0","748899.9","854.4","5856.5","56170.7","1","4","8","6","2","-8","-8","7","15","0.05303030303030303","1084.7","3000","-2195","[""left"",""up""]","{""num_key_presses"":9,""num_perfect"":3,""num_errors"":0,""num_randdir"":6,""num_randdir_good_moves"":3,""num_whilered"":0,""num_whileblue"":0,""num_blue"":6,""num_good_moves"":6}","[412.57142857142856,420.47767857142856,0.3,412.57142857142856,420.47767857142856,102.2,412.57142857142856,420.47767857142856,209.3,412.57142857142856,420.47767857142856,318,412.57142857142856,420.47767857142856,418.1,412.57142857142856,420.47767857142856,525.4,412.57142857142856,420.47767857142856,626.9,264.57142857142856,304.47767857142856,732.6,102.57142857142857,144.47767857142856,839.1,100.57142857142857,126.47767857142857,939.6,76.57142857142857,77.47767857142857,1041.2,72.57142857142857,70.47767857142857,1142.5,72.57142857142857,70.47767857142857,1250,-90.42857142857143,121.47767857142857,1355.2,-303.42857142857144,222.47767857142856,1462.9,-303.42857142857144,222.47767857142856,1564.1,-303.42857142857144,222.47767857142856,1670.4,-303.42857142857144,222.47767857142856,1770.9,-303.42857142857144,222.47767857142856,1873.8,-303.42857142857144,222.47767857142856,1976.3,-303.42857142857144,222.47767857142856,2082.2,-303.42857142857144,222.47767857142856,2189.4,-303.42857142857144,222.47767857142856,2296.7,-303.42857142857144,222.47767857142856,2403.6,-303.42857142857144,222.47767857142856,2513.9,-303.42857142857144,222.47767857142856,2617.6,-303.42857142857144,222.47767857142856,2723.9,-303.42857142857144,222.47767857142856,2832.7,-303.42857142857144,222.47767857142856,2934.9,-303.42857142857144,222.47767857142856,3036,-303.42857142857144,222.47767857142856,3141.6,-303.42857142857144,222.47767857142856,3243.7,-303.42857142857144,222.47767857142856,3345.2,-303.42857142857144,222.47767857142856,3449.8,-303.42857142857144,222.47767857142856,3555.9,-303.42857142857144,222.47767857142856,3666.1,-303.42857142857144,222.47767857142856,3769.3,-303.42857142857144,222.47767857142856,3873.2,-303.42857142857144,222.47767857142856,3974,-303.42857142857144,222.47767857142856,4084.4,-303.42857142857144,222.47767857142856,4185.6,-303.42857142857144,222.47767857142856,4288.9,-303.42857142857144,222.47767857142856,4390.7,-303.42857142857144,222.47767857142856,4491.5,-303.42857142857144,222.47767857142856,4591.7,-303.42857142857144,222.47767857142856,4703.2,-303.42857142857144,222.47767857142856,4807.1,-303.42857142857144,222.47767857142856,4910.9]","[1372.1,1372.1,1000,0,372.1,""oops"",""left"",""left"",""good_move"",4573.9,3201.4,2803.6,1372.6,397.7,""oops"",""up"",""up"",""good_move"",7513.1,2938.8,2505,4574.3,433.8,""smooth"",""up"",""up"",""good_move"",14009.4,6496.1,2116.9,11451.9,440.6,""smooth"",""left"",""left"",""good_move"",24283.8,10274,2274.1,21393.1,616.6,""oops"",""left"",""up"",""good_move"",27820,3535.9,3144.7,24284.1,391.2,""oops"",""left"",""right"",""bad_move"",30589.9,2769.5,2321.4,27820.4,448.1,""smooth"",""left"",""left"",""good_move"",33236.9,2646.6,2266.2,30590.4,380.3,""oops"",""left"",""right"",""bad_move"",40254.7,7017.5,2883.7,37004.3,366.7,""oops"",""left"",""right"",""bad_move""]"
"3010","","<div style=""width:500px;"">
  <p>What determined the result of this run?</p>
  </div>","26","html-slider-response","49","809057","0.0-7.0-1.7","146","1","2025-08-06 08:56:12","36c45c0696341be0efffe67d72a12abb","93.39.140.119","Mozilla/5.0 (Windows NT 10.0; Win64; x64) AppleWebKit/537.36 (KHTML, like Gecko) Chrome/138.0.0.0 Safari/537.36","WebKit","Chrome","138.0.0.0","Windows","10.0","https://app.prolific.com/","it-IT,it;q=0.9,en-US;q=0.8,en;q=0.7","5daae19f8a06b60016d1bc32","6877649eabb845cf142cd221","689318a6aab43342e14cb9ee","1","5daae19f8a06b60016d1bc32","1","2025-08-06T09:09:42.274Z","","","","AttribQ","","","","","","","","","","","50","","","","","","","","","","","","","","","","","","","","","","","","","","",""
"2032","","<div style=""width:500px;"">
  <p>How much control did you have over the ball?</p>
  </div>","27","html-slider-response","50","811090","0.0-7.0-2.7","146","1","2025-08-06 08:56:12","36c45c0696341be0efffe67d72a12abb","93.39.140.119","Mozilla/5.0 (Windows NT 10.0; Win64; x64) AppleWebKit/537.36 (KHTML, like Gecko) Chrome/138.0.0.0 Safari/537.36","WebKit","Chrome","138.0.0.0","Windows","10.0","https://app.prolific.com/","it-IT,it;q=0.9,en-US;q=0.8,en;q=0.7","5daae19f8a06b60016d1bc32","6877649eabb845cf142cd221","689318a6aab43342e14cb9ee","1","5daae19f8a06b60016d1bc32","1","2025-08-06T09:09:44.307Z","","","","ControlQ","","","","","","","","","","","50","","","","","","","","","","","","","","","","","","","","","","","","","","",""
"1756","","<div style=""width:500px;"">
  <p>How would you describe your current emotional state?</p>
  </div>","100","html-slider-response","51","812847","0.0-7.0-3.7","146","1","2025-08-06 08:56:12","36c45c0696341be0efffe67d72a12abb","93.39.140.119","Mozilla/5.0 (Windows NT 10.0; Win64; x64) AppleWebKit/537.36 (KHTML, like Gecko) Chrome/138.0.0.0 Safari/537.36","WebKit","Chrome","138.0.0.0","Windows","10.0","https://app.prolific.com/","it-IT,it;q=0.9,en-US;q=0.8,en;q=0.7","5daae19f8a06b60016d1bc32","6877649eabb845cf142cd221","689318a6aab43342e14cb9ee","1","5daae19f8a06b60016d1bc32","1","2025-08-06T09:09:46.063Z","","","","StressQ","","","","","","","","","","","50","","","","","","","","","","","","","","","","","","","","","","","","","","",""
"2214","","<div style=""width:500px;"">
  <p>What best describes how you currently feel?</p>
  </div>","9","html-slider-response","52","815063","0.0-7.0-4.7","146","1","2025-08-06 08:56:12","36c45c0696341be0efffe67d72a12abb","93.39.140.119","Mozilla/5.0 (Windows NT 10.0; Win64; x64) AppleWebKit/537.36 (KHTML, like Gecko) Chrome/138.0.0.0 Safari/537.36","WebKit","Chrome","138.0.0.0","Windows","10.0","https://app.prolific.com/","it-IT,it;q=0.9,en-US;q=0.8,en;q=0.7","5daae19f8a06b60016d1bc32","6877649eabb845cf142cd221","689318a6aab43342e14cb9ee","1","5daae19f8a06b60016d1bc32","1","2025-08-06T09:09:48.279Z","","","","MotivationQ","","","","","","","","","","","50","","","","","","","","","","","","","","","","","","","","","","","","","","",""
"","","","","ctl-task-cpt","53","861790","0.0-7.0-0.8","146","1","2025-08-06 08:56:12","36c45c0696341be0efffe67d72a12abb","93.39.140.119","Mozilla/5.0 (Windows NT 10.0; Win64; x64) AppleWebKit/537.36 (KHTML, like Gecko) Chrome/138.0.0.0 Safari/537.36","WebKit","Chrome","138.0.0.0","Windows","10.0","https://app.prolific.com/","it-IT,it;q=0.9,en-US;q=0.8,en;q=0.7","5daae19f8a06b60016d1bc32","6877649eabb845cf142cd221","689318a6aab43342e14cb9ee","1","5daae19f8a06b60016d1bc32","1","2025-08-06T09:10:35.006Z","","","","","","","","","","","","","","","","win-only","0","g1:NW,g2:SE","0.4","9","0","817102.2","1012.4","6019.5","43716.5","1","4","4","6","2","-4","-4","3","7","0.022727272727272728","1064.2","3000","-2275","[""down"",""right""]","{""num_key_presses"":9,""num_perfect"":3,""num_errors"":0,""num_randdir"":6,""num_randdir_good_moves"":3,""num_whilered"":0,""num_whileblue"":0,""num_blue"":3,""num_good_moves"":6}","[415.57142857142856,409.47767857142856,0.3,415.57142857142856,409.47767857142856,108.7,415.57142857142856,409.47767857142856,212.8,415.57142857142856,409.47767857142856,316.1,415.57142857142856,409.47767857142856,422.1,415.57142857142856,409.47767857142856,523.9,590.5714285714286,597.4776785714286,630,643.5714285714286,681.4776785714286,731.4,643.5714285714286,681.4776785714286,837.8,686.5714285714286,696.4776785714286,937.9,768.5714285714286,763.4776785714286,1040,768.5714285714286,763.4776785714286,1148.6,768.5714285714286,763.4776785714286,1249.7,939.5714285714286,696.4776785714286,1351.3,1062.5714285714287,641.4776785714286,1455.5,1062.5714285714287,641.4776785714286,1560.6,1062.5714285714287,641.4776785714286,1671.2,1062.5714285714287,641.4776785714286,1774.7,1062.5714285714287,641.4776785714286,1885.2,1062.5714285714287,641.4776785714286,1988.3,1062.5714285714287,641.4776785714286,2091.4,1062.5714285714287,641.4776785714286,2191.9,1062.5714285714287,641.4776785714286,2291.9,1062.5714285714287,641.4776785714286,2394.9,1062.5714285714287,641.4776785714286,2500,1062.5714285714287,641.4776785714286,2608.2,1062.5714285714287,641.4776785714286,2714.3,1062.5714285714287,641.4776785714286,2819.3,1062.5714285714287,641.4776785714286,2921.1,1062.5714285714287,641.4776785714286,3021.6,1062.5714285714287,641.4776785714286,3125.5,1062.5714285714287,641.4776785714286,3231.6,1062.5714285714287,641.4776785714286,3337.8,1062.5714285714287,641.4776785714286,3443.6,1062.5714285714287,641.4776785714286,3543.6,1062.5714285714287,641.4776785714286,3648.5,1062.5714285714287,641.4776785714286,3755.3,1062.5714285714287,641.4776785714286,3861.1,1062.5714285714287,641.4776785714286,3970.7,1062.5714285714287,641.4776785714286,4070.9,1062.5714285714287,641.4776785714286,4175.7,1062.5714285714287,641.4776785714286,4280.1,1062.5714285714287,641.4776785714286,4380.4,1062.5714285714287,641.4776785714286,4481.2,1062.5714285714287,641.4776785714286,4589.7,1062.5714285714287,641.4776785714286,4693,1062.5714285714287,641.4776785714286,4793,1062.5714285714287,641.4776785714286,4893.7,1062.5714285714287,641.4776785714286,4998.7]","[1413.9,1413.9,1000,0,413.9,""smooth"",""down"",""down"",""good_move"",8859.4,7445.1,3590.9,4782.1,486.4,""oops"",""right"",""left"",""bad_move"",11758.6,2898.8,2416.7,8859.8,482.1,""oops"",""right"",""right"",""good_move"",13907,2148,1777.2,11759,370.8,""oops"",""right"",""right"",""good_move"",20182.2,6274.9,2053.9,17723.6,404.7,""oops"",""right"",""up"",""bad_move"",22471.4,2288.8,1797.5,20182.6,491.3,""smooth"",""right"",""right"",""good_move"",26368.2,3896.4,3441.8,22471.8,454.6,""oops"",""down"",""left"",""bad_move"",33219.4,6850.8,2873,29912.7,433.7,""smooth"",""down"",""down"",""good_move"",35626,2406.3,1940.4,33219.7,465.9,""oops"",""down"",""right"",""good_move""]"
"3278","","<div style=""width:500px;"">
  <p>What determined the result of this run?</p>
  </div>","1","html-slider-response","54","865070","0.0-7.0-1.8","146","1","2025-08-06 08:56:12","36c45c0696341be0efffe67d72a12abb","93.39.140.119","Mozilla/5.0 (Windows NT 10.0; Win64; x64) AppleWebKit/537.36 (KHTML, like Gecko) Chrome/138.0.0.0 Safari/537.36","WebKit","Chrome","138.0.0.0","Windows","10.0","https://app.prolific.com/","it-IT,it;q=0.9,en-US;q=0.8,en;q=0.7","5daae19f8a06b60016d1bc32","6877649eabb845cf142cd221","689318a6aab43342e14cb9ee","1","5daae19f8a06b60016d1bc32","1","2025-08-06T09:10:38.286Z","","","","AttribQ","","","","","","","","","","","50","","","","","","","","","","","","","","","","","","","","","","","","","","",""
"2777","","<div style=""width:500px;"">
  <p>How much control did you have over the ball?</p>
  </div>","3","html-slider-response","55","867847","0.0-7.0-2.8","146","1","2025-08-06 08:56:12","36c45c0696341be0efffe67d72a12abb","93.39.140.119","Mozilla/5.0 (Windows NT 10.0; Win64; x64) AppleWebKit/537.36 (KHTML, like Gecko) Chrome/138.0.0.0 Safari/537.36","WebKit","Chrome","138.0.0.0","Windows","10.0","https://app.prolific.com/","it-IT,it;q=0.9,en-US;q=0.8,en;q=0.7","5daae19f8a06b60016d1bc32","6877649eabb845cf142cd221","689318a6aab43342e14cb9ee","1","5daae19f8a06b60016d1bc32","1","2025-08-06T09:10:41.064Z","","","","ControlQ","","","","","","","","","","","50","","","","","","","","","","","","","","","","","","","","","","","","","","",""
"3714","","<div style=""width:500px;"">
  <p>How would you describe your current emotional state?</p>
  </div>","100","html-slider-response","56","871562","0.0-7.0-3.8","146","1","2025-08-06 08:56:12","36c45c0696341be0efffe67d72a12abb","93.39.140.119","Mozilla/5.0 (Windows NT 10.0; Win64; x64) AppleWebKit/537.36 (KHTML, like Gecko) Chrome/138.0.0.0 Safari/537.36","WebKit","Chrome","138.0.0.0","Windows","10.0","https://app.prolific.com/","it-IT,it;q=0.9,en-US;q=0.8,en;q=0.7","5daae19f8a06b60016d1bc32","6877649eabb845cf142cd221","689318a6aab43342e14cb9ee","1","5daae19f8a06b60016d1bc32","1","2025-08-06T09:10:44.778Z","","","","StressQ","","","","","","","","","","","50","","","","","","","","","","","","","","","","","","","","","","","","","","",""
"3847","","<div style=""width:500px;"">
  <p>What best describes how you currently feel?</p>
  </div>","8","html-slider-response","57","875410","0.0-7.0-4.8","146","1","2025-08-06 08:56:12","36c45c0696341be0efffe67d72a12abb","93.39.140.119","Mozilla/5.0 (Windows NT 10.0; Win64; x64) AppleWebKit/537.36 (KHTML, like Gecko) Chrome/138.0.0.0 Safari/537.36","WebKit","Chrome","138.0.0.0","Windows","10.0","https://app.prolific.com/","it-IT,it;q=0.9,en-US;q=0.8,en;q=0.7","5daae19f8a06b60016d1bc32","6877649eabb845cf142cd221","689318a6aab43342e14cb9ee","1","5daae19f8a06b60016d1bc32","1","2025-08-06T09:10:48.626Z","","","","MotivationQ","","","","","","","","","","","50","","","","","","","","","","","","","","","","","","","","","","","","","","",""
"","","","","ctl-task-cpt","58","919571","0.0-7.0-0.9","146","1","2025-08-06 08:56:12","36c45c0696341be0efffe67d72a12abb","93.39.140.119","Mozilla/5.0 (Windows NT 10.0; Win64; x64) AppleWebKit/537.36 (KHTML, like Gecko) Chrome/138.0.0.0 Safari/537.36","WebKit","Chrome","138.0.0.0","Windows","10.0","https://app.prolific.com/","it-IT,it;q=0.9,en-US;q=0.8,en;q=0.7","5daae19f8a06b60016d1bc32","6877649eabb845cf142cd221","689318a6aab43342e14cb9ee","1","5daae19f8a06b60016d1bc32","1","2025-08-06T09:11:32.787Z","","","","","","","","","","","","","","","","win-only","2","g1:SE,g2:NW","0.5","10","0","877449.9","1248.6","6253.6","41150.9","1","4","8","6","2","8","8","11","3","0.08333333333333333","1294.5","3000","595","[""left"",""up""]","{""num_key_presses"":8,""num_perfect"":4,""num_errors"":0,""num_randdir"":4,""num_randdir_good_moves"":3,""num_whilered"":0,""num_whileblue"":0,""num_blue"":4,""num_good_moves"":7}","[417.57142857142856,424.47767857142856,0.3,417.57142857142856,424.47767857142856,102.7,417.57142857142856,424.47767857142856,214.5,417.57142857142856,424.47767857142856,319.2,417.57142857142856,424.47767857142856,425,417.57142857142856,424.47767857142856,530.3,357.57142857142856,404.47767857142856,631,315.57142857142856,397.47767857142856,732.1,315.57142857142856,397.47767857142856,836.2,216.57142857142856,300.47767857142856,936.7,127.57142857142857,170.47767857142856,1048.4,111.57142857142857,141.47767857142856,1148.8,91.57142857142857,96.47767857142857,1253.2,90.57142857142857,95.47767857142857,1359.8,90.57142857142857,95.47767857142857,1461.7,-169.42857142857144,179.47767857142856,1568.8,-331.42857142857144,247.47767857142856,1670.2,-331.42857142857144,247.47767857142856,1774.8,-331.42857142857144,247.47767857142856,1882.1,-331.42857142857144,247.47767857142856,1983,-331.42857142857144,247.47767857142856,2083,-331.42857142857144,247.47767857142856,2183.5,-331.42857142857144,247.47767857142856,2287.5,-331.42857142857144,247.47767857142856,2392.6,-331.42857142857144,247.47767857142856,2494.6,-331.42857142857144,247.47767857142856,2595,-331.42857142857144,247.47767857142856,2701.9,-331.42857142857144,247.47767857142856,2802,-331.42857142857144,247.47767857142856,2902.4,-331.42857142857144,247.47767857142856,3007.9,-331.42857142857144,247.47767857142856,3108.1,-331.42857142857144,247.47767857142856,3210.2,-331.42857142857144,247.47767857142856,3317.6,-331.42857142857144,247.47767857142856,3428.2,-331.42857142857144,247.47767857142856,3529.3,-331.42857142857144,247.47767857142856,3638,-331.42857142857144,247.47767857142856,3742.7,-331.42857142857144,247.47767857142856,3852.2,-331.42857142857144,247.47767857142856,3952.2,-331.42857142857144,247.47767857142856,4054.7,-331.42857142857144,247.47767857142856,4156.9,-331.42857142857144,247.47767857142856,4260.4,-331.42857142857144,247.47767857142856,4361.9,-331.42857142857144,247.47767857142856,4468.1,-331.42857142857144,247.47767857142856,4575.7,-331.42857142857144,247.47767857142856,4682.6,-331.42857142857144,247.47767857142856,4782.8,-331.42857142857144,247.47767857142856,4885.8,-331.42857142857144,247.47767857142856,4989]","[10789.9,10789.9,2705.7,7636.3,447.9,""smooth"",""left"",""left"",""good_move"",12820.8,2030.4,1563,10790.4,467.4,""oops"",""up"",""left"",""good_move"",15312.4,2491,2035.5,12821.4,455.5,""smooth"",""up"",""up"",""good_move"",22202.2,6889.3,2903.7,18868.5,430,""oops"",""up"",""up"",""good_move"",25690,3487.6,3072.7,22202.4,414.9,""oops"",""left"",""down"",""bad_move"",28479.4,2789.1,2359.9,25690.4,429.1,""oops"",""up"",""left"",""good_move"",31642.7,3162.7,2767.3,28480,395.4,""smooth"",""up"",""up"",""good_move"",34772,3129,2746.8,31643.1,382.1,""smooth"",""up"",""up"",""good_move""]"
"5333","","<div style=""width:500px;"">
  <p>What determined the result of this run?</p>
  </div>","16","html-slider-response","59","924905","0.0-7.0-1.9","146","1","2025-08-06 08:56:12","36c45c0696341be0efffe67d72a12abb","93.39.140.119","Mozilla/5.0 (Windows NT 10.0; Win64; x64) AppleWebKit/537.36 (KHTML, like Gecko) Chrome/138.0.0.0 Safari/537.36","WebKit","Chrome","138.0.0.0","Windows","10.0","https://app.prolific.com/","it-IT,it;q=0.9,en-US;q=0.8,en;q=0.7","5daae19f8a06b60016d1bc32","6877649eabb845cf142cd221","689318a6aab43342e14cb9ee","1","5daae19f8a06b60016d1bc32","1","2025-08-06T09:11:38.121Z","","","","AttribQ","","","","","","","","","","","50","","","","","","","","","","","","","","","","","","","","","","","","","","",""
"3828","","<div style=""width:500px;"">
  <p>How much control did you have over the ball?</p>
  </div>","30","html-slider-response","60","928734","0.0-7.0-2.9","146","1","2025-08-06 08:56:12","36c45c0696341be0efffe67d72a12abb","93.39.140.119","Mozilla/5.0 (Windows NT 10.0; Win64; x64) AppleWebKit/537.36 (KHTML, like Gecko) Chrome/138.0.0.0 Safari/537.36","WebKit","Chrome","138.0.0.0","Windows","10.0","https://app.prolific.com/","it-IT,it;q=0.9,en-US;q=0.8,en;q=0.7","5daae19f8a06b60016d1bc32","6877649eabb845cf142cd221","689318a6aab43342e14cb9ee","1","5daae19f8a06b60016d1bc32","1","2025-08-06T09:11:41.950Z","","","","ControlQ","","","","","","","","","","","50","","","","","","","","","","","","","","","","","","","","","","","","","","",""
"4297","","<div style=""width:500px;"">
  <p>How would you describe your current emotional state?</p>
  </div>","100","html-slider-response","61","933033","0.0-7.0-3.9","146","1","2025-08-06 08:56:12","36c45c0696341be0efffe67d72a12abb","93.39.140.119","Mozilla/5.0 (Windows NT 10.0; Win64; x64) AppleWebKit/537.36 (KHTML, like Gecko) Chrome/138.0.0.0 Safari/537.36","WebKit","Chrome","138.0.0.0","Windows","10.0","https://app.prolific.com/","it-IT,it;q=0.9,en-US;q=0.8,en;q=0.7","5daae19f8a06b60016d1bc32","6877649eabb845cf142cd221","689318a6aab43342e14cb9ee","1","5daae19f8a06b60016d1bc32","1","2025-08-06T09:11:46.249Z","","","","StressQ","","","","","","","","","","","50","","","","","","","","","","","","","","","","","","","","","","","","","","",""
"1528","","<div style=""width:500px;"">
  <p>What best describes how you currently feel?</p>
  </div>","15","html-slider-response","62","934562","0.0-7.0-4.9","146","1","2025-08-06 08:56:12","36c45c0696341be0efffe67d72a12abb","93.39.140.119","Mozilla/5.0 (Windows NT 10.0; Win64; x64) AppleWebKit/537.36 (KHTML, like Gecko) Chrome/138.0.0.0 Safari/537.36","WebKit","Chrome","138.0.0.0","Windows","10.0","https://app.prolific.com/","it-IT,it;q=0.9,en-US;q=0.8,en;q=0.7","5daae19f8a06b60016d1bc32","6877649eabb845cf142cd221","689318a6aab43342e14cb9ee","1","5daae19f8a06b60016d1bc32","1","2025-08-06T09:11:47.778Z","","","","MotivationQ","","","","","","","","","","","50","","","","","","","","","","","","","","","","","","","","","","","","","","",""
"","","","","ctl-task-cpt","63","972218","0.0-7.0-0.10","146","1","2025-08-06 08:56:12","36c45c0696341be0efffe67d72a12abb","93.39.140.119","Mozilla/5.0 (Windows NT 10.0; Win64; x64) AppleWebKit/537.36 (KHTML, like Gecko) Chrome/138.0.0.0 Safari/537.36","WebKit","Chrome","138.0.0.0","Windows","10.0","https://app.prolific.com/","it-IT,it;q=0.9,en-US;q=0.8,en;q=0.7","5daae19f8a06b60016d1bc32","6877649eabb845cf142cd221","689318a6aab43342e14cb9ee","1","5daae19f8a06b60016d1bc32","1","2025-08-06T09:12:25.434Z","","","","","","","","","","","","","","","","win-only","2","g1:SE,g2:NW","0.6","11","0","936601.5","1161","6161.6","34651.2","1","4","4","6","2","4","4","15","11","0.11363636363636363","1266.3","3000","1180","[""left"",""up""]","{""num_key_presses"":6,""num_perfect"":5,""num_errors"":0,""num_randdir"":1,""num_randdir_good_moves"":1,""num_whilered"":0,""num_whileblue"":0,""num_blue"":4,""num_good_moves"":6}","[422.57142857142856,413.47767857142856,0.2,422.57142857142856,413.47767857142856,100.5,422.57142857142856,413.47767857142856,205.4,422.57142857142856,413.47767857142856,312.4,422.57142857142856,413.47767857142856,417.8,422.57142857142856,413.47767857142856,520,276.57142857142856,311.47767857142856,620.9,268.57142857142856,304.47767857142856,722.2,268.57142857142856,304.47767857142856,823.3,192.57142857142856,213.47767857142856,931.2,127.57142857142857,134.47767857142856,1034.4,101.57142857142857,95.47767857142857,1136.2,84.57142857142857,76.47767857142857,1239.5,84.57142857142857,76.47767857142857,1341.5,84.57142857142857,76.47767857142857,1448.8,-158.42857142857144,177.47767857142856,1552.1,-274.42857142857144,241.47767857142856,1657.8,-274.42857142857144,241.47767857142856,1767.4,-274.42857142857144,241.47767857142856,1871.3,-274.42857142857144,241.47767857142856,1971.5,-274.42857142857144,241.47767857142856,2081.5,-274.42857142857144,241.47767857142856,2184.1,-274.42857142857144,241.47767857142856,2284.4,-274.42857142857144,241.47767857142856,2387,-274.42857142857144,241.47767857142856,2492,-274.42857142857144,241.47767857142856,2597.9,-274.42857142857144,241.47767857142856,2701.5,-274.42857142857144,241.47767857142856,2805.6,-274.42857142857144,241.47767857142856,2913.2,-274.42857142857144,241.47767857142856,3015.3,-274.42857142857144,241.47767857142856,3117.1,-274.42857142857144,241.47767857142856,3222.5,-274.42857142857144,241.47767857142856,3323.3,-274.42857142857144,241.47767857142856,3424.8,-274.42857142857144,241.47767857142856,3531.4,-274.42857142857144,241.47767857142856,3636.9,-274.42857142857144,241.47767857142856,3743.7,-274.42857142857144,241.47767857142856,3848.8,-274.42857142857144,241.47767857142856,3950.3,-274.42857142857144,241.47767857142856,4050.7,-274.42857142857144,241.47767857142856,4155.9,-274.42857142857144,241.47767857142856,4257.3,-274.42857142857144,241.47767857142856,4366.4,-274.42857142857144,241.47767857142856,4466.9,-274.42857142857144,241.47767857142856,4569.5,-274.42857142857144,241.47767857142856,4670.8,-274.42857142857144,241.47767857142856,4771.8,-274.42857142857144,241.47767857142856,4872.7,-274.42857142857144,241.47767857142856,4979]","[1346.7,1346.7,1000,0,346.7,""smooth"",""left"",""left"",""good_move"",6498.5,5151.3,1983.6,4117.6,397.3,""smooth"",""up"",""up"",""good_move"",9408.4,2909.6,2411,6498.9,498.6,""smooth"",""up"",""up"",""good_move"",11638.5,2229.5,1795.7,9409,433.8,""oops"",""left"",""up"",""good_move"",17946.4,6307.7,2271.4,15260.4,414.6,""smooth"",""left"",""left"",""good_move"",28362.2,10415.5,2529.8,25380,452.4,""smooth"",""left"",""left"",""good_move""]"
"4094","","<div style=""width:500px;"">
  <p>What determined the result of this run?</p>
  </div>","50","html-slider-response","64","976314","0.0-7.0-1.10","146","1","2025-08-06 08:56:12","36c45c0696341be0efffe67d72a12abb","93.39.140.119","Mozilla/5.0 (Windows NT 10.0; Win64; x64) AppleWebKit/537.36 (KHTML, like Gecko) Chrome/138.0.0.0 Safari/537.36","WebKit","Chrome","138.0.0.0","Windows","10.0","https://app.prolific.com/","it-IT,it;q=0.9,en-US;q=0.8,en;q=0.7","5daae19f8a06b60016d1bc32","6877649eabb845cf142cd221","689318a6aab43342e14cb9ee","1","5daae19f8a06b60016d1bc32","1","2025-08-06T09:12:29.530Z","","","","AttribQ","","","","","","","","","","","50","","","","","","","","","","","","","","","","","","","","","","","","","","",""
"2092","","<div style=""width:500px;"">
  <p>How much control did you have over the ball?</p>
  </div>","50","html-slider-response","65","978406","0.0-7.0-2.10","146","1","2025-08-06 08:56:12","36c45c0696341be0efffe67d72a12abb","93.39.140.119","Mozilla/5.0 (Windows NT 10.0; Win64; x64) AppleWebKit/537.36 (KHTML, like Gecko) Chrome/138.0.0.0 Safari/537.36","WebKit","Chrome","138.0.0.0","Windows","10.0","https://app.prolific.com/","it-IT,it;q=0.9,en-US;q=0.8,en;q=0.7","5daae19f8a06b60016d1bc32","6877649eabb845cf142cd221","689318a6aab43342e14cb9ee","1","5daae19f8a06b60016d1bc32","1","2025-08-06T09:12:31.623Z","","","","ControlQ","","","","","","","","","","","50","","","","","","","","","","","","","","","","","","","","","","","","","","",""
"2076","","<div style=""width:500px;"">
  <p>How would you describe your current emotional state?</p>
  </div>","100","html-slider-response","66","980484","0.0-7.0-3.10","146","1","2025-08-06 08:56:12","36c45c0696341be0efffe67d72a12abb","93.39.140.119","Mozilla/5.0 (Windows NT 10.0; Win64; x64) AppleWebKit/537.36 (KHTML, like Gecko) Chrome/138.0.0.0 Safari/537.36","WebKit","Chrome","138.0.0.0","Windows","10.0","https://app.prolific.com/","it-IT,it;q=0.9,en-US;q=0.8,en;q=0.7","5daae19f8a06b60016d1bc32","6877649eabb845cf142cd221","689318a6aab43342e14cb9ee","1","5daae19f8a06b60016d1bc32","1","2025-08-06T09:12:33.700Z","","","","StressQ","","","","","","","","","","","50","","","","","","","","","","","","","","","","","","","","","","","","","","",""
"2216","","<div style=""width:500px;"">
  <p>What best describes how you currently feel?</p>
  </div>","11","html-slider-response","67","982701","0.0-7.0-4.10","146","1","2025-08-06 08:56:12","36c45c0696341be0efffe67d72a12abb","93.39.140.119","Mozilla/5.0 (Windows NT 10.0; Win64; x64) AppleWebKit/537.36 (KHTML, like Gecko) Chrome/138.0.0.0 Safari/537.36","WebKit","Chrome","138.0.0.0","Windows","10.0","https://app.prolific.com/","it-IT,it;q=0.9,en-US;q=0.8,en;q=0.7","5daae19f8a06b60016d1bc32","6877649eabb845cf142cd221","689318a6aab43342e14cb9ee","1","5daae19f8a06b60016d1bc32","1","2025-08-06T09:12:35.917Z","","","","MotivationQ","","","","","","","","","","","50","","","","","","","","","","","","","","","","","","","","","","","","","","",""
"","","","","ctl-task-cpt","68","1016474","0.0-7.0-0.11","146","1","2025-08-06 08:56:12","36c45c0696341be0efffe67d72a12abb","93.39.140.119","Mozilla/5.0 (Windows NT 10.0; Win64; x64) AppleWebKit/537.36 (KHTML, like Gecko) Chrome/138.0.0.0 Safari/537.36","WebKit","Chrome","138.0.0.0","Windows","10.0","https://app.prolific.com/","it-IT,it;q=0.9,en-US;q=0.8,en;q=0.7","5daae19f8a06b60016d1bc32","6877649eabb845cf142cd221","689318a6aab43342e14cb9ee","1","5daae19f8a06b60016d1bc32","1","2025-08-06T09:13:09.690Z","","","","","","","","","","","","","","","","win-only","3","g1:SW,g2:NE","0.7","12","0","984740.4","947","5953","30753.5","1","4","8","6","2","8","8","23","15","0.17424242424242425","987.9","3000","465","[""up"",""right""]","{""num_key_presses"":8,""num_perfect"":6,""num_errors"":0,""num_randdir"":2,""num_randdir_good_moves"":1,""num_whilered"":0,""num_whileblue"":0,""num_blue"":1,""num_good_moves"":7}","[410.57142857142856,416.47767857142856,0.2,410.57142857142856,416.47767857142856,104.5,410.57142857142856,416.47767857142856,204.5,410.57142857142856,416.47767857142856,312.8,410.57142857142856,416.47767857142856,414.3,410.57142857142856,416.47767857142856,515.6,685.5714285714286,180.47767857142856,620.9,767.5714285714286,110.47767857142857,724.6,767.5714285714286,110.47767857142857,831.3,767.5714285714286,110.47767857142857,933.2,767.5714285714286,110.47767857142857,1038,767.5714285714286,110.47767857142857,1140.1,835.5714285714286,147.47767857142856,1251.2,1015.5714285714286,351.47767857142856,1355.4,1015.5714285714286,351.47767857142856,1457.3,1015.5714285714286,351.47767857142856,1560.2,1015.5714285714286,351.47767857142856,1665.9,1015.5714285714286,351.47767857142856,1771.4,1015.5714285714286,351.47767857142856,1878.9,1015.5714285714286,351.47767857142856,1980.9,1015.5714285714286,351.47767857142856,2087,1015.5714285714286,351.47767857142856,2193.6,1015.5714285714286,351.47767857142856,2299.4,1015.5714285714286,351.47767857142856,2406.7,1015.5714285714286,351.47767857142856,2507.2,1015.5714285714286,351.47767857142856,2610.9,1015.5714285714286,351.47767857142856,2715.9,1015.5714285714286,351.47767857142856,2822.1,1015.5714285714286,351.47767857142856,2924.3,1015.5714285714286,351.47767857142856,3025.5,1015.5714285714286,351.47767857142856,3129.8,1015.5714285714286,351.47767857142856,3231.5,1015.5714285714286,351.47767857142856,3336.8,1015.5714285714286,351.47767857142856,3439.2,1015.5714285714286,351.47767857142856,3540.1,1015.5714285714286,351.47767857142856,3640.9,1015.5714285714286,351.47767857142856,3741.2,1015.5714285714286,351.47767857142856,3847,1015.5714285714286,351.47767857142856,3948.9,1015.5714285714286,351.47767857142856,4049.2,1015.5714285714286,351.47767857142856,4153.6,1015.5714285714286,351.47767857142856,4254.1,1015.5714285714286,351.47767857142856,4356.3,1015.5714285714286,351.47767857142856,4464.7,1015.5714285714286,351.47767857142856,4564.9,1015.5714285714286,351.47767857142856,4667.6,1015.5714285714286,351.47767857142856,4769.5,1015.5714285714286,351.47767857142856,4873.1,1015.5714285714286,351.47767857142856,4980.5]","[1454.7,1454.6,1000,0.1,454.6,""smooth"",""up"",""up"",""good_move"",4384.5,2929.5,2525.8,1455.1,403.7,""oops"",""right"",""left"",""bad_move"",7561.9,3176.8,2785.3,4385.1,391.5,""smooth"",""right"",""right"",""good_move"",14390,6827.6,3065.6,10934.4,390,""smooth"",""right"",""right"",""good_move"",17477.2,3086.9,2683.1,14390.3,403.8,""oops"",""right"",""up"",""good_move"",19833.9,2356.3,1988.6,17477.6,367.7,""smooth"",""right"",""right"",""good_move"",22264.3,2429.9,1940.1,19834.4,489.8,""smooth"",""up"",""up"",""good_move"",24665.3,2400.8,2078.2,22264.5,322.6,""smooth"",""right"",""right"",""good_move""]"
"3763","","<div style=""width:500px;"">
  <p>What determined the result of this run?</p>
  </div>","50","html-slider-response","69","1020239","0.0-7.0-1.11","146","1","2025-08-06 08:56:12","36c45c0696341be0efffe67d72a12abb","93.39.140.119","Mozilla/5.0 (Windows NT 10.0; Win64; x64) AppleWebKit/537.36 (KHTML, like Gecko) Chrome/138.0.0.0 Safari/537.36","WebKit","Chrome","138.0.0.0","Windows","10.0","https://app.prolific.com/","it-IT,it;q=0.9,en-US;q=0.8,en;q=0.7","5daae19f8a06b60016d1bc32","6877649eabb845cf142cd221","689318a6aab43342e14cb9ee","1","5daae19f8a06b60016d1bc32","1","2025-08-06T09:13:13.455Z","","","","AttribQ","","","","","","","","","","","50","","","","","","","","","","","","","","","","","","","","","","","","","","",""
"3088","","<div style=""width:500px;"">
  <p>How much control did you have over the ball?</p>
  </div>","55","html-slider-response","70","1023328","0.0-7.0-2.11","146","1","2025-08-06 08:56:12","36c45c0696341be0efffe67d72a12abb","93.39.140.119","Mozilla/5.0 (Windows NT 10.0; Win64; x64) AppleWebKit/537.36 (KHTML, like Gecko) Chrome/138.0.0.0 Safari/537.36","WebKit","Chrome","138.0.0.0","Windows","10.0","https://app.prolific.com/","it-IT,it;q=0.9,en-US;q=0.8,en;q=0.7","5daae19f8a06b60016d1bc32","6877649eabb845cf142cd221","689318a6aab43342e14cb9ee","1","5daae19f8a06b60016d1bc32","1","2025-08-06T09:13:16.545Z","","","","ControlQ","","","","","","","","","","","50","","","","","","","","","","","","","","","","","","","","","","","","","","",""
"1809","","<div style=""width:500px;"">
  <p>How would you describe your current emotional state?</p>
  </div>","100","html-slider-response","71","1025139","0.0-7.0-3.11","146","1","2025-08-06 08:56:12","36c45c0696341be0efffe67d72a12abb","93.39.140.119","Mozilla/5.0 (Windows NT 10.0; Win64; x64) AppleWebKit/537.36 (KHTML, like Gecko) Chrome/138.0.0.0 Safari/537.36","WebKit","Chrome","138.0.0.0","Windows","10.0","https://app.prolific.com/","it-IT,it;q=0.9,en-US;q=0.8,en;q=0.7","5daae19f8a06b60016d1bc32","6877649eabb845cf142cd221","689318a6aab43342e14cb9ee","1","5daae19f8a06b60016d1bc32","1","2025-08-06T09:13:18.355Z","","","","StressQ","","","","","","","","","","","50","","","","","","","","","","","","","","","","","","","","","","","","","","",""
"2157","","<div style=""width:500px;"">
  <p>What best describes how you currently feel?</p>
  </div>","14","html-slider-response","72","1027297","0.0-7.0-4.11","146","1","2025-08-06 08:56:12","36c45c0696341be0efffe67d72a12abb","93.39.140.119","Mozilla/5.0 (Windows NT 10.0; Win64; x64) AppleWebKit/537.36 (KHTML, like Gecko) Chrome/138.0.0.0 Safari/537.36","WebKit","Chrome","138.0.0.0","Windows","10.0","https://app.prolific.com/","it-IT,it;q=0.9,en-US;q=0.8,en;q=0.7","5daae19f8a06b60016d1bc32","6877649eabb845cf142cd221","689318a6aab43342e14cb9ee","1","5daae19f8a06b60016d1bc32","1","2025-08-06T09:13:20.513Z","","","","MotivationQ","","","","","","","","","","","50","","","","","","","","","","","","","","","","","","","","","","","","","","",""
"","","","","ctl-task-cpt","73","1059139","0.0-7.0-0.12","146","1","2025-08-06 08:56:12","36c45c0696341be0efffe67d72a12abb","93.39.140.119","Mozilla/5.0 (Windows NT 10.0; Win64; x64) AppleWebKit/537.36 (KHTML, like Gecko) Chrome/138.0.0.0 Safari/537.36","WebKit","Chrome","138.0.0.0","Windows","10.0","https://app.prolific.com/","it-IT,it;q=0.9,en-US;q=0.8,en;q=0.7","5daae19f8a06b60016d1bc32","6877649eabb845cf142cd221","689318a6aab43342e14cb9ee","1","5daae19f8a06b60016d1bc32","1","2025-08-06T09:13:52.355Z","","","","","","","","","","","","","","","","win-only","2","g1:SE,g2:NW","0.8","13","0","1029336.6","792.9","5794.7","28821.7","1","4","8","6","2","8","8","31","23","0.23484848484848486","918","3000","1410","[""left"",""up""]","{""num_key_presses"":6,""num_perfect"":4,""num_errors"":0,""num_randdir"":2,""num_randdir_good_moves"":2,""num_whilered"":0,""num_whileblue"":0,""num_blue"":2,""num_good_moves"":6}","[412.57142857142856,413.47767857142856,0.2,412.57142857142856,413.47767857142856,102.7,412.57142857142856,413.47767857142856,203.9,412.57142857142856,413.47767857142856,308.1,412.57142857142856,413.47767857142856,412.7,248.57142857142856,278.47767857142856,512.7,108.57142857142857,135.47767857142856,613.6,108.57142857142857,135.47767857142856,715.4,94.57142857142857,110.47767857142857,817.9,73.57142857142857,69.47767857142857,929.5,73.57142857142857,69.47767857142857,1032.5,29.57142857142857,90.47767857142857,1133.5,-245.42857142857144,241.47767857142856,1243.7,-245.42857142857144,241.47767857142856,1350.5,-245.42857142857144,241.47767857142856,1451.1,-245.42857142857144,241.47767857142856,1554.5,-245.42857142857144,241.47767857142856,1661.2,-245.42857142857144,241.47767857142856,1763.9,-245.42857142857144,241.47767857142856,1870.3,-245.42857142857144,241.47767857142856,1979.7,-245.42857142857144,241.47767857142856,2085.1,-245.42857142857144,241.47767857142856,2195.9,-245.42857142857144,241.47767857142856,2297.5,-245.42857142857144,241.47767857142856,2403.9,-245.42857142857144,241.47767857142856,2505.3,-245.42857142857144,241.47767857142856,2609.2,-245.42857142857144,241.47767857142856,2717.5,-245.42857142857144,241.47767857142856,2822.1,-245.42857142857144,241.47767857142856,2929.3,-245.42857142857144,241.47767857142856,3035.3,-245.42857142857144,241.47767857142856,3142.7,-245.42857142857144,241.47767857142856,3244.4,-245.42857142857144,241.47767857142856,3350.9,-245.42857142857144,241.47767857142856,3451.4,-245.42857142857144,241.47767857142856,3551.7,-245.42857142857144,241.47767857142856,3657,-245.42857142857144,241.47767857142856,3763.3,-245.42857142857144,241.47767857142856,3867.7,-245.42857142857144,241.47767857142856,3968.2,-245.42857142857144,241.47767857142856,4076.9,-245.42857142857144,241.47767857142856,4178.5,-245.42857142857144,241.47767857142856,4287.1,-245.42857142857144,241.47767857142856,4393.5,-245.42857142857144,241.47767857142856,4494.2,-245.42857142857144,241.47767857142856,4599.6,-245.42857142857144,241.47767857142856,4703.4,-245.42857142857144,241.47767857142856,4814.6,-245.42857142857144,241.47767857142856,4917.5]","[1405,1405,1000,0,405,""smooth"",""left"",""left"",""good_move"",7157.9,5752.3,2053.4,4758.4,346.1,""smooth"",""up"",""up"",""good_move"",13958.8,6800.5,2693.6,10860.2,405.1,""oops"",""left"",""left"",""good_move"",16738.2,2778.9,2398.5,13959.3,380.4,""oops"",""up"",""up"",""good_move"",20288.2,3549.6,3157.4,16738.6,392.2,""smooth"",""left"",""left"",""good_move"",22908.3,2619.7,2260.3,20288.6,359.4,""smooth"",""up"",""up"",""good_move""]"
"2716","","<div style=""width:500px;"">
  <p>What determined the result of this run?</p>
  </div>","60","html-slider-response","74","1061856","0.0-7.0-1.12","146","1","2025-08-06 08:56:12","36c45c0696341be0efffe67d72a12abb","93.39.140.119","Mozilla/5.0 (Windows NT 10.0; Win64; x64) AppleWebKit/537.36 (KHTML, like Gecko) Chrome/138.0.0.0 Safari/537.36","WebKit","Chrome","138.0.0.0","Windows","10.0","https://app.prolific.com/","it-IT,it;q=0.9,en-US;q=0.8,en;q=0.7","5daae19f8a06b60016d1bc32","6877649eabb845cf142cd221","689318a6aab43342e14cb9ee","1","5daae19f8a06b60016d1bc32","1","2025-08-06T09:13:55.072Z","","","","AttribQ","","","","","","","","","","","50","","","","","","","","","","","","","","","","","","","","","","","","","","",""
"3695","","<div style=""width:500px;"">
  <p>How much control did you have over the ball?</p>
  </div>","52","html-slider-response","75","1065552","0.0-7.0-2.12","146","1","2025-08-06 08:56:12","36c45c0696341be0efffe67d72a12abb","93.39.140.119","Mozilla/5.0 (Windows NT 10.0; Win64; x64) AppleWebKit/537.36 (KHTML, like Gecko) Chrome/138.0.0.0 Safari/537.36","WebKit","Chrome","138.0.0.0","Windows","10.0","https://app.prolific.com/","it-IT,it;q=0.9,en-US;q=0.8,en;q=0.7","5daae19f8a06b60016d1bc32","6877649eabb845cf142cd221","689318a6aab43342e14cb9ee","1","5daae19f8a06b60016d1bc32","1","2025-08-06T09:13:58.768Z","","","","ControlQ","","","","","","","","","","","50","","","","","","","","","","","","","","","","","","","","","","","","","","",""
"2691","","<div style=""width:500px;"">
  <p>How would you describe your current emotional state?</p>
