"rt","response_timestamp","stimulus","response","trial_type","trial_index","time_elapsed","internal_node_id","run_id","condition","recorded_at","source_code_version","ip","user_agent","device","browser","browser_version","platform","platform_version","referer","accept_language","PROLIFIC_PID","STUDY_ID","SESSION_ID","BATCH","prolific_id","batch","realtime","success","question_order","question_id","eventType","responses","item_order","radio_event_ids","radio_event_times","key_event_times","mouse_event_times","straightlining","zigzagging","honeypot","view_history","slider_start","which_type","canvas_config","goals_layout","control_level","trial_number","tutorial_trial_number","trial_start_time","phase1_start_time","phase2_start_time","phase3_start_time","goal_1_value","goal_1_distance","goal_2_value","goal_2_distance","goal_selected","outcome","outcome_total","participant_final_score","participant_initial_score","participant_final_score_prop","goal_choice_rt","allocated_time","allocated_time_remaining","goal_direction","counts","mouse_movements","key_presses"
"49628","1754470368690","<p style='font-size:40px;line-height:1.25'><strong>Welcome to the experiment!</strong></p><p style='font-size:1.1em;line-height:1.25'>Thank you for participanting in our experiment again! You will be asked to play the Dysfunctional Ball Game again. We will briefly recap the rules before we start.</p><p style='font-size:1.1em;line-height:1.25'>Press <strong>Next</strong> to continue.</p>","0","custom-html-button-response","0","49631","0.0-0.0","135","1","2025-08-06 08:51:57","36c45c0696341be0efffe67d72a12abb","78.33.241.66","Mozilla/5.0 (Windows NT 10.0; Win64; x64) AppleWebKit/537.36 (KHTML, like Gecko) Chrome/138.0.0.0 Safari/537.36","WebKit","Chrome","138.0.0.0","Windows","10.0","https://app.prolific.com/","en-GB,en;q=0.9","5e203085ac30fa331b586690","6877649eabb845cf142cd221","6893179b886ed1dc99e06a8c","1","5e203085ac30fa331b586690","1","2025-08-06T08:52:48.692Z","","","","","","","","","","","","","","","","","","","","","","","","","","","","","","","","","","","","","","","","","",""
"1417","","","","fullscreen","1","52060","0.0-1.0","135","1","2025-08-06 08:51:57","36c45c0696341be0efffe67d72a12abb","78.33.241.66","Mozilla/5.0 (Windows NT 10.0; Win64; x64) AppleWebKit/537.36 (KHTML, like Gecko) Chrome/138.0.0.0 Safari/537.36","WebKit","Chrome","138.0.0.0","Windows","10.0","https://app.prolific.com/","en-GB,en;q=0.9","5e203085ac30fa331b586690","6877649eabb845cf142cd221","6893179b886ed1dc99e06a8c","1","5e203085ac30fa331b586690","1","","true","","","","","","","","","","","","","","","","","","","","","","","","","","","","","","","","","","","","","","","","",""
"5586","1754470376706"," <p style='font-size:1.1em;line-height:1.25'>Thank you for closing all other tabs.</p><p style='font-size:1.1em;line-height:1.25'>We will now invite you to fill in some questionnaires, before starting the game.<br>This will take about 5 minutes.<br></p><p style='font-size:1.1em;line-height:1.25'>Press the <strong>Next</strong> button to continue.</p>","0","custom-html-button-response","2","57647","0.0-2.0","135","1","2025-08-06 08:51:57","36c45c0696341be0efffe67d72a12abb","78.33.241.66","Mozilla/5.0 (Windows NT 10.0; Win64; x64) AppleWebKit/537.36 (KHTML, like Gecko) Chrome/138.0.0.0 Safari/537.36","WebKit","Chrome","138.0.0.0","Windows","10.0","https://app.prolific.com/","en-GB,en;q=0.9","5e203085ac30fa331b586690","6877649eabb845cf142cd221","6893179b886ed1dc99e06a8c","1","5e203085ac30fa331b586690","1","2025-08-06T08:52:56.707Z","","","","","","","","","","","","","","","","","","","","","","","","","","","","","","","","","","","","","","","","","",""
"2566","","","{""assigned_sex"":""female""}","survey-multi-choice","3","60216","0.0-3.0-0.0","135","1","2025-08-06 08:51:57","36c45c0696341be0efffe67d72a12abb","78.33.241.66","Mozilla/5.0 (Windows NT 10.0; Win64; x64) AppleWebKit/537.36 (KHTML, like Gecko) Chrome/138.0.0.0 Safari/537.36","WebKit","Chrome","138.0.0.0","Windows","10.0","https://app.prolific.com/","en-GB,en;q=0.9","5e203085ac30fa331b586690","6877649eabb845cf142cd221","6893179b886ed1dc99e06a8c","1","5e203085ac30fa331b586690","1","","","[0]","0","demographics","","","","","","","","","","","","","","","","","","","","","","","","","","","","","","","","","","","","","",""
"1855","1754470381132","<p style='font-size:1.1em;line-height:1.25'>In the following, we will perform a baseline assessment. This means that we will ask you a few questions relating to your experiences over the past month.<br></p><p style='font-size:1.1em;line-height:1.25'>Press the <strong>Next</strong> button to continue.</p>","0","custom-html-button-response","4","62072","0.0-4.0-0.0","135","1","2025-08-06 08:51:57","36c45c0696341be0efffe67d72a12abb","78.33.241.66","Mozilla/5.0 (Windows NT 10.0; Win64; x64) AppleWebKit/537.36 (KHTML, like Gecko) Chrome/138.0.0.0 Safari/537.36","WebKit","Chrome","138.0.0.0","Windows","10.0","https://app.prolific.com/","en-GB,en;q=0.9","5e203085ac30fa331b586690","6877649eabb845cf142cd221","6893179b886ed1dc99e06a8c","1","5e203085ac30fa331b586690","1","2025-08-06T08:53:01.132Z","","","","","","","","","","","","","","","","","","","","","","","","","","","","","","","","","","","","","","","","","",""
"56183.5","","","","survey-template","5","118260","0.0-4.0-1.0","135","1","2025-08-06 08:51:57","36c45c0696341be0efffe67d72a12abb","78.33.241.66","Mozilla/5.0 (Windows NT 10.0; Win64; x64) AppleWebKit/537.36 (KHTML, like Gecko) Chrome/138.0.0.0 Safari/537.36","WebKit","Chrome","138.0.0.0","Windows","10.0","https://app.prolific.com/","en-GB,en;q=0.9","5e203085ac30fa331b586690","6877649eabb845cf142cd221","6893179b886ed1dc99e06a8c","1","5e203085ac30fa331b586690","1","2025-08-06T08:53:57.320Z","","","","pss","{""Q01"":""2"",""Q02"":""2"",""Q03"":""2"",""Q04"":""1"",""Q05"":""1"",""Q06"":""2"",""Q07"":""2"",""Q08"":""1"",""Q09"":""2"",""Q10"":""1""}","[0,1,2,3,4,5,6,7,8,9]","[""Q01"",""Q02"",""Q03"",""Q03"",""Q04"",""Q05"",""Q06"",""Q07"",""Q08"",""Q09"",""Q10""]","[6312.4000000003725,9617.400000000373,10617.5,12304.400000000373,36823,42013.200000000186,44301.300000000745,46755.700000000186,50451.700000000186,52169.200000000186,55148.700000000186]","[]","[0.10000000055879354,6312.4000000003725,8858.800000000745,9617.400000000373,10617.5,11820.600000000559,12304.400000000373,36204.60000000056,36823,42013.200000000186,44301.300000000745,46755.700000000186,50451.700000000186,51427.90000000037,52169.200000000186,55148.700000000186,56179.300000000745]","0.6","0.5555555555555556","0","","","","","","","","","","","","","","","","","","","","","","","","","","","","",""
"1365","1754470438686","<p style='font-size:1.1em;line-height:1.25'>Thank you for your answers! Now we will ask you a few more questions relating to your feelings in the last 24 hours.<br></p><p style='font-size:1.1em;line-height:1.25'>Press the <strong>Next</strong> button to continue.</p>","0","custom-html-button-response","6","119626","0.0-4.0-2.0","135","1","2025-08-06 08:51:57","36c45c0696341be0efffe67d72a12abb","78.33.241.66","Mozilla/5.0 (Windows NT 10.0; Win64; x64) AppleWebKit/537.36 (KHTML, like Gecko) Chrome/138.0.0.0 Safari/537.36","WebKit","Chrome","138.0.0.0","Windows","10.0","https://app.prolific.com/","en-GB,en;q=0.9","5e203085ac30fa331b586690","6877649eabb845cf142cd221","6893179b886ed1dc99e06a8c","1","5e203085ac30fa331b586690","1","2025-08-06T08:53:58.686Z","","","","","","","","","","","","","","","","","","","","","","","","","","","","","","","","","","","","","","","","","",""
"34705.799999999814","","","","survey-template","7","154336","0.0-4.0-3.0","135","1","2025-08-06 08:51:57","36c45c0696341be0efffe67d72a12abb","78.33.241.66","Mozilla/5.0 (Windows NT 10.0; Win64; x64) AppleWebKit/537.36 (KHTML, like Gecko) Chrome/138.0.0.0 Safari/537.36","WebKit","Chrome","138.0.0.0","Windows","10.0","https://app.prolific.com/","en-GB,en;q=0.9","5e203085ac30fa331b586690","6877649eabb845cf142cd221","6893179b886ed1dc99e06a8c","1","5e203085ac30fa331b586690","1","2025-08-06T08:54:33.396Z","","","","drsp","{""Q01"":""0"",""Q02"":""0"",""Q03"":""0"",""Q04"":""0"",""Q05"":""0"",""Q06"":""0"",""Q07"":""0"",""Q08"":""0"",""Q09"":""0"",""Q10"":""0"",""Q11"":""2"",""Q12"":""0"",""Q13"":""5"",""Q14"":""0"",""Q15"":""2"",""Q16"":""2"",""Q17"":""0"",""Q18"":""0"",""Q19"":""0"",""Q20"":""0"",""Q21"":""0"",""Q22"":""0""}","[0,1,2,3,4,5,6,7,8,9,10,11,12,13,14,15,16,17,18,19,20,21]","[""Q01"",""Q02"",""Q03"",""Q05"",""Q06"",""Q07"",""Q08"",""Q09"",""Q10"",""Q11"",""Q12"",""Q13"",""Q14"",""Q15"",""Q16"",""Q17"",""Q19"",""Q18"",""Q20"",""Q21"",""Q22"",""Q04""]","[2718.199999999255,3485.699999999255,4390.799999999814,6160,7765.299999999814,8498,9304.599999999627,10119.5,11402,12798,14766.199999999255,16305.799999999814,17394.89999999944,19653.599999999627,21064.89999999944,23281.599999999627,25098.89999999944,25694.799999999814,27653.89999999944,28387.699999999255,29662,33190.89999999944]","[]","[0.09999999962747097,2718.199999999255,3485.699999999255,4390.799999999814,5119.899999999441,6160,7063.0999999996275,7765.299999999814,8498,9304.599999999627,10119.5,11402,12798,14766.199999999255,15702.899999999441,16305.799999999814,17394.89999999944,19089,19653.599999999627,20646.199999999255,21064.89999999944,23281.599999999627,24095.89999999944,25098.89999999944,25694.799999999814,27316.099999999627,27653.89999999944,28387.699999999255,29056.799999999814,29443.5,29662,30355.299999999814,33190.89999999944,34698.89999999944]","0.8181818181818182","0.09523809523809523","0","","","","","","","","","","","","","","","","","","","","","","","","","","","","",""
"7413.399999999441","","","","survey-template","8","161752","0.0-4.0-4.0","135","1","2025-08-06 08:51:57","36c45c0696341be0efffe67d72a12abb","78.33.241.66","Mozilla/5.0 (Windows NT 10.0; Win64; x64) AppleWebKit/537.36 (KHTML, like Gecko) Chrome/138.0.0.0 Safari/537.36","WebKit","Chrome","138.0.0.0","Windows","10.0","https://app.prolific.com/","en-GB,en;q=0.9","5e203085ac30fa331b586690","6877649eabb845cf142cd221","6893179b886ed1dc99e06a8c","1","5e203085ac30fa331b586690","1","2025-08-06T08:54:40.812Z","","","","stress","{""Q01"":""0"",""Q02"":""2"",""Q03"":""0""}","[0,1,2]","[""Q01"",""Q02"",""Q03""]","[3618.899999999441,4902.0999999996275,6702.0999999996275]","[]","[3618.899999999441,4902.0999999996275,6702.0999999996275,7412.0999999996275]","0.6666666666666666","0","0","","","","","","","","","","","","","","","","","","","","","","","","","","","","",""
"4396","","","","instructions","9","166149","0.0-5.0-0.0","135","1","2025-08-06 08:51:57","36c45c0696341be0efffe67d72a12abb","78.33.241.66","Mozilla/5.0 (Windows NT 10.0; Win64; x64) AppleWebKit/537.36 (KHTML, like Gecko) Chrome/138.0.0.0 Safari/537.36","WebKit","Chrome","138.0.0.0","Windows","10.0","https://app.prolific.com/","en-GB,en;q=0.9","5e203085ac30fa331b586690","6877649eabb845cf142cd221","6893179b886ed1dc99e06a8c","1","5e203085ac30fa331b586690","1","","","","","","","","","","","","","","","[{""page_index"":0,""viewing_time"":4396}]","","","","","","","","","","","","","","","","","","","","","","","","","","","",""
"2408","","<p>Before you start with this game please answer the following three questions yourself. </p>
  <p>Through this game, we measure several aspects of your cognitive performance, such as reaction times, multi-tasking capabilities </p>
  <p>and the ability to assess the situation you are in.</p>
  <p></p>
  <p><b>How good do you usually are in such tasks?</b></p>","54","html-slider-response","10","168559","0.0-6.0-0.0","135","1","2025-08-06 08:51:57","36c45c0696341be0efffe67d72a12abb","78.33.241.66","Mozilla/5.0 (Windows NT 10.0; Win64; x64) AppleWebKit/537.36 (KHTML, like Gecko) Chrome/138.0.0.0 Safari/537.36","WebKit","Chrome","138.0.0.0","Windows","10.0","https://app.prolific.com/","en-GB,en;q=0.9","5e203085ac30fa331b586690","6877649eabb845cf142cd221","6893179b886ed1dc99e06a8c","1","5e203085ac30fa331b586690","1","2025-08-06T08:54:47.619Z","","","","PreSkillQ","","","","","","","","","","","50","","","","","","","","","","","","","","","","","","","","","","","","","","",""
"2410","","<div style=""width:500px;"">
  <p>How well do you think you will perform in this task compared to other participants?</p>
  </div>","10","html-slider-response","11","170970","0.0-6.0-1.0","135","1","2025-08-06 08:51:57","36c45c0696341be0efffe67d72a12abb","78.33.241.66","Mozilla/5.0 (Windows NT 10.0; Win64; x64) AppleWebKit/537.36 (KHTML, like Gecko) Chrome/138.0.0.0 Safari/537.36","WebKit","Chrome","138.0.0.0","Windows","10.0","https://app.prolific.com/","en-GB,en;q=0.9","5e203085ac30fa331b586690","6877649eabb845cf142cd221","6893179b886ed1dc99e06a8c","1","5e203085ac30fa331b586690","1","2025-08-06T08:54:50.030Z","","","","PrePerfQ","","","","","","","","","","","50","","","","","","","","","","","","","","","","","","","","","","","","","","",""
"2448","","<div style=""width:500px;"">
  <p>What best describes how you currently feel?</p>
  </div>","60","html-slider-response","12","173419","0.0-6.0-2.0","135","1","2025-08-06 08:51:57","36c45c0696341be0efffe67d72a12abb","78.33.241.66","Mozilla/5.0 (Windows NT 10.0; Win64; x64) AppleWebKit/537.36 (KHTML, like Gecko) Chrome/138.0.0.0 Safari/537.36","WebKit","Chrome","138.0.0.0","Windows","10.0","https://app.prolific.com/","en-GB,en;q=0.9","5e203085ac30fa331b586690","6877649eabb845cf142cd221","6893179b886ed1dc99e06a8c","1","5e203085ac30fa331b586690","1","2025-08-06T08:54:52.479Z","","","","PreMotivationQ","","","","","","","","","","","50","","","","","","","","","","","","","","","","","","","","","","","","","","",""
"","","","","ctl-task-cpt","13","205138","0.0-7.0-0.0","135","1","2025-08-06 08:51:57","36c45c0696341be0efffe67d72a12abb","78.33.241.66","Mozilla/5.0 (Windows NT 10.0; Win64; x64) AppleWebKit/537.36 (KHTML, like Gecko) Chrome/138.0.0.0 Safari/537.36","WebKit","Chrome","138.0.0.0","Windows","10.0","https://app.prolific.com/","en-GB,en;q=0.9","5e203085ac30fa331b586690","6877649eabb845cf142cd221","6893179b886ed1dc99e06a8c","1","5e203085ac30fa331b586690","1","2025-08-06T08:55:24.198Z","","","","","","","","","","","","","","","","win-only","0","g1:NW,g2:SE","1","1","0","175162.4","780.2","5781.8","28713.5","1","4","4","6","2","4","3","3","0","0.022727272727272728","1168.9","3000","1185","[""down"",""right""]","{""num_key_presses"":6,""num_perfect"":5,""num_errors"":1,""num_randdir"":0,""num_randdir_good_moves"":0,""num_whilered"":0,""num_whileblue"":1,""num_blue"":3,""num_good_moves"":6}","[417.57142857142856,410.47767857142856,0.2,417.57142857142856,410.47767857142856,100.9,415.57142857142856,414.47767857142856,200.9,413.57142857142856,409.47767857142856,306.7,339.57142857142856,307.47767857142856,410.7,456.57142857142856,463.47767857142856,511.3,655.5714285714286,676.4776785714286,616.7,658.5714285714286,682.4776785714286,721.8,698.5714285714286,716.4776785714286,822.3,736.5714285714286,738.4776785714286,923.9,736.5714285714286,738.4776785714286,1026.7,736.5714285714286,738.4776785714286,1131,736.5714285714286,738.4776785714286,1232.5,736.5714285714286,738.4776785714286,1336.2,736.5714285714286,738.4776785714286,1441.5,736.5714285714286,738.4776785714286,1548,736.5714285714286,738.4776785714286,1652.2,736.5714285714286,738.4776785714286,1757.5,736.5714285714286,738.4776785714286,1862.4,736.5714285714286,738.4776785714286,1966.4,736.5714285714286,738.4776785714286,2070.3,736.5714285714286,738.4776785714286,2170.6,736.5714285714286,738.4776785714286,2271.7,736.5714285714286,738.4776785714286,2376.6,736.5714285714286,738.4776785714286,2480.9,736.5714285714286,738.4776785714286,2586.4,736.5714285714286,738.4776785714286,2687.1,736.5714285714286,738.4776785714286,2791.8,736.5714285714286,738.4776785714286,2895.6,736.5714285714286,738.4776785714286,2995.8,736.5714285714286,738.4776785714286,3098.5,736.5714285714286,738.4776785714286,3201.7,736.5714285714286,738.4776785714286,3304.7,736.5714285714286,738.4776785714286,3406.5,736.5714285714286,738.4776785714286,3510.6,736.5714285714286,738.4776785714286,3610.7,736.5714285714286,738.4776785714286,3715.9,736.5714285714286,738.4776785714286,3816.4,736.5714285714286,738.4776785714286,3916.9,736.5714285714286,738.4776785714286,4021.5,736.5714285714286,738.4776785714286,4122,736.5714285714286,738.4776785714286,4227.5,736.5714285714286,738.4776785714286,4331.3,736.5714285714286,738.4776785714286,4431.4,736.5714285714286,738.4776785714286,4532.8,736.5714285714286,738.4776785714286,4636.4,736.5714285714286,738.4776785714286,4741.1,736.5714285714286,738.4776785714286,4841.9,736.5714285714286,738.4776785714286,4941.9]","[1374.6,1374.6,1000,0,374.6,""smooth"",""down"",""down"",""good_move"",8615.7,7241,2634.8,5634.3,346.7,""smooth"",""down"",""down"",""good_move"",11305.1,2689,2345.9,8616.1,343.2,""smooth"",""down"",""down"",""good_move"",14193.4,2887.5,2515.3,11306,372.1,""smooth"",""right"",""right"",""good_move"",19694.3,5500.5,2245.8,17034.9,413.6,""smooth"",""right"",""right"",""good_move"",22832.7,3138.1,2824.8,19694.6,313.4,""while_blue"",""right"",""right"",""good_move""]"
"2541","","<div style=""width:500px;"">
  <p>What determined the result of this run?</p>
  </div>","100","html-slider-response","14","207680","0.0-7.0-1.0","135","1","2025-08-06 08:51:57","36c45c0696341be0efffe67d72a12abb","78.33.241.66","Mozilla/5.0 (Windows NT 10.0; Win64; x64) AppleWebKit/537.36 (KHTML, like Gecko) Chrome/138.0.0.0 Safari/537.36","WebKit","Chrome","138.0.0.0","Windows","10.0","https://app.prolific.com/","en-GB,en;q=0.9","5e203085ac30fa331b586690","6877649eabb845cf142cd221","6893179b886ed1dc99e06a8c","1","5e203085ac30fa331b586690","1","2025-08-06T08:55:26.740Z","","","","AttribQ","","","","","","","","","","","50","","","","","","","","","","","","","","","","","","","","","","","","","","",""
"1749","","<div style=""width:500px;"">
  <p>How much control did you have over the ball?</p>
  </div>","100","html-slider-response","15","209430","0.0-7.0-2.0","135","1","2025-08-06 08:51:57","36c45c0696341be0efffe67d72a12abb","78.33.241.66","Mozilla/5.0 (Windows NT 10.0; Win64; x64) AppleWebKit/537.36 (KHTML, like Gecko) Chrome/138.0.0.0 Safari/537.36","WebKit","Chrome","138.0.0.0","Windows","10.0","https://app.prolific.com/","en-GB,en;q=0.9","5e203085ac30fa331b586690","6877649eabb845cf142cd221","6893179b886ed1dc99e06a8c","1","5e203085ac30fa331b586690","1","2025-08-06T08:55:28.490Z","","","","ControlQ","","","","","","","","","","","50","","","","","","","","","","","","","","","","","","","","","","","","","","",""
"2344","","<div style=""width:500px;"">
  <p>How would you describe your current emotional state?</p>
  </div>","22","html-slider-response","16","211776","0.0-7.0-3.0","135","1","2025-08-06 08:51:57","36c45c0696341be0efffe67d72a12abb","78.33.241.66","Mozilla/5.0 (Windows NT 10.0; Win64; x64) AppleWebKit/537.36 (KHTML, like Gecko) Chrome/138.0.0.0 Safari/537.36","WebKit","Chrome","138.0.0.0","Windows","10.0","https://app.prolific.com/","en-GB,en;q=0.9","5e203085ac30fa331b586690","6877649eabb845cf142cd221","6893179b886ed1dc99e06a8c","1","5e203085ac30fa331b586690","1","2025-08-06T08:55:30.836Z","","","","StressQ","","","","","","","","","","","50","","","","","","","","","","","","","","","","","","","","","","","","","","",""
"1780","","<div style=""width:500px;"">
  <p>What best describes how you currently feel?</p>
  </div>","68","html-slider-response","17","213557","0.0-7.0-4.0","135","1","2025-08-06 08:51:57","36c45c0696341be0efffe67d72a12abb","78.33.241.66","Mozilla/5.0 (Windows NT 10.0; Win64; x64) AppleWebKit/537.36 (KHTML, like Gecko) Chrome/138.0.0.0 Safari/537.36","WebKit","Chrome","138.0.0.0","Windows","10.0","https://app.prolific.com/","en-GB,en;q=0.9","5e203085ac30fa331b586690","6877649eabb845cf142cd221","6893179b886ed1dc99e06a8c","1","5e203085ac30fa331b586690","1","2025-08-06T08:55:32.617Z","","","","MotivationQ","","","","","","","","","","","50","","","","","","","","","","","","","","","","","","","","","","","","","","",""
"","","","","ctl-task-cpt","18","254799","0.0-7.0-0.1","135","1","2025-08-06 08:51:57","36c45c0696341be0efffe67d72a12abb","78.33.241.66","Mozilla/5.0 (Windows NT 10.0; Win64; x64) AppleWebKit/537.36 (KHTML, like Gecko) Chrome/138.0.0.0 Safari/537.36","WebKit","Chrome","138.0.0.0","Windows","10.0","https://app.prolific.com/","en-GB,en;q=0.9","5e203085ac30fa331b586690","6877649eabb845cf142cd221","6893179b886ed1dc99e06a8c","1","5e203085ac30fa331b586690","1","2025-08-06T08:56:13.859Z","","","","","","","","","","","","","","","","win-only","3","g1:SW,g2:NE","0.9","2","0","215300.4","890.5","5891.1","38231.7","1","4","8","6","2","8","8","11","3","0.08333333333333333","850","3000","900","[""up"",""right""]","{""num_key_presses"":6,""num_perfect"":5,""num_errors"":0,""num_randdir"":1,""num_randdir_good_moves"":1,""num_whilered"":0,""num_whileblue"":0,""num_blue"":5,""num_good_moves"":6}","[417.57142857142856,426.47767857142856,0.1,417.57142857142856,426.47767857142856,100.1,417.57142857142856,426.47767857142856,200.2,417.57142857142856,426.47767857142856,300.3,512.5714285714286,307.47767857142856,405.2,589.5714285714286,221.47767857142856,511.7,642.5714285714286,177.47767857142856,617.5,697.5714285714286,115.47767857142857,717.8,712.5714285714286,100.47767857142857,817.9,712.5714285714286,100.47767857142857,920.1,712.5714285714286,100.47767857142857,1020.8,712.5714285714286,100.47767857142857,1120.8,712.5714285714286,100.47767857142857,1225.6,712.5714285714286,100.47767857142857,1333.5,712.5714285714286,100.47767857142857,1434.3,712.5714285714286,100.47767857142857,1535.1,712.5714285714286,100.47767857142857,1635.6,712.5714285714286,100.47767857142857,1741.9,712.5714285714286,100.47767857142857,1850.2,712.5714285714286,100.47767857142857,1950.8,712.5714285714286,100.47767857142857,2055.4,712.5714285714286,100.47767857142857,2155.4,712.5714285714286,100.47767857142857,2255.4,712.5714285714286,100.47767857142857,2355.9,712.5714285714286,100.47767857142857,2460.4,712.5714285714286,100.47767857142857,2560.4,712.5714285714286,100.47767857142857,2667.8,712.5714285714286,100.47767857142857,2771.6,712.5714285714286,100.47767857142857,2875.6,712.5714285714286,100.47767857142857,2975.9,712.5714285714286,100.47767857142857,3083.7,712.5714285714286,100.47767857142857,3183.9,712.5714285714286,100.47767857142857,3285.6,712.5714285714286,100.47767857142857,3390,712.5714285714286,100.47767857142857,3491.7,712.5714285714286,100.47767857142857,3600.6,712.5714285714286,100.47767857142857,3705.7,712.5714285714286,100.47767857142857,3806,712.5714285714286,100.47767857142857,3910.8,712.5714285714286,100.47767857142857,4018.2,712.5714285714286,100.47767857142857,4120.7,712.5714285714286,100.47767857142857,4225.9,712.5714285714286,100.47767857142857,4325.9,712.5714285714286,100.47767857142857,4434.2,712.5714285714286,100.47767857142857,4535.1,712.5714285714286,100.47767857142857,4635.1,712.5714285714286,100.47767857142857,4740.1,712.5714285714286,100.47767857142857,4840.9,712.5714285714286,100.47767857142857,4940.9]","[1449.3,1449.3,1000,0,449.3,""smooth"",""right"",""right"",""good_move"",4717.8,3268.3,2917,1449.6,351.2,""smooth"",""right"",""right"",""good_move"",11026.4,6308.3,2696.1,7966.7,363.6,""smooth"",""right"",""right"",""good_move"",23907.7,12881.1,2373.5,21119.9,414.3,""oops"",""up"",""up"",""good_move"",26366.4,2458.3,2033.8,23908.1,424.5,""smooth"",""up"",""up"",""good_move"",32249.7,5883.2,2312.6,29555.2,381.9,""smooth"",""up"",""up"",""good_move""]"
"2278","","<div style=""width:500px;"">
  <p>What determined the result of this run?</p>
  </div>","100","html-slider-response","19","257078","0.0-7.0-1.1","135","1","2025-08-06 08:51:57","36c45c0696341be0efffe67d72a12abb","78.33.241.66","Mozilla/5.0 (Windows NT 10.0; Win64; x64) AppleWebKit/537.36 (KHTML, like Gecko) Chrome/138.0.0.0 Safari/537.36","WebKit","Chrome","138.0.0.0","Windows","10.0","https://app.prolific.com/","en-GB,en;q=0.9","5e203085ac30fa331b586690","6877649eabb845cf142cd221","6893179b886ed1dc99e06a8c","1","5e203085ac30fa331b586690","1","2025-08-06T08:56:16.138Z","","","","AttribQ","","","","","","","","","","","50","","","","","","","","","","","","","","","","","","","","","","","","","","",""
"2000","","<div style=""width:500px;"">
  <p>How much control did you have over the ball?</p>
  </div>","100","html-slider-response","20","259080","0.0-7.0-2.1","135","1","2025-08-06 08:51:57","36c45c0696341be0efffe67d72a12abb","78.33.241.66","Mozilla/5.0 (Windows NT 10.0; Win64; x64) AppleWebKit/537.36 (KHTML, like Gecko) Chrome/138.0.0.0 Safari/537.36","WebKit","Chrome","138.0.0.0","Windows","10.0","https://app.prolific.com/","en-GB,en;q=0.9","5e203085ac30fa331b586690","6877649eabb845cf142cd221","6893179b886ed1dc99e06a8c","1","5e203085ac30fa331b586690","1","2025-08-06T08:56:18.140Z","","","","ControlQ","","","","","","","","","","","50","","","","","","","","","","","","","","","","","","","","","","","","","","",""
"1923","","<div style=""width:500px;"">
  <p>How would you describe your current emotional state?</p>
  </div>","26","html-slider-response","21","261004","0.0-7.0-3.1","135","1","2025-08-06 08:51:57","36c45c0696341be0efffe67d72a12abb","78.33.241.66","Mozilla/5.0 (Windows NT 10.0; Win64; x64) AppleWebKit/537.36 (KHTML, like Gecko) Chrome/138.0.0.0 Safari/537.36","WebKit","Chrome","138.0.0.0","Windows","10.0","https://app.prolific.com/","en-GB,en;q=0.9","5e203085ac30fa331b586690","6877649eabb845cf142cd221","6893179b886ed1dc99e06a8c","1","5e203085ac30fa331b586690","1","2025-08-06T08:56:20.064Z","","","","StressQ","","","","","","","","","","","50","","","","","","","","","","","","","","","","","","","","","","","","","","",""
"2284","","<div style=""width:500px;"">
  <p>What best describes how you currently feel?</p>
  </div>","71","html-slider-response","22","263289","0.0-7.0-4.1","135","1","2025-08-06 08:51:57","36c45c0696341be0efffe67d72a12abb","78.33.241.66","Mozilla/5.0 (Windows NT 10.0; Win64; x64) AppleWebKit/537.36 (KHTML, like Gecko) Chrome/138.0.0.0 Safari/537.36","WebKit","Chrome","138.0.0.0","Windows","10.0","https://app.prolific.com/","en-GB,en;q=0.9","5e203085ac30fa331b586690","6877649eabb845cf142cd221","6893179b886ed1dc99e06a8c","1","5e203085ac30fa331b586690","1","2025-08-06T08:56:22.349Z","","","","MotivationQ","","","","","","","","","","","50","","","","","","","","","","","","","","","","","","","","","","","","","","",""
"","","","","ctl-task-cpt","23","298701","0.0-7.0-0.2","135","1","2025-08-06 08:51:57","36c45c0696341be0efffe67d72a12abb","78.33.241.66","Mozilla/5.0 (Windows NT 10.0; Win64; x64) AppleWebKit/537.36 (KHTML, like Gecko) Chrome/138.0.0.0 Safari/537.36","WebKit","Chrome","138.0.0.0","Windows","10.0","https://app.prolific.com/","en-GB,en;q=0.9","5e203085ac30fa331b586690","6877649eabb845cf142cd221","6893179b886ed1dc99e06a8c","1","5e203085ac30fa331b586690","1","2025-08-06T08:56:57.761Z","","","","","","","","","","","","","","","","win-only","1","g1:NE,g2:SW","0.8","3","0","265034","741.7","5743.8","32386.3","1","4","4","6","2","-4","-5","6","11","0.045454545454545456","918.2","3000","-2895","[""down"",""left""]","{""num_key_presses"":8,""num_perfect"":6,""num_errors"":1,""num_randdir"":1,""num_randdir_good_moves"":0,""num_whilered"":0,""num_whileblue"":1,""num_blue"":2,""num_good_moves"":6}","[416.57142857142856,423.47767857142856,0.5,416.57142857142856,423.47767857142856,103.9,416.57142857142856,423.47767857142856,204.1,438.57142857142856,402.47767857142856,309.7,468.57142857142856,339.47767857142856,416.3,223.57142857142856,648.4776785714286,519.6,182.57142857142856,720.4776785714286,624.2,178.57142857142856,727.4776785714286,724.6,100.57142857142857,759.4776785714286,825,86.57142857142857,763.4776785714286,928.9,86.57142857142857,763.4776785714286,1037.8,84.57142857142857,765.4776785714286,1139,84.57142857142857,765.4776785714286,1245.8,84.57142857142857,765.4776785714286,1345.9,84.57142857142857,765.4776785714286,1450.8,84.57142857142857,765.4776785714286,1552,84.57142857142857,765.4776785714286,1655.6,84.57142857142857,765.4776785714286,1759,84.57142857142857,765.4776785714286,1859.1,84.57142857142857,765.4776785714286,1968.9,84.57142857142857,765.4776785714286,2069.1,84.57142857142857,765.4776785714286,2174.3,84.57142857142857,765.4776785714286,2274.4,84.57142857142857,765.4776785714286,2374.5,84.57142857142857,765.4776785714286,2478.8,84.57142857142857,765.4776785714286,2579.3,84.57142857142857,765.4776785714286,2684.4,84.57142857142857,765.4776785714286,2789.8,84.57142857142857,765.4776785714286,2893.8,84.57142857142857,765.4776785714286,2994.3,84.57142857142857,765.4776785714286,3094.4,84.57142857142857,765.4776785714286,3194.9,84.57142857142857,765.4776785714286,3298.6,84.57142857142857,765.4776785714286,3402.2,84.57142857142857,765.4776785714286,3504.6,84.57142857142857,765.4776785714286,3609.1,84.57142857142857,765.4776785714286,3709.2,84.57142857142857,765.4776785714286,3814.3,84.57142857142857,765.4776785714286,3921.1,84.57142857142857,765.4776785714286,4024.2,84.57142857142857,765.4776785714286,4131.1,84.57142857142857,765.4776785714286,4233,84.57142857142857,765.4776785714286,4334.1,84.57142857142857,765.4776785714286,4434.3,84.57142857142857,765.4776785714286,4539,84.57142857142857,765.4776785714286,4639.6,84.57142857142857,765.4776785714286,4744.9,84.57142857142857,765.4776785714286,4849.1,84.57142857142857,765.4776785714286,4954.6]","[1455.3,1455.3,1000,0,455.3,""smooth"",""down"",""down"",""good_move"",4217,2761.4,2376,1455.7,385.3,""smooth"",""down"",""down"",""good_move"",7218.2,3001,2600.2,4217.2,400.8,""smooth"",""down"",""down"",""good_move"",10506.3,3287,2876.1,7219.4,410.9,""oops"",""left"",""right"",""bad_move"",12877.8,2371,1995.1,10506.8,375.9,""smooth"",""left"",""left"",""good_move"",15503.9,2625,2242.3,12879.1,382.6,""smooth"",""left"",""left"",""good_move"",18108.7,2604.6,2255.5,15504.1,349.1,""smooth"",""left"",""left"",""good_move"",23655,5546.1,2159.4,21206.4,289.2,""while_blue"",""left"",""right"",""bad_move""]"
"2739","","<div style=""width:500px;"">
  <p>What determined the result of this run?</p>
  </div>","59","html-slider-response","24","301442","0.0-7.0-1.2","135","1","2025-08-06 08:51:57","36c45c0696341be0efffe67d72a12abb","78.33.241.66","Mozilla/5.0 (Windows NT 10.0; Win64; x64) AppleWebKit/537.36 (KHTML, like Gecko) Chrome/138.0.0.0 Safari/537.36","WebKit","Chrome","138.0.0.0","Windows","10.0","https://app.prolific.com/","en-GB,en;q=0.9","5e203085ac30fa331b586690","6877649eabb845cf142cd221","6893179b886ed1dc99e06a8c","1","5e203085ac30fa331b586690","1","2025-08-06T08:57:00.502Z","","","","AttribQ","","","","","","","","","","","50","","","","","","","","","","","","","","","","","","","","","","","","","","",""
"1498","","<div style=""width:500px;"">
  <p>How much control did you have over the ball?</p>
  </div>","64","html-slider-response","25","302941","0.0-7.0-2.2","135","1","2025-08-06 08:51:57","36c45c0696341be0efffe67d72a12abb","78.33.241.66","Mozilla/5.0 (Windows NT 10.0; Win64; x64) AppleWebKit/537.36 (KHTML, like Gecko) Chrome/138.0.0.0 Safari/537.36","WebKit","Chrome","138.0.0.0","Windows","10.0","https://app.prolific.com/","en-GB,en;q=0.9","5e203085ac30fa331b586690","6877649eabb845cf142cd221","6893179b886ed1dc99e06a8c","1","5e203085ac30fa331b586690","1","2025-08-06T08:57:02.001Z","","","","ControlQ","","","","","","","","","","","50","","","","","","","","","","","","","","","","","","","","","","","","","","",""
"2764","","<div style=""width:500px;"">
  <p>How would you describe your current emotional state?</p>
  </div>","31","html-slider-response","26","305707","0.0-7.0-3.2","135","1","2025-08-06 08:51:57","36c45c0696341be0efffe67d72a12abb","78.33.241.66","Mozilla/5.0 (Windows NT 10.0; Win64; x64) AppleWebKit/537.36 (KHTML, like Gecko) Chrome/138.0.0.0 Safari/537.36","WebKit","Chrome","138.0.0.0","Windows","10.0","https://app.prolific.com/","en-GB,en;q=0.9","5e203085ac30fa331b586690","6877649eabb845cf142cd221","6893179b886ed1dc99e06a8c","1","5e203085ac30fa331b586690","1","2025-08-06T08:57:04.767Z","","","","StressQ","","","","","","","","","","","50","","","","","","","","","","","","","","","","","","","","","","","","","","",""
"1183","","<div style=""width:500px;"">
  <p>What best describes how you currently feel?</p>
  </div>","69","html-slider-response","27","306892","0.0-7.0-4.2","135","1","2025-08-06 08:51:57","36c45c0696341be0efffe67d72a12abb","78.33.241.66","Mozilla/5.0 (Windows NT 10.0; Win64; x64) AppleWebKit/537.36 (KHTML, like Gecko) Chrome/138.0.0.0 Safari/537.36","WebKit","Chrome","138.0.0.0","Windows","10.0","https://app.prolific.com/","en-GB,en;q=0.9","5e203085ac30fa331b586690","6877649eabb845cf142cd221","6893179b886ed1dc99e06a8c","1","5e203085ac30fa331b586690","1","2025-08-06T08:57:05.952Z","","","","MotivationQ","","","","","","","","","","","50","","","","","","","","","","","","","","","","","","","","","","","","","","",""
"","","","","ctl-task-cpt","28","345736","0.0-7.0-0.3","135","1","2025-08-06 08:51:57","36c45c0696341be0efffe67d72a12abb","78.33.241.66","Mozilla/5.0 (Windows NT 10.0; Win64; x64) AppleWebKit/537.36 (KHTML, like Gecko) Chrome/138.0.0.0 Safari/537.36","WebKit","Chrome","138.0.0.0","Windows","10.0","https://app.prolific.com/","en-GB,en;q=0.9","5e203085ac30fa331b586690","6877649eabb845cf142cd221","6893179b886ed1dc99e06a8c","1","5e203085ac30fa331b586690","1","2025-08-06T08:57:44.796Z","","","","","","","","","","","","","","","","win-only","1","g1:NE,g2:SW","0.7","4","0","308636.9","794.8","5795.4","35825.7","1","4","8","6","2","-8","-8","0","6","0","961.9","3000","-2670","[""down"",""left""]","{""num_key_presses"":9,""num_perfect"":6,""num_errors"":0,""num_randdir"":3,""num_randdir_good_moves"":0,""num_whilered"":0,""num_whileblue"":0,""num_blue"":1,""num_good_moves"":6}","[416.57142857142856,419.47767857142856,0.2,416.57142857142856,419.47767857142856,100.9,416.57142857142856,420.47767857142856,201.3,416.57142857142856,422.47767857142856,302,438.57142857142856,381.47767857142856,406.2,325.57142857142856,510.47767857142856,510.6,252.57142857142856,618.4776785714286,611.5,205.57142857142856,668.4776785714286,711.5,150.57142857142856,702.4776785714286,816.2,107.57142857142857,724.4776785714286,920.5,107.57142857142857,724.4776785714286,1026.7,109.57142857142857,724.4776785714286,1126.9,109.57142857142857,724.4776785714286,1230.3,109.57142857142857,724.4776785714286,1330.7,109.57142857142857,724.4776785714286,1431.5,109.57142857142857,724.4776785714286,1536.4,109.57142857142857,724.4776785714286,1644.6,109.57142857142857,724.4776785714286,1746,109.57142857142857,724.4776785714286,1851.5,109.57142857142857,724.4776785714286,1956.6,109.57142857142857,724.4776785714286,2056.7,109.57142857142857,724.4776785714286,2158.2,109.57142857142857,724.4776785714286,2259.4,109.57142857142857,724.4776785714286,2361.9,109.57142857142857,724.4776785714286,2466.5,109.57142857142857,724.4776785714286,2571.1,109.57142857142857,724.4776785714286,2671.2,109.57142857142857,724.4776785714286,2778.9,109.57142857142857,724.4776785714286,2880.7,109.57142857142857,724.4776785714286,2980.8,109.57142857142857,724.4776785714286,3086,109.57142857142857,724.4776785714286,3186.5,109.57142857142857,724.4776785714286,3291,109.57142857142857,724.4776785714286,3394.2,109.57142857142857,724.4776785714286,3497.7,109.57142857142857,724.4776785714286,3600.4,109.57142857142857,724.4776785714286,3701,109.57142857142857,724.4776785714286,3801.1,109.57142857142857,724.4776785714286,3901.2,109.57142857142857,724.4776785714286,4006.3,109.57142857142857,724.4776785714286,4107,109.57142857142857,724.4776785714286,4211.1,109.57142857142857,724.4776785714286,4315.6,109.57142857142857,724.4776785714286,4416.3,109.57142857142857,724.4776785714286,4520.7,109.57142857142857,724.4776785714286,4620.7,109.57142857142857,724.4776785714286,4723,109.57142857142857,724.4776785714286,4828.4,109.57142857142857,724.4776785714286,4928.4]","[1412.9,1412.9,1000,0,412.9,""smooth"",""down"",""down"",""good_move"",4229.2,2815.9,2400,1413.3,415.9,""smooth"",""down"",""down"",""good_move"",7814.1,3584.7,3207.7,4229.4,377,""oops"",""down"",""up"",""bad_move"",10241.2,2426.9,2074.1,7814.4,352.8,""smooth"",""down"",""down"",""good_move"",15497.4,5255.4,1847.8,13315.1,334.5,""smooth"",""down"",""down"",""good_move"",18377.9,2880.3,2511.3,15497.6,369,""smooth"",""left"",""left"",""good_move"",20843.3,2465.1,2076.8,18378.3,388.2,""smooth"",""left"",""left"",""good_move"",23580.8,2737.1,2367.9,20843.7,369.2,""oops"",""left"",""right"",""bad_move"",26698.1,3117.2,2821.4,23580.9,295.8,""oops"",""left"",""up"",""bad_move""]"
"5336","","<div style=""width:500px;"">
  <p>What determined the result of this run?</p>
  </div>","54","html-slider-response","29","351073","0.0-7.0-1.3","135","1","2025-08-06 08:51:57","36c45c0696341be0efffe67d72a12abb","78.33.241.66","Mozilla/5.0 (Windows NT 10.0; Win64; x64) AppleWebKit/537.36 (KHTML, like Gecko) Chrome/138.0.0.0 Safari/537.36","WebKit","Chrome","138.0.0.0","Windows","10.0","https://app.prolific.com/","en-GB,en;q=0.9","5e203085ac30fa331b586690","6877649eabb845cf142cd221","6893179b886ed1dc99e06a8c","1","5e203085ac30fa331b586690","1","2025-08-06T08:57:50.133Z","","","","AttribQ","","","","","","","","","","","50","","","","","","","","","","","","","","","","","","","","","","","","","","",""
"1930","","<div style=""width:500px;"">
  <p>How much control did you have over the ball?</p>
  </div>","54","html-slider-response","30","353005","0.0-7.0-2.3","135","1","2025-08-06 08:51:57","36c45c0696341be0efffe67d72a12abb","78.33.241.66","Mozilla/5.0 (Windows NT 10.0; Win64; x64) AppleWebKit/537.36 (KHTML, like Gecko) Chrome/138.0.0.0 Safari/537.36","WebKit","Chrome","138.0.0.0","Windows","10.0","https://app.prolific.com/","en-GB,en;q=0.9","5e203085ac30fa331b586690","6877649eabb845cf142cd221","6893179b886ed1dc99e06a8c","1","5e203085ac30fa331b586690","1","2025-08-06T08:57:52.065Z","","","","ControlQ","","","","","","","","","","","50","","","","","","","","","","","","","","","","","","","","","","","","","","",""
"2415","","<div style=""width:500px;"">
  <p>How would you describe your current emotional state?</p>
  </div>","28","html-slider-response","31","355420","0.0-7.0-3.3","135","1","2025-08-06 08:51:57","36c45c0696341be0efffe67d72a12abb","78.33.241.66","Mozilla/5.0 (Windows NT 10.0; Win64; x64) AppleWebKit/537.36 (KHTML, like Gecko) Chrome/138.0.0.0 Safari/537.36","WebKit","Chrome","138.0.0.0","Windows","10.0","https://app.prolific.com/","en-GB,en;q=0.9","5e203085ac30fa331b586690","6877649eabb845cf142cd221","6893179b886ed1dc99e06a8c","1","5e203085ac30fa331b586690","1","2025-08-06T08:57:54.480Z","","","","StressQ","","","","","","","","","","","50","","","","","","","","","","","","","","","","","","","","","","","","","","",""
"1685","","<div style=""width:500px;"">
  <p>What best describes how you currently feel?</p>
  </div>","62","html-slider-response","32","357107","0.0-7.0-4.3","135","1","2025-08-06 08:51:57","36c45c0696341be0efffe67d72a12abb","78.33.241.66","Mozilla/5.0 (Windows NT 10.0; Win64; x64) AppleWebKit/537.36 (KHTML, like Gecko) Chrome/138.0.0.0 Safari/537.36","WebKit","Chrome","138.0.0.0","Windows","10.0","https://app.prolific.com/","en-GB,en;q=0.9","5e203085ac30fa331b586690","6877649eabb845cf142cd221","6893179b886ed1dc99e06a8c","1","5e203085ac30fa331b586690","1","2025-08-06T08:57:56.167Z","","","","MotivationQ","","","","","","","","","","","50","","","","","","","","","","","","","","","","","","","","","","","","","","",""
"","","","","ctl-task-cpt","33","399972","0.0-7.0-0.4","135","1","2025-08-06 08:51:57","36c45c0696341be0efffe67d72a12abb","78.33.241.66","Mozilla/5.0 (Windows NT 10.0; Win64; x64) AppleWebKit/537.36 (KHTML, like Gecko) Chrome/138.0.0.0 Safari/537.36","WebKit","Chrome","138.0.0.0","Windows","10.0","https://app.prolific.com/","en-GB,en;q=0.9","5e203085ac30fa331b586690","6877649eabb845cf142cd221","6893179b886ed1dc99e06a8c","1","5e203085ac30fa331b586690","1","2025-08-06T08:58:39.032Z","","","","","","","","","","","","","","","","win-only","2","g1:SE,g2:NW","0.6","5","0","358851.9","874.2","5878","39845.1","1","4","4","6","2","-4","-4","0","0","0","1009.8","3000","-2445","[""left"",""up""]","{""num_key_presses"":10,""num_perfect"":6,""num_errors"":0,""num_randdir"":4,""num_randdir_good_moves"":1,""num_whilered"":0,""num_whileblue"":0,""num_blue"":1,""num_good_moves"":7}","[424.57142857142856,421.47767857142856,0.1,424.57142857142856,421.47767857142856,102.4,424.57142857142856,421.47767857142856,207,450.57142857142856,462.47767857142856,319.6,642.5714285714286,701.4776785714286,420.5,693.5714285714286,753.4776785714286,521.5,283.57142857142856,338.47767857142856,621.8,141.57142857142856,191.47767857142856,726.6,112.57142857142857,142.47767857142856,826.9,80.57142857142857,101.47767857142857,937.1,79.57142857142857,98.47767857142857,1037.7,79.57142857142857,98.47767857142857,1142.8,79.57142857142857,98.47767857142857,1251.6,79.57142857142857,98.47767857142857,1353.7,79.57142857142857,98.47767857142857,1457.4,79.57142857142857,98.47767857142857,1568.7,79.57142857142857,98.47767857142857,1669.9,79.57142857142857,98.47767857142857,1770.6,79.57142857142857,98.47767857142857,1872.1,79.57142857142857,98.47767857142857,1977,79.57142857142857,98.47767857142857,2078.1,79.57142857142857,98.47767857142857,2185.5,79.57142857142857,98.47767857142857,2285.8,79.57142857142857,98.47767857142857,2386.6,79.57142857142857,98.47767857142857,2487.4,79.57142857142857,98.47767857142857,2591.7,79.57142857142857,98.47767857142857,2692.1,79.57142857142857,98.47767857142857,2802.3,79.57142857142857,98.47767857142857,2907.5,79.57142857142857,98.47767857142857,3019.4,79.57142857142857,98.47767857142857,3121.5,79.57142857142857,98.47767857142857,3221.9,79.57142857142857,98.47767857142857,3321.9,79.57142857142857,98.47767857142857,3435.5,79.57142857142857,98.47767857142857,3535.5,79.57142857142857,98.47767857142857,3637.8,79.57142857142857,98.47767857142857,3742.4,79.57142857142857,98.47767857142857,3853.4,79.57142857142857,98.47767857142857,3957.1,79.57142857142857,98.47767857142857,4057.1,79.57142857142857,98.47767857142857,4157.6,79.57142857142857,98.47767857142857,4269.5,79.57142857142857,98.47767857142857,4371.6,79.57142857142857,98.47767857142857,4471.8,79.57142857142857,98.47767857142857,4572.1,79.57142857142857,98.47767857142857,4686,79.57142857142857,98.47767857142857,4788.1,79.57142857142857,98.47767857142857,4891.5]","[1382.5,1382.5,1000,0,382.5,""smooth"",""left"",""left"",""good_move"",4164.6,2781.8,2418.7,1382.8,363.1,""oops"",""left"",""left"",""good_move"",7166.7,3001.7,2646.4,4165,355.3,""oops"",""left"",""right"",""bad_move"",14181.6,7014.7,2629,11238.7,313.9,""smooth"",""left"",""left"",""good_move"",17247.5,3065.7,2730,14181.8,335.7,""smooth"",""left"",""left"",""good_move"",20381.3,3133.6,2827,17247.7,306.6,""oops"",""up"",""down"",""bad_move"",22967.6,2585.8,2207.8,20381.8,378,""smooth"",""up"",""up"",""good_move"",26330.6,3362.3,3046.9,22968.3,315.4,""smooth"",""up"",""up"",""good_move"",29166.4,2835.6,2502.1,26330.8,333.5,""oops"",""up"",""down"",""bad_move"",31115.6,1948.5,1500.3,29167.1,448.2,""smooth"",""up"",""up"",""good_move""]"
"3727","","<div style=""width:500px;"">
  <p>What determined the result of this run?</p>
  </div>","56","html-slider-response","34","403701","0.0-7.0-1.4","135","1","2025-08-06 08:51:57","36c45c0696341be0efffe67d72a12abb","78.33.241.66","Mozilla/5.0 (Windows NT 10.0; Win64; x64) AppleWebKit/537.36 (KHTML, like Gecko) Chrome/138.0.0.0 Safari/537.36","WebKit","Chrome","138.0.0.0","Windows","10.0","https://app.prolific.com/","en-GB,en;q=0.9","5e203085ac30fa331b586690","6877649eabb845cf142cd221","6893179b886ed1dc99e06a8c","1","5e203085ac30fa331b586690","1","2025-08-06T08:58:42.762Z","","","","AttribQ","","","","","","","","","","","50","","","","","","","","","","","","","","","","","","","","","","","","","","",""
"2182","","<div style=""width:500px;"">
  <p>How much control did you have over the ball?</p>
  </div>","54","html-slider-response","35","405889","0.0-7.0-2.4","135","1","2025-08-06 08:51:57","36c45c0696341be0efffe67d72a12abb","78.33.241.66","Mozilla/5.0 (Windows NT 10.0; Win64; x64) AppleWebKit/537.36 (KHTML, like Gecko) Chrome/138.0.0.0 Safari/537.36","WebKit","Chrome","138.0.0.0","Windows","10.0","https://app.prolific.com/","en-GB,en;q=0.9","5e203085ac30fa331b586690","6877649eabb845cf142cd221","6893179b886ed1dc99e06a8c","1","5e203085ac30fa331b586690","1","2025-08-06T08:58:44.949Z","","","","ControlQ","","","","","","","","","","","50","","","","","","","","","","","","","","","","","","","","","","","","","","",""
"1446","","<div style=""width:500px;"">
  <p>How would you describe your current emotional state?</p>
  </div>","30","html-slider-response","36","407339","0.0-7.0-3.4","135","1","2025-08-06 08:51:57","36c45c0696341be0efffe67d72a12abb","78.33.241.66","Mozilla/5.0 (Windows NT 10.0; Win64; x64) AppleWebKit/537.36 (KHTML, like Gecko) Chrome/138.0.0.0 Safari/537.36","WebKit","Chrome","138.0.0.0","Windows","10.0","https://app.prolific.com/","en-GB,en;q=0.9","5e203085ac30fa331b586690","6877649eabb845cf142cd221","6893179b886ed1dc99e06a8c","1","5e203085ac30fa331b586690","1","2025-08-06T08:58:46.399Z","","","","StressQ","","","","","","","","","","","50","","","","","","","","","","","","","","","","","","","","","","","","","","",""
"1346","","<div style=""width:500px;"">
  <p>What best describes how you currently feel?</p>
  </div>","64","html-slider-response","37","408686","0.0-7.0-4.4","135","1","2025-08-06 08:51:57","36c45c0696341be0efffe67d72a12abb","78.33.241.66","Mozilla/5.0 (Windows NT 10.0; Win64; x64) AppleWebKit/537.36 (KHTML, like Gecko) Chrome/138.0.0.0 Safari/537.36","WebKit","Chrome","138.0.0.0","Windows","10.0","https://app.prolific.com/","en-GB,en;q=0.9","5e203085ac30fa331b586690","6877649eabb845cf142cd221","6893179b886ed1dc99e06a8c","1","5e203085ac30fa331b586690","1","2025-08-06T08:58:47.746Z","","","","MotivationQ","","","","","","","","","","","50","","","","","","","","","","","","","","","","","","","","","","","","","","",""
"","","","","ctl-task-cpt","38","447538","0.0-7.0-0.5","135","1","2025-08-06 08:51:57","36c45c0696341be0efffe67d72a12abb","78.33.241.66","Mozilla/5.0 (Windows NT 10.0; Win64; x64) AppleWebKit/537.36 (KHTML, like Gecko) Chrome/138.0.0.0 Safari/537.36","WebKit","Chrome","138.0.0.0","Windows","10.0","https://app.prolific.com/","en-GB,en;q=0.9","5e203085ac30fa331b586690","6877649eabb845cf142cd221","6893179b886ed1dc99e06a8c","1","5e203085ac30fa331b586690","1","2025-08-06T08:59:26.598Z","","","","","","","","","","","","","","","","win-only","1","g1:NE,g2:SW","0.5","6","0","410431.2","767.9","5782.1","35820.8","1","4","8","6","2","8","8","8","0","0.06060606060606061","798.2","3000","275","[""down"",""left""]","{""num_key_presses"":10,""num_perfect"":5,""num_errors"":0,""num_randdir"":5,""num_randdir_good_moves"":3,""num_whilered"":0,""num_whileblue"":0,""num_blue"":1,""num_good_moves"":8}","[417.57142857142856,411.47767857142856,0.1,417.57142857142856,411.47767857142856,103.1,408.57142857142856,418.47767857142856,212.1,417.57142857142856,391.47767857142856,312.5,430.57142857142856,341.47767857142856,412.9,155.57142857142856,629.4776785714286,513.5,93.57142857142857,718.4776785714286,618.4,84.57142857142857,757.4776785714286,722.6,84.57142857142857,758.4776785714286,831.2,84.57142857142857,758.4776785714286,933.2,84.57142857142857,758.4776785714286,1048.7,84.57142857142857,758.4776785714286,1150.7,84.57142857142857,758.4776785714286,1252.3,84.57142857142857,758.4776785714286,1352.4,84.57142857142857,758.4776785714286,1453.5,84.57142857142857,758.4776785714286,1558.1,84.57142857142857,758.4776785714286,1659.3,84.57142857142857,758.4776785714286,1765.6,84.57142857142857,758.4776785714286,1868.3,84.57142857142857,758.4776785714286,1981.3,84.57142857142857,758.4776785714286,2082.9,84.57142857142857,758.4776785714286,2187.8,84.57142857142857,758.4776785714286,2297.2,84.57142857142857,758.4776785714286,2397.3,84.57142857142857,758.4776785714286,2498.3,84.57142857142857,758.4776785714286,2598.3,84.57142857142857,758.4776785714286,2703.7,84.57142857142857,758.4776785714286,2807.8,84.57142857142857,758.4776785714286,2912.9,84.57142857142857,758.4776785714286,3013.4,84.57142857142857,758.4776785714286,3113.8,84.57142857142857,758.4776785714286,3217.7,84.57142857142857,758.4776785714286,3317.8,84.57142857142857,758.4776785714286,3418.3,84.57142857142857,758.4776785714286,3522.8,84.57142857142857,758.4776785714286,3628.6,84.57142857142857,758.4776785714286,3733.6,84.57142857142857,758.4776785714286,3837.9,84.57142857142857,758.4776785714286,3938,84.57142857142857,758.4776785714286,4047.7,84.57142857142857,758.4776785714286,4148.4,84.57142857142857,758.4776785714286,4252.4,84.57142857142857,758.4776785714286,4354.1,84.57142857142857,758.4776785714286,4464.4,84.57142857142857,758.4776785714286,4567.8,84.57142857142857,758.4776785714286,4668,84.57142857142857,758.4776785714286,4772.5,84.57142857142857,758.4776785714286,4881.3,84.57142857142857,758.4776785714286,4982.7]","[1353,1353,1000,0,353,""smooth"",""down"",""down"",""good_move"",4132.1,2778.7,2413.6,1353.4,365.1,""smooth"",""down"",""down"",""good_move"",7116.2,2983.8,2662.1,4132.4,321.7,""oops"",""down"",""up"",""bad_move"",13181.5,6065,2361.7,10474,345.8,""oops"",""down"",""down"",""good_move"",15516.1,2334.4,1956.7,13181.7,377.7,""oops"",""down"",""up"",""bad_move"",18422.6,2906.4,2517.9,15516.2,388.5,""smooth"",""down"",""down"",""good_move"",21366,2943.4,2580.5,18422.6,362.9,""oops"",""down"",""down"",""good_move"",23833.3,2467.1,2119.7,21366.2,347.4,""smooth"",""left"",""left"",""good_move"",27084.8,3251.2,2934.6,23833.7,316.5,""oops"",""left"",""left"",""good_move"",29933.1,2848.1,2536.5,27085,311.6,""smooth"",""left"",""left"",""good_move""]"
"3014","","<div style=""width:500px;"">
  <p>What determined the result of this run?</p>
  </div>","75","html-slider-response","39","450555","0.0-7.0-1.5","135","1","2025-08-06 08:51:57","36c45c0696341be0efffe67d72a12abb","78.33.241.66","Mozilla/5.0 (Windows NT 10.0; Win64; x64) AppleWebKit/537.36 (KHTML, like Gecko) Chrome/138.0.0.0 Safari/537.36","WebKit","Chrome","138.0.0.0","Windows","10.0","https://app.prolific.com/","en-GB,en;q=0.9","5e203085ac30fa331b586690","6877649eabb845cf142cd221","6893179b886ed1dc99e06a8c","1","5e203085ac30fa331b586690","1","2025-08-06T08:59:29.615Z","","","","AttribQ","","","","","","","","","","","50","","","","","","","","","","","","","","","","","","","","","","","","","","",""
"2744","","<div style=""width:500px;"">
  <p>How much control did you have over the ball?</p>
  </div>","73","html-slider-response","40","453305","0.0-7.0-2.5","135","1","2025-08-06 08:51:57","36c45c0696341be0efffe67d72a12abb","78.33.241.66","Mozilla/5.0 (Windows NT 10.0; Win64; x64) AppleWebKit/537.36 (KHTML, like Gecko) Chrome/138.0.0.0 Safari/537.36","WebKit","Chrome","138.0.0.0","Windows","10.0","https://app.prolific.com/","en-GB,en;q=0.9","5e203085ac30fa331b586690","6877649eabb845cf142cd221","6893179b886ed1dc99e06a8c","1","5e203085ac30fa331b586690","1","2025-08-06T08:59:32.365Z","","","","ControlQ","","","","","","","","","","","50","","","","","","","","","","","","","","","","","","","","","","","","","","",""
"2201","","<div style=""width:500px;"">
  <p>How would you describe your current emotional state?</p>
  </div>","28","html-slider-response","41","455513","0.0-7.0-3.5","135","1","2025-08-06 08:51:57","36c45c0696341be0efffe67d72a12abb","78.33.241.66","Mozilla/5.0 (Windows NT 10.0; Win64; x64) AppleWebKit/537.36 (KHTML, like Gecko) Chrome/138.0.0.0 Safari/537.36","WebKit","Chrome","138.0.0.0","Windows","10.0","https://app.prolific.com/","en-GB,en;q=0.9","5e203085ac30fa331b586690","6877649eabb845cf142cd221","6893179b886ed1dc99e06a8c","1","5e203085ac30fa331b586690","1","2025-08-06T08:59:34.574Z","","","","StressQ","","","","","","","","","","","50","","","","","","","","","","","","","","","","","","","","","","","","","","",""
"3569","","<div style=""width:500px;"">
  <p>What best describes how you currently feel?</p>
  </div>","68","html-slider-response","42","459090","0.0-7.0-4.5","135","1","2025-08-06 08:51:57","36c45c0696341be0efffe67d72a12abb","78.33.241.66","Mozilla/5.0 (Windows NT 10.0; Win64; x64) AppleWebKit/537.36 (KHTML, like Gecko) Chrome/138.0.0.0 Safari/537.36","WebKit","Chrome","138.0.0.0","Windows","10.0","https://app.prolific.com/","en-GB,en;q=0.9","5e203085ac30fa331b586690","6877649eabb845cf142cd221","6893179b886ed1dc99e06a8c","1","5e203085ac30fa331b586690","1","2025-08-06T08:59:38.151Z","","","","MotivationQ","","","","","","","","","","","50","","","","","","","","","","","","","","","","","","","","","","","","","","",""
"","","","","ctl-task-cpt","43","518521","0.0-7.0-0.6","135","1","2025-08-06 08:51:57","36c45c0696341be0efffe67d72a12abb","78.33.241.66","Mozilla/5.0 (Windows NT 10.0; Win64; x64) AppleWebKit/537.36 (KHTML, like Gecko) Chrome/138.0.0.0 Safari/537.36","WebKit","Chrome","138.0.0.0","Windows","10.0","https://app.prolific.com/","en-GB,en;q=0.9","5e203085ac30fa331b586690","6877649eabb845cf142cd221","6893179b886ed1dc99e06a8c","1","5e203085ac30fa331b586690","1","2025-08-06T09:00:37.581Z","","","","","","","","","","","","","","","","win-only","1","g1:NE,g2:SW","0.4","7","0","460843.2","1054.2","6056.4","56390.6","1","4","4","6","2","-4","-5","3","8","0.022727272727272728","835.3","3000","-2220","[""down"",""left""]","{""num_key_presses"":12,""num_perfect"":5,""num_errors"":1,""num_randdir"":6,""num_randdir_good_moves"":2,""num_whilered"":0,""num_whileblue"":1,""num_blue"":5,""num_good_moves"":8}","[420.57142857142856,416.47767857142856,0.2,420.57142857142856,416.47767857142856,101.9,420.57142857142856,416.47767857142856,202.2,420.57142857142856,416.47767857142856,302.2,215.57142857142856,549.4776785714286,418,-37.42857142857143,721.4776785714286,521.5,-30.42857142857143,743.4776785714286,623.2,13.57142857142857,737.4776785714286,728.1,36.57142857142857,737.4776785714286,831.5,36.57142857142857,737.4776785714286,932.4,36.57142857142857,737.4776785714286,1033.1,36.57142857142857,737.4776785714286,1135.8,36.57142857142857,737.4776785714286,1236.9,36.57142857142857,737.4776785714286,1342.9,36.57142857142857,737.4776785714286,1446.9,36.57142857142857,737.4776785714286,1551.8,36.57142857142857,737.4776785714286,1652,36.57142857142857,737.4776785714286,1753,36.57142857142857,737.4776785714286,1867.6,36.57142857142857,737.4776785714286,1971.8,36.57142857142857,737.4776785714286,2072.1,36.57142857142857,737.4776785714286,2177.4,36.57142857142857,737.4776785714286,2277.5,36.57142857142857,737.4776785714286,2377.7,36.57142857142857,737.4776785714286,2478,36.57142857142857,737.4776785714286,2581.8,36.57142857142857,737.4776785714286,2681.9,36.57142857142857,737.4776785714286,2781.9,36.57142857142857,737.4776785714286,2886.7,36.57142857142857,737.4776785714286,3002.2,36.57142857142857,737.4776785714286,3106.7,36.57142857142857,737.4776785714286,3212.6,36.57142857142857,737.4776785714286,3313,36.57142857142857,737.4776785714286,3416.7,36.57142857142857,737.4776785714286,3521.3,36.57142857142857,737.4776785714286,3621.9,36.57142857142857,737.4776785714286,3733,36.57142857142857,737.4776785714286,3833.2,36.57142857142857,737.4776785714286,3935.6,36.57142857142857,737.4776785714286,4035.6,36.57142857142857,737.4776785714286,4137.6,36.57142857142857,737.4776785714286,4241.2,36.57142857142857,737.4776785714286,4341.4,36.57142857142857,737.4776785714286,4441.8,36.57142857142857,737.4776785714286,4546.5,36.57142857142857,737.4776785714286,4647.6,36.57142857142857,737.4776785714286,4751.6,36.57142857142857,737.4776785714286,4866.9,36.57142857142857,737.4776785714286,4969]","[5130.5,5130.5,2703.2,2015.7,411.7,""oops"",""down"",""left"",""good_move"",11048.6,5917,1827.1,8769.4,452.1,""oops"",""down"",""up"",""bad_move"",13899,2850.1,2491.8,11048.9,358.3,""smooth"",""down"",""down"",""good_move"",17552.5,3652.7,3256.1,13899.8,396.6,""smooth"",""down"",""down"",""good_move"",20780.7,3228,2695,17552.7,533,""smooth"",""down"",""down"",""good_move"",23333.9,2552.4,2263,20781.5,289.4,""while_blue"",""down"",""down"",""good_move"",33398.7,10064.5,2393.9,30614.6,390.2,""oops"",""left"",""right"",""bad_move"",36364.5,2965.5,2627.5,33399,338,""oops"",""left"",""up"",""bad_move"",38648.6,2283.8,1905.3,36364.8,378.5,""oops"",""left"",""right"",""bad_move"",41458.5,2809.7,2519.4,38648.8,290.3,""smooth"",""left"",""left"",""good_move"",44214.1,2754.8,2466.8,41459.3,288,""oops"",""left"",""left"",""good_move"",47530.2,3315.9,2992.4,44214.3,323.5,""smooth"",""left"",""left"",""good_move""]"
"3444","","<div style=""width:500px;"">
  <p>What determined the result of this run?</p>
  </div>","58","html-slider-response","44","521967","0.0-7.0-1.6","135","1","2025-08-06 08:51:57","36c45c0696341be0efffe67d72a12abb","78.33.241.66","Mozilla/5.0 (Windows NT 10.0; Win64; x64) AppleWebKit/537.36 (KHTML, like Gecko) Chrome/138.0.0.0 Safari/537.36","WebKit","Chrome","138.0.0.0","Windows","10.0","https://app.prolific.com/","en-GB,en;q=0.9","5e203085ac30fa331b586690","6877649eabb845cf142cd221","6893179b886ed1dc99e06a8c","1","5e203085ac30fa331b586690","1","2025-08-06T09:00:41.028Z","","","","AttribQ","","","","","","","","","","","50","","","","","","","","","","","","","","","","","","","","","","","","","","",""
"2707","","<div style=""width:500px;"">
  <p>How much control did you have over the ball?</p>
  </div>","55","html-slider-response","45","524682","0.0-7.0-2.6","135","1","2025-08-06 08:51:57","36c45c0696341be0efffe67d72a12abb","78.33.241.66","Mozilla/5.0 (Windows NT 10.0; Win64; x64) AppleWebKit/537.36 (KHTML, like Gecko) Chrome/138.0.0.0 Safari/537.36","WebKit","Chrome","138.0.0.0","Windows","10.0","https://app.prolific.com/","en-GB,en;q=0.9","5e203085ac30fa331b586690","6877649eabb845cf142cd221","6893179b886ed1dc99e06a8c","1","5e203085ac30fa331b586690","1","2025-08-06T09:00:43.743Z","","","","ControlQ","","","","","","","","","","","50","","","","","","","","","","","","","","","","","","","","","","","","","","",""
"3261","","<div style=""width:500px;"">
  <p>How would you describe your current emotional state?</p>
  </div>","30","html-slider-response","46","527952","0.0-7.0-3.6","135","1","2025-08-06 08:51:57","36c45c0696341be0efffe67d72a12abb","78.33.241.66","Mozilla/5.0 (Windows NT 10.0; Win64; x64) AppleWebKit/537.36 (KHTML, like Gecko) Chrome/138.0.0.0 Safari/537.36","WebKit","Chrome","138.0.0.0","Windows","10.0","https://app.prolific.com/","en-GB,en;q=0.9","5e203085ac30fa331b586690","6877649eabb845cf142cd221","6893179b886ed1dc99e06a8c","1","5e203085ac30fa331b586690","1","2025-08-06T09:00:47.013Z","","","","StressQ","","","","","","","","","","","50","","","","","","","","","","","","","","","","","","","","","","","","","","",""
"2099","","<div style=""width:500px;"">
  <p>What best describes how you currently feel?</p>
  </div>","66","html-slider-response","47","530057","0.0-7.0-4.6","135","1","2025-08-06 08:51:57","36c45c0696341be0efffe67d72a12abb","78.33.241.66","Mozilla/5.0 (Windows NT 10.0; Win64; x64) AppleWebKit/537.36 (KHTML, like Gecko) Chrome/138.0.0.0 Safari/537.36","WebKit","Chrome","138.0.0.0","Windows","10.0","https://app.prolific.com/","en-GB,en;q=0.9","5e203085ac30fa331b586690","6877649eabb845cf142cd221","6893179b886ed1dc99e06a8c","1","5e203085ac30fa331b586690","1","2025-08-06T09:00:49.118Z","","","","MotivationQ","","","","","","","","","","","50","","","","","","","","","","","","","","","","","","","","","","","","","","",""
"","","","","ctl-task-cpt","48","579989","0.0-7.0-0.7","135","1","2025-08-06 08:51:57","36c45c0696341be0efffe67d72a12abb","78.33.241.66","Mozilla/5.0 (Windows NT 10.0; Win64; x64) AppleWebKit/537.36 (KHTML, like Gecko) Chrome/138.0.0.0 Safari/537.36","WebKit","Chrome","138.0.0.0","Windows","10.0","https://app.prolific.com/","en-GB,en;q=0.9","5e203085ac30fa331b586690","6877649eabb845cf142cd221","6893179b886ed1dc99e06a8c","1","5e203085ac30fa331b586690","1","2025-08-06T09:01:39.050Z","","","","","","","","","","","","","","","","win-only","1","g1:NE,g2:SW","0.3","8","0","531809.6","1020.7","6026.7","46906.2","1","4","8","6","2","-8","-11","0","3","0","935.4","3000","-2090","[""down"",""left""]","{""num_key_presses"":12,""num_perfect"":3,""num_errors"":3,""num_randdir"":6,""num_randdir_good_moves"":1,""num_whilered"":0,""num_whileblue"":3,""num_blue"":4,""num_good_moves"":5}","[420.57142857142856,412.47767857142856,0.2,420.57142857142856,412.47767857142856,100.4,420.57142857142856,412.47767857142856,207.1,420.57142857142856,412.47767857142856,311.7,403.57142857142856,420.47767857142856,417,282.57142857142856,546.4776785714286,520.1,196.57142857142856,684.4776785714286,634.8,160.57142857142856,737.4776785714286,737.4,115.57142857142857,762.4776785714286,840,105.57142857142857,763.4776785714286,945.2,129.57142857142856,768.4776785714286,1053.3,138.57142857142856,771.4776785714286,1156.1,138.57142857142856,771.4776785714286,1260.7,138.57142857142856,771.4776785714286,1361.1,138.57142857142856,771.4776785714286,1464.8,138.57142857142856,771.4776785714286,1566.2,138.57142857142856,771.4776785714286,1666.2,138.57142857142856,771.4776785714286,1769.6,138.57142857142856,771.4776785714286,1870.5,138.57142857142856,771.4776785714286,1975.1,138.57142857142856,771.4776785714286,2080,138.57142857142856,771.4776785714286,2180.4,138.57142857142856,771.4776785714286,2280.7,138.57142857142856,771.4776785714286,2381.4,138.57142857142856,771.4776785714286,2485.8,138.57142857142856,771.4776785714286,2602.9,138.57142857142856,771.4776785714286,2705.8,138.57142857142856,771.4776785714286,2811,138.57142857142856,771.4776785714286,2911.8,138.57142857142856,771.4776785714286,3012.1,138.57142857142856,771.4776785714286,3120.6,138.57142857142856,771.4776785714286,3222.1,138.57142857142856,771.4776785714286,3324.9,138.57142857142856,771.4776785714286,3430.4,138.57142857142856,771.4776785714286,3530.4,138.57142857142856,771.4776785714286,3636.2,138.57142857142856,771.4776785714286,3751,138.57142857142856,771.4776785714286,3851.8,138.57142857142856,771.4776785714286,3956.5,138.57142857142856,771.4776785714286,4059.8,138.57142857142856,771.4776785714286,4160.1,138.57142857142856,771.4776785714286,4261,138.57142857142856,771.4776785714286,4361.7,138.57142857142856,771.4776785714286,4465.6,138.57142857142856,771.4776785714286,4569.7,138.57142857142856,771.4776785714286,4670.4,138.57142857142856,771.4776785714286,4770.8,138.57142857142856,771.4776785714286,4887.2,138.57142857142856,771.4776785714286,4990.6]","[1344.8,1344.8,1014.8,0,330,""while_blue"",""down"",""left"",""good_move"",4426.2,3081.1,2623.4,1345.1,457.7,""oops"",""down"",""right"",""bad_move"",7894.3,3467.9,3087.8,4426.4,380.1,""oops"",""down"",""up"",""bad_move"",11397.1,3502.3,3106.2,7894.8,396.1,""smooth"",""down"",""down"",""good_move"",14578.6,3181.1,2887.7,11397.5,293.4,""while_blue"",""down"",""up"",""bad_move"",17562,2983.2,2527,14578.8,456.2,""smooth"",""down"",""down"",""good_move"",20169.5,2607.4,2202.3,17562.1,405.1,""while_blue"",""down"",""right"",""bad_move"",26978.9,6809,2620.6,23964,394.3,""oops"",""down"",""left"",""good_move"",29877,2897.9,2430.2,26979.1,467.7,""oops"",""down"",""up"",""bad_move"",32648.2,2770.8,2113.1,29877.5,657.7,""oops"",""down"",""right"",""bad_move"",35582.2,2933.3,2593.3,32648.9,340,""oops"",""down"",""right"",""bad_move"",38039.4,2457,2098.1,35582.4,358.9,""smooth"",""down"",""down"",""good_move""]"
"5159","","<div style=""width:500px;"">
  <p>What determined the result of this run?</p>
  </div>","66","html-slider-response","49","585150","0.0-7.0-1.7","135","1","2025-08-06 08:51:57","36c45c0696341be0efffe67d72a12abb","78.33.241.66","Mozilla/5.0 (Windows NT 10.0; Win64; x64) AppleWebKit/537.36 (KHTML, like Gecko) Chrome/138.0.0.0 Safari/537.36","WebKit","Chrome","138.0.0.0","Windows","10.0","https://app.prolific.com/","en-GB,en;q=0.9","5e203085ac30fa331b586690","6877649eabb845cf142cd221","6893179b886ed1dc99e06a8c","1","5e203085ac30fa331b586690","1","2025-08-06T09:01:44.211Z","","","","AttribQ","","","","","","","","","","","50","","","","","","","","","","","","","","","","","","","","","","","","","","",""
"4669","","<div style=""width:500px;"">
  <p>How much control did you have over the ball?</p>
  </div>","36","html-slider-response","50","589826","0.0-7.0-2.7","135","1","2025-08-06 08:51:57","36c45c0696341be0efffe67d72a12abb","78.33.241.66","Mozilla/5.0 (Windows NT 10.0; Win64; x64) AppleWebKit/537.36 (KHTML, like Gecko) Chrome/138.0.0.0 Safari/537.36","WebKit","Chrome","138.0.0.0","Windows","10.0","https://app.prolific.com/","en-GB,en;q=0.9","5e203085ac30fa331b586690","6877649eabb845cf142cd221","6893179b886ed1dc99e06a8c","1","5e203085ac30fa331b586690","1","2025-08-06T09:01:48.886Z","","","","ControlQ","","","","","","","","","","","50","","","","","","","","","","","","","","","","","","","","","","","","","","",""
"20287","","<div style=""width:500px;"">
  <p>How would you describe your current emotional state?</p>
  </div>","33","html-slider-response","51","610120","0.0-7.0-3.7","135","1","2025-08-06 08:51:57","36c45c0696341be0efffe67d72a12abb","78.33.241.66","Mozilla/5.0 (Windows NT 10.0; Win64; x64) AppleWebKit/537.36 (KHTML, like Gecko) Chrome/138.0.0.0 Safari/537.36","WebKit","Chrome","138.0.0.0","Windows","10.0","https://app.prolific.com/","en-GB,en;q=0.9","5e203085ac30fa331b586690","6877649eabb845cf142cd221","6893179b886ed1dc99e06a8c","1","5e203085ac30fa331b586690","1","2025-08-06T09:02:09.181Z","","","","StressQ","","","","","","","","","","","50","","","","","","","","","","","","","","","","","","","","","","","","","","",""
"1852","","<div style=""width:500px;"">
  <p>What best describes how you currently feel?</p>
  </div>","73","html-slider-response","52","611980","0.0-7.0-4.7","135","1","2025-08-06 08:51:57","36c45c0696341be0efffe67d72a12abb","78.33.241.66","Mozilla/5.0 (Windows NT 10.0; Win64; x64) AppleWebKit/537.36 (KHTML, like Gecko) Chrome/138.0.0.0 Safari/537.36","WebKit","Chrome","138.0.0.0","Windows","10.0","https://app.prolific.com/","en-GB,en;q=0.9","5e203085ac30fa331b586690","6877649eabb845cf142cd221","6893179b886ed1dc99e06a8c","1","5e203085ac30fa331b586690","1","2025-08-06T09:02:11.041Z","","","","MotivationQ","","","","","","","","","","","50","","","","","","","","","","","","","","","","","","","","","","","","","","",""
"","","","","ctl-task-cpt","53","640862","0.0-7.0-0.8","135","1","2025-08-06 08:51:57","36c45c0696341be0efffe67d72a12abb","78.33.241.66","Mozilla/5.0 (Windows NT 10.0; Win64; x64) AppleWebKit/537.36 (KHTML, like Gecko) Chrome/138.0.0.0 Safari/537.36","WebKit","Chrome","138.0.0.0","Windows","10.0","https://app.prolific.com/","en-GB,en;q=0.9","5e203085ac30fa331b586690","6877649eabb845cf142cd221","6893179b886ed1dc99e06a8c","1","5e203085ac30fa331b586690","1","2025-08-06T09:02:39.922Z","","","","","","","","","","","","","","","","win-only","2","g1:SE,g2:NW","0.4","9","0","613735.9","914.5","5917.1","25852.7","1","4","4","6","1","1","1","1","0","0.007575757575757576","1435.3","3000","1975","[""down"",""right""]","{""num_key_presses"":4,""num_perfect"":4,""num_errors"":0,""num_randdir"":0,""num_randdir_good_moves"":0,""num_whilered"":0,""num_whileblue"":0,""num_blue"":3,""num_good_moves"":4}","[411.57142857142856,408.47767857142856,0.4,411.57142857142856,408.47767857142856,100.9,411.57142857142856,408.47767857142856,202,411.57142857142856,409.47767857142856,303,495.57142857142856,533.4776785714286,413.6,514.5714285714286,557.4776785714286,520.6,366.57142857142856,396.47767857142856,627.2,151.57142857142856,171.47767857142856,729.6,147.57142857142856,162.47767857142856,831.4,174.57142857142856,194.47767857142856,933.6,887.5714285714286,684.4776785714286,1035.5,920.5714285714286,698.4776785714286,1137.7,857.5714285714286,726.4776785714286,1238,808.5714285714286,748.4776785714286,1354.7,808.5714285714286,748.4776785714286,1466.6,808.5714285714286,748.4776785714286,1573.8,808.5714285714286,748.4776785714286,1684.4,808.5714285714286,748.4776785714286,1785,808.5714285714286,748.4776785714286,1890.6,808.5714285714286,748.4776785714286,1992.6,808.5714285714286,748.4776785714286,2098.7,808.5714285714286,748.4776785714286,2199.7,808.5714285714286,748.4776785714286,2306.4,808.5714285714286,748.4776785714286,2417.7,808.5714285714286,748.4776785714286,2517.7,808.5714285714286,748.4776785714286,2622.3,808.5714285714286,748.4776785714286,2728,808.5714285714286,748.4776785714286,2828.2,808.5714285714286,748.4776785714286,2932,808.5714285714286,748.4776785714286,3049.3,808.5714285714286,748.4776785714286,3151.4,808.5714285714286,748.4776785714286,3251.7,808.5714285714286,748.4776785714286,3351.7,808.5714285714286,748.4776785714286,3451.8,808.5714285714286,748.4776785714286,3559,808.5714285714286,748.4776785714286,3662.5,808.5714285714286,748.4776785714286,3764.8,808.5714285714286,748.4776785714286,3867.2,808.5714285714286,748.4776785714286,3983.5,808.5714285714286,748.4776785714286,4083.8,808.5714285714286,748.4776785714286,4186.7,808.5714285714286,748.4776785714286,4287.1,808.5714285714286,748.4776785714286,4392.8,808.5714285714286,748.4776785714286,4496.8,808.5714285714286,748.4776785714286,4601,808.5714285714286,748.4776785714286,4701.4,808.5714285714286,748.4776785714286,4802.5,808.5714285714286,748.4776785714286,4910.5]","[4719.5,4719.5,2357.8,2017.2,344.5,""smooth"",""down"",""down"",""good_move"",11586,6866.1,2831.3,8393.1,361.6,""smooth"",""down"",""down"",""good_move"",17035.8,5449.4,1767.1,14850.4,418.3,""smooth"",""right"",""right"",""good_move"",19796.1,2760,2365.7,17036.1,394.3,""smooth"",""right"",""right"",""good_move""]"
"5350","","<div style=""width:500px;"">
  <p>What determined the result of this run?</p>
  </div>","88","html-slider-response","54","646215","0.0-7.0-1.8","135","1","2025-08-06 08:51:57","36c45c0696341be0efffe67d72a12abb","78.33.241.66","Mozilla/5.0 (Windows NT 10.0; Win64; x64) AppleWebKit/537.36 (KHTML, like Gecko) Chrome/138.0.0.0 Safari/537.36","WebKit","Chrome","138.0.0.0","Windows","10.0","https://app.prolific.com/","en-GB,en;q=0.9","5e203085ac30fa331b586690","6877649eabb845cf142cd221","6893179b886ed1dc99e06a8c","1","5e203085ac30fa331b586690","1","2025-08-06T09:02:45.276Z","","","","AttribQ","","","","","","","","","","","50","","","","","","","","","","","","","","","","","","","","","","","","","","",""
"3031","","<div style=""width:500px;"">
  <p>How much control did you have over the ball?</p>
  </div>","81","html-slider-response","55","649252","0.0-7.0-2.8","135","1","2025-08-06 08:51:57","36c45c0696341be0efffe67d72a12abb","78.33.241.66","Mozilla/5.0 (Windows NT 10.0; Win64; x64) AppleWebKit/537.36 (KHTML, like Gecko) Chrome/138.0.0.0 Safari/537.36","WebKit","Chrome","138.0.0.0","Windows","10.0","https://app.prolific.com/","en-GB,en;q=0.9","5e203085ac30fa331b586690","6877649eabb845cf142cd221","6893179b886ed1dc99e06a8c","1","5e203085ac30fa331b586690","1","2025-08-06T09:02:48.313Z","","","","ControlQ","","","","","","","","","","","50","","","","","","","","","","","","","","","","","","","","","","","","","","",""
"3345","","<div style=""width:500px;"">
  <p>How would you describe your current emotional state?</p>
  </div>","23","html-slider-response","56","652603","0.0-7.0-3.8","135","1","2025-08-06 08:51:57","36c45c0696341be0efffe67d72a12abb","78.33.241.66","Mozilla/5.0 (Windows NT 10.0; Win64; x64) AppleWebKit/537.36 (KHTML, like Gecko) Chrome/138.0.0.0 Safari/537.36","WebKit","Chrome","138.0.0.0","Windows","10.0","https://app.prolific.com/","en-GB,en;q=0.9","5e203085ac30fa331b586690","6877649eabb845cf142cd221","6893179b886ed1dc99e06a8c","1","5e203085ac30fa331b586690","1","2025-08-06T09:02:51.664Z","","","","StressQ","","","","","","","","","","","50","","","","","","","","","","","","","","","","","","","","","","","","","","",""
"2775","","<div style=""width:500px;"">
  <p>What best describes how you currently feel?</p>
  </div>","72","html-slider-response","57","655383","0.0-7.0-4.8","135","1","2025-08-06 08:51:57","36c45c0696341be0efffe67d72a12abb","78.33.241.66","Mozilla/5.0 (Windows NT 10.0; Win64; x64) AppleWebKit/537.36 (KHTML, like Gecko) Chrome/138.0.0.0 Safari/537.36","WebKit","Chrome","138.0.0.0","Windows","10.0","https://app.prolific.com/","en-GB,en;q=0.9","5e203085ac30fa331b586690","6877649eabb845cf142cd221","6893179b886ed1dc99e06a8c","1","5e203085ac30fa331b586690","1","2025-08-06T09:02:54.444Z","","","","MotivationQ","","","","","","","","","","","50","","","","","","","","","","","","","","","","","","","","","","","","","","",""
"","","","","ctl-task-cpt","58","680290","0.0-7.0-0.9","135","1","2025-08-06 08:51:57","36c45c0696341be0efffe67d72a12abb","78.33.241.66","Mozilla/5.0 (Windows NT 10.0; Win64; x64) AppleWebKit/537.36 (KHTML, like Gecko) Chrome/138.0.0.0 Safari/537.36","WebKit","Chrome","138.0.0.0","Windows","10.0","https://app.prolific.com/","en-GB,en;q=0.9","5e203085ac30fa331b586690","6877649eabb845cf142cd221","6893179b886ed1dc99e06a8c","1","5e203085ac30fa331b586690","1","2025-08-06T09:03:19.350Z","","","","","","","","","","","","","","","","win-only","1","g1:NE,g2:SW","0.5","10","0","657135","1197.4","6200.8","21880.1","1","4","8","6","1","1","1","2","1","0.015151515151515152","813.5","3000","1540","[""up"",""right""]","{""num_key_presses"":6,""num_perfect"":3,""num_errors"":0,""num_randdir"":3,""num_randdir_good_moves"":2,""num_whilered"":0,""num_whileblue"":0,""num_blue"":0,""num_good_moves"":5}","[413.57142857142856,409.47767857142856,0.2,413.57142857142856,409.47767857142856,116.8,413.57142857142856,409.47767857142856,221,413.57142857142856,409.47767857142856,324.3,608.5714285714286,249.47767857142856,435.8,716.5714285714286,175.47767857142856,551,745.5714285714286,134.47767857142856,651,750.5714285714286,111.47767857142857,752.9,750.5714285714286,111.47767857142857,861,750.5714285714286,109.47767857142857,963.9,750.5714285714286,107.47767857142857,1069.9,750.5714285714286,107.47767857142857,1170.2,750.5714285714286,107.47767857142857,1286.1,750.5714285714286,107.47767857142857,1388.4,750.5714285714286,107.47767857142857,1501.5,750.5714285714286,107.47767857142857,1603.2,750.5714285714286,107.47767857142857,1703.5,750.5714285714286,107.47767857142857,1803.7,750.5714285714286,107.47767857142857,1912.2,750.5714285714286,107.47767857142857,2015.6,750.5714285714286,107.47767857142857,2118.7,750.5714285714286,107.47767857142857,2220.1,750.5714285714286,107.47767857142857,2322.9,750.5714285714286,107.47767857142857,2431.1,750.5714285714286,107.47767857142857,2533,750.5714285714286,107.47767857142857,2638.4,750.5714285714286,107.47767857142857,2741.6,750.5714285714286,107.47767857142857,2846.4,750.5714285714286,107.47767857142857,2948.9,750.5714285714286,107.47767857142857,3053.1,750.5714285714286,107.47767857142857,3156.9,750.5714285714286,107.47767857142857,3260.6,750.5714285714286,107.47767857142857,3364.4,750.5714285714286,107.47767857142857,3468.9,750.5714285714286,107.47767857142857,3570.7,750.5714285714286,107.47767857142857,3671.4,750.5714285714286,107.47767857142857,3777.9,750.5714285714286,107.47767857142857,3884.9,750.5714285714286,107.47767857142857,3991.5,750.5714285714286,107.47767857142857,4100.9,750.5714285714286,107.47767857142857,4203.5,750.5714285714286,107.47767857142857,4313.5,750.5714285714286,107.47767857142857,4418.5,750.5714285714286,107.47767857142857,4521.1,750.5714285714286,107.47767857142857,4634.9,750.5714285714286,107.47767857142857,4742.9,750.5714285714286,107.47767857142857,4848.7,750.5714285714286,107.47767857142857,4949.3]","[1377.7,1377.7,1000,0,377.7,""smooth"",""right"",""right"",""good_move"",4459.5,3081.5,2738.4,1378,343.1,""oops"",""right"",""up"",""good_move"",7099.4,2637.2,2286,4462.2,351.2,""smooth"",""right"",""right"",""good_move"",9309.7,2210.1,1845.8,7099.6,364.3,""oops"",""up"",""left"",""bad_move"",12783.4,3473.4,3163.7,9310.1,309.6,""oops"",""right"",""up"",""good_move"",15569.7,2786,2464.2,12783.7,321.8,""smooth"",""right"",""right"",""good_move""]"
"3787","","<div style=""width:500px;"">
  <p>What determined the result of this run?</p>
  </div>","86","html-slider-response","59","684081","0.0-7.0-1.9","135","1","2025-08-06 08:51:57","36c45c0696341be0efffe67d72a12abb","78.33.241.66","Mozilla/5.0 (Windows NT 10.0; Win64; x64) AppleWebKit/537.36 (KHTML, like Gecko) Chrome/138.0.0.0 Safari/537.36","WebKit","Chrome","138.0.0.0","Windows","10.0","https://app.prolific.com/","en-GB,en;q=0.9","5e203085ac30fa331b586690","6877649eabb845cf142cd221","6893179b886ed1dc99e06a8c","1","5e203085ac30fa331b586690","1","2025-08-06T09:03:23.142Z","","","","AttribQ","","","","","","","","","","","50","","","","","","","","","","","","","","","","","","","","","","","","","","",""
"2754","","<div style=""width:500px;"">
  <p>How much control did you have over the ball?</p>
  </div>","69","html-slider-response","60","686843","0.0-7.0-2.9","135","1","2025-08-06 08:51:57","36c45c0696341be0efffe67d72a12abb","78.33.241.66","Mozilla/5.0 (Windows NT 10.0; Win64; x64) AppleWebKit/537.36 (KHTML, like Gecko) Chrome/138.0.0.0 Safari/537.36","WebKit","Chrome","138.0.0.0","Windows","10.0","https://app.prolific.com/","en-GB,en;q=0.9","5e203085ac30fa331b586690","6877649eabb845cf142cd221","6893179b886ed1dc99e06a8c","1","5e203085ac30fa331b586690","1","2025-08-06T09:03:25.904Z","","","","ControlQ","","","","","","","","","","","50","","","","","","","","","","","","","","","","","","","","","","","","","","",""
"2585","","<div style=""width:500px;"">
  <p>How would you describe your current emotional state?</p>
  </div>","28","html-slider-response","61","689435","0.0-7.0-3.9","135","1","2025-08-06 08:51:57","36c45c0696341be0efffe67d72a12abb","78.33.241.66","Mozilla/5.0 (Windows NT 10.0; Win64; x64) AppleWebKit/537.36 (KHTML, like Gecko) Chrome/138.0.0.0 Safari/537.36","WebKit","Chrome","138.0.0.0","Windows","10.0","https://app.prolific.com/","en-GB,en;q=0.9","5e203085ac30fa331b586690","6877649eabb845cf142cd221","6893179b886ed1dc99e06a8c","1","5e203085ac30fa331b586690","1","2025-08-06T09:03:28.496Z","","","","StressQ","","","","","","","","","","","50","","","","","","","","","","","","","","","","","","","","","","","","","","",""
"1953","","<div style=""width:500px;"">
  <p>What best describes how you currently feel?</p>
  </div>","70","html-slider-response","62","691396","0.0-7.0-4.9","135","1","2025-08-06 08:51:57","36c45c0696341be0efffe67d72a12abb","78.33.241.66","Mozilla/5.0 (Windows NT 10.0; Win64; x64) AppleWebKit/537.36 (KHTML, like Gecko) Chrome/138.0.0.0 Safari/537.36","WebKit","Chrome","138.0.0.0","Windows","10.0","https://app.prolific.com/","en-GB,en;q=0.9","5e203085ac30fa331b586690","6877649eabb845cf142cd221","6893179b886ed1dc99e06a8c","1","5e203085ac30fa331b586690","1","2025-08-06T09:03:30.457Z","","","","MotivationQ","","","","","","","","","","","50","","","","","","","","","","","","","","","","","","","","","","","","","","",""
"","","","","ctl-task-cpt","63","738288","0.0-7.0-0.10","135","1","2025-08-06 08:51:57","36c45c0696341be0efffe67d72a12abb","78.33.241.66","Mozilla/5.0 (Windows NT 10.0; Win64; x64) AppleWebKit/537.36 (KHTML, like Gecko) Chrome/138.0.0.0 Safari/537.36","WebKit","Chrome","138.0.0.0","Windows","10.0","https://app.prolific.com/","en-GB,en;q=0.9","5e203085ac30fa331b586690","6877649eabb845cf142cd221","6893179b886ed1dc99e06a8c","1","5e203085ac30fa331b586690","1","2025-08-06T09:04:17.348Z","","","","","","","","","","","","","","","","win-only","2","g1:SE,g2:NW","0.6","11","0","693149.2","1117.8","6118.4","43861.3","1","4","8","6","1","1","0","2","2","0.015151515151515152","804.2","3000","600","[""down"",""right""]","{""num_key_presses"":10,""num_perfect"":5,""num_errors"":1,""num_randdir"":4,""num_randdir_good_moves"":2,""num_whilered"":0,""num_whileblue"":1,""num_blue"":4,""num_good_moves"":7}","[421.57142857142856,423.47767857142856,0.1,421.57142857142856,423.47767857142856,100.5,421.57142857142856,423.47767857142856,200.6,423.57142857142856,425.47767857142856,302.6,707.5714285714286,655.4776785714286,402.9,830.5714285714286,756.4776785714286,504.2,832.5714285714286,764.4776785714286,616.2,796.5714285714286,756.4776785714286,723,792.5714285714286,754.4776785714286,826.6,792.5714285714286,753.4776785714286,927.6,792.5714285714286,753.4776785714286,1028.9,792.5714285714286,753.4776785714286,1129.7,792.5714285714286,753.4776785714286,1234.4,792.5714285714286,753.4776785714286,1336.1,792.5714285714286,753.4776785714286,1442.2,792.5714285714286,753.4776785714286,1547.8,792.5714285714286,753.4776785714286,1657.8,792.5714285714286,753.4776785714286,1765.4,792.5714285714286,753.4776785714286,1868.8,792.5714285714286,753.4776785714286,1980.5,792.5714285714286,753.4776785714286,2083.5,792.5714285714286,753.4776785714286,2188,792.5714285714286,753.4776785714286,2292.6,792.5714285714286,753.4776785714286,2398.6,792.5714285714286,753.4776785714286,2504.4,792.5714285714286,753.4776785714286,2611.2,792.5714285714286,753.4776785714286,2716.9,792.5714285714286,753.4776785714286,2817.1,792.5714285714286,753.4776785714286,2917.6,792.5714285714286,753.4776785714286,3018.4,792.5714285714286,753.4776785714286,3125.4,792.5714285714286,753.4776785714286,3229.7,792.5714285714286,753.4776785714286,3334.6,792.5714285714286,753.4776785714286,3451.2,792.5714285714286,753.4776785714286,3553.2,792.5714285714286,753.4776785714286,3653.6,792.5714285714286,753.4776785714286,3761.3,792.5714285714286,753.4776785714286,3866.3,792.5714285714286,753.4776785714286,3967.3,792.5714285714286,753.4776785714286,4067.6,792.5714285714286,753.4776785714286,4168,792.5714285714286,753.4776785714286,4275.7,792.5714285714286,753.4776785714286,4376.3,792.5714285714286,753.4776785714286,4479.3,792.5714285714286,753.4776785714286,4580.6,792.5714285714286,753.4776785714286,4685.8,792.5714285714286,753.4776785714286,4787.6,792.5714285714286,753.4776785714286,4901.3]","[1448.6,1448.6,1000,0,448.6,""oops"",""down"",""right"",""good_move"",3543.5,2094.1,1691.9,1449.4,402.2,""smooth"",""down"",""down"",""good_move"",6081.5,2537.7,2168.9,3543.8,368.8,""smooth"",""down"",""down"",""good_move"",12953.2,6871.7,2986.1,9600.3,366.9,""while_blue"",""right"",""left"",""bad_move"",16467.4,3513.4,3060.6,12954,452.8,""oops"",""right"",""left"",""bad_move"",22495.7,6027.6,2028.2,20053,414.5,""oops"",""right"",""right"",""good_move"",28965,6469.1,2399,26167.1,398.9,""oops"",""right"",""up"",""bad_move"",31965.8,3000.4,2590.9,28965.4,409.5,""smooth"",""right"",""right"",""good_move"",34782.2,2815.3,2436.6,31966.9,378.8,""smooth"",""right"",""right"",""good_move"",37615.1,2831.8,2499.4,34783.4,332.3,""smooth"",""down"",""down"",""good_move""]"
"2181","","<div style=""width:500px;"">
  <p>What determined the result of this run?</p>
  </div>","67","html-slider-response","64","740471","0.0-7.0-1.10","135","1","2025-08-06 08:51:57","36c45c0696341be0efffe67d72a12abb","78.33.241.66","Mozilla/5.0 (Windows NT 10.0; Win64; x64) AppleWebKit/537.36 (KHTML, like Gecko) Chrome/138.0.0.0 Safari/537.36","WebKit","Chrome","138.0.0.0","Windows","10.0","https://app.prolific.com/","en-GB,en;q=0.9","5e203085ac30fa331b586690","6877649eabb845cf142cd221","6893179b886ed1dc99e06a8c","1","5e203085ac30fa331b586690","1","2025-08-06T09:04:19.531Z","","","","AttribQ","","","","","","","","","","","50","","","","","","","","","","","","","","","","","","","","","","","","","","",""
"2964","","<div style=""width:500px;"">
  <p>How much control did you have over the ball?</p>
  </div>","61","html-slider-response","65","743441","0.0-7.0-2.10","135","1","2025-08-06 08:51:57","36c45c0696341be0efffe67d72a12abb","78.33.241.66","Mozilla/5.0 (Windows NT 10.0; Win64; x64) AppleWebKit/537.36 (KHTML, like Gecko) Chrome/138.0.0.0 Safari/537.36","WebKit","Chrome","138.0.0.0","Windows","10.0","https://app.prolific.com/","en-GB,en;q=0.9","5e203085ac30fa331b586690","6877649eabb845cf142cd221","6893179b886ed1dc99e06a8c","1","5e203085ac30fa331b586690","1","2025-08-06T09:04:22.502Z","","","","ControlQ","","","","","","","","","","","50","","","","","","","","","","","","","","","","","","","","","","","","","","",""
"2710","","<div style=""width:500px;"">
  <p>How would you describe your current emotional state?</p>
  </div>","34","html-slider-response","66","746158","0.0-7.0-3.10","135","1","2025-08-06 08:51:57","36c45c0696341be0efffe67d72a12abb","78.33.241.66","Mozilla/5.0 (Windows NT 10.0; Win64; x64) AppleWebKit/537.36 (KHTML, like Gecko) Chrome/138.0.0.0 Safari/537.36","WebKit","Chrome","138.0.0.0","Windows","10.0","https://app.prolific.com/","en-GB,en;q=0.9","5e203085ac30fa331b586690","6877649eabb845cf142cd221","6893179b886ed1dc99e06a8c","1","5e203085ac30fa331b586690","1","2025-08-06T09:04:25.218Z","","","","StressQ","","","","","","","","","","","50","","","","","","","","","","","","","","","","","","","","","","","","","","",""
"3391","","<div style=""width:500px;"">
  <p>What best describes how you currently feel?</p>
  </div>","68","html-slider-response","67","749555","0.0-7.0-4.10","135","1","2025-08-06 08:51:57","36c45c0696341be0efffe67d72a12abb","78.33.241.66","Mozilla/5.0 (Windows NT 10.0; Win64; x64) AppleWebKit/537.36 (KHTML, like Gecko) Chrome/138.0.0.0 Safari/537.36","WebKit","Chrome","138.0.0.0","Windows","10.0","https://app.prolific.com/","en-GB,en;q=0.9","5e203085ac30fa331b586690","6877649eabb845cf142cd221","6893179b886ed1dc99e06a8c","1","5e203085ac30fa331b586690","1","2025-08-06T09:04:28.616Z","","","","MotivationQ","","","","","","","","","","","50","","","","","","","","","","","","","","","","","","","","","","","","","","",""
"","","","","ctl-task-cpt","68","769127","0.0-7.0-0.11","135","1","2025-08-06 08:51:57","36c45c0696341be0efffe67d72a12abb","78.33.241.66","Mozilla/5.0 (Windows NT 10.0; Win64; x64) AppleWebKit/537.36 (KHTML, like Gecko) Chrome/138.0.0.0 Safari/537.36","WebKit","Chrome","138.0.0.0","Windows","10.0","https://app.prolific.com/","en-GB,en;q=0.9","5e203085ac30fa331b586690","6877649eabb845cf142cd221","6893179b886ed1dc99e06a8c","1","5e203085ac30fa331b586690","1","2025-08-06T09:04:48.187Z","","","","","","","","","","","","","","","","win-only","1","g1:NE,g2:SW","0.7","12","0","751307.4","1056.4","6056.6","16552.6","1","4","4","6","1","1","1","3","2","0.022727272727272728","850.4","3000","2025","[""up"",""right""]","{""num_key_presses"":4,""num_perfect"":2,""num_errors"":0,""num_randdir"":2,""num_randdir_good_moves"":2,""num_whilered"":0,""num_whileblue"":0,""num_blue"":0,""num_good_moves"":4}","[416.57142857142856,423.47767857142856,0.1,416.57142857142856,423.47767857142856,108.3,416.57142857142856,423.47767857142856,208.8,416.57142857142856,423.47767857142856,311.1,442.57142857142856,400.47767857142856,423.3,621.5714285714286,193.47767857142856,541.1,669.5714285714286,142.47767857142856,647.4,702.5714285714286,116.47767857142857,749.9,708.5714285714286,111.47767857142857,860.1,708.5714285714286,111.47767857142857,961.5,708.5714285714286,111.47767857142857,1074.9,708.5714285714286,111.47767857142857,1189,708.5714285714286,111.47767857142857,1307.7,708.5714285714286,111.47767857142857,1428.7,708.5714285714286,111.47767857142857,1535.1,708.5714285714286,111.47767857142857,1639,708.5714285714286,111.47767857142857,1739.3,708.5714285714286,111.47767857142857,1845.7,708.5714285714286,111.47767857142857,1949.1,708.5714285714286,111.47767857142857,2049.1,708.5714285714286,111.47767857142857,2160.9,708.5714285714286,111.47767857142857,2261.8,708.5714285714286,111.47767857142857,2366.5,708.5714285714286,111.47767857142857,2467.6,708.5714285714286,111.47767857142857,2579.1,708.5714285714286,111.47767857142857,2682.5,708.5714285714286,111.47767857142857,2784.5,708.5714285714286,111.47767857142857,2888.3,708.5714285714286,111.47767857142857,2993.9,708.5714285714286,111.47767857142857,3101,708.5714285714286,111.47767857142857,3205.5,708.5714285714286,111.47767857142857,3321.5,708.5714285714286,111.47767857142857,3422.9,708.5714285714286,111.47767857142857,3524.9,708.5714285714286,111.47767857142857,3626.6,708.5714285714286,111.47767857142857,3741.7,708.5714285714286,111.47767857142857,3846.7,708.5714285714286,111.47767857142857,3951.2,708.5714285714286,111.47767857142857,4051.2,708.5714285714286,111.47767857142857,4155.1,708.5714285714286,111.47767857142857,4256.1,708.5714285714286,111.47767857142857,4360.9,708.5714285714286,111.47767857142857,4465.6,708.5714285714286,111.47767857142857,4566,708.5714285714286,111.47767857142857,4669.9,708.5714285714286,111.47767857142857,4770.2,708.5714285714286,111.47767857142857,4891.2,708.5714285714286,111.47767857142857,4995.5]","[1389.8,1389.8,1000,0,389.8,""smooth"",""right"",""right"",""good_move"",4140.3,2749.7,2321.5,1390.6,428.2,""smooth"",""right"",""right"",""good_move"",7989.2,3848.6,3426.1,4140.7,422.4,""oops"",""up"",""up"",""good_move"",10350.8,2361.4,1934.5,7989.4,426.9,""oops"",""up"",""up"",""good_move""]"
"13259","","<div style=""width:500px;"">
  <p>What determined the result of this run?</p>
  </div>","88","html-slider-response","69","782387","0.0-7.0-1.11","135","1","2025-08-06 08:51:57","36c45c0696341be0efffe67d72a12abb","78.33.241.66","Mozilla/5.0 (Windows NT 10.0; Win64; x64) AppleWebKit/537.36 (KHTML, like Gecko) Chrome/138.0.0.0 Safari/537.36","WebKit","Chrome","138.0.0.0","Windows","10.0","https://app.prolific.com/","en-GB,en;q=0.9","5e203085ac30fa331b586690","6877649eabb845cf142cd221","6893179b886ed1dc99e06a8c","1","5e203085ac30fa331b586690","1","2025-08-06T09:05:01.447Z","","","","AttribQ","","","","","","","","","","","50","","","","","","","","","","","","","","","","","","","","","","","","","","",""
"2660","","<div style=""width:500px;"">
  <p>How much control did you have over the ball?</p>
  </div>","81","html-slider-response","70","785051","0.0-7.0-2.11","135","1","2025-08-06 08:51:57","36c45c0696341be0efffe67d72a12abb","78.33.241.66","Mozilla/5.0 (Windows NT 10.0; Win64; x64) AppleWebKit/537.36 (KHTML, like Gecko) Chrome/138.0.0.0 Safari/537.36","WebKit","Chrome","138.0.0.0","Windows","10.0","https://app.prolific.com/","en-GB,en;q=0.9","5e203085ac30fa331b586690","6877649eabb845cf142cd221","6893179b886ed1dc99e06a8c","1","5e203085ac30fa331b586690","1","2025-08-06T09:05:04.112Z","","","","ControlQ","","","","","","","","","","","50","","","","","","","","","","","","","","","","","","","","","","","","","","",""
"3087","","<div style=""width:500px;"">
  <p>How would you describe your current emotional state?</p>
  </div>","23","html-slider-response","71","788148","0.0-7.0-3.11","135","1","2025-08-06 08:51:57","36c45c0696341be0efffe67d72a12abb","78.33.241.66","Mozilla/5.0 (Windows NT 10.0; Win64; x64) AppleWebKit/537.36 (KHTML, like Gecko) Chrome/138.0.0.0 Safari/537.36","WebKit","Chrome","138.0.0.0","Windows","10.0","https://app.prolific.com/","en-GB,en;q=0.9","5e203085ac30fa331b586690","6877649eabb845cf142cd221","6893179b886ed1dc99e06a8c","1","5e203085ac30fa331b586690","1","2025-08-06T09:05:07.209Z","","","","StressQ","","","","","","","","","","","50","","","","","","","","","","","","","","","","","","","","","","","","","","",""
"2368","","<div style=""width:500px;"">
  <p>What best describes how you currently feel?</p>
  </div>","74","html-slider-response","72","790524","0.0-7.0-4.11","135","1","2025-08-06 08:51:57","36c45c0696341be0efffe67d72a12abb","78.33.241.66","Mozilla/5.0 (Windows NT 10.0; Win64; x64) AppleWebKit/537.36 (KHTML, like Gecko) Chrome/138.0.0.0 Safari/537.36","WebKit","Chrome","138.0.0.0","Windows","10.0","https://app.prolific.com/","en-GB,en;q=0.9","5e203085ac30fa331b586690","6877649eabb845cf142cd221","6893179b886ed1dc99e06a8c","1","5e203085ac30fa331b586690","1","2025-08-06T09:05:09.584Z","","","","MotivationQ","","","","","","","","","","","50","","","","","","","","","","","","","","","","","","","","","","","","","","",""
"","","","","ctl-task-cpt","73","811211","0.0-7.0-0.12","135","1","2025-08-06 08:51:57","36c45c0696341be0efffe67d72a12abb","78.33.241.66","Mozilla/5.0 (Windows NT 10.0; Win64; x64) AppleWebKit/537.36 (KHTML, like Gecko) Chrome/138.0.0.0 Safari/537.36","WebKit","Chrome","138.0.0.0","Windows","10.0","https://app.prolific.com/","en-GB,en;q=0.9","5e203085ac30fa331b586690","6877649eabb845cf142cd221","6893179b886ed1dc99e06a8c","1","5e203085ac30fa331b586690","1","2025-08-06T09:05:30.271Z","","","","","","","","","","","","","","","","win-only","0","g1:NW,g2:SE","0.8","13","0","792277.5","2031.9","7034.9","17670","1","4","8","6","1","1","1","4","3","0.030303030303030304","848.3","3000","2210","[""left"",""up""]","{""num_key_presses"":4,""num_perfect"":4,""num_errors"":0,""num_randdir"":0,""num_randdir_good_moves"":0,""num_whilered"":0,""num_whileblue"":0,""num_blue"":0,""num_good_moves"":4}","[419.57142857142856,418.47767857142856,0.3,419.57142857142856,418.47767857142856,101.6,419.57142857142856,418.47767857142856,202,419.57142857142856,420.47767857142856,302.7,386.57142857142856,348.47767857142856,408.4,361.57142857142856,304.47767857142856,512.8,80.57142857142857,90.47767857142857,619.6,32.57142857142857,60.47767857142857,719.9,32.57142857142857,60.47767857142857,823.2,32.57142857142857,60.47767857142857,923.2,34.57142857142857,59.47767857142857,1024.5,43.57142857142857,59.47767857142857,1124.6,43.57142857142857,59.47767857142857,1231.8,43.57142857142857,59.47767857142857,1348.7,43.57142857142857,59.47767857142857,1453.8,43.57142857142857,59.47767857142857,1564.5,43.57142857142857,59.47767857142857,1686.3,43.57142857142857,59.47767857142857,1796.4,43.57142857142857,59.47767857142857,1914.4,43.57142857142857,59.47767857142857,2019.3,43.57142857142857,59.47767857142857,2124.6,43.57142857142857,59.47767857142857,2235,43.57142857142857,59.47767857142857,2336.9,43.57142857142857,59.47767857142857,2443.2,43.57142857142857,59.47767857142857,2546.3,43.57142857142857,59.47767857142857,2673.1,43.57142857142857,59.47767857142857,2779.8,43.57142857142857,59.47767857142857,2883.6,43.57142857142857,59.47767857142857,2992.6,43.57142857142857,59.47767857142857,3094.2,43.57142857142857,59.47767857142857,3206.3,43.57142857142857,59.47767857142857,3312.5,43.57142857142857,59.47767857142857,3417.4,43.57142857142857,59.47767857142857,3517.8,43.57142857142857,59.47767857142857,3625.8,43.57142857142857,59.47767857142857,3741.2,43.57142857142857,59.47767857142857,3847.6,43.57142857142857,59.47767857142857,3955.5,43.57142857142857,59.47767857142857,4070.2,43.57142857142857,59.47767857142857,4182.2,43.57142857142857,59.47767857142857,4292.4,43.57142857142857,59.47767857142857,4397,43.57142857142857,59.47767857142857,4504.3,43.57142857142857,59.47767857142857,4606.8,43.57142857142857,59.47767857142857,4714.2,43.57142857142857,59.47767857142857,4814.5,43.57142857142857,59.47767857142857,4919.2]","[1400.6,1400.6,1000,0,400.6,""smooth"",""left"",""left"",""good_move"",4657.5,3255.7,2813.8,1401.8,441.9,""smooth"",""left"",""left"",""good_move"",7579.2,2921,2572.8,4658.2,348.2,""smooth"",""up"",""up"",""good_move"",10443.4,2863.6,2554.1,7579.8,309.5,""smooth"",""up"",""up"",""good_move""]"
"3186","","<div style=""width:500px;"">
  <p>What determined the result of this run?</p>
  </div>","100","html-slider-response","74","814404","0.0-7.0-1.12","135","1","2025-08-06 08:51:57","36c45c0696341be0efffe67d72a12abb","78.33.241.66","Mozilla/5.0 (Windows NT 10.0; Win64; x64) AppleWebKit/537.36 (KHTML, like Gecko) Chrome/138.0.0.0 Safari/537.36","WebKit","Chrome","138.0.0.0","Windows","10.0","https://app.prolific.com/","en-GB,en;q=0.9","5e203085ac30fa331b586690","6877649eabb845cf142cd221","6893179b886ed1dc99e06a8c","1","5e203085ac30fa331b586690","1","2025-08-06T09:05:33.464Z","","","","AttribQ","","","","","","","","","","","50","","","","","","","","","","","","","","","","","","","","","","","","","","",""
"2695","","<div style=""width:500px;"">
  <p>How much control did you have over the ball?</p>
  </div>","100","html-slider-response","75","817106","0.0-7.0-2.12","135","1","2025-08-06 08:51:57","36c45c0696341be0efffe67d72a12abb","78.33.241.66","Mozilla/5.0 (Windows NT 10.0; Win64; x64) AppleWebKit/537.36 (KHTML, like Gecko) Chrome/138.0.0.0 Safari/537.36","WebKit","Chrome","138.0.0.0","Windows","10.0","https://app.prolific.com/","en-GB,en;q=0.9","5e203085ac30fa331b586690","6877649eabb845cf142cd221","6893179b886ed1dc99e06a8c","1","5e203085ac30fa331b586690","1","2025-08-06T09:05:36.167Z","","","","ControlQ","","","","","","","","","","","50","","","","","","","","","","","","","","","","","","","","","","","","","","",""
"2420","","<div style=""width:500px;"">
  <p>How would you describe your current emotional state?</p>
  </div>","27","html-slider-response","76","819532","0.0-7.0-3.12","135","1","2025-08-06 08:51:57","36c45c0696341be0efffe67d72a12abb","78.33.241.66","Mozilla/5.0 (Windows NT 10.0; Win64; x64) AppleWebKit/537.36 (KHTML, like Gecko) Chrome/138.0.0.0 Safari/537.36","WebKit","Chrome","138.0.0.0","Windows","10.0","https://app.prolific.com/","en-GB,en;q=0.9","5e203085ac30fa331b586690","6877649eabb845cf142cd221","6893179b886ed1dc99e06a8c","1","5e203085ac30fa331b586690","1","2025-08-06T09:05:38.592Z","","","","StressQ","","","","","","","","","","","50","","","","","","","","","","","","","","","","","","","","","","","","","","",""
"3475","","<div style=""width:500px;"">
  <p>What best describes how you currently feel?</p>
  </div>","74","html-slider-response","77","823013","0.0-7.0-4.12","135","1","2025-08-06 08:51:57","36c45c0696341be0efffe67d72a12abb","78.33.241.66","Mozilla/5.0 (Windows NT 10.0; Win64; x64) AppleWebKit/537.36 (KHTML, like Gecko) Chrome/138.0.0.0 Safari/537.36","WebKit","Chrome","138.0.0.0","Windows","10.0","https://app.prolific.com/","en-GB,en;q=0.9","5e203085ac30fa331b586690","6877649eabb845cf142cd221","6893179b886ed1dc99e06a8c","1","5e203085ac30fa331b586690","1","2025-08-06T09:05:42.073Z","","","","MotivationQ","","","","","","","","","","","50","","","","","","","","","","","","","","","","","","","","","","","","","","",""
