"rt","response_timestamp","stimulus","response","trial_type","trial_index","time_elapsed","internal_node_id","run_id","condition","recorded_at","source_code_version","ip","user_agent","device","browser","browser_version","platform","platform_version","referer","accept_language","PROLIFIC_PID","STUDY_ID","SESSION_ID","BATCH","prolific_id","batch","realtime","success","question_order","question_id","eventType","responses","item_order","radio_event_ids","radio_event_times","key_event_times","mouse_event_times","straightlining","zigzagging","honeypot","view_history","slider_start","which_type","canvas_config","goals_layout","control_level","trial_number","tutorial_trial_number","trial_start_time","phase1_start_time","phase2_start_time","phase3_start_time","goal_1_value","goal_1_distance","goal_2_value","goal_2_distance","goal_selected","outcome","outcome_total","participant_final_score","participant_initial_score","participant_final_score_prop","goal_choice_rt","allocated_time","allocated_time_remaining","goal_direction","counts","mouse_movements","key_presses"
"40054","1753864916595","<p style='font-size:40px;line-height:1.25'><strong>Welcome to the experiment!</strong></p><p style='font-size:1.1em;line-height:1.25'>Thank you for participanting in our experiment again! You will be asked to play the Dysfunctional Ball Game again. We will briefly recap the rules before we start.</p><p style='font-size:1.1em;line-height:1.25'>Press <strong>Next</strong> to continue.</p>","0","custom-html-button-response","0","40056","0.0-0.0","32","1","2025-07-30 08:41:15","36c45c0696341be0efffe67d72a12abb","195.23.71.162","Mozilla/5.0 (Windows NT 10.0; Win64; x64) AppleWebKit/537.36 (KHTML, like Gecko) Chrome/138.0.0.0 Safari/537.36","WebKit","Chrome","138.0.0.0","Windows","10.0","https://app.prolific.com/","pt-PT,pt;q=0.9,en-US;q=0.8,en;q=0.7","5e31aeefc549ee023d351eab","687a360dabe5252b5ada7185","6889daa88b156ddf24ad01b8","0","5e31aeefc549ee023d351eab","0","2025-07-30T08:41:56.597Z","","","","","","","","","","","","","","","","","","","","","","","","","","","","","","","","","","","","","","","","","",""
"97044","","","","fullscreen","1","138106","0.0-1.0","32","1","2025-07-30 08:41:15","36c45c0696341be0efffe67d72a12abb","195.23.71.162","Mozilla/5.0 (Windows NT 10.0; Win64; x64) AppleWebKit/537.36 (KHTML, like Gecko) Chrome/138.0.0.0 Safari/537.36","WebKit","Chrome","138.0.0.0","Windows","10.0","https://app.prolific.com/","pt-PT,pt;q=0.9,en-US;q=0.8,en;q=0.7","5e31aeefc549ee023d351eab","687a360dabe5252b5ada7185","6889daa88b156ddf24ad01b8","0","5e31aeefc549ee023d351eab","0","","true","","","","","","","","","","","","","","","","","","","","","","","","","","","","","","","","","","","","","","","","",""
"1571","1753865016219"," <p style='font-size:1.1em;line-height:1.25'>Thank you for closing all other tabs.</p><p style='font-size:1.1em;line-height:1.25'>We will now invite you to fill in some questionnaires, before starting the game.<br>This will take about 5 minutes.<br></p><p style='font-size:1.1em;line-height:1.25'>Press the <strong>Next</strong> button to continue.</p>","0","custom-html-button-response","2","139679","0.0-2.0","32","1","2025-07-30 08:41:15","36c45c0696341be0efffe67d72a12abb","195.23.71.162","Mozilla/5.0 (Windows NT 10.0; Win64; x64) AppleWebKit/537.36 (KHTML, like Gecko) Chrome/138.0.0.0 Safari/537.36","WebKit","Chrome","138.0.0.0","Windows","10.0","https://app.prolific.com/","pt-PT,pt;q=0.9,en-US;q=0.8,en;q=0.7","5e31aeefc549ee023d351eab","687a360dabe5252b5ada7185","6889daa88b156ddf24ad01b8","0","5e31aeefc549ee023d351eab","0","2025-07-30T08:43:36.219Z","","","","","","","","","","","","","","","","","","","","","","","","","","","","","","","","","","","","","","","","","",""
"2504","","","{""assigned_sex"":""female""}","survey-multi-choice","3","142185","0.0-3.0-0.0","32","1","2025-07-30 08:41:15","36c45c0696341be0efffe67d72a12abb","195.23.71.162","Mozilla/5.0 (Windows NT 10.0; Win64; x64) AppleWebKit/537.36 (KHTML, like Gecko) Chrome/138.0.0.0 Safari/537.36","WebKit","Chrome","138.0.0.0","Windows","10.0","https://app.prolific.com/","pt-PT,pt;q=0.9,en-US;q=0.8,en;q=0.7","5e31aeefc549ee023d351eab","687a360dabe5252b5ada7185","6889daa88b156ddf24ad01b8","0","5e31aeefc549ee023d351eab","0","","","[0]","0","demographics","","","","","","","","","","","","","","","","","","","","","","","","","","","","","","","","","","","","","",""
"3845","1753865022571","<p style='font-size:1.1em;line-height:1.25'>In the following, we will perform a baseline assessment. This means that we will ask you a few questions relating to your experiences over the past month.<br></p><p style='font-size:1.1em;line-height:1.25'>Press the <strong>Next</strong> button to continue.</p>","0","custom-html-button-response","4","146031","0.0-4.0-0.0","32","1","2025-07-30 08:41:15","36c45c0696341be0efffe67d72a12abb","195.23.71.162","Mozilla/5.0 (Windows NT 10.0; Win64; x64) AppleWebKit/537.36 (KHTML, like Gecko) Chrome/138.0.0.0 Safari/537.36","WebKit","Chrome","138.0.0.0","Windows","10.0","https://app.prolific.com/","pt-PT,pt;q=0.9,en-US;q=0.8,en;q=0.7","5e31aeefc549ee023d351eab","687a360dabe5252b5ada7185","6889daa88b156ddf24ad01b8","0","5e31aeefc549ee023d351eab","0","2025-07-30T08:43:42.571Z","","","","","","","","","","","","","","","","","","","","","","","","","","","","","","","","","","","","","","","","","",""
"50729.199999928474","","","","survey-template","5","196763","0.0-4.0-1.0","32","1","2025-07-30 08:41:15","36c45c0696341be0efffe67d72a12abb","195.23.71.162","Mozilla/5.0 (Windows NT 10.0; Win64; x64) AppleWebKit/537.36 (KHTML, like Gecko) Chrome/138.0.0.0 Safari/537.36","WebKit","Chrome","138.0.0.0","Windows","10.0","https://app.prolific.com/","pt-PT,pt;q=0.9,en-US;q=0.8,en;q=0.7","5e31aeefc549ee023d351eab","687a360dabe5252b5ada7185","6889daa88b156ddf24ad01b8","0","5e31aeefc549ee023d351eab","0","2025-07-30T08:44:33.303Z","","","","pss","{""Q01"":""2"",""Q02"":""1"",""Q03"":""3"",""Q04"":""1"",""Q05"":""2"",""Q06"":""2"",""Q07"":""1"",""Q08"":""2"",""Q09"":""2"",""Q10"":""1""}","[0,1,2,3,4,5,6,7,8,9]","[""Q01"",""Q02"",""Q03"",""Q04"",""Q05"",""Q06"",""Q07"",""Q08"",""Q09"",""Q10""]","[6790,7566,9726,15750.199999928474,20718.099999904633,26709.599999904633,31622.599999904633,36910.199999928474,46342.199999928474,49797.799999952316]","[0.19999992847442627,6790,7566,9726,13886.199999928474,15439.599999904633,15750.199999928474,20718.099999904633,26709.599999904633,31622.599999904633,35798,36910.199999928474,45846.39999997616,46342.199999928474,49797.799999952316,50726.199999928474]","[]","0.5","0.5555555555555556","0","","","","","","","","","","","","","","","","","","","","","","","","","","","","",""
"51811","1753865125114","<p style='font-size:1.1em;line-height:1.25'>Thank you for your answers! Now we will ask you a few more questions relating to your feelings in the last 24 hours.<br></p><p style='font-size:1.1em;line-height:1.25'>Press the <strong>Next</strong> button to continue.</p>","0","custom-html-button-response","6","248574","0.0-4.0-2.0","32","1","2025-07-30 08:41:15","36c45c0696341be0efffe67d72a12abb","195.23.71.162","Mozilla/5.0 (Windows NT 10.0; Win64; x64) AppleWebKit/537.36 (KHTML, like Gecko) Chrome/138.0.0.0 Safari/537.36","WebKit","Chrome","138.0.0.0","Windows","10.0","https://app.prolific.com/","pt-PT,pt;q=0.9,en-US;q=0.8,en;q=0.7","5e31aeefc549ee023d351eab","687a360dabe5252b5ada7185","6889daa88b156ddf24ad01b8","0","5e31aeefc549ee023d351eab","0","2025-07-30T08:45:25.115Z","","","","","","","","","","","","","","","","","","","","","","","","","","","","","","","","","","","","","","","","","",""
"58779.299999952316","","","","survey-template","7","307357","0.0-4.0-3.0","32","1","2025-07-30 08:41:15","36c45c0696341be0efffe67d72a12abb","195.23.71.162","Mozilla/5.0 (Windows NT 10.0; Win64; x64) AppleWebKit/537.36 (KHTML, like Gecko) Chrome/138.0.0.0 Safari/537.36","WebKit","Chrome","138.0.0.0","Windows","10.0","https://app.prolific.com/","pt-PT,pt;q=0.9,en-US;q=0.8,en;q=0.7","5e31aeefc549ee023d351eab","687a360dabe5252b5ada7185","6889daa88b156ddf24ad01b8","0","5e31aeefc549ee023d351eab","0","2025-07-30T08:46:23.898Z","","","","drsp","{""Q01"":""1"",""Q02"":""2"",""Q03"":""1"",""Q04"":""3"",""Q05"":""2"",""Q06"":""2"",""Q07"":""2"",""Q08"":""1"",""Q09"":""0"",""Q10"":""1"",""Q11"":""3"",""Q12"":""1"",""Q13"":""5"",""Q14"":""2"",""Q15"":""2"",""Q16"":""3"",""Q17"":""2"",""Q18"":""1"",""Q19"":""2"",""Q20"":""1"",""Q21"":""1"",""Q22"":""0""}","[0,1,2,3,4,5,6,7,8,9,10,11,12,13,14,15,16,17,18,19,20,21]","[""Q01"",""Q02"",""Q03"",""Q04"",""Q05"",""Q06"",""Q07"",""Q08"",""Q09"",""Q10"",""Q11"",""Q12"",""Q13"",""Q14"",""Q15"",""Q15"",""Q16"",""Q17"",""Q18"",""Q19"",""Q20"",""Q21"",""Q22""]","[2389.899999976158,3157.2999999523163,5375,6933.799999952316,8301.899999976158,10749.899999976158,12397.5,13557.700000047684,15293.799999952316,16309.799999952316,18133.299999952316,20238,22381.399999976158,26293.700000047684,31613.700000047684,32213.399999976158,38749.89999997616,40037.799999952316,41886,44525.700000047684,48165.700000047684,51101.299999952316,54397.700000047684]","[0,2389.899999976158,3157.2999999523163,5375,6933.799999952316,8301.899999976158,10749.899999976158,12397.5,13557.700000047684,15293.799999952316,16309.799999952316,18133.299999952316,20238,22381.399999976158,22685.899999976158,25462.600000023842,26293.700000047684,29605.700000047684,31613.700000047684,32213.399999976158,38749.89999997616,40037.799999952316,41165.5,41886,44525.700000047684,48165.700000047684,51101.299999952316,54397.700000047684,55005.799999952316,58774.39999997616]","[]","0.36363636363636365","0.5714285714285714","0","","","","","","","","","","","","","","","","","","","","","","","","","","","","",""
"7593.200000047684","","","","survey-template","8","314953","0.0-4.0-4.0","32","1","2025-07-30 08:41:15","36c45c0696341be0efffe67d72a12abb","195.23.71.162","Mozilla/5.0 (Windows NT 10.0; Win64; x64) AppleWebKit/537.36 (KHTML, like Gecko) Chrome/138.0.0.0 Safari/537.36","WebKit","Chrome","138.0.0.0","Windows","10.0","https://app.prolific.com/","pt-PT,pt;q=0.9,en-US;q=0.8,en;q=0.7","5e31aeefc549ee023d351eab","687a360dabe5252b5ada7185","6889daa88b156ddf24ad01b8","0","5e31aeefc549ee023d351eab","0","2025-07-30T08:46:31.493Z","","","","stress","{""Q01"":""2"",""Q02"":""5"",""Q03"":""0""}","[0,1,2]","[""Q01"",""Q02"",""Q03""]","[3903.600000023842,4591.5,6799.600000023842]","[3903.600000023842,4591.5,6799.600000023842,7591.799999952316]","[]","0.6666666666666666","0","0","","","","","","","","","","","","","","","","","","","","","","","","","","","","",""
"63501","","","","instructions","9","378455","0.0-5.0-0.0","32","1","2025-07-30 08:41:15","36c45c0696341be0efffe67d72a12abb","195.23.71.162","Mozilla/5.0 (Windows NT 10.0; Win64; x64) AppleWebKit/537.36 (KHTML, like Gecko) Chrome/138.0.0.0 Safari/537.36","WebKit","Chrome","138.0.0.0","Windows","10.0","https://app.prolific.com/","pt-PT,pt;q=0.9,en-US;q=0.8,en;q=0.7","5e31aeefc549ee023d351eab","687a360dabe5252b5ada7185","6889daa88b156ddf24ad01b8","0","5e31aeefc549ee023d351eab","0","","","","","","","","","","","","","","","[{""page_index"":0,""viewing_time"":63500}]","","","","","","","","","","","","","","","","","","","","","","","","","","","",""
"4534","","<p>Before you start with this game please answer the following three questions yourself. </p>
  <p>Through this game, we measure several aspects of your cognitive performance, such as reaction times, multi-tasking capabilities </p>
  <p>and the ability to assess the situation you are in.</p>
  <p></p>
  <p><b>How good do you usually are in such tasks?</b></p>","60","html-slider-response","10","382991","0.0-6.0-0.0","32","1","2025-07-30 08:41:15","36c45c0696341be0efffe67d72a12abb","195.23.71.162","Mozilla/5.0 (Windows NT 10.0; Win64; x64) AppleWebKit/537.36 (KHTML, like Gecko) Chrome/138.0.0.0 Safari/537.36","WebKit","Chrome","138.0.0.0","Windows","10.0","https://app.prolific.com/","pt-PT,pt;q=0.9,en-US;q=0.8,en;q=0.7","5e31aeefc549ee023d351eab","687a360dabe5252b5ada7185","6889daa88b156ddf24ad01b8","0","5e31aeefc549ee023d351eab","0","2025-07-30T08:47:39.531Z","","","","PreSkillQ","","","","","","","","","","","50","","","","","","","","","","","","","","","","","","","","","","","","","","",""
"3598","","<div style=""width:500px;"">
  <p>How well do you think you will perform in this task compared to other participants?</p>
  </div>","57","html-slider-response","11","386590","0.0-6.0-1.0","32","1","2025-07-30 08:41:15","36c45c0696341be0efffe67d72a12abb","195.23.71.162","Mozilla/5.0 (Windows NT 10.0; Win64; x64) AppleWebKit/537.36 (KHTML, like Gecko) Chrome/138.0.0.0 Safari/537.36","WebKit","Chrome","138.0.0.0","Windows","10.0","https://app.prolific.com/","pt-PT,pt;q=0.9,en-US;q=0.8,en;q=0.7","5e31aeefc549ee023d351eab","687a360dabe5252b5ada7185","6889daa88b156ddf24ad01b8","0","5e31aeefc549ee023d351eab","0","2025-07-30T08:47:43.130Z","","","","PrePerfQ","","","","","","","","","","","50","","","","","","","","","","","","","","","","","","","","","","","","","","",""
"3104","","<div style=""width:500px;"">
  <p>What best describes how you currently feel?</p>
  </div>","65","html-slider-response","12","389696","0.0-6.0-2.0","32","1","2025-07-30 08:41:15","36c45c0696341be0efffe67d72a12abb","195.23.71.162","Mozilla/5.0 (Windows NT 10.0; Win64; x64) AppleWebKit/537.36 (KHTML, like Gecko) Chrome/138.0.0.0 Safari/537.36","WebKit","Chrome","138.0.0.0","Windows","10.0","https://app.prolific.com/","pt-PT,pt;q=0.9,en-US;q=0.8,en;q=0.7","5e31aeefc549ee023d351eab","687a360dabe5252b5ada7185","6889daa88b156ddf24ad01b8","0","5e31aeefc549ee023d351eab","0","2025-07-30T08:47:46.236Z","","","","PreMotivationQ","","","","","","","","","","","50","","","","","","","","","","","","","","","","","","","","","","","","","","",""
"","","","","ctl-task-cpt","13","417554","0.0-7.0-0.0","32","1","2025-07-30 08:41:15","36c45c0696341be0efffe67d72a12abb","195.23.71.162","Mozilla/5.0 (Windows NT 10.0; Win64; x64) AppleWebKit/537.36 (KHTML, like Gecko) Chrome/138.0.0.0 Safari/537.36","WebKit","Chrome","138.0.0.0","Windows","10.0","https://app.prolific.com/","pt-PT,pt;q=0.9,en-US;q=0.8,en;q=0.7","5e31aeefc549ee023d351eab","687a360dabe5252b5ada7185","6889daa88b156ddf24ad01b8","0","5e31aeefc549ee023d351eab","0","2025-07-30T08:48:14.094Z","","","","","","","","","","","","","","","","win-only","2","g1:SE,g2:NW","1","1","0","390816.7","7731","12739.4","24841.1","1","4","8","6","1","1","0","0","0","0","1202.4","3000","1980","[""down"",""right""]","{""num_key_presses"":5,""num_perfect"":4,""num_errors"":1,""num_randdir"":0,""num_randdir_good_moves"":0,""num_whilered"":0,""num_whileblue"":0,""num_blue"":0,""num_good_moves"":4}","[355.8214362008231,352.32142761775424,0.5,355.8214362008231,352.32142761775424,107.6,355.8214362008231,352.32142761775424,210.7,355.8214362008231,352.32142761775424,318.6,353.3214362008231,354.82142761775424,419.4,267.0714362008231,301.07142761775424,522.3,159.5714362008231,176.07142761775424,628.4,205.8214362008231,216.07142761775424,738.3,555.8214362008231,611.0714276177542,839.1,575.8214362008231,622.3214276177542,950.1,595.8214362008231,632.3214276177542,1056.5,624.5714362008231,647.3214276177542,1168.9,630.8214362008231,648.5714276177542,1271.7,630.8214362008231,648.5714276177542,1375.1,630.8214362008231,648.5714276177542,1481,648.3214362008231,622.3214276177542,1589.2,642.0714362008231,614.8214276177542,1699.9,642.0714362008231,614.8214276177542,1805.6,642.0714362008231,614.8214276177542,1905.6,642.0714362008231,614.8214276177542,2006.5,642.0714362008231,614.8214276177542,2119.9,642.0714362008231,614.8214276177542,2230.8,642.0714362008231,614.8214276177542,2338.1,642.0714362008231,614.8214276177542,2438.2,642.0714362008231,614.8214276177542,2539.7,642.0714362008231,614.8214276177542,2639.9,642.0714362008231,614.8214276177542,2739.9,642.0714362008231,614.8214276177542,2839.9,642.0714362008231,614.8214276177542,2950.1,642.0714362008231,614.8214276177542,3050.4,642.0714362008231,614.8214276177542,3156.5,642.0714362008231,614.8214276177542,3256.9,642.0714362008231,614.8214276177542,3360.7,642.0714362008231,614.8214276177542,3460.9,642.0714362008231,614.8214276177542,3567.9,642.0714362008231,614.8214276177542,3668.2,642.0714362008231,614.8214276177542,3773.8,642.0714362008231,614.8214276177542,3879.9,642.0714362008231,614.8214276177542,3979.9,642.0714362008231,614.8214276177542,4087.6,642.0714362008231,614.8214276177542,4187.6,642.0714362008231,614.8214276177542,4287.9,642.0714362008231,614.8214276177542,4389.8,642.0714362008231,614.8214276177542,4491.2,642.0714362008231,614.8214276177542,4599.5,642.0714362008231,614.8214276177542,4707.8,642.0714362008231,614.8214276177542,4820.1,642.0714362008231,614.8214276177542,4921]","[372.9,372.9,1000,0,-627.1,""error"",""-"",""-"",""no_move"",4348.7,3975.5,2624.2,1381.6,342.9,""smooth"",""right"",""right"",""good_move"",6861,2511.9,2015.3,4349.1,496.6,""smooth"",""right"",""right"",""good_move"",9236.7,2375.5,2017.7,6861.3,357.8,""smooth"",""down"",""down"",""good_move"",11973.7,2736.6,2337.9,9237.1,398.7,""smooth"",""down"",""down"",""good_move""]"
"3211","","<div style=""width:500px;"">
  <p>What determined the result of this run?</p>
  </div>","100","html-slider-response","14","420767","0.0-7.0-1.0","32","1","2025-07-30 08:41:15","36c45c0696341be0efffe67d72a12abb","195.23.71.162","Mozilla/5.0 (Windows NT 10.0; Win64; x64) AppleWebKit/537.36 (KHTML, like Gecko) Chrome/138.0.0.0 Safari/537.36","WebKit","Chrome","138.0.0.0","Windows","10.0","https://app.prolific.com/","pt-PT,pt;q=0.9,en-US;q=0.8,en;q=0.7","5e31aeefc549ee023d351eab","687a360dabe5252b5ada7185","6889daa88b156ddf24ad01b8","0","5e31aeefc549ee023d351eab","0","2025-07-30T08:48:17.307Z","","","","AttribQ","","","","","","","","","","","50","","","","","","","","","","","","","","","","","","","","","","","","","","",""
"2663","","<div style=""width:500px;"">
  <p>How much control did you have over the ball?</p>
  </div>","100","html-slider-response","15","423430","0.0-7.0-2.0","32","1","2025-07-30 08:41:15","36c45c0696341be0efffe67d72a12abb","195.23.71.162","Mozilla/5.0 (Windows NT 10.0; Win64; x64) AppleWebKit/537.36 (KHTML, like Gecko) Chrome/138.0.0.0 Safari/537.36","WebKit","Chrome","138.0.0.0","Windows","10.0","https://app.prolific.com/","pt-PT,pt;q=0.9,en-US;q=0.8,en;q=0.7","5e31aeefc549ee023d351eab","687a360dabe5252b5ada7185","6889daa88b156ddf24ad01b8","0","5e31aeefc549ee023d351eab","0","2025-07-30T08:48:19.970Z","","","","ControlQ","","","","","","","","","","","50","","","","","","","","","","","","","","","","","","","","","","","","","","",""
"3367","","<div style=""width:500px;"">
  <p>How would you describe your current emotional state?</p>
  </div>","75","html-slider-response","16","426798","0.0-7.0-3.0","32","1","2025-07-30 08:41:15","36c45c0696341be0efffe67d72a12abb","195.23.71.162","Mozilla/5.0 (Windows NT 10.0; Win64; x64) AppleWebKit/537.36 (KHTML, like Gecko) Chrome/138.0.0.0 Safari/537.36","WebKit","Chrome","138.0.0.0","Windows","10.0","https://app.prolific.com/","pt-PT,pt;q=0.9,en-US;q=0.8,en;q=0.7","5e31aeefc549ee023d351eab","687a360dabe5252b5ada7185","6889daa88b156ddf24ad01b8","0","5e31aeefc549ee023d351eab","0","2025-07-30T08:48:23.338Z","","","","StressQ","","","","","","","","","","","50","","","","","","","","","","","","","","","","","","","","","","","","","","",""
"41375","","<div style=""width:500px;"">
  <p>What best describes how you currently feel?</p>
  </div>","85","html-slider-response","17","468175","0.0-7.0-4.0","32","1","2025-07-30 08:41:15","36c45c0696341be0efffe67d72a12abb","195.23.71.162","Mozilla/5.0 (Windows NT 10.0; Win64; x64) AppleWebKit/537.36 (KHTML, like Gecko) Chrome/138.0.0.0 Safari/537.36","WebKit","Chrome","138.0.0.0","Windows","10.0","https://app.prolific.com/","pt-PT,pt;q=0.9,en-US;q=0.8,en;q=0.7","5e31aeefc549ee023d351eab","687a360dabe5252b5ada7185","6889daa88b156ddf24ad01b8","0","5e31aeefc549ee023d351eab","0","2025-07-30T08:49:04.715Z","","","","MotivationQ","","","","","","","","","","","50","","","","","","","","","","","","","","","","","","","","","","","","","","",""
"","","","","ctl-task-cpt","18","516803","0.0-7.0-0.1","32","1","2025-07-30 08:41:15","36c45c0696341be0efffe67d72a12abb","195.23.71.162","Mozilla/5.0 (Windows NT 10.0; Win64; x64) AppleWebKit/537.36 (KHTML, like Gecko) Chrome/138.0.0.0 Safari/537.36","WebKit","Chrome","138.0.0.0","Windows","10.0","https://app.prolific.com/","pt-PT,pt;q=0.9,en-US;q=0.8,en;q=0.7","5e31aeefc549ee023d351eab","687a360dabe5252b5ada7185","6889daa88b156ddf24ad01b8","0","5e31aeefc549ee023d351eab","0","2025-07-30T08:49:53.343Z","","","","","","","","","","","","","","","","win-only","3","g1:SW,g2:NE","0.9","2","0","469291.8","1550.4","6553.1","45623.5","1","4","4","6","2","4","4","4","0","0.030303030303030304","1192.4","3000","945","[""up"",""right""]","{""num_key_presses"":8,""num_perfect"":7,""num_errors"":0,""num_randdir"":1,""num_randdir_good_moves"":0,""num_whilered"":0,""num_whileblue"":0,""num_blue"":5,""num_good_moves"":7}","[348.3214362008231,356.07142761775424,0.2,348.3214362008231,356.07142761775424,102.4,348.3214362008231,356.07142761775424,202.7,348.3214362008231,356.07142761775424,303.2,350.8214362008231,357.32142761775424,406,350.8214362008231,357.32142761775424,515.4,350.8214362008231,357.32142761775424,615.4,350.8214362008231,357.32142761775424,719.5,492.0714362008231,259.82142761775424,823.1,544.5714362008231,117.32142761775425,925.4,604.5714362008231,63.57142761775425,1034,615.8214362008231,68.57142761775425,1134.9,615.8214362008231,68.57142761775425,1235.2,615.8214362008231,68.57142761775425,1340.1,617.0714362008231,79.82142761775425,1444.3,655.8214362008231,174.82142761775424,1554.2,662.0714362008231,248.57142761775424,1654.8,779.5714362008231,349.82142761775424,1755,925.8214362008231,366.07142761775424,1855.8,913.3214362008231,343.57142761775424,1956.1,913.3214362008231,343.57142761775424,2065.8,913.3214362008231,343.57142761775424,2172,913.3214362008231,343.57142761775424,2272.9,913.3214362008231,343.57142761775424,2385.1,913.3214362008231,343.57142761775424,2485.1,913.3214362008231,343.57142761775424,2592.6,913.3214362008231,343.57142761775424,2692.6,913.3214362008231,343.57142761775424,2793.7,913.3214362008231,343.57142761775424,2894.3,913.3214362008231,343.57142761775424,3006.4,913.3214362008231,343.57142761775424,3115.4,913.3214362008231,343.57142761775424,3216,913.3214362008231,343.57142761775424,3322.4,913.3214362008231,343.57142761775424,3435.8,913.3214362008231,343.57142761775424,3543.4,913.3214362008231,343.57142761775424,3644.4,913.3214362008231,343.57142761775424,3755.7,913.3214362008231,343.57142761775424,3855.7,913.3214362008231,343.57142761775424,3956.2,913.3214362008231,343.57142761775424,4063.7,913.3214362008231,343.57142761775424,4164.7,913.3214362008231,343.57142761775424,4266,913.3214362008231,343.57142761775424,4366.8,913.3214362008231,343.57142761775424,4471.8,913.3214362008231,343.57142761775424,4573,913.3214362008231,343.57142761775424,4673.3,913.3214362008231,343.57142761775424,4773.6,913.3214362008231,343.57142761775424,4874.7,913.3214362008231,343.57142761775424,4986]","[1356,1356,1000,0,356,""smooth"",""right"",""right"",""good_move"",10748.6,9392.4,2450.7,7878,419.9,""smooth"",""right"",""right"",""good_move"",19947.7,9199,2067.5,17535.4,344.8,""smooth"",""right"",""right"",""good_move"",22892.9,2945,2335.4,19947.9,609.6,""smooth"",""up"",""up"",""good_move"",26115.8,3222.2,2839.9,22893.6,382.3,""oops"",""up"",""left"",""bad_move"",32097,5980.7,2043.9,29662.5,390.6,""smooth"",""up"",""up"",""good_move"",35196.3,3099.1,2686.5,32097.2,412.6,""smooth"",""up"",""up"",""good_move"",38924.4,3727.9,3374.6,35196.6,353.3,""smooth"",""right"",""right"",""good_move""]"
"4539","","<div style=""width:500px;"">
  <p>What determined the result of this run?</p>
  </div>","83","html-slider-response","19","521343","0.0-7.0-1.1","32","1","2025-07-30 08:41:15","36c45c0696341be0efffe67d72a12abb","195.23.71.162","Mozilla/5.0 (Windows NT 10.0; Win64; x64) AppleWebKit/537.36 (KHTML, like Gecko) Chrome/138.0.0.0 Safari/537.36","WebKit","Chrome","138.0.0.0","Windows","10.0","https://app.prolific.com/","pt-PT,pt;q=0.9,en-US;q=0.8,en;q=0.7","5e31aeefc549ee023d351eab","687a360dabe5252b5ada7185","6889daa88b156ddf24ad01b8","0","5e31aeefc549ee023d351eab","0","2025-07-30T08:49:57.883Z","","","","AttribQ","","","","","","","","","","","50","","","","","","","","","","","","","","","","","","","","","","","","","","",""
"8854","","<div style=""width:500px;"">
  <p>How much control did you have over the ball?</p>
  </div>","71","html-slider-response","20","530199","0.0-7.0-2.1","32","1","2025-07-30 08:41:15","36c45c0696341be0efffe67d72a12abb","195.23.71.162","Mozilla/5.0 (Windows NT 10.0; Win64; x64) AppleWebKit/537.36 (KHTML, like Gecko) Chrome/138.0.0.0 Safari/537.36","WebKit","Chrome","138.0.0.0","Windows","10.0","https://app.prolific.com/","pt-PT,pt;q=0.9,en-US;q=0.8,en;q=0.7","5e31aeefc549ee023d351eab","687a360dabe5252b5ada7185","6889daa88b156ddf24ad01b8","0","5e31aeefc549ee023d351eab","0","2025-07-30T08:50:06.739Z","","","","ControlQ","","","","","","","","","","","50","","","","","","","","","","","","","","","","","","","","","","","","","","",""
"2639","","<div style=""width:500px;"">
  <p>How would you describe your current emotional state?</p>
  </div>","34","html-slider-response","21","532840","0.0-7.0-3.1","32","1","2025-07-30 08:41:15","36c45c0696341be0efffe67d72a12abb","195.23.71.162","Mozilla/5.0 (Windows NT 10.0; Win64; x64) AppleWebKit/537.36 (KHTML, like Gecko) Chrome/138.0.0.0 Safari/537.36","WebKit","Chrome","138.0.0.0","Windows","10.0","https://app.prolific.com/","pt-PT,pt;q=0.9,en-US;q=0.8,en;q=0.7","5e31aeefc549ee023d351eab","687a360dabe5252b5ada7185","6889daa88b156ddf24ad01b8","0","5e31aeefc549ee023d351eab","0","2025-07-30T08:50:09.380Z","","","","StressQ","","","","","","","","","","","50","","","","","","","","","","","","","","","","","","","","","","","","","","",""
"2583","","<div style=""width:500px;"">
  <p>What best describes how you currently feel?</p>
  </div>","78","html-slider-response","22","535423","0.0-7.0-4.1","32","1","2025-07-30 08:41:15","36c45c0696341be0efffe67d72a12abb","195.23.71.162","Mozilla/5.0 (Windows NT 10.0; Win64; x64) AppleWebKit/537.36 (KHTML, like Gecko) Chrome/138.0.0.0 Safari/537.36","WebKit","Chrome","138.0.0.0","Windows","10.0","https://app.prolific.com/","pt-PT,pt;q=0.9,en-US;q=0.8,en;q=0.7","5e31aeefc549ee023d351eab","687a360dabe5252b5ada7185","6889daa88b156ddf24ad01b8","0","5e31aeefc549ee023d351eab","0","2025-07-30T08:50:11.964Z","","","","MotivationQ","","","","","","","","","","","50","","","","","","","","","","","","","","","","","","","","","","","","","","",""
"","","","","ctl-task-cpt","23","566712","0.0-7.0-0.2","32","1","2025-07-30 08:41:15","36c45c0696341be0efffe67d72a12abb","195.23.71.162","Mozilla/5.0 (Windows NT 10.0; Win64; x64) AppleWebKit/537.36 (KHTML, like Gecko) Chrome/138.0.0.0 Safari/537.36","WebKit","Chrome","138.0.0.0","Windows","10.0","https://app.prolific.com/","pt-PT,pt;q=0.9,en-US;q=0.8,en;q=0.7","5e31aeefc549ee023d351eab","687a360dabe5252b5ada7185","6889daa88b156ddf24ad01b8","0","5e31aeefc549ee023d351eab","0","2025-07-30T08:50:43.252Z","","","","","","","","","","","","","","","","win-only","0","g1:NW,g2:SE","0.8","3","0","536541.9","7966.8","12967.4","28274.1","1","4","8","6","1","1","1","5","4","0.03787878787878788","1101.6","3000","735","[""left"",""up""]","{""num_key_presses"":4,""num_perfect"":3,""num_errors"":0,""num_randdir"":1,""num_randdir_good_moves"":1,""num_whilered"":0,""num_whileblue"":0,""num_blue"":1,""num_good_moves"":4}","[352.0714362008231,361.07142761775424,0.4,352.0714362008231,361.07142761775424,107.3,352.0714362008231,361.07142761775424,207.5,352.0714362008231,361.07142761775424,307.5,352.0714362008231,361.07142761775424,414,370.8214362008231,409.82142761775424,514,350.8214362008231,357.32142761775424,615.2,103.3214362008231,118.57142761775425,719.6,93.3214362008231,87.32142761775425,827,59.5714362008231,52.32142761775425,929.3,29.5714362008231,32.32142761775425,1029.3,29.5714362008231,32.32142761775425,1131.3,29.5714362008231,32.32142761775425,1232.2,29.5714362008231,32.32142761775425,1337.5,29.5714362008231,32.32142761775425,1437.6,29.5714362008231,32.32142761775425,1539.1,29.5714362008231,32.32142761775425,1648.2,29.5714362008231,32.32142761775425,1748.7,29.5714362008231,32.32142761775425,1848.7,29.5714362008231,32.32142761775425,1949.7,29.5714362008231,32.32142761775425,2059.9,29.5714362008231,32.32142761775425,2167.2,29.5714362008231,32.32142761775425,2278.7,29.5714362008231,32.32142761775425,2379.2,29.5714362008231,32.32142761775425,2480.6,29.5714362008231,32.32142761775425,2589.7,29.5714362008231,32.32142761775425,2699.3,29.5714362008231,32.32142761775425,2800.4,29.5714362008231,32.32142761775425,2907.8,29.5714362008231,32.32142761775425,3008.1,29.5714362008231,32.32142761775425,3116.8,29.5714362008231,32.32142761775425,3217.3,29.5714362008231,32.32142761775425,3319,29.5714362008231,32.32142761775425,3429.8,29.5714362008231,32.32142761775425,3534.8,29.5714362008231,32.32142761775425,3639.6,29.5714362008231,32.32142761775425,3746.7,29.5714362008231,32.32142761775425,3847.1,29.5714362008231,32.32142761775425,3948.1,29.5714362008231,32.32142761775425,4048.5,29.5714362008231,32.32142761775425,4150.7,29.5714362008231,32.32142761775425,4257.3,29.5714362008231,32.32142761775425,4358.3,29.5714362008231,32.32142761775425,4458.5,29.5714362008231,32.32142761775425,4568.7,29.5714362008231,32.32142761775425,4668.7,29.5714362008231,32.32142761775425,4777.3,29.5714362008231,32.32142761775425,4877.4,29.5714362008231,32.32142761775425,4981.3]","[1657.2,1657.2,1000,0,657.2,""smooth"",""up"",""up"",""good_move"",8220.4,6562.9,2345,5489.9,385.5,""oops"",""left"",""left"",""good_move"",11875.3,3654.5,1611.4,8220.8,2043.1,""smooth"",""up"",""up"",""good_move"",15187.6,3312,2743.2,11875.6,568.8,""smooth"",""left"",""left"",""good_move""]"
"11702","","<div style=""width:500px;"">
  <p>What determined the result of this run?</p>
  </div>","66","html-slider-response","24","578415","0.0-7.0-1.2","32","1","2025-07-30 08:41:15","36c45c0696341be0efffe67d72a12abb","195.23.71.162","Mozilla/5.0 (Windows NT 10.0; Win64; x64) AppleWebKit/537.36 (KHTML, like Gecko) Chrome/138.0.0.0 Safari/537.36","WebKit","Chrome","138.0.0.0","Windows","10.0","https://app.prolific.com/","pt-PT,pt;q=0.9,en-US;q=0.8,en;q=0.7","5e31aeefc549ee023d351eab","687a360dabe5252b5ada7185","6889daa88b156ddf24ad01b8","0","5e31aeefc549ee023d351eab","0","2025-07-30T08:50:54.955Z","","","","AttribQ","","","","","","","","","","","50","","","","","","","","","","","","","","","","","","","","","","","","","","",""
"2943","","<div style=""width:500px;"">
  <p>How much control did you have over the ball?</p>
  </div>","77","html-slider-response","25","581360","0.0-7.0-2.2","32","1","2025-07-30 08:41:15","36c45c0696341be0efffe67d72a12abb","195.23.71.162","Mozilla/5.0 (Windows NT 10.0; Win64; x64) AppleWebKit/537.36 (KHTML, like Gecko) Chrome/138.0.0.0 Safari/537.36","WebKit","Chrome","138.0.0.0","Windows","10.0","https://app.prolific.com/","pt-PT,pt;q=0.9,en-US;q=0.8,en;q=0.7","5e31aeefc549ee023d351eab","687a360dabe5252b5ada7185","6889daa88b156ddf24ad01b8","0","5e31aeefc549ee023d351eab","0","2025-07-30T08:50:57.900Z","","","","ControlQ","","","","","","","","","","","50","","","","","","","","","","","","","","","","","","","","","","","","","","",""
"2839","","<div style=""width:500px;"">
  <p>How would you describe your current emotional state?</p>
  </div>","31","html-slider-response","26","584200","0.0-7.0-3.2","32","1","2025-07-30 08:41:15","36c45c0696341be0efffe67d72a12abb","195.23.71.162","Mozilla/5.0 (Windows NT 10.0; Win64; x64) AppleWebKit/537.36 (KHTML, like Gecko) Chrome/138.0.0.0 Safari/537.36","WebKit","Chrome","138.0.0.0","Windows","10.0","https://app.prolific.com/","pt-PT,pt;q=0.9,en-US;q=0.8,en;q=0.7","5e31aeefc549ee023d351eab","687a360dabe5252b5ada7185","6889daa88b156ddf24ad01b8","0","5e31aeefc549ee023d351eab","0","2025-07-30T08:51:00.740Z","","","","StressQ","","","","","","","","","","","50","","","","","","","","","","","","","","","","","","","","","","","","","","",""
"5911","","<div style=""width:500px;"">
  <p>What best describes how you currently feel?</p>
  </div>","76","html-slider-response","27","590112","0.0-7.0-4.2","32","1","2025-07-30 08:41:15","36c45c0696341be0efffe67d72a12abb","195.23.71.162","Mozilla/5.0 (Windows NT 10.0; Win64; x64) AppleWebKit/537.36 (KHTML, like Gecko) Chrome/138.0.0.0 Safari/537.36","WebKit","Chrome","138.0.0.0","Windows","10.0","https://app.prolific.com/","pt-PT,pt;q=0.9,en-US;q=0.8,en;q=0.7","5e31aeefc549ee023d351eab","687a360dabe5252b5ada7185","6889daa88b156ddf24ad01b8","0","5e31aeefc549ee023d351eab","0","2025-07-30T08:51:06.652Z","","","","MotivationQ","","","","","","","","","","","50","","","","","","","","","","","","","","","","","","","","","","","","","","",""
"","","","","ctl-task-cpt","28","635541","0.0-7.0-0.3","32","1","2025-07-30 08:41:15","36c45c0696341be0efffe67d72a12abb","195.23.71.162","Mozilla/5.0 (Windows NT 10.0; Win64; x64) AppleWebKit/537.36 (KHTML, like Gecko) Chrome/138.0.0.0 Safari/537.36","WebKit","Chrome","138.0.0.0","Windows","10.0","https://app.prolific.com/","pt-PT,pt;q=0.9,en-US;q=0.8,en;q=0.7","5e31aeefc549ee023d351eab","687a360dabe5252b5ada7185","6889daa88b156ddf24ad01b8","0","5e31aeefc549ee023d351eab","0","2025-07-30T08:51:52.081Z","","","","","","","","","","","","","","","","win-only","0","g1:NW,g2:SE","0.7","4","0","591228.4","926.3","5926.8","42410.1","1","4","4","6","2","4","4","9","5","0.06818181818181818","1495.7","3000","885","[""down"",""right""]","{""num_key_presses"":8,""num_perfect"":5,""num_errors"":0,""num_randdir"":3,""num_randdir_good_moves"":2,""num_whilered"":0,""num_whileblue"":0,""num_blue"":4,""num_good_moves"":7}","[350.8214362008231,364.82142761775424,0.2,350.8214362008231,364.82142761775424,103.9,350.8214362008231,364.82142761775424,206.6,359.5714362008231,361.07142761775424,311.8,359.5714362008231,361.07142761775424,414,359.5714362008231,361.07142761775424,523.6,359.5714362008231,361.07142761775424,623.9,359.5714362008231,361.07142761775424,725.3,359.5714362008231,361.07142761775424,831.9,359.5714362008231,361.07142761775424,934.6,627.0714362008231,709.8214276177542,1041.6,708.3214362008231,781.0714276177542,1144.2,694.5714362008231,669.8214276177542,1247.4,700.8214362008231,646.0714276177542,1353.3,678.3214362008231,651.0714276177542,1454.1,678.3214362008231,651.0714276177542,1558.8,680.8214362008231,648.5714276177542,1664.2,680.8214362008231,648.5714276177542,1773.9,680.8214362008231,648.5714276177542,1874.7,680.8214362008231,648.5714276177542,1980.5,680.8214362008231,648.5714276177542,2081.4,680.8214362008231,648.5714276177542,2182.1,680.8214362008231,648.5714276177542,2290.8,680.8214362008231,648.5714276177542,2397.1,680.8214362008231,648.5714276177542,2504,680.8214362008231,648.5714276177542,2604.7,680.8214362008231,648.5714276177542,2708.5,680.8214362008231,648.5714276177542,2809.9,680.8214362008231,648.5714276177542,2923.1,680.8214362008231,648.5714276177542,3024.2,680.8214362008231,648.5714276177542,3129.4,680.8214362008231,648.5714276177542,3234.6,680.8214362008231,648.5714276177542,3346.4,680.8214362008231,648.5714276177542,3451.4,680.8214362008231,648.5714276177542,3553.1,680.8214362008231,648.5714276177542,3654.8,680.8214362008231,648.5714276177542,3760.8,680.8214362008231,648.5714276177542,3873.5,680.8214362008231,648.5714276177542,3973.9,680.8214362008231,648.5714276177542,4075.1,680.8214362008231,648.5714276177542,4180.8,680.8214362008231,648.5714276177542,4282.4,680.8214362008231,648.5714276177542,4383.3,680.8214362008231,648.5714276177542,4494.7,680.8214362008231,648.5714276177542,4595.5,680.8214362008231,648.5714276177542,4698,680.8214362008231,648.5714276177542,4802.8,680.8214362008231,648.5714276177542,4904.3]","[1365.5,1365.5,1000,0,365.5,""smooth"",""down"",""down"",""good_move"",15314.6,13948.8,2573.5,12360.9,380.2,""smooth"",""right"",""right"",""good_move"",17710.1,2395,1937.2,15315.1,457.8,""oops"",""right"",""right"",""good_move"",20421.5,2711.1,2245.4,17710.5,465.6,""smooth"",""right"",""right"",""good_move"",27197.6,6776,2348.2,24462.4,387,""oops"",""down"",""up"",""bad_move"",30407.1,3209.1,2806.7,27198,402.4,""oops"",""down"",""down"",""good_move"",33573.9,3166.5,2797.3,30407.4,369.2,""smooth"",""down"",""down"",""good_move"",36367.2,2793,2401,33574.2,392,""smooth"",""down"",""down"",""good_move""]"
"4233","","<div style=""width:500px;"">
  <p>What determined the result of this run?</p>
  </div>","36","html-slider-response","29","639776","0.0-7.0-1.3","32","1","2025-07-30 08:41:15","36c45c0696341be0efffe67d72a12abb","195.23.71.162","Mozilla/5.0 (Windows NT 10.0; Win64; x64) AppleWebKit/537.36 (KHTML, like Gecko) Chrome/138.0.0.0 Safari/537.36","WebKit","Chrome","138.0.0.0","Windows","10.0","https://app.prolific.com/","pt-PT,pt;q=0.9,en-US;q=0.8,en;q=0.7","5e31aeefc549ee023d351eab","687a360dabe5252b5ada7185","6889daa88b156ddf24ad01b8","0","5e31aeefc549ee023d351eab","0","2025-07-30T08:51:56.316Z","","","","AttribQ","","","","","","","","","","","50","","","","","","","","","","","","","","","","","","","","","","","","","","",""
"3591","","<div style=""width:500px;"">
  <p>How much control did you have over the ball?</p>
  </div>","71","html-slider-response","30","643367","0.0-7.0-2.3","32","1","2025-07-30 08:41:15","36c45c0696341be0efffe67d72a12abb","195.23.71.162","Mozilla/5.0 (Windows NT 10.0; Win64; x64) AppleWebKit/537.36 (KHTML, like Gecko) Chrome/138.0.0.0 Safari/537.36","WebKit","Chrome","138.0.0.0","Windows","10.0","https://app.prolific.com/","pt-PT,pt;q=0.9,en-US;q=0.8,en;q=0.7","5e31aeefc549ee023d351eab","687a360dabe5252b5ada7185","6889daa88b156ddf24ad01b8","0","5e31aeefc549ee023d351eab","0","2025-07-30T08:51:59.907Z","","","","ControlQ","","","","","","","","","","","50","","","","","","","","","","","","","","","","","","","","","","","","","","",""
"10687","","<div style=""width:500px;"">
  <p>How would you describe your current emotional state?</p>
  </div>","35","html-slider-response","31","654055","0.0-7.0-3.3","32","1","2025-07-30 08:41:15","36c45c0696341be0efffe67d72a12abb","195.23.71.162","Mozilla/5.0 (Windows NT 10.0; Win64; x64) AppleWebKit/537.36 (KHTML, like Gecko) Chrome/138.0.0.0 Safari/537.36","WebKit","Chrome","138.0.0.0","Windows","10.0","https://app.prolific.com/","pt-PT,pt;q=0.9,en-US;q=0.8,en;q=0.7","5e31aeefc549ee023d351eab","687a360dabe5252b5ada7185","6889daa88b156ddf24ad01b8","0","5e31aeefc549ee023d351eab","0","2025-07-30T08:52:10.596Z","","","","StressQ","","","","","","","","","","","50","","","","","","","","","","","","","","","","","","","","","","","","","","",""
"7207","","<div style=""width:500px;"">
  <p>What best describes how you currently feel?</p>
  </div>","74","html-slider-response","32","661264","0.0-7.0-4.3","32","1","2025-07-30 08:41:15","36c45c0696341be0efffe67d72a12abb","195.23.71.162","Mozilla/5.0 (Windows NT 10.0; Win64; x64) AppleWebKit/537.36 (KHTML, like Gecko) Chrome/138.0.0.0 Safari/537.36","WebKit","Chrome","138.0.0.0","Windows","10.0","https://app.prolific.com/","pt-PT,pt;q=0.9,en-US;q=0.8,en;q=0.7","5e31aeefc549ee023d351eab","687a360dabe5252b5ada7185","6889daa88b156ddf24ad01b8","0","5e31aeefc549ee023d351eab","0","2025-07-30T08:52:17.804Z","","","","MotivationQ","","","","","","","","","","","50","","","","","","","","","","","","","","","","","","","","","","","","","","",""
"","","","","ctl-task-cpt","33","695303","0.0-7.0-0.4","32","1","2025-07-30 08:41:15","36c45c0696341be0efffe67d72a12abb","195.23.71.162","Mozilla/5.0 (Windows NT 10.0; Win64; x64) AppleWebKit/537.36 (KHTML, like Gecko) Chrome/138.0.0.0 Safari/537.36","WebKit","Chrome","138.0.0.0","Windows","10.0","https://app.prolific.com/","pt-PT,pt;q=0.9,en-US;q=0.8,en;q=0.7","5e31aeefc549ee023d351eab","687a360dabe5252b5ada7185","6889daa88b156ddf24ad01b8","0","5e31aeefc549ee023d351eab","0","2025-07-30T08:52:51.843Z","","","","","","","","","","","","","","","","win-only","1","g1:NE,g2:SW","0.6","5","0","662380.2","2038.6","7046.1","31017.2","1","4","8","6","1","1","1","10","9","0.07575757575757576","1248.1","3000","785","[""up"",""right""]","{""num_key_presses"":6,""num_perfect"":5,""num_errors"":0,""num_randdir"":1,""num_randdir_good_moves"":0,""num_whilered"":0,""num_whileblue"":0,""num_blue"":2,""num_good_moves"":5}","[363.3214362008231,358.57142761775424,0.2,363.3214362008231,358.57142761775424,101.8,363.3214362008231,358.57142761775424,202,363.3214362008231,358.57142761775424,308.5,363.3214362008231,358.57142761775424,416.6,363.3214362008231,358.57142761775424,528.1,363.3214362008231,358.57142761775424,637.7,585.8214362008231,126.07142761775425,745.1,589.5714362008231,97.32142761775425,847.5,635.8214362008231,47.32142761775425,958.6,658.3214362008231,29.821427617754253,1068,658.3214362008231,28.571427617754253,1175.9,658.3214362008231,28.571427617754253,1284.7,658.3214362008231,28.571427617754253,1386.7,665.8214362008231,23.571427617754253,1487.3,699.5714362008231,6.071427617754253,1587.5,699.5714362008231,6.071427617754253,1694.4,699.5714362008231,6.071427617754253,1794.9,699.5714362008231,6.071427617754253,1903.7,699.5714362008231,6.071427617754253,2007.1,699.5714362008231,6.071427617754253,2116.8,699.5714362008231,6.071427617754253,2217.1,699.5714362008231,6.071427617754253,2326.4,699.5714362008231,6.071427617754253,2434.4,699.5714362008231,6.071427617754253,2534.6,699.5714362008231,6.071427617754253,2642.2,699.5714362008231,6.071427617754253,2757.9,699.5714362008231,6.071427617754253,2866.2,699.5714362008231,6.071427617754253,2966.7,699.5714362008231,6.071427617754253,3072.4,699.5714362008231,6.071427617754253,3174.2,699.5714362008231,6.071427617754253,3279.3,699.5714362008231,6.071427617754253,3384.1,699.5714362008231,6.071427617754253,3486.6,699.5714362008231,6.071427617754253,3588.4,699.5714362008231,6.071427617754253,3694.5,699.5714362008231,6.071427617754253,3794.7,699.5714362008231,6.071427617754253,3897.1,699.5714362008231,6.071427617754253,3997.7,699.5714362008231,6.071427617754253,4098.7,699.5714362008231,6.071427617754253,4207.7,699.5714362008231,6.071427617754253,4313.4,699.5714362008231,6.071427617754253,4416.2,699.5714362008231,6.071427617754253,4517.2,699.5714362008231,6.071427617754253,4626.7,699.5714362008231,6.071427617754253,4736.4,699.5714362008231,6.071427617754253,4840.7,699.5714362008231,6.071427617754253,4942.4]","[8488.3,8488.3,2752.8,5326.7,408.8,""smooth"",""right"",""right"",""good_move"",12054.7,3566,3083.1,8488.7,482.9,""smooth"",""right"",""right"",""good_move"",15270.7,3215.7,2868.7,12055,347,""smooth"",""up"",""up"",""good_move"",17865.1,2593.6,2180.1,15271.5,413.5,""oops"",""up"",""left"",""bad_move"",20439.4,2573.6,1969.9,17865.8,603.7,""smooth"",""up"",""up"",""good_move"",23839.9,3400.1,2475.4,20439.9,924.6,""smooth"",""right"",""right"",""good_move""]"
"3232","","<div style=""width:500px;"">
  <p>What determined the result of this run?</p>
  </div>","83","html-slider-response","34","698537","0.0-7.0-1.4","32","1","2025-07-30 08:41:15","36c45c0696341be0efffe67d72a12abb","195.23.71.162","Mozilla/5.0 (Windows NT 10.0; Win64; x64) AppleWebKit/537.36 (KHTML, like Gecko) Chrome/138.0.0.0 Safari/537.36","WebKit","Chrome","138.0.0.0","Windows","10.0","https://app.prolific.com/","pt-PT,pt;q=0.9,en-US;q=0.8,en;q=0.7","5e31aeefc549ee023d351eab","687a360dabe5252b5ada7185","6889daa88b156ddf24ad01b8","0","5e31aeefc549ee023d351eab","0","2025-07-30T08:52:55.077Z","","","","AttribQ","","","","","","","","","","","50","","","","","","","","","","","","","","","","","","","","","","","","","","",""
"2942","","<div style=""width:500px;"">
  <p>How much control did you have over the ball?</p>
  </div>","91","html-slider-response","35","701480","0.0-7.0-2.4","32","1","2025-07-30 08:41:15","36c45c0696341be0efffe67d72a12abb","195.23.71.162","Mozilla/5.0 (Windows NT 10.0; Win64; x64) AppleWebKit/537.36 (KHTML, like Gecko) Chrome/138.0.0.0 Safari/537.36","WebKit","Chrome","138.0.0.0","Windows","10.0","https://app.prolific.com/","pt-PT,pt;q=0.9,en-US;q=0.8,en;q=0.7","5e31aeefc549ee023d351eab","687a360dabe5252b5ada7185","6889daa88b156ddf24ad01b8","0","5e31aeefc549ee023d351eab","0","2025-07-30T08:52:58.020Z","","","","ControlQ","","","","","","","","","","","50","","","","","","","","","","","","","","","","","","","","","","","","","","",""
"2711","","<div style=""width:500px;"">
  <p>How would you describe your current emotional state?</p>
  </div>","16","html-slider-response","36","704192","0.0-7.0-3.4","32","1","2025-07-30 08:41:15","36c45c0696341be0efffe67d72a12abb","195.23.71.162","Mozilla/5.0 (Windows NT 10.0; Win64; x64) AppleWebKit/537.36 (KHTML, like Gecko) Chrome/138.0.0.0 Safari/537.36","WebKit","Chrome","138.0.0.0","Windows","10.0","https://app.prolific.com/","pt-PT,pt;q=0.9,en-US;q=0.8,en;q=0.7","5e31aeefc549ee023d351eab","687a360dabe5252b5ada7185","6889daa88b156ddf24ad01b8","0","5e31aeefc549ee023d351eab","0","2025-07-30T08:53:00.732Z","","","","StressQ","","","","","","","","","","","50","","","","","","","","","","","","","","","","","","","","","","","","","","",""
"2808","","<div style=""width:500px;"">
  <p>What best describes how you currently feel?</p>
  </div>","87","html-slider-response","37","707001","0.0-7.0-4.4","32","1","2025-07-30 08:41:15","36c45c0696341be0efffe67d72a12abb","195.23.71.162","Mozilla/5.0 (Windows NT 10.0; Win64; x64) AppleWebKit/537.36 (KHTML, like Gecko) Chrome/138.0.0.0 Safari/537.36","WebKit","Chrome","138.0.0.0","Windows","10.0","https://app.prolific.com/","pt-PT,pt;q=0.9,en-US;q=0.8,en;q=0.7","5e31aeefc549ee023d351eab","687a360dabe5252b5ada7185","6889daa88b156ddf24ad01b8","0","5e31aeefc549ee023d351eab","0","2025-07-30T08:53:03.541Z","","","","MotivationQ","","","","","","","","","","","50","","","","","","","","","","","","","","","","","","","","","","","","","","",""
"","","","","ctl-task-cpt","38","730278","0.0-7.0-0.5","32","1","2025-07-30 08:41:15","36c45c0696341be0efffe67d72a12abb","195.23.71.162","Mozilla/5.0 (Windows NT 10.0; Win64; x64) AppleWebKit/537.36 (KHTML, like Gecko) Chrome/138.0.0.0 Safari/537.36","WebKit","Chrome","138.0.0.0","Windows","10.0","https://app.prolific.com/","pt-PT,pt;q=0.9,en-US;q=0.8,en;q=0.7","5e31aeefc549ee023d351eab","687a360dabe5252b5ada7185","6889daa88b156ddf24ad01b8","0","5e31aeefc549ee023d351eab","0","2025-07-30T08:53:26.818Z","","","","","","","","","","","","","","","","win-only","2","g1:SE,g2:NW","0.5","6","0","708117.7","3413.6","8415.9","20266.3","1","4","4","6","1","1","1","11","10","0.08333333333333333","1615.8","3000","1585","[""down"",""right""]","{""num_key_presses"":4,""num_perfect"":4,""num_errors"":0,""num_randdir"":0,""num_randdir_good_moves"":0,""num_whilered"":0,""num_whileblue"":0,""num_blue"":0,""num_good_moves"":4}","[350.8214362008231,356.07142761775424,0.3,350.8214362008231,356.07142761775424,107.4,350.8214362008231,356.07142761775424,212.1,350.8214362008231,356.07142761775424,317.5,359.5714362008231,364.82142761775424,425.7,525.8214362008231,474.82142761775424,526.4,599.5714362008231,556.0714276177542,627.7,585.8214362008231,596.0714276177542,731.6,424.5714362008231,542.3214276177542,834.1,125.8214362008231,248.57142761775424,937.7,94.5714362008231,151.07142761775424,1038.9,258.3214362008231,383.57142761775424,1142.9,654.5714362008231,731.0714276177542,1248.7,655.8214362008231,731.0714276177542,1360.1,710.8214362008231,731.0714276177542,1463.6,652.0714362008231,668.5714276177542,1569.3,649.5714362008231,666.0714276177542,1673.4,647.0714362008231,666.0714276177542,1781.7,655.8214362008231,661.0714276177542,1883,655.8214362008231,661.0714276177542,1991.6,655.8214362008231,661.0714276177542,2092.2,655.8214362008231,661.0714276177542,2192.5,655.8214362008231,661.0714276177542,2293.5,655.8214362008231,661.0714276177542,2398,655.8214362008231,661.0714276177542,2499,655.8214362008231,661.0714276177542,2599.4,655.8214362008231,661.0714276177542,2699.8,655.8214362008231,661.0714276177542,2800.7,655.8214362008231,661.0714276177542,2902.9,655.8214362008231,661.0714276177542,3012.8,655.8214362008231,661.0714276177542,3122.9,655.8214362008231,661.0714276177542,3223.2,655.8214362008231,661.0714276177542,3334.2,655.8214362008231,661.0714276177542,3441.8,655.8214362008231,661.0714276177542,3544.2,655.8214362008231,661.0714276177542,3650.9,655.8214362008231,661.0714276177542,3761.8,655.8214362008231,661.0714276177542,3866.9,655.8214362008231,661.0714276177542,3967.6,655.8214362008231,661.0714276177542,4068,655.8214362008231,661.0714276177542,4168.4,655.8214362008231,661.0714276177542,4283.3,655.8214362008231,661.0714276177542,4384.5,655.8214362008231,661.0714276177542,4490.8,655.8214362008231,661.0714276177542,4592.5,655.8214362008231,661.0714276177542,4701.8,655.8214362008231,661.0714276177542,4803.3,655.8214362008231,661.0714276177542,4903.4]","[1524.3,1524.3,1000,0,524.3,""smooth"",""right"",""right"",""good_move"",5324.5,3799.6,3234.9,1524.9,564.7,""smooth"",""right"",""right"",""good_move"",8907.8,3582.9,2715.3,5324.9,867.6,""smooth"",""down"",""down"",""good_move"",11715.2,2807,2452.6,8908.2,354.4,""smooth"",""down"",""down"",""good_move""]"
"12480","","<div style=""width:500px;"">
  <p>What determined the result of this run?</p>
  </div>","83","html-slider-response","39","742759","0.0-7.0-1.5","32","1","2025-07-30 08:41:15","36c45c0696341be0efffe67d72a12abb","195.23.71.162","Mozilla/5.0 (Windows NT 10.0; Win64; x64) AppleWebKit/537.36 (KHTML, like Gecko) Chrome/138.0.0.0 Safari/537.36","WebKit","Chrome","138.0.0.0","Windows","10.0","https://app.prolific.com/","pt-PT,pt;q=0.9,en-US;q=0.8,en;q=0.7","5e31aeefc549ee023d351eab","687a360dabe5252b5ada7185","6889daa88b156ddf24ad01b8","0","5e31aeefc549ee023d351eab","0","2025-07-30T08:53:39.300Z","","","","AttribQ","","","","","","","","","","","50","","","","","","","","","","","","","","","","","","","","","","","","","","",""
"3696","","<div style=""width:500px;"">
  <p>How much control did you have over the ball?</p>
  </div>","98","html-slider-response","40","746456","0.0-7.0-2.5","32","1","2025-07-30 08:41:15","36c45c0696341be0efffe67d72a12abb","195.23.71.162","Mozilla/5.0 (Windows NT 10.0; Win64; x64) AppleWebKit/537.36 (KHTML, like Gecko) Chrome/138.0.0.0 Safari/537.36","WebKit","Chrome","138.0.0.0","Windows","10.0","https://app.prolific.com/","pt-PT,pt;q=0.9,en-US;q=0.8,en;q=0.7","5e31aeefc549ee023d351eab","687a360dabe5252b5ada7185","6889daa88b156ddf24ad01b8","0","5e31aeefc549ee023d351eab","0","2025-07-30T08:53:42.997Z","","","","ControlQ","","","","","","","","","","","50","","","","","","","","","","","","","","","","","","","","","","","","","","",""
"2830","","<div style=""width:500px;"">
  <p>How would you describe your current emotional state?</p>
  </div>","7","html-slider-response","41","749288","0.0-7.0-3.5","32","1","2025-07-30 08:41:15","36c45c0696341be0efffe67d72a12abb","195.23.71.162","Mozilla/5.0 (Windows NT 10.0; Win64; x64) AppleWebKit/537.36 (KHTML, like Gecko) Chrome/138.0.0.0 Safari/537.36","WebKit","Chrome","138.0.0.0","Windows","10.0","https://app.prolific.com/","pt-PT,pt;q=0.9,en-US;q=0.8,en;q=0.7","5e31aeefc549ee023d351eab","687a360dabe5252b5ada7185","6889daa88b156ddf24ad01b8","0","5e31aeefc549ee023d351eab","0","2025-07-30T08:53:45.828Z","","","","StressQ","","","","","","","","","","","50","","","","","","","","","","","","","","","","","","","","","","","","","","",""
"5088","","<div style=""width:500px;"">
  <p>What best describes how you currently feel?</p>
  </div>","86","html-slider-response","42","754376","0.0-7.0-4.5","32","1","2025-07-30 08:41:15","36c45c0696341be0efffe67d72a12abb","195.23.71.162","Mozilla/5.0 (Windows NT 10.0; Win64; x64) AppleWebKit/537.36 (KHTML, like Gecko) Chrome/138.0.0.0 Safari/537.36","WebKit","Chrome","138.0.0.0","Windows","10.0","https://app.prolific.com/","pt-PT,pt;q=0.9,en-US;q=0.8,en;q=0.7","5e31aeefc549ee023d351eab","687a360dabe5252b5ada7185","6889daa88b156ddf24ad01b8","0","5e31aeefc549ee023d351eab","0","2025-07-30T08:53:50.916Z","","","","MotivationQ","","","","","","","","","","","50","","","","","","","","","","","","","","","","","","","","","","","","","","",""
"","","","","ctl-task-cpt","43","777955","0.0-7.0-0.6","32","1","2025-07-30 08:41:15","36c45c0696341be0efffe67d72a12abb","195.23.71.162","Mozilla/5.0 (Windows NT 10.0; Win64; x64) AppleWebKit/537.36 (KHTML, like Gecko) Chrome/138.0.0.0 Safari/537.36","WebKit","Chrome","138.0.0.0","Windows","10.0","https://app.prolific.com/","pt-PT,pt;q=0.9,en-US;q=0.8,en;q=0.7","5e31aeefc549ee023d351eab","687a360dabe5252b5ada7185","6889daa88b156ddf24ad01b8","0","5e31aeefc549ee023d351eab","0","2025-07-30T08:54:14.495Z","","","","","","","","","","","","","","","","win-only","3","g1:SW,g2:NE","0.4","7","0","755492.9","1734.3","6736.5","20558.9","1","4","8","6","1","1","1","12","11","0.09090909090909091","1491.3","3000","2055","[""down"",""left""]","{""num_key_presses"":4,""num_perfect"":2,""num_errors"":0,""num_randdir"":2,""num_randdir_good_moves"":2,""num_whilered"":0,""num_whileblue"":0,""num_blue"":1,""num_good_moves"":4}","[363.3214362008231,356.07142761775424,0.3,363.3214362008231,356.07142761775424,113.8,363.3214362008231,356.07142761775424,217.7,363.3214362008231,356.07142761775424,323.8,363.3214362008231,356.07142761775424,424.6,339.5714362008231,349.82142761775424,527.4,320.8214362008231,351.07142761775424,634.1,440.8214362008231,202.32142761775424,735.1,523.3214362008231,131.07142761775424,838.6,360.8214362008231,299.82142761775424,939,97.0714362008231,628.5714276177542,1054.7,79.5714362008231,634.8214276177542,1156,45.8214362008231,637.3214276177542,1262.9,5.821436200823101,647.3214276177542,1363.5,49.5714362008231,642.3214276177542,1463.9,50.8214362008231,642.3214276177542,1565.2,50.8214362008231,642.3214276177542,1667.2,50.8214362008231,642.3214276177542,1772.1,169.5714362008231,658.5714276177542,1876.6,378.3214362008231,658.5714276177542,1977.1,395.8214362008231,621.0714276177542,2078.2,395.8214362008231,621.0714276177542,2184.4,395.8214362008231,621.0714276177542,2292.5,395.8214362008231,621.0714276177542,2393.8,395.8214362008231,621.0714276177542,2495.4,395.8214362008231,621.0714276177542,2596.4,395.8214362008231,621.0714276177542,2697,395.8214362008231,621.0714276177542,2805.5,395.8214362008231,621.0714276177542,2908.5,395.8214362008231,621.0714276177542,3016,395.8214362008231,621.0714276177542,3116,395.8214362008231,621.0714276177542,3217.5,395.8214362008231,621.0714276177542,3318.3,395.8214362008231,621.0714276177542,3425.7,395.8214362008231,621.0714276177542,3526.2,395.8214362008231,621.0714276177542,3628.1,395.8214362008231,621.0714276177542,3737.7,395.8214362008231,621.0714276177542,3852,395.8214362008231,621.0714276177542,3954.6,395.8214362008231,621.0714276177542,4056.9,395.8214362008231,621.0714276177542,4166.5,395.8214362008231,621.0714276177542,4276.6,395.8214362008231,621.0714276177542,4380.3,395.8214362008231,621.0714276177542,4485.9,395.8214362008231,621.0714276177542,4593.3,395.8214362008231,621.0714276177542,4696.9,395.8214362008231,621.0714276177542,4803.2,395.8214362008231,621.0714276177542,4913.6]","[1372,1372.1,1000,0,372.1,""oops"",""left"",""left"",""good_move"",3972.2,2599.6,2220.5,1372.6,379.1,""smooth"",""left"",""left"",""good_move"",6812.5,2839.9,2448.9,3972.6,391,""oops"",""down"",""down"",""good_move"",13660,6846.7,2869,10423.3,367.7,""smooth"",""down"",""down"",""good_move""]"
"3492","","<div style=""width:500px;"">
  <p>What determined the result of this run?</p>
  </div>","87","html-slider-response","44","781448","0.0-7.0-1.6","32","1","2025-07-30 08:41:15","36c45c0696341be0efffe67d72a12abb","195.23.71.162","Mozilla/5.0 (Windows NT 10.0; Win64; x64) AppleWebKit/537.36 (KHTML, like Gecko) Chrome/138.0.0.0 Safari/537.36","WebKit","Chrome","138.0.0.0","Windows","10.0","https://app.prolific.com/","pt-PT,pt;q=0.9,en-US;q=0.8,en;q=0.7","5e31aeefc549ee023d351eab","687a360dabe5252b5ada7185","6889daa88b156ddf24ad01b8","0","5e31aeefc549ee023d351eab","0","2025-07-30T08:54:17.988Z","","","","AttribQ","","","","","","","","","","","50","","","","","","","","","","","","","","","","","","","","","","","","","","",""
"2806","","<div style=""width:500px;"">
  <p>How much control did you have over the ball?</p>
  </div>","92","html-slider-response","45","784256","0.0-7.0-2.6","32","1","2025-07-30 08:41:15","36c45c0696341be0efffe67d72a12abb","195.23.71.162","Mozilla/5.0 (Windows NT 10.0; Win64; x64) AppleWebKit/537.36 (KHTML, like Gecko) Chrome/138.0.0.0 Safari/537.36","WebKit","Chrome","138.0.0.0","Windows","10.0","https://app.prolific.com/","pt-PT,pt;q=0.9,en-US;q=0.8,en;q=0.7","5e31aeefc549ee023d351eab","687a360dabe5252b5ada7185","6889daa88b156ddf24ad01b8","0","5e31aeefc549ee023d351eab","0","2025-07-30T08:54:20.796Z","","","","ControlQ","","","","","","","","","","","50","","","","","","","","","","","","","","","","","","","","","","","","","","",""
"2359","","<div style=""width:500px;"">
  <p>How would you describe your current emotional state?</p>
  </div>","6","html-slider-response","46","786616","0.0-7.0-3.6","32","1","2025-07-30 08:41:15","36c45c0696341be0efffe67d72a12abb","195.23.71.162","Mozilla/5.0 (Windows NT 10.0; Win64; x64) AppleWebKit/537.36 (KHTML, like Gecko) Chrome/138.0.0.0 Safari/537.36","WebKit","Chrome","138.0.0.0","Windows","10.0","https://app.prolific.com/","pt-PT,pt;q=0.9,en-US;q=0.8,en;q=0.7","5e31aeefc549ee023d351eab","687a360dabe5252b5ada7185","6889daa88b156ddf24ad01b8","0","5e31aeefc549ee023d351eab","0","2025-07-30T08:54:23.156Z","","","","StressQ","","","","","","","","","","","50","","","","","","","","","","","","","","","","","","","","","","","","","","",""
"4783","","<div style=""width:500px;"">
  <p>What best describes how you currently feel?</p>
  </div>","96","html-slider-response","47","791400","0.0-7.0-4.6","32","1","2025-07-30 08:41:15","36c45c0696341be0efffe67d72a12abb","195.23.71.162","Mozilla/5.0 (Windows NT 10.0; Win64; x64) AppleWebKit/537.36 (KHTML, like Gecko) Chrome/138.0.0.0 Safari/537.36","WebKit","Chrome","138.0.0.0","Windows","10.0","https://app.prolific.com/","pt-PT,pt;q=0.9,en-US;q=0.8,en;q=0.7","5e31aeefc549ee023d351eab","687a360dabe5252b5ada7185","6889daa88b156ddf24ad01b8","0","5e31aeefc549ee023d351eab","0","2025-07-30T08:54:27.940Z","","","","MotivationQ","","","","","","","","","","","50","","","","","","","","","","","","","","","","","","","","","","","","","","",""
"","","","","ctl-task-cpt","48","832751","0.0-7.0-0.7","32","1","2025-07-30 08:41:15","36c45c0696341be0efffe67d72a12abb","195.23.71.162","Mozilla/5.0 (Windows NT 10.0; Win64; x64) AppleWebKit/537.36 (KHTML, like Gecko) Chrome/138.0.0.0 Safari/537.36","WebKit","Chrome","138.0.0.0","Windows","10.0","https://app.prolific.com/","pt-PT,pt;q=0.9,en-US;q=0.8,en;q=0.7","5e31aeefc549ee023d351eab","687a360dabe5252b5ada7185","6889daa88b156ddf24ad01b8","0","5e31aeefc549ee023d351eab","0","2025-07-30T08:55:09.292Z","","","","","","","","","","","","","","","","win-only","1","g1:NE,g2:SW","0.3","8","0","792516.5","1182.5","6187.2","38329","1","4","4","6","1","-1","-1","11","12","0.08333333333333333","1265.2","3000","-2140","[""up"",""right""]","{""num_key_presses"":10,""num_perfect"":3,""num_errors"":0,""num_randdir"":7,""num_randdir_good_moves"":2,""num_whilered"":0,""num_whileblue"":0,""num_blue"":1,""num_good_moves"":5}","[359.5714362008231,359.82142761775424,0.2,359.5714362008231,359.82142761775424,106,359.5714362008231,359.82142761775424,211.7,359.5714362008231,359.82142761775424,313,458.3214362008231,346.07142761775424,424.6,394.5714362008231,392.32142761775424,530,197.0714362008231,589.8214276177542,638.4,660.8214362008231,197.32142761775424,741,695.8214362008231,97.32142761775425,842.8,695.8214362008231,93.57142761775425,943.8,700.8214362008231,46.07142761775425,1044.6,710.8214362008231,28.571427617754253,1149.9,683.3214362008231,53.57142761775425,1252.2,683.3214362008231,53.57142761775425,1354.7,683.3214362008231,53.57142761775425,1463.2,683.3214362008231,53.57142761775425,1568.2,677.0714362008231,58.57142761775425,1669.5,675.8214362008231,56.07142761775425,1770.2,675.8214362008231,56.07142761775425,1873,675.8214362008231,56.07142761775425,1974.7,675.8214362008231,56.07142761775425,2078,675.8214362008231,56.07142761775425,2187.5,675.8214362008231,56.07142761775425,2294.1,675.8214362008231,56.07142761775425,2405.5,675.8214362008231,56.07142761775425,2514.9,675.8214362008231,56.07142761775425,2619,675.8214362008231,56.07142761775425,2724.1,675.8214362008231,56.07142761775425,2830.7,675.8214362008231,56.07142761775425,2944,675.8214362008231,56.07142761775425,3044.6,675.8214362008231,56.07142761775425,3147.9,675.8214362008231,56.07142761775425,3252.4,675.8214362008231,56.07142761775425,3356.4,675.8214362008231,56.07142761775425,3460.8,675.8214362008231,56.07142761775425,3564,675.8214362008231,56.07142761775425,3668.5,675.8214362008231,56.07142761775425,3774.7,675.8214362008231,56.07142761775425,3882.3,675.8214362008231,56.07142761775425,3985.7,675.8214362008231,56.07142761775425,4088.3,675.8214362008231,56.07142761775425,4196.3,675.8214362008231,56.07142761775425,4298.8,675.8214362008231,56.07142761775425,4403.7,675.8214362008231,56.07142761775425,4504.5,675.8214362008231,56.07142761775425,4604.8,675.8214362008231,56.07142761775425,4715.8,675.8214362008231,56.07142761775425,4818.3,675.8214362008231,56.07142761775425,4919.8]","[1441.8,1441.8,1000,0,441.8,""oops"",""right"",""down"",""bad_move"",4188.7,2746.5,2283.1,1442.2,463.4,""oops"",""right"",""down"",""bad_move"",6673.7,2484.8,2081.8,4188.9,403,""smooth"",""right"",""right"",""good_move"",9551.5,2877,2481.9,6674.5,395.2,""oops"",""right"",""left"",""bad_move"",12555.6,3003.2,2542.7,9552.4,460.5,""oops"",""up"",""right"",""good_move"",15505.4,2949.5,2569.8,12555.9,379.7,""oops"",""up"",""right"",""good_move"",17627.3,2121.6,1732.6,15505.7,389,""oops"",""up"",""down"",""bad_move"",20081.3,2453.4,2045.6,17628,407.7,""smooth"",""up"",""up"",""good_move"",26505.3,6423.5,2939.8,23194.2,371.3,""smooth"",""up"",""up"",""good_move"",29362.1,2856.6,2472.1,26505.5,384.6,""oops"",""up"",""left"",""bad_move""]"
"4511","","<div style=""width:500px;"">
  <p>What determined the result of this run?</p>
  </div>","0","html-slider-response","49","837264","0.0-7.0-1.7","32","1","2025-07-30 08:41:15","36c45c0696341be0efffe67d72a12abb","195.23.71.162","Mozilla/5.0 (Windows NT 10.0; Win64; x64) AppleWebKit/537.36 (KHTML, like Gecko) Chrome/138.0.0.0 Safari/537.36","WebKit","Chrome","138.0.0.0","Windows","10.0","https://app.prolific.com/","pt-PT,pt;q=0.9,en-US;q=0.8,en;q=0.7","5e31aeefc549ee023d351eab","687a360dabe5252b5ada7185","6889daa88b156ddf24ad01b8","0","5e31aeefc549ee023d351eab","0","2025-07-30T08:55:13.804Z","","","","AttribQ","","","","","","","","","","","50","","","","","","","","","","","","","","","","","","","","","","","","","","",""
"2207","","<div style=""width:500px;"">
  <p>How much control did you have over the ball?</p>
  </div>","6","html-slider-response","50","839472","0.0-7.0-2.7","32","1","2025-07-30 08:41:15","36c45c0696341be0efffe67d72a12abb","195.23.71.162","Mozilla/5.0 (Windows NT 10.0; Win64; x64) AppleWebKit/537.36 (KHTML, like Gecko) Chrome/138.0.0.0 Safari/537.36","WebKit","Chrome","138.0.0.0","Windows","10.0","https://app.prolific.com/","pt-PT,pt;q=0.9,en-US;q=0.8,en;q=0.7","5e31aeefc549ee023d351eab","687a360dabe5252b5ada7185","6889daa88b156ddf24ad01b8","0","5e31aeefc549ee023d351eab","0","2025-07-30T08:55:16.012Z","","","","ControlQ","","","","","","","","","","","50","","","","","","","","","","","","","","","","","","","","","","","","","","",""
"2623","","<div style=""width:500px;"">
  <p>How would you describe your current emotional state?</p>
  </div>","14","html-slider-response","51","842096","0.0-7.0-3.7","32","1","2025-07-30 08:41:15","36c45c0696341be0efffe67d72a12abb","195.23.71.162","Mozilla/5.0 (Windows NT 10.0; Win64; x64) AppleWebKit/537.36 (KHTML, like Gecko) Chrome/138.0.0.0 Safari/537.36","WebKit","Chrome","138.0.0.0","Windows","10.0","https://app.prolific.com/","pt-PT,pt;q=0.9,en-US;q=0.8,en;q=0.7","5e31aeefc549ee023d351eab","687a360dabe5252b5ada7185","6889daa88b156ddf24ad01b8","0","5e31aeefc549ee023d351eab","0","2025-07-30T08:55:18.636Z","","","","StressQ","","","","","","","","","","","50","","","","","","","","","","","","","","","","","","","","","","","","","","",""
"2175","","<div style=""width:500px;"">
  <p>What best describes how you currently feel?</p>
  </div>","92","html-slider-response","52","844272","0.0-7.0-4.7","32","1","2025-07-30 08:41:15","36c45c0696341be0efffe67d72a12abb","195.23.71.162","Mozilla/5.0 (Windows NT 10.0; Win64; x64) AppleWebKit/537.36 (KHTML, like Gecko) Chrome/138.0.0.0 Safari/537.36","WebKit","Chrome","138.0.0.0","Windows","10.0","https://app.prolific.com/","pt-PT,pt;q=0.9,en-US;q=0.8,en;q=0.7","5e31aeefc549ee023d351eab","687a360dabe5252b5ada7185","6889daa88b156ddf24ad01b8","0","5e31aeefc549ee023d351eab","0","2025-07-30T08:55:20.813Z","","","","MotivationQ","","","","","","","","","","","50","","","","","","","","","","","","","","","","","","","","","","","","","","",""
"","","","","ctl-task-cpt","53","893724","0.0-7.0-0.8","32","1","2025-07-30 08:41:15","36c45c0696341be0efffe67d72a12abb","195.23.71.162","Mozilla/5.0 (Windows NT 10.0; Win64; x64) AppleWebKit/537.36 (KHTML, like Gecko) Chrome/138.0.0.0 Safari/537.36","WebKit","Chrome","138.0.0.0","Windows","10.0","https://app.prolific.com/","pt-PT,pt;q=0.9,en-US;q=0.8,en;q=0.7","5e31aeefc549ee023d351eab","687a360dabe5252b5ada7185","6889daa88b156ddf24ad01b8","0","5e31aeefc549ee023d351eab","0","2025-07-30T08:56:10.264Z","","","","","","","","","","","","","","","","win-only","3","g1:SW,g2:NE","0.4","9","0","845389.2","4070.4","9076.9","46432.3","1","4","4","6","1","1","1","12","11","0.09090909090909091","1302.9","3000","425","[""down"",""left""]","{""num_key_presses"":10,""num_perfect"":4,""num_errors"":0,""num_randdir"":6,""num_randdir_good_moves"":3,""num_whilered"":0,""num_whileblue"":0,""num_blue"":3,""num_good_moves"":7}","[354.5714362008231,349.82142761775424,0.4,354.5714362008231,349.82142761775424,100.1,354.5714362008231,349.82142761775424,207.7,354.5714362008231,349.82142761775424,319.2,358.3214362008231,347.32142761775424,421.1,380.8214362008231,331.07142761775424,526.5,380.8214362008231,331.07142761775424,627.3,313.3214362008231,329.82142761775424,746.4,257.0714362008231,412.32142761775424,850,125.8214362008231,651.0714276177542,960.8,99.5714362008231,671.0714276177542,1063.9,45.8214362008231,703.5714276177542,1174.5,55.8214362008231,652.3214276177542,1278.1,55.8214362008231,651.0714276177542,1385.5,55.8214362008231,651.0714276177542,1496,55.8214362008231,651.0714276177542,1598.5,55.8214362008231,651.0714276177542,1698.6,60.8214362008231,644.8214276177542,1803.8,60.8214362008231,644.8214276177542,1905.9,60.8214362008231,644.8214276177542,2016.3,60.8214362008231,644.8214276177542,2118.8,60.8214362008231,644.8214276177542,2218.8,60.8214362008231,644.8214276177542,2323,60.8214362008231,644.8214276177542,2423.4,60.8214362008231,644.8214276177542,2524,60.8214362008231,644.8214276177542,2628,60.8214362008231,644.8214276177542,2736.2,60.8214362008231,644.8214276177542,2844.2,60.8214362008231,644.8214276177542,2948,60.8214362008231,644.8214276177542,3056.5,60.8214362008231,644.8214276177542,3163.4,60.8214362008231,644.8214276177542,3264.9,60.8214362008231,644.8214276177542,3370.9,60.8214362008231,644.8214276177542,3473.3,60.8214362008231,644.8214276177542,3588.2,60.8214362008231,644.8214276177542,3694,60.8214362008231,644.8214276177542,3796.4,60.8214362008231,644.8214276177542,3919.6,60.8214362008231,644.8214276177542,4030.9,60.8214362008231,644.8214276177542,4137.4,60.8214362008231,644.8214276177542,4242.6,60.8214362008231,644.8214276177542,4344.5,60.8214362008231,644.8214276177542,4444.8,60.8214362008231,644.8214276177542,4547.4,60.8214362008231,644.8214276177542,4652.2,60.8214362008231,644.8214276177542,4752.8,60.8214362008231,644.8214276177542,4862.9,60.8214362008231,644.8214276177542,4966]","[1435,1435,1000,0,435,""oops"",""left"",""up"",""bad_move"",4032.6,2597.1,2232.1,1435.5,365,""oops"",""left"",""down"",""good_move"",6439.9,2406.7,2050.9,4033.2,355.8,""oops"",""left"",""right"",""bad_move"",9359.8,2919.6,2573.9,6440.2,345.7,""smooth"",""left"",""left"",""good_move"",12159.3,2798.8,2484.1,9360.5,314.7,""smooth"",""left"",""left"",""good_move"",14776.5,2617,2265.4,12159.6,351.6,""oops"",""left"",""left"",""good_move"",21495.6,6718.8,2673.7,18457.7,364.2,""smooth"",""down"",""down"",""good_move"",24696.2,3200.2,2802.9,21496,397.3,""oops"",""down"",""up"",""bad_move"",35032.9,10336.4,2939.3,31714.5,379.1,""oops"",""down"",""down"",""good_move"",37215.2,2181.9,1498.7,35033.3,683.2,""smooth"",""down"",""down"",""good_move""]"
"3978","","<div style=""width:500px;"">
  <p>What determined the result of this run?</p>
  </div>","17","html-slider-response","54","897703","0.0-7.0-1.8","32","1","2025-07-30 08:41:15","36c45c0696341be0efffe67d72a12abb","195.23.71.162","Mozilla/5.0 (Windows NT 10.0; Win64; x64) AppleWebKit/537.36 (KHTML, like Gecko) Chrome/138.0.0.0 Safari/537.36","WebKit","Chrome","138.0.0.0","Windows","10.0","https://app.prolific.com/","pt-PT,pt;q=0.9,en-US;q=0.8,en;q=0.7","5e31aeefc549ee023d351eab","687a360dabe5252b5ada7185","6889daa88b156ddf24ad01b8","0","5e31aeefc549ee023d351eab","0","2025-07-30T08:56:14.243Z","","","","AttribQ","","","","","","","","","","","50","","","","","","","","","","","","","","","","","","","","","","","","","","",""
"2368","","<div style=""width:500px;"">
  <p>How much control did you have over the ball?</p>
  </div>","24","html-slider-response","55","900073","0.0-7.0-2.8","32","1","2025-07-30 08:41:15","36c45c0696341be0efffe67d72a12abb","195.23.71.162","Mozilla/5.0 (Windows NT 10.0; Win64; x64) AppleWebKit/537.36 (KHTML, like Gecko) Chrome/138.0.0.0 Safari/537.36","WebKit","Chrome","138.0.0.0","Windows","10.0","https://app.prolific.com/","pt-PT,pt;q=0.9,en-US;q=0.8,en;q=0.7","5e31aeefc549ee023d351eab","687a360dabe5252b5ada7185","6889daa88b156ddf24ad01b8","0","5e31aeefc549ee023d351eab","0","2025-07-30T08:56:16.613Z","","","","ControlQ","","","","","","","","","","","50","","","","","","","","","","","","","","","","","","","","","","","","","","",""
"2637","","<div style=""width:500px;"">
  <p>How would you describe your current emotional state?</p>
  </div>","20","html-slider-response","56","902712","0.0-7.0-3.8","32","1","2025-07-30 08:41:15","36c45c0696341be0efffe67d72a12abb","195.23.71.162","Mozilla/5.0 (Windows NT 10.0; Win64; x64) AppleWebKit/537.36 (KHTML, like Gecko) Chrome/138.0.0.0 Safari/537.36","WebKit","Chrome","138.0.0.0","Windows","10.0","https://app.prolific.com/","pt-PT,pt;q=0.9,en-US;q=0.8,en;q=0.7","5e31aeefc549ee023d351eab","687a360dabe5252b5ada7185","6889daa88b156ddf24ad01b8","0","5e31aeefc549ee023d351eab","0","2025-07-30T08:56:19.252Z","","","","StressQ","","","","","","","","","","","50","","","","","","","","","","","","","","","","","","","","","","","","","","",""
"2071","","<div style=""width:500px;"">
  <p>What best describes how you currently feel?</p>
  </div>","96","html-slider-response","57","904785","0.0-7.0-4.8","32","1","2025-07-30 08:41:15","36c45c0696341be0efffe67d72a12abb","195.23.71.162","Mozilla/5.0 (Windows NT 10.0; Win64; x64) AppleWebKit/537.36 (KHTML, like Gecko) Chrome/138.0.0.0 Safari/537.36","WebKit","Chrome","138.0.0.0","Windows","10.0","https://app.prolific.com/","pt-PT,pt;q=0.9,en-US;q=0.8,en;q=0.7","5e31aeefc549ee023d351eab","687a360dabe5252b5ada7185","6889daa88b156ddf24ad01b8","0","5e31aeefc549ee023d351eab","0","2025-07-30T08:56:21.325Z","","","","MotivationQ","","","","","","","","","","","50","","","","","","","","","","","","","","","","","","","","","","","","","","",""
"","","","","ctl-task-cpt","58","936427","0.0-7.0-0.9","32","1","2025-07-30 08:41:15","36c45c0696341be0efffe67d72a12abb","195.23.71.162","Mozilla/5.0 (Windows NT 10.0; Win64; x64) AppleWebKit/537.36 (KHTML, like Gecko) Chrome/138.0.0.0 Safari/537.36","WebKit","Chrome","138.0.0.0","Windows","10.0","https://app.prolific.com/","pt-PT,pt;q=0.9,en-US;q=0.8,en;q=0.7","5e31aeefc549ee023d351eab","687a360dabe5252b5ada7185","6889daa88b156ddf24ad01b8","0","5e31aeefc549ee023d351eab","0","2025-07-30T08:56:52.967Z","","","","","","","","","","","","","","","","win-only","3","g1:SW,g2:NE","0.5","10","0","905904.2","1155.1","6159.7","28618","1","4","8","6","1","1","1","13","12","0.09848484848484848","881.1","3000","1250","[""down"",""left""]","{""num_key_presses"":6,""num_perfect"":3,""num_errors"":0,""num_randdir"":3,""num_randdir_good_moves"":2,""num_whilered"":0,""num_whileblue"":0,""num_blue"":1,""num_good_moves"":5}","[350.8214362008231,353.57142761775424,0.4,350.8214362008231,353.57142761775424,107.6,350.8214362008231,353.57142761775424,209.6,338.3214362008231,353.57142761775424,331.2,312.0714362008231,351.07142761775424,434.5,119.5714362008231,569.8214276177542,550,73.3214362008231,616.0714276177542,651.1,73.3214362008231,618.5714276177542,755.2,73.3214362008231,624.8214276177542,861.3,73.3214362008231,626.0714276177542,967.9,73.3214362008231,626.0714276177542,1070.2,65.8214362008231,623.5714276177542,1171.4,65.8214362008231,623.5714276177542,1276.9,65.8214362008231,623.5714276177542,1378.9,65.8214362008231,623.5714276177542,1483.7,65.8214362008231,623.5714276177542,1596.3,65.8214362008231,623.5714276177542,1703.6,65.8214362008231,623.5714276177542,1805.4,65.8214362008231,623.5714276177542,1907.9,65.8214362008231,623.5714276177542,2008.8,65.8214362008231,623.5714276177542,2109.7,65.8214362008231,623.5714276177542,2212.1,65.8214362008231,623.5714276177542,2318.9,65.8214362008231,623.5714276177542,2420.8,65.8214362008231,623.5714276177542,2522.9,65.8214362008231,623.5714276177542,2625.8,65.8214362008231,623.5714276177542,2726.2,65.8214362008231,623.5714276177542,2833.8,65.8214362008231,623.5714276177542,2945.1,65.8214362008231,623.5714276177542,3053.8,65.8214362008231,623.5714276177542,3155.2,65.8214362008231,623.5714276177542,3259.1,65.8214362008231,623.5714276177542,3360.8,65.8214362008231,623.5714276177542,3474.5,65.8214362008231,623.5714276177542,3580.8,65.8214362008231,623.5714276177542,3682.4,65.8214362008231,623.5714276177542,3793.4,65.8214362008231,623.5714276177542,3896.5,65.8214362008231,623.5714276177542,4001.1,65.8214362008231,623.5714276177542,4104.4,65.8214362008231,623.5714276177542,4210.2,65.8214362008231,623.5714276177542,4314.6,65.8214362008231,623.5714276177542,4415,65.8214362008231,623.5714276177542,4515.5,65.8214362008231,623.5714276177542,4617.8,65.8214362008231,623.5714276177542,4722.4,65.8214362008231,623.5714276177542,4829.5,65.8214362008231,623.5714276177542,4930.4]","[1546.1,1546.1,1000,0,546.1,""oops"",""left"",""down"",""good_move"",4713.3,3166.7,2702.5,1546.6,464.2,""smooth"",""left"",""left"",""good_move"",8162.5,3448.9,3064.6,4713.6,384.3,""oops"",""left"",""up"",""bad_move"",15634.7,7471.6,3584.1,11687.8,362.8,""smooth"",""left"",""left"",""good_move"",19489.1,3853.9,3371.7,15635.2,482.2,""smooth"",""down"",""down"",""good_move"",22313.8,2824.5,2443.6,19489.4,380.9,""oops"",""down"",""down"",""good_move""]"
"3084","","<div style=""width:500px;"">
  <p>What determined the result of this run?</p>
  </div>","60","html-slider-response","59","939512","0.0-7.0-1.9","32","1","2025-07-30 08:41:15","36c45c0696341be0efffe67d72a12abb","195.23.71.162","Mozilla/5.0 (Windows NT 10.0; Win64; x64) AppleWebKit/537.36 (KHTML, like Gecko) Chrome/138.0.0.0 Safari/537.36","WebKit","Chrome","138.0.0.0","Windows","10.0","https://app.prolific.com/","pt-PT,pt;q=0.9,en-US;q=0.8,en;q=0.7","5e31aeefc549ee023d351eab","687a360dabe5252b5ada7185","6889daa88b156ddf24ad01b8","0","5e31aeefc549ee023d351eab","0","2025-07-30T08:56:56.052Z","","","","AttribQ","","","","","","","","","","","50","","","","","","","","","","","","","","","","","","","","","","","","","","",""
"3216","","<div style=""width:500px;"">
  <p>How much control did you have over the ball?</p>
  </div>","75","html-slider-response","60","942729","0.0-7.0-2.9","32","1","2025-07-30 08:41:15","36c45c0696341be0efffe67d72a12abb","195.23.71.162","Mozilla/5.0 (Windows NT 10.0; Win64; x64) AppleWebKit/537.36 (KHTML, like Gecko) Chrome/138.0.0.0 Safari/537.36","WebKit","Chrome","138.0.0.0","Windows","10.0","https://app.prolific.com/","pt-PT,pt;q=0.9,en-US;q=0.8,en;q=0.7","5e31aeefc549ee023d351eab","687a360dabe5252b5ada7185","6889daa88b156ddf24ad01b8","0","5e31aeefc549ee023d351eab","0","2025-07-30T08:56:59.269Z","","","","ControlQ","","","","","","","","","","","50","","","","","","","","","","","","","","","","","","","","","","","","","","",""
"2437","","<div style=""width:500px;"">
  <p>How would you describe your current emotional state?</p>
  </div>","5","html-slider-response","61","945167","0.0-7.0-3.9","32","1","2025-07-30 08:41:15","36c45c0696341be0efffe67d72a12abb","195.23.71.162","Mozilla/5.0 (Windows NT 10.0; Win64; x64) AppleWebKit/537.36 (KHTML, like Gecko) Chrome/138.0.0.0 Safari/537.36","WebKit","Chrome","138.0.0.0","Windows","10.0","https://app.prolific.com/","pt-PT,pt;q=0.9,en-US;q=0.8,en;q=0.7","5e31aeefc549ee023d351eab","687a360dabe5252b5ada7185","6889daa88b156ddf24ad01b8","0","5e31aeefc549ee023d351eab","0","2025-07-30T08:57:01.707Z","","","","StressQ","","","","","","","","","","","50","","","","","","","","","","","","","","","","","","","","","","","","","","",""
"1433","","<div style=""width:500px;"">
  <p>What best describes how you currently feel?</p>
  </div>","96","html-slider-response","62","946602","0.0-7.0-4.9","32","1","2025-07-30 08:41:15","36c45c0696341be0efffe67d72a12abb","195.23.71.162","Mozilla/5.0 (Windows NT 10.0; Win64; x64) AppleWebKit/537.36 (KHTML, like Gecko) Chrome/138.0.0.0 Safari/537.36","WebKit","Chrome","138.0.0.0","Windows","10.0","https://app.prolific.com/","pt-PT,pt;q=0.9,en-US;q=0.8,en;q=0.7","5e31aeefc549ee023d351eab","687a360dabe5252b5ada7185","6889daa88b156ddf24ad01b8","0","5e31aeefc549ee023d351eab","0","2025-07-30T08:57:03.142Z","","","","MotivationQ","","","","","","","","","","","50","","","","","","","","","","","","","","","","","","","","","","","","","","",""
"","","","","ctl-task-cpt","63","966164","0.0-7.0-0.10","32","1","2025-07-30 08:41:15","36c45c0696341be0efffe67d72a12abb","195.23.71.162","Mozilla/5.0 (Windows NT 10.0; Win64; x64) AppleWebKit/537.36 (KHTML, like Gecko) Chrome/138.0.0.0 Safari/537.36","WebKit","Chrome","138.0.0.0","Windows","10.0","https://app.prolific.com/","pt-PT,pt;q=0.9,en-US;q=0.8,en;q=0.7","5e31aeefc549ee023d351eab","687a360dabe5252b5ada7185","6889daa88b156ddf24ad01b8","0","5e31aeefc549ee023d351eab","0","2025-07-30T08:57:22.704Z","","","","","","","","","","","","","","","","win-only","2","g1:SE,g2:NW","0.6","11","0","947720.7","1338.3","6349.2","16548.8","1","4","4","6","1","1","1","14","13","0.10606060606060606","1104.9","3000","1845","[""down"",""right""]","{""num_key_presses"":4,""num_perfect"":2,""num_errors"":0,""num_randdir"":2,""num_randdir_good_moves"":2,""num_whilered"":0,""num_whileblue"":0,""num_blue"":0,""num_good_moves"":4}","[350.8214362008231,349.82142761775424,0.3,350.8214362008231,349.82142761775424,100.2,350.8214362008231,349.82142761775424,200.5,350.8214362008231,349.82142761775424,307.8,350.8214362008231,349.82142761775424,411,350.8214362008231,349.82142761775424,517.3,359.5714362008231,379.82142761775424,626.7,550.8214362008231,589.8214276177542,728.6,613.3214362008231,628.5714276177542,834.7,639.5714362008231,639.8214276177542,939.4,643.3214362008231,651.0714276177542,1043.4,643.3214362008231,651.0714276177542,1147.7,644.5714362008231,652.3214276177542,1261.4,644.5714362008231,652.3214276177542,1369.8,644.5714362008231,652.3214276177542,1475.3,644.5714362008231,651.0714276177542,1577.4,644.5714362008231,651.0714276177542,1679.3,644.5714362008231,651.0714276177542,1786.7,644.5714362008231,651.0714276177542,1893.6,644.5714362008231,651.0714276177542,2011.3,644.5714362008231,651.0714276177542,2117.8,644.5714362008231,651.0714276177542,2223,644.5714362008231,651.0714276177542,2333.2,644.5714362008231,651.0714276177542,2433.8,644.5714362008231,651.0714276177542,2536.5,644.5714362008231,651.0714276177542,2640.1,644.5714362008231,651.0714276177542,2748.7,644.5714362008231,651.0714276177542,2850.7,644.5714362008231,651.0714276177542,2953.1,644.5714362008231,651.0714276177542,3059.5,644.5714362008231,651.0714276177542,3164,644.5714362008231,651.0714276177542,3268.2,644.5714362008231,651.0714276177542,3371.5,644.5714362008231,651.0714276177542,3471.6,644.5714362008231,651.0714276177542,3582.1,644.5714362008231,651.0714276177542,3683.1,644.5714362008231,651.0714276177542,3785.1,644.5714362008231,651.0714276177542,3892.3,644.5714362008231,651.0714276177542,4002.2,644.5714362008231,651.0714276177542,4110.3,644.5714362008231,651.0714276177542,4218,644.5714362008231,651.0714276177542,4326.3,644.5714362008231,651.0714276177542,4428.9,644.5714362008231,651.0714276177542,4532.5,644.5714362008231,651.0714276177542,4637.5,644.5714362008231,651.0714276177542,4745.5,644.5714362008231,651.0714276177542,4848.5,644.5714362008231,651.0714276177542,4951.6]","[1492.2,1492.2,1000,0,492.2,""smooth"",""right"",""right"",""good_move"",4160.4,2667.7,2251,1492.7,416.7,""oops"",""right"",""down"",""good_move"",7586.9,3425.9,3003,4161,422.9,""oops"",""right"",""down"",""good_move"",10075.5,2488.4,2109.8,7587.1,378.6,""smooth"",""right"",""right"",""good_move""]"
"1427","","<div style=""width:500px;"">
  <p>What determined the result of this run?</p>
  </div>","25","html-slider-response","64","967592","0.0-7.0-1.10","32","1","2025-07-30 08:41:15","36c45c0696341be0efffe67d72a12abb","195.23.71.162","Mozilla/5.0 (Windows NT 10.0; Win64; x64) AppleWebKit/537.36 (KHTML, like Gecko) Chrome/138.0.0.0 Safari/537.36","WebKit","Chrome","138.0.0.0","Windows","10.0","https://app.prolific.com/","pt-PT,pt;q=0.9,en-US;q=0.8,en;q=0.7","5e31aeefc549ee023d351eab","687a360dabe5252b5ada7185","6889daa88b156ddf24ad01b8","0","5e31aeefc549ee023d351eab","0","2025-07-30T08:57:24.132Z","","","","AttribQ","","","","","","","","","","","50","","","","","","","","","","","","","","","","","","","","","","","","","","",""
"3527","","<div style=""width:500px;"">
  <p>How much control did you have over the ball?</p>
  </div>","61","html-slider-response","65","971120","0.0-7.0-2.10","32","1","2025-07-30 08:41:15","36c45c0696341be0efffe67d72a12abb","195.23.71.162","Mozilla/5.0 (Windows NT 10.0; Win64; x64) AppleWebKit/537.36 (KHTML, like Gecko) Chrome/138.0.0.0 Safari/537.36","WebKit","Chrome","138.0.0.0","Windows","10.0","https://app.prolific.com/","pt-PT,pt;q=0.9,en-US;q=0.8,en;q=0.7","5e31aeefc549ee023d351eab","687a360dabe5252b5ada7185","6889daa88b156ddf24ad01b8","0","5e31aeefc549ee023d351eab","0","2025-07-30T08:57:27.660Z","","","","ControlQ","","","","","","","","","","","50","","","","","","","","","","","","","","","","","","","","","","","","","","",""
"2766","","<div style=""width:500px;"">
  <p>How would you describe your current emotional state?</p>
  </div>","5","html-slider-response","66","973887","0.0-7.0-3.10","32","1","2025-07-30 08:41:15","36c45c0696341be0efffe67d72a12abb","195.23.71.162","Mozilla/5.0 (Windows NT 10.0; Win64; x64) AppleWebKit/537.36 (KHTML, like Gecko) Chrome/138.0.0.0 Safari/537.36","WebKit","Chrome","138.0.0.0","Windows","10.0","https://app.prolific.com/","pt-PT,pt;q=0.9,en-US;q=0.8,en;q=0.7","5e31aeefc549ee023d351eab","687a360dabe5252b5ada7185","6889daa88b156ddf24ad01b8","0","5e31aeefc549ee023d351eab","0","2025-07-30T08:57:30.428Z","","","","StressQ","","","","","","","","","","","50","","","","","","","","","","","","","","","","","","","","","","","","","","",""
"1799","","<div style=""width:500px;"">
  <p>What best describes how you currently feel?</p>
  </div>","90","html-slider-response","67","975687","0.0-7.0-4.10","32","1","2025-07-30 08:41:15","36c45c0696341be0efffe67d72a12abb","195.23.71.162","Mozilla/5.0 (Windows NT 10.0; Win64; x64) AppleWebKit/537.36 (KHTML, like Gecko) Chrome/138.0.0.0 Safari/537.36","WebKit","Chrome","138.0.0.0","Windows","10.0","https://app.prolific.com/","pt-PT,pt;q=0.9,en-US;q=0.8,en;q=0.7","5e31aeefc549ee023d351eab","687a360dabe5252b5ada7185","6889daa88b156ddf24ad01b8","0","5e31aeefc549ee023d351eab","0","2025-07-30T08:57:32.228Z","","","","MotivationQ","","","","","","","","","","","50","","","","","","","","","","","","","","","","","","","","","","","","","","",""
"","","","","ctl-task-cpt","68","997591","0.0-7.0-0.11","32","1","2025-07-30 08:41:15","36c45c0696341be0efffe67d72a12abb","195.23.71.162","Mozilla/5.0 (Windows NT 10.0; Win64; x64) AppleWebKit/537.36 (KHTML, like Gecko) Chrome/138.0.0.0 Safari/537.36","WebKit","Chrome","138.0.0.0","Windows","10.0","https://app.prolific.com/","pt-PT,pt;q=0.9,en-US;q=0.8,en;q=0.7","5e31aeefc549ee023d351eab","687a360dabe5252b5ada7185","6889daa88b156ddf24ad01b8","0","5e31aeefc549ee023d351eab","0","2025-07-30T08:57:54.131Z","","","","","","","","","","","","","","","","win-only","2","g1:SE,g2:NW","0.7","12","0","976804.2","1040","6043.5","18882.1","1","4","8","6","1","1","1","15","14","0.11363636363636363","974.8","3000","2020","[""down"",""right""]","{""num_key_presses"":4,""num_perfect"":3,""num_errors"":0,""num_randdir"":1,""num_randdir_good_moves"":1,""num_whilered"":0,""num_whileblue"":0,""num_blue"":1,""num_good_moves"":4}","[350.8214362008231,359.82142761775424,0.3,350.8214362008231,359.82142761775424,108,350.8214362008231,359.82142761775424,209.4,350.8214362008231,359.82142761775424,314.7,350.8214362008231,359.82142761775424,420.7,354.5714362008231,368.57142761775424,535,594.5714362008231,651.0714276177542,642.4,618.3214362008231,684.8214276177542,747.4,648.3214362008231,673.5714276177542,859.7,655.8214362008231,671.0714276177542,962.5,655.8214362008231,671.0714276177542,1064.8,655.8214362008231,671.0714276177542,1170.8,664.5714362008231,662.3214276177542,1271.5,664.5714362008231,662.3214276177542,1372.3,664.5714362008231,662.3214276177542,1479.2,664.5714362008231,662.3214276177542,1580.2,664.5714362008231,662.3214276177542,1682.1,664.5714362008231,662.3214276177542,1789.5,664.5714362008231,662.3214276177542,1905.7,664.5714362008231,662.3214276177542,2010.6,664.5714362008231,662.3214276177542,2111.4,664.5714362008231,662.3214276177542,2219.4,664.5714362008231,662.3214276177542,2319.9,664.5714362008231,662.3214276177542,2420.9,664.5714362008231,662.3214276177542,2523.5,664.5714362008231,662.3214276177542,2626,664.5714362008231,662.3214276177542,2731.4,664.5714362008231,662.3214276177542,2835.9,664.5714362008231,662.3214276177542,2942.6,664.5714362008231,662.3214276177542,3049.4,664.5714362008231,662.3214276177542,3150.8,664.5714362008231,662.3214276177542,3252.6,664.5714362008231,662.3214276177542,3364.3,664.5714362008231,662.3214276177542,3466.2,664.5714362008231,662.3214276177542,3569.3,664.5714362008231,662.3214276177542,3677.2,664.5714362008231,662.3214276177542,3784,664.5714362008231,662.3214276177542,3885.2,664.5714362008231,662.3214276177542,3997.8,664.5714362008231,662.3214276177542,4099.2,664.5714362008231,662.3214276177542,4202.7,664.5714362008231,662.3214276177542,4304.9,664.5714362008231,662.3214276177542,4407.6,664.5714362008231,662.3214276177542,4507.9,664.5714362008231,662.3214276177542,4618.1,664.5714362008231,662.3214276177542,4732.9,664.5714362008231,662.3214276177542,4832.9,664.5714362008231,662.3214276177542,4935.8]","[1489.8,1489.8,1000,0,489.8,""smooth"",""right"",""right"",""good_move"",7721.3,6231,2214.7,5123.4,383.2,""smooth"",""right"",""right"",""good_move"",10266.3,2544.8,2073.5,7721.5,471.3,""smooth"",""down"",""down"",""good_move"",12674.3,2407.3,2055.3,10267,352,""oops"",""down"",""down"",""good_move""]"
"4567","","<div style=""width:500px;"">
  <p>What determined the result of this run?</p>
  </div>","29","html-slider-response","69","1002160","0.0-7.0-1.11","32","1","2025-07-30 08:41:15","36c45c0696341be0efffe67d72a12abb","195.23.71.162","Mozilla/5.0 (Windows NT 10.0; Win64; x64) AppleWebKit/537.36 (KHTML, like Gecko) Chrome/138.0.0.0 Safari/537.36","WebKit","Chrome","138.0.0.0","Windows","10.0","https://app.prolific.com/","pt-PT,pt;q=0.9,en-US;q=0.8,en;q=0.7","5e31aeefc549ee023d351eab","687a360dabe5252b5ada7185","6889daa88b156ddf24ad01b8","0","5e31aeefc549ee023d351eab","0","2025-07-30T08:57:58.700Z","","","","AttribQ","","","","","","","","","","","50","","","","","","","","","","","","","","","","","","","","","","","","","","",""
"2279","","<div style=""width:500px;"">
  <p>How much control did you have over the ball?</p>
  </div>","61","html-slider-response","70","1004441","0.0-7.0-2.11","32","1","2025-07-30 08:41:15","36c45c0696341be0efffe67d72a12abb","195.23.71.162","Mozilla/5.0 (Windows NT 10.0; Win64; x64) AppleWebKit/537.36 (KHTML, like Gecko) Chrome/138.0.0.0 Safari/537.36","WebKit","Chrome","138.0.0.0","Windows","10.0","https://app.prolific.com/","pt-PT,pt;q=0.9,en-US;q=0.8,en;q=0.7","5e31aeefc549ee023d351eab","687a360dabe5252b5ada7185","6889daa88b156ddf24ad01b8","0","5e31aeefc549ee023d351eab","0","2025-07-30T08:58:00.981Z","","","","ControlQ","","","","","","","","","","","50","","","","","","","","","","","","","","","","","","","","","","","","","","",""
"5797","","<div style=""width:500px;"">
  <p>How would you describe your current emotional state?</p>
  </div>","24","html-slider-response","71","1010239","0.0-7.0-3.11","32","1","2025-07-30 08:41:15","36c45c0696341be0efffe67d72a12abb","195.23.71.162","Mozilla/5.0 (Windows NT 10.0; Win64; x64) AppleWebKit/537.36 (KHTML, like Gecko) Chrome/138.0.0.0 Safari/537.36","WebKit","Chrome","138.0.0.0","Windows","10.0","https://app.prolific.com/","pt-PT,pt;q=0.9,en-US;q=0.8,en;q=0.7","5e31aeefc549ee023d351eab","687a360dabe5252b5ada7185","6889daa88b156ddf24ad01b8","0","5e31aeefc549ee023d351eab","0","2025-07-30T08:58:06.780Z","","","","StressQ","","","","","","","","","","","50","","","","","","","","","","","","","","","","","","","","","","","","","","",""
"2591","","<div style=""width:500px;"">
  <p>What best describes how you currently feel?</p>
  </div>","95","html-slider-response","72","1012832","0.0-7.0-4.11","32","1","2025-07-30 08:41:15","36c45c0696341be0efffe67d72a12abb","195.23.71.162","Mozilla/5.0 (Windows NT 10.0; Win64; x64) AppleWebKit/537.36 (KHTML, like Gecko) Chrome/138.0.0.0 Safari/537.36","WebKit","Chrome","138.0.0.0","Windows","10.0","https://app.prolific.com/","pt-PT,pt;q=0.9,en-US;q=0.8,en;q=0.7","5e31aeefc549ee023d351eab","687a360dabe5252b5ada7185","6889daa88b156ddf24ad01b8","0","5e31aeefc549ee023d351eab","0","2025-07-30T08:58:09.372Z","","","","MotivationQ","","","","","","","","","","","50","","","","","","","","","","","","","","","","","","","","","","","","","","",""
"","","","","ctl-task-cpt","73","1068280","0.0-7.0-0.12","32","1","2025-07-30 08:41:15","36c45c0696341be0efffe67d72a12abb","195.23.71.162","Mozilla/5.0 (Windows NT 10.0; Win64; x64) AppleWebKit/537.36 (KHTML, like Gecko) Chrome/138.0.0.0 Safari/537.36","WebKit","Chrome","138.0.0.0","Windows","10.0","https://app.prolific.com/","pt-PT,pt;q=0.9,en-US;q=0.8,en;q=0.7","5e31aeefc549ee023d351eab","687a360dabe5252b5ada7185","6889daa88b156ddf24ad01b8","0","5e31aeefc549ee023d351eab","0","2025-07-30T08:59:04.820Z","","","","","","","","","","","","","","","","win-only","3","g1:SW,g2:NE","0.8","13","0","1013950","22957","27961.4","52422.9","1","4","4","6","1","1","1","16","15","0.12121212121212122","1783.4","3000","1500","[""down"",""left""]","{""num_key_presses"":6,""num_perfect"":4,""num_errors"":0,""num_randdir"":2,""num_randdir_good_moves"":1,""num_whilered"":0,""num_whileblue"":0,""num_blue"":2,""num_good_moves"":5}","[352.0714362008231,361.07142761775424,0.4,352.0714362008231,361.07142761775424,105.6,352.0714362008231,361.07142761775424,209.1,352.0714362008231,361.07142761775424,310.2,352.0714362008231,361.07142761775424,415.3,595.8214362008231,148.57142761775424,515.3,647.0714362008231,109.82142761775425,616.3,642.0714362008231,96.07142761775425,720.9,639.5714362008231,74.82142761775425,821.2,577.0714362008231,203.57142761775424,925.3,637.0714362008231,113.57142761775425,1026,617.0714362008231,133.57142761775424,1131.4,202.0714362008231,684.8214276177542,1233.7,132.0714362008231,763.5714276177542,1333.9,148.3214362008231,682.3214276177542,1447.2,150.8214362008231,678.5714276177542,1557.9,97.0714362008231,721.0714276177542,1666,77.0714362008231,673.5714276177542,1766.3,77.0714362008231,673.5714276177542,1869.8,77.0714362008231,673.5714276177542,1975.1,58.3214362008231,671.0714276177542,2075.8,55.8214362008231,673.5714276177542,2190.7,55.8214362008231,673.5714276177542,2294.9,55.8214362008231,673.5714276177542,2402.7,55.8214362008231,673.5714276177542,2503.8,55.8214362008231,673.5714276177542,2606.4,55.8214362008231,673.5714276177542,2708,55.8214362008231,673.5714276177542,2819,55.8214362008231,673.5714276177542,2924.9,55.8214362008231,673.5714276177542,3027.5,55.8214362008231,673.5714276177542,3135.3,55.8214362008231,673.5714276177542,3240.8,55.8214362008231,673.5714276177542,3353.6,55.8214362008231,673.5714276177542,3454,55.8214362008231,673.5714276177542,3554.4,55.8214362008231,673.5714276177542,3655.3,55.8214362008231,673.5714276177542,3762.3,55.8214362008231,673.5714276177542,3872.4,55.8214362008231,673.5714276177542,3976,55.8214362008231,673.5714276177542,4088.5,55.8214362008231,673.5714276177542,4195.1,55.8214362008231,673.5714276177542,4298.1,55.8214362008231,673.5714276177542,4408.5,55.8214362008231,673.5714276177542,4520.3,55.8214362008231,673.5714276177542,4621.1,55.8214362008231,673.5714276177542,4726.5,55.8214362008231,673.5714276177542,4845,55.8214362008231,673.5714276177542,4956.7]","[1428,1428,1000,0,428,""smooth"",""left"",""left"",""good_move"",5217.4,3788.7,3374.9,1428.7,413.8,""smooth"",""left"",""left"",""good_move"",12483.4,7265.7,3038,9093.5,351.9,""oops"",""down"",""down"",""good_move"",14681.4,2197.5,1785.9,12483.9,411.6,""oops"",""down"",""right"",""bad_move"",17610.3,2928.3,2578.8,14682,349.5,""smooth"",""down"",""down"",""good_move"",24330.9,6720,2284.7,21671,375.2,""smooth"",""left"",""left"",""good_move""]"
"3711","","<div style=""width:500px;"">
  <p>What determined the result of this run?</p>
  </div>","59","html-slider-response","74","1071992","0.0-7.0-1.12","32","1","2025-07-30 08:41:15","36c45c0696341be0efffe67d72a12abb","195.23.71.162","Mozilla/5.0 (Windows NT 10.0; Win64; x64) AppleWebKit/537.36 (KHTML, like Gecko) Chrome/138.0.0.0 Safari/537.36","WebKit","Chrome","138.0.0.0","Windows","10.0","https://app.prolific.com/","pt-PT,pt;q=0.9,en-US;q=0.8,en;q=0.7","5e31aeefc549ee023d351eab","687a360dabe5252b5ada7185","6889daa88b156ddf24ad01b8","0","5e31aeefc549ee023d351eab","0","2025-07-30T08:59:08.533Z","","","","AttribQ","","","","","","","","","","","50","","","","","","","","","","","","","","","","","","","","","","","","","","",""
"4981","","<div style=""width:500px;"">
  <p>How much control did you have over the ball?</p>
  </div>","79","html-slider-response","75","1076975","0.0-7.0-2.12","32","1","2025-07-30 08:41:15","36c45c0696341be0efffe67d72a12abb","195.23.71.162","Mozilla/5.0 (Windows NT 10.0; Win64; x64) AppleWebKit/537.36 (KHTML, like Gecko) Chrome/138.0.0.0 Safari/537.36","WebKit","Chrome","138.0.0.0","Windows","10.0","https://app.prolific.com/","pt-PT,pt;q=0.9,en-US;q=0.8,en;q=0.7","5e31aeefc549ee023d351eab","687a360dabe5252b5ada7185","6889daa88b156ddf24ad01b8","0","5e31aeefc549ee023d351eab","0","2025-07-30T08:59:13.515Z","","","","ControlQ","","","","","","","","","","","50","","","","","","","","","","","","","","","","","","","","","","","","","","",""
"2432","","<div style=""width:500px;"">
  <p>How would you describe your current emotional state?</p>
  </div>","17","html-slider-response","76","1079408","0.0-7.0-3.12","32","1","2025-07-30 08:41:15","36c45c0696341be0efffe67d72a12abb","195.23.71.162","Mozilla/5.0 (Windows NT 10.0; Win64; x64) AppleWebKit/537.36 (KHTML, like Gecko) Chrome/138.0.0.0 Safari/537.36","WebKit","Chrome","138.0.0.0","Windows","10.0","https://app.prolific.com/","pt-PT,pt;q=0.9,en-US;q=0.8,en;q=0.7","5e31aeefc549ee023d351eab","687a360dabe5252b5ada7185","6889daa88b156ddf24ad01b8","0","5e31aeefc549ee023d351eab","0","2025-07-30T08:59:15.948Z","","","","StressQ","","","","","","","","","","","50","","","","","","","","","","","","","","","","","","","","","","","","","","",""
"1527","","<div style=""width:500px;"">
  <p>What best describes how you currently feel?</p>
  </div>","87","html-slider-response","77","1080936","0.0-7.0-4.12","32","1","2025-07-30 08:41:15","36c45c0696341be0efffe67d72a12abb","195.23.71.162","Mozilla/5.0 (Windows NT 10.0; Win64; x64) AppleWebKit/537.36 (KHTML, like Gecko) Chrome/138.0.0.0 Safari/537.36","WebKit","Chrome","138.0.0.0","Windows","10.0","https://app.prolific.com/","pt-PT,pt;q=0.9,en-US;q=0.8,en;q=0.7","5e31aeefc549ee023d351eab","687a360dabe5252b5ada7185","6889daa88b156ddf24ad01b8","0","5e31aeefc549ee023d351eab","0","2025-07-30T08:59:17.476Z","","","","MotivationQ","","","","","","","","","","","50","","","","","","","","","","","","","","","","","","","","","","","","","","",""
