"rt","response_timestamp","stimulus","response","trial_type","trial_index","time_elapsed","internal_node_id","run_id","condition","recorded_at","source_code_version","ip","user_agent","device","browser","browser_version","platform","platform_version","referer","accept_language","PROLIFIC_PID","STUDY_ID","SESSION_ID","BATCH","prolific_id","batch","realtime","success","question_order","question_id","eventType","responses","item_order","radio_event_ids","radio_event_times","key_event_times","mouse_event_times","straightlining","zigzagging","honeypot","view_history","slider_start","which_type","canvas_config","goals_layout","control_level","trial_number","tutorial_trial_number","trial_start_time","phase1_start_time","phase2_start_time","phase3_start_time","goal_1_value","goal_1_distance","goal_2_value","goal_2_distance","goal_selected","outcome","outcome_total","participant_final_score","participant_initial_score","participant_final_score_prop","goal_choice_rt","allocated_time","allocated_time_remaining","goal_direction","counts","mouse_movements","key_presses"
"14155","1753864676386","<p style='font-size:40px;line-height:1.25'><strong>Welcome to the experiment!</strong></p><p style='font-size:1.1em;line-height:1.25'>Thank you for participanting in our experiment again! You will be asked to play the Dysfunctional Ball Game again. We will briefly recap the rules before we start.</p><p style='font-size:1.1em;line-height:1.25'>Press <strong>Next</strong> to continue.</p>","0","custom-html-button-response","0","14157","0.0-0.0","3","1","2025-07-30 08:37:41","36c45c0696341be0efffe67d72a12abb","89.161.96.217","Mozilla/5.0 (Windows NT 10.0; Win64; x64) AppleWebKit/537.36 (KHTML, like Gecko) Chrome/135.0.0.0 Safari/537.36 OPR/120.0.0.0","WebKit","Opera","120.0.0.0","Windows","10.0","https://app.prolific.com/","pl,en-US;q=0.9,en;q=0.8,ko;q=0.7,cs;q=0.6,de;q=0.5,ru;q=0.4,es;q=0.3,fr;q=0.2,no;q=0.1","5eb2a99596070102a65d32c7","687a19d2168e237449fb8af4","6889d9d0c77e1898c38e2b1d","0","5eb2a99596070102a65d32c7","0","2025-07-30T08:37:56.386Z","","","","","","","","","","","","","","","","","","","","","","","","","","","","","","","","","","","","","","","","","",""
"3119","","","","fullscreen","1","18281","0.0-1.0","3","1","2025-07-30 08:37:41","36c45c0696341be0efffe67d72a12abb","89.161.96.217","Mozilla/5.0 (Windows NT 10.0; Win64; x64) AppleWebKit/537.36 (KHTML, like Gecko) Chrome/135.0.0.0 Safari/537.36 OPR/120.0.0.0","WebKit","Opera","120.0.0.0","Windows","10.0","https://app.prolific.com/","pl,en-US;q=0.9,en;q=0.8,ko;q=0.7,cs;q=0.6,de;q=0.5,ru;q=0.4,es;q=0.3,fr;q=0.2,no;q=0.1","5eb2a99596070102a65d32c7","687a19d2168e237449fb8af4","6889d9d0c77e1898c38e2b1d","0","5eb2a99596070102a65d32c7","0","","true","","","","","","","","","","","","","","","","","","","","","","","","","","","","","","","","","","","","","","","","",""
"3161","1753864683671"," <p style='font-size:1.1em;line-height:1.25'>Thank you for closing all other tabs.</p><p style='font-size:1.1em;line-height:1.25'>We will now invite you to fill in some questionnaires, before starting the game.<br>This will take about 5 minutes.<br></p><p style='font-size:1.1em;line-height:1.25'>Press the <strong>Next</strong> button to continue.</p>","0","custom-html-button-response","2","21442","0.0-2.0","3","1","2025-07-30 08:37:41","36c45c0696341be0efffe67d72a12abb","89.161.96.217","Mozilla/5.0 (Windows NT 10.0; Win64; x64) AppleWebKit/537.36 (KHTML, like Gecko) Chrome/135.0.0.0 Safari/537.36 OPR/120.0.0.0","WebKit","Opera","120.0.0.0","Windows","10.0","https://app.prolific.com/","pl,en-US;q=0.9,en;q=0.8,ko;q=0.7,cs;q=0.6,de;q=0.5,ru;q=0.4,es;q=0.3,fr;q=0.2,no;q=0.1","5eb2a99596070102a65d32c7","687a19d2168e237449fb8af4","6889d9d0c77e1898c38e2b1d","0","5eb2a99596070102a65d32c7","0","2025-07-30T08:38:03.671Z","","","","","","","","","","","","","","","","","","","","","","","","","","","","","","","","","","","","","","","","","",""
"3368","","","{""assigned_sex"":""male""}","survey-multi-choice","3","24810","0.0-3.0-0.0","3","1","2025-07-30 08:37:41","36c45c0696341be0efffe67d72a12abb","89.161.96.217","Mozilla/5.0 (Windows NT 10.0; Win64; x64) AppleWebKit/537.36 (KHTML, like Gecko) Chrome/135.0.0.0 Safari/537.36 OPR/120.0.0.0","WebKit","Opera","120.0.0.0","Windows","10.0","https://app.prolific.com/","pl,en-US;q=0.9,en;q=0.8,ko;q=0.7,cs;q=0.6,de;q=0.5,ru;q=0.4,es;q=0.3,fr;q=0.2,no;q=0.1","5eb2a99596070102a65d32c7","687a19d2168e237449fb8af4","6889d9d0c77e1898c38e2b1d","0","5eb2a99596070102a65d32c7","0","","","[0]","0","demographics","","","","","","","","","","","","","","","","","","","","","","","","","","","","","","","","","","","","","",""
"4526","1753864691566","<p style='font-size:1.1em;line-height:1.25'>In the following, we will perform a baseline assessment. This means that we will ask you a few questions relating to your experiences over the past month.<br></p><p style='font-size:1.1em;line-height:1.25'>Press the <strong>Next</strong> button to continue.</p>","0","custom-html-button-response","4","29337","0.0-4.0-0.0","3","1","2025-07-30 08:37:41","36c45c0696341be0efffe67d72a12abb","89.161.96.217","Mozilla/5.0 (Windows NT 10.0; Win64; x64) AppleWebKit/537.36 (KHTML, like Gecko) Chrome/135.0.0.0 Safari/537.36 OPR/120.0.0.0","WebKit","Opera","120.0.0.0","Windows","10.0","https://app.prolific.com/","pl,en-US;q=0.9,en;q=0.8,ko;q=0.7,cs;q=0.6,de;q=0.5,ru;q=0.4,es;q=0.3,fr;q=0.2,no;q=0.1","5eb2a99596070102a65d32c7","687a19d2168e237449fb8af4","6889d9d0c77e1898c38e2b1d","0","5eb2a99596070102a65d32c7","0","2025-07-30T08:38:11.566Z","","","","","","","","","","","","","","","","","","","","","","","","","","","","","","","","","","","","","","","","","",""
"30398.70000001788","","","","survey-template","5","59738","0.0-4.0-1.0","3","1","2025-07-30 08:37:41","36c45c0696341be0efffe67d72a12abb","89.161.96.217","Mozilla/5.0 (Windows NT 10.0; Win64; x64) AppleWebKit/537.36 (KHTML, like Gecko) Chrome/135.0.0.0 Safari/537.36 OPR/120.0.0.0","WebKit","Opera","120.0.0.0","Windows","10.0","https://app.prolific.com/","pl,en-US;q=0.9,en;q=0.8,ko;q=0.7,cs;q=0.6,de;q=0.5,ru;q=0.4,es;q=0.3,fr;q=0.2,no;q=0.1","5eb2a99596070102a65d32c7","687a19d2168e237449fb8af4","6889d9d0c77e1898c38e2b1d","0","5eb2a99596070102a65d32c7","0","2025-07-30T08:38:41.967Z","","","","pss","{""Q01"":""1"",""Q02"":""2"",""Q03"":""2"",""Q04"":""1"",""Q05"":""3"",""Q06"":""2"",""Q07"":""3"",""Q08"":""2"",""Q09"":""0"",""Q10"":""3""}","[0,1,2,3,4,5,6,7,8,9]","[""Q01"",""Q02"",""Q03"",""Q04"",""Q05"",""Q06"",""Q07"",""Q08"",""Q09"",""Q10""]","[4878.800000011921,6135.800000011921,7907.700000017881,11254.700000017881,14575.700000017881,17846.80000001192,20302.80000001192,23822.59999999404,26928,29445]","[]","[0,4878.800000011921,5153.5999999940395,6135.800000011921,6765.700000017881,7907.700000017881,11254.700000017881,14575.700000017881,17846.80000001192,20302.80000001192,23822.59999999404,26928,29445,30398]","0.4","0.5555555555555556","0","","","","","","","","","","","","","","","","","","","","","","","","","","","","",""
"2181","1753864724148","<p style='font-size:1.1em;line-height:1.25'>Thank you for your answers! Now we will ask you a few more questions relating to your feelings in the last 24 hours.<br></p><p style='font-size:1.1em;line-height:1.25'>Press the <strong>Next</strong> button to continue.</p>","0","custom-html-button-response","6","61919","0.0-4.0-2.0","3","1","2025-07-30 08:37:41","36c45c0696341be0efffe67d72a12abb","89.161.96.217","Mozilla/5.0 (Windows NT 10.0; Win64; x64) AppleWebKit/537.36 (KHTML, like Gecko) Chrome/135.0.0.0 Safari/537.36 OPR/120.0.0.0","WebKit","Opera","120.0.0.0","Windows","10.0","https://app.prolific.com/","pl,en-US;q=0.9,en;q=0.8,ko;q=0.7,cs;q=0.6,de;q=0.5,ru;q=0.4,es;q=0.3,fr;q=0.2,no;q=0.1","5eb2a99596070102a65d32c7","687a19d2168e237449fb8af4","6889d9d0c77e1898c38e2b1d","0","5eb2a99596070102a65d32c7","0","2025-07-30T08:38:44.148Z","","","","","","","","","","","","","","","","","","","","","","","","","","","","","","","","","","","","","","","","","",""
"39828.5","","","","survey-template","7","101749","0.0-4.0-3.0","3","1","2025-07-30 08:37:41","36c45c0696341be0efffe67d72a12abb","89.161.96.217","Mozilla/5.0 (Windows NT 10.0; Win64; x64) AppleWebKit/537.36 (KHTML, like Gecko) Chrome/135.0.0.0 Safari/537.36 OPR/120.0.0.0","WebKit","Opera","120.0.0.0","Windows","10.0","https://app.prolific.com/","pl,en-US;q=0.9,en;q=0.8,ko;q=0.7,cs;q=0.6,de;q=0.5,ru;q=0.4,es;q=0.3,fr;q=0.2,no;q=0.1","5eb2a99596070102a65d32c7","687a19d2168e237449fb8af4","6889d9d0c77e1898c38e2b1d","0","5eb2a99596070102a65d32c7","0","2025-07-30T08:39:23.978Z","","","","drsp","{""Q01"":""1"",""Q02"":""3"",""Q03"":""2"",""Q04"":""1"",""Q05"":""0"",""Q06"":""1"",""Q07"":""2"",""Q08"":""2"",""Q09"":""0"",""Q10"":""0"",""Q11"":""0"",""Q12"":""1"",""Q13"":""5"",""Q14"":""1"",""Q15"":""0"",""Q16"":""0"",""Q17"":""3"",""Q18"":""4"",""Q19"":""0"",""Q20"":""0"",""Q21"":""0"",""Q22"":""0""}","[0,1,2,3,4,5,6,7,8,9,10,11,12,13,14,15,16,17,18,19,20,21]","[""Q01"",""Q02"",""Q03"",""Q04"",""Q05"",""Q06"",""Q07"",""Q08"",""Q09"",""Q10"",""Q11"",""Q13"",""Q12"",""Q14"",""Q15"",""Q16"",""Q17"",""Q18"",""Q19"",""Q20"",""Q21"",""Q22""]","[2148.5999999940395,3968.0999999940395,5574.4000000059605,6828.0999999940395,8073.5999999940395,10114.800000011921,11945.59999999404,13123.800000011921,15235.700000017881,16565.80000001192,17969.80000001192,19623.30000001192,21640.09999999404,23380.80000001192,24946.90000000596,26369.80000001192,28131.80000001192,29631.90000000596,31288.20000001788,35066.90000000596,36696,37322.09999999404]","[]","[0,2148.5999999940395,3968.0999999940395,5574.4000000059605,6828.0999999940395,8073.5999999940395,10114.800000011921,11945.59999999404,13123.800000011921,15235.700000017881,16565.80000001192,17969.80000001192,19623.30000001192,21640.09999999404,23380.80000001192,24946.90000000596,26369.80000001192,28131.80000001192,29631.90000000596,31288.20000001788,31639,34638.90000000596,35066.90000000596,36378,36696,37322.09999999404,37841,39827.20000001788]","0.45454545454545453","0.38095238095238093","0","","","","","","","","","","","","","","","","","","","","","","","","","","","","",""
"7377.5999999940395","","","","survey-template","8","109128","0.0-4.0-4.0","3","1","2025-07-30 08:37:41","36c45c0696341be0efffe67d72a12abb","89.161.96.217","Mozilla/5.0 (Windows NT 10.0; Win64; x64) AppleWebKit/537.36 (KHTML, like Gecko) Chrome/135.0.0.0 Safari/537.36 OPR/120.0.0.0","WebKit","Opera","120.0.0.0","Windows","10.0","https://app.prolific.com/","pl,en-US;q=0.9,en;q=0.8,ko;q=0.7,cs;q=0.6,de;q=0.5,ru;q=0.4,es;q=0.3,fr;q=0.2,no;q=0.1","5eb2a99596070102a65d32c7","687a19d2168e237449fb8af4","6889d9d0c77e1898c38e2b1d","0","5eb2a99596070102a65d32c7","0","2025-07-30T08:39:31.357Z","","","","stress","{""Q01"":""4"",""Q02"":""4"",""Q03"":""0""}","[0,1,2]","[""Q01"",""Q02"",""Q03""]","[3337.9000000059605,4725.9000000059605,6953.4000000059605]","[]","[2524,3337.9000000059605,4725.9000000059605,5225,6953.4000000059605,7377.0999999940395]","0.3333333333333333","0.5","0","","","","","","","","","","","","","","","","","","","","","","","","","","","","",""
"21334","","","","instructions","9","130462","0.0-5.0-0.0","3","1","2025-07-30 08:37:41","36c45c0696341be0efffe67d72a12abb","89.161.96.217","Mozilla/5.0 (Windows NT 10.0; Win64; x64) AppleWebKit/537.36 (KHTML, like Gecko) Chrome/135.0.0.0 Safari/537.36 OPR/120.0.0.0","WebKit","Opera","120.0.0.0","Windows","10.0","https://app.prolific.com/","pl,en-US;q=0.9,en;q=0.8,ko;q=0.7,cs;q=0.6,de;q=0.5,ru;q=0.4,es;q=0.3,fr;q=0.2,no;q=0.1","5eb2a99596070102a65d32c7","687a19d2168e237449fb8af4","6889d9d0c77e1898c38e2b1d","0","5eb2a99596070102a65d32c7","0","","","","","","","","","","","","","","","[{""page_index"":0,""viewing_time"":21334}]","","","","","","","","","","","","","","","","","","","","","","","","","","","",""
"5369","","<p>Before you start with this game please answer the following three questions yourself. </p>
  <p>Through this game, we measure several aspects of your cognitive performance, such as reaction times, multi-tasking capabilities </p>
  <p>and the ability to assess the situation you are in.</p>
  <p></p>
  <p><b>How good do you usually are in such tasks?</b></p>","74","html-slider-response","10","135842","0.0-6.0-0.0","3","1","2025-07-30 08:37:41","36c45c0696341be0efffe67d72a12abb","89.161.96.217","Mozilla/5.0 (Windows NT 10.0; Win64; x64) AppleWebKit/537.36 (KHTML, like Gecko) Chrome/135.0.0.0 Safari/537.36 OPR/120.0.0.0","WebKit","Opera","120.0.0.0","Windows","10.0","https://app.prolific.com/","pl,en-US;q=0.9,en;q=0.8,ko;q=0.7,cs;q=0.6,de;q=0.5,ru;q=0.4,es;q=0.3,fr;q=0.2,no;q=0.1","5eb2a99596070102a65d32c7","687a19d2168e237449fb8af4","6889d9d0c77e1898c38e2b1d","0","5eb2a99596070102a65d32c7","0","2025-07-30T08:39:58.071Z","","","","PreSkillQ","","","","","","","","","","","50","","","","","","","","","","","","","","","","","","","","","","","","","","",""
"3153","","<div style=""width:500px;"">
  <p>How well do you think you will perform in this task compared to other participants?</p>
  </div>","51","html-slider-response","11","138996","0.0-6.0-1.0","3","1","2025-07-30 08:37:41","36c45c0696341be0efffe67d72a12abb","89.161.96.217","Mozilla/5.0 (Windows NT 10.0; Win64; x64) AppleWebKit/537.36 (KHTML, like Gecko) Chrome/135.0.0.0 Safari/537.36 OPR/120.0.0.0","WebKit","Opera","120.0.0.0","Windows","10.0","https://app.prolific.com/","pl,en-US;q=0.9,en;q=0.8,ko;q=0.7,cs;q=0.6,de;q=0.5,ru;q=0.4,es;q=0.3,fr;q=0.2,no;q=0.1","5eb2a99596070102a65d32c7","687a19d2168e237449fb8af4","6889d9d0c77e1898c38e2b1d","0","5eb2a99596070102a65d32c7","0","2025-07-30T08:40:01.225Z","","","","PrePerfQ","","","","","","","","","","","50","","","","","","","","","","","","","","","","","","","","","","","","","","",""
"2211","","<div style=""width:500px;"">
  <p>What best describes how you currently feel?</p>
  </div>","66","html-slider-response","12","141208","0.0-6.0-2.0","3","1","2025-07-30 08:37:41","36c45c0696341be0efffe67d72a12abb","89.161.96.217","Mozilla/5.0 (Windows NT 10.0; Win64; x64) AppleWebKit/537.36 (KHTML, like Gecko) Chrome/135.0.0.0 Safari/537.36 OPR/120.0.0.0","WebKit","Opera","120.0.0.0","Windows","10.0","https://app.prolific.com/","pl,en-US;q=0.9,en;q=0.8,ko;q=0.7,cs;q=0.6,de;q=0.5,ru;q=0.4,es;q=0.3,fr;q=0.2,no;q=0.1","5eb2a99596070102a65d32c7","687a19d2168e237449fb8af4","6889d9d0c77e1898c38e2b1d","0","5eb2a99596070102a65d32c7","0","2025-07-30T08:40:03.437Z","","","","PreMotivationQ","","","","","","","","","","","50","","","","","","","","","","","","","","","","","","","","","","","","","","",""
"","","","","ctl-task-cpt","13","168540","0.0-7.0-0.0","3","1","2025-07-30 08:37:41","36c45c0696341be0efffe67d72a12abb","89.161.96.217","Mozilla/5.0 (Windows NT 10.0; Win64; x64) AppleWebKit/537.36 (KHTML, like Gecko) Chrome/135.0.0.0 Safari/537.36 OPR/120.0.0.0","WebKit","Opera","120.0.0.0","Windows","10.0","https://app.prolific.com/","pl,en-US;q=0.9,en;q=0.8,ko;q=0.7,cs;q=0.6,de;q=0.5,ru;q=0.4,es;q=0.3,fr;q=0.2,no;q=0.1","5eb2a99596070102a65d32c7","687a19d2168e237449fb8af4","6889d9d0c77e1898c38e2b1d","0","5eb2a99596070102a65d32c7","0","2025-07-30T08:40:30.769Z","","","","","","","","","","","","","","","","win-only","0","g1:NW,g2:SE","1","1","0","142707.2","2868.1","7870.8","24327.1","1","4","4","6","2","4","4","4","0","0.030303030303030304","1157","3000","1035","[""down"",""right""]","{""num_key_presses"":6,""num_perfect"":6,""num_errors"":0,""num_randdir"":0,""num_randdir_good_moves"":0,""num_whilered"":0,""num_whileblue"":0,""num_blue"":0,""num_good_moves"":6}","[416.57142857142856,413.47767857142856,0.2,416.57142857142856,413.47767857142856,103.1,416.57142857142856,413.47767857142856,207.1,381.57142857142856,445.47767857142856,307.2,553.5714285714286,508.47767857142856,412.1,632.5714285714286,591.4776785714286,512.1,754.5714285714286,715.4776785714286,612.6,779.5714285714286,759.4776785714286,717.5,778.5714285714286,759.4776785714286,822.1,778.5714285714286,759.4776785714286,922.2,778.5714285714286,759.4776785714286,1022.2,778.5714285714286,759.4776785714286,1122.2,778.5714285714286,759.4776785714286,1222.5,866.5714285714286,744.4776785714286,1328.2,963.5714285714286,630.4776785714286,1432.3,965.5714285714286,607.4776785714286,1532.5,964.5714285714286,608.4776785714286,1637.1,964.5714285714286,608.4776785714286,1738.1,964.5714285714286,608.4776785714286,1842.2,964.5714285714286,608.4776785714286,1942.5,964.5714285714286,608.4776785714286,2043.1,964.5714285714286,608.4776785714286,2147.2,964.5714285714286,608.4776785714286,2252.1,964.5714285714286,608.4776785714286,2352.2,964.5714285714286,608.4776785714286,2453.1,964.5714285714286,608.4776785714286,2558.1,964.5714285714286,608.4776785714286,2662.1,964.5714285714286,608.4776785714286,2762.8,964.5714285714286,608.4776785714286,2868.1,964.5714285714286,608.4776785714286,2972.2,964.5714285714286,608.4776785714286,3073.2,964.5714285714286,608.4776785714286,3177.2,964.5714285714286,608.4776785714286,3277.3,964.5714285714286,608.4776785714286,3377.9,964.5714285714286,608.4776785714286,3477.9,964.5714285714286,608.4776785714286,3583,964.5714285714286,608.4776785714286,3683.1,964.5714285714286,608.4776785714286,3787.1,964.5714285714286,608.4776785714286,3887.2,964.5714285714286,608.4776785714286,3988,964.5714285714286,608.4776785714286,4092.1,964.5714285714286,608.4776785714286,4193.1,964.5714285714286,608.4776785714286,4298,964.5714285714286,608.4776785714286,4402.1,964.5714285714286,608.4776785714286,4502.5,964.5714285714286,608.4776785714286,4607.1,964.5714285714286,608.4776785714286,4707.1,964.5714285714286,608.4776785714286,4807.2,964.5714285714286,608.4776785714286,4908]","[1328.3,1328.3,1000,0,328.3,""smooth"",""down"",""down"",""good_move"",4448.1,3119.6,2774.7,1328.5,344.9,""smooth"",""right"",""right"",""good_move"",7303.9,2855.6,2512.4,4448.3,343.2,""smooth"",""down"",""down"",""good_move"",10914.9,3610.9,3261.7,7304,349.2,""smooth"",""right"",""right"",""good_move"",13787.8,2872.7,2564,10915.1,308.7,""smooth"",""down"",""down"",""good_move"",16369.9,2581.9,2254.7,13788,327.2,""smooth"",""right"",""right"",""good_move""]"
"8766","","<div style=""width:500px;"">
  <p>What determined the result of this run?</p>
  </div>","78","html-slider-response","14","177307","0.0-7.0-1.0","3","1","2025-07-30 08:37:41","36c45c0696341be0efffe67d72a12abb","89.161.96.217","Mozilla/5.0 (Windows NT 10.0; Win64; x64) AppleWebKit/537.36 (KHTML, like Gecko) Chrome/135.0.0.0 Safari/537.36 OPR/120.0.0.0","WebKit","Opera","120.0.0.0","Windows","10.0","https://app.prolific.com/","pl,en-US;q=0.9,en;q=0.8,ko;q=0.7,cs;q=0.6,de;q=0.5,ru;q=0.4,es;q=0.3,fr;q=0.2,no;q=0.1","5eb2a99596070102a65d32c7","687a19d2168e237449fb8af4","6889d9d0c77e1898c38e2b1d","0","5eb2a99596070102a65d32c7","0","2025-07-30T08:40:39.536Z","","","","AttribQ","","","","","","","","","","","50","","","","","","","","","","","","","","","","","","","","","","","","","","",""
"22829","","<div style=""width:500px;"">
  <p>How much control did you have over the ball?</p>
  </div>","100","html-slider-response","15","200136","0.0-7.0-2.0","3","1","2025-07-30 08:37:41","36c45c0696341be0efffe67d72a12abb","89.161.96.217","Mozilla/5.0 (Windows NT 10.0; Win64; x64) AppleWebKit/537.36 (KHTML, like Gecko) Chrome/135.0.0.0 Safari/537.36 OPR/120.0.0.0","WebKit","Opera","120.0.0.0","Windows","10.0","https://app.prolific.com/","pl,en-US;q=0.9,en;q=0.8,ko;q=0.7,cs;q=0.6,de;q=0.5,ru;q=0.4,es;q=0.3,fr;q=0.2,no;q=0.1","5eb2a99596070102a65d32c7","687a19d2168e237449fb8af4","6889d9d0c77e1898c38e2b1d","0","5eb2a99596070102a65d32c7","0","2025-07-30T08:41:02.365Z","","","","ControlQ","","","","","","","","","","","50","","","","","","","","","","","","","","","","","","","","","","","","","","",""
"3379","","<div style=""width:500px;"">
  <p>How would you describe your current emotional state?</p>
  </div>","19","html-slider-response","16","203516","0.0-7.0-3.0","3","1","2025-07-30 08:37:41","36c45c0696341be0efffe67d72a12abb","89.161.96.217","Mozilla/5.0 (Windows NT 10.0; Win64; x64) AppleWebKit/537.36 (KHTML, like Gecko) Chrome/135.0.0.0 Safari/537.36 OPR/120.0.0.0","WebKit","Opera","120.0.0.0","Windows","10.0","https://app.prolific.com/","pl,en-US;q=0.9,en;q=0.8,ko;q=0.7,cs;q=0.6,de;q=0.5,ru;q=0.4,es;q=0.3,fr;q=0.2,no;q=0.1","5eb2a99596070102a65d32c7","687a19d2168e237449fb8af4","6889d9d0c77e1898c38e2b1d","0","5eb2a99596070102a65d32c7","0","2025-07-30T08:41:05.745Z","","","","StressQ","","","","","","","","","","","50","","","","","","","","","","","","","","","","","","","","","","","","","","",""
"2294","","<div style=""width:500px;"">
  <p>What best describes how you currently feel?</p>
  </div>","83","html-slider-response","17","205811","0.0-7.0-4.0","3","1","2025-07-30 08:37:41","36c45c0696341be0efffe67d72a12abb","89.161.96.217","Mozilla/5.0 (Windows NT 10.0; Win64; x64) AppleWebKit/537.36 (KHTML, like Gecko) Chrome/135.0.0.0 Safari/537.36 OPR/120.0.0.0","WebKit","Opera","120.0.0.0","Windows","10.0","https://app.prolific.com/","pl,en-US;q=0.9,en;q=0.8,ko;q=0.7,cs;q=0.6,de;q=0.5,ru;q=0.4,es;q=0.3,fr;q=0.2,no;q=0.1","5eb2a99596070102a65d32c7","687a19d2168e237449fb8af4","6889d9d0c77e1898c38e2b1d","0","5eb2a99596070102a65d32c7","0","2025-07-30T08:41:08.040Z","","","","MotivationQ","","","","","","","","","","","50","","","","","","","","","","","","","","","","","","","","","","","","","","",""
"","","","","ctl-task-cpt","18","233530","0.0-7.0-0.1","3","1","2025-07-30 08:37:41","36c45c0696341be0efffe67d72a12abb","89.161.96.217","Mozilla/5.0 (Windows NT 10.0; Win64; x64) AppleWebKit/537.36 (KHTML, like Gecko) Chrome/135.0.0.0 Safari/537.36 OPR/120.0.0.0","WebKit","Opera","120.0.0.0","Windows","10.0","https://app.prolific.com/","pl,en-US;q=0.9,en;q=0.8,ko;q=0.7,cs;q=0.6,de;q=0.5,ru;q=0.4,es;q=0.3,fr;q=0.2,no;q=0.1","5eb2a99596070102a65d32c7","687a19d2168e237449fb8af4","6889d9d0c77e1898c38e2b1d","0","5eb2a99596070102a65d32c7","0","2025-07-30T08:41:35.759Z","","","","","","","","","","","","","","","","win-only","2","g1:SE,g2:NW","0.9","2","0","207310","846.3","5850.7","24701.8","1","4","8","6","2","8","8","12","4","0.09090909090909091","1180.7","3000","690","[""left"",""up""]","{""num_key_presses"":6,""num_perfect"":6,""num_errors"":0,""num_randdir"":0,""num_randdir_good_moves"":0,""num_whilered"":0,""num_whileblue"":0,""num_blue"":1,""num_good_moves"":6}","[411.57142857142856,407.47767857142856,0,411.57142857142856,407.47767857142856,104.1,422.57142857142856,419.47767857142856,204.2,458.57142857142856,465.47767857142856,304.8,459.57142857142856,490.47767857142856,405.3,459.57142857142856,490.47767857142856,509.4,386.57142857142856,446.47767857142856,609.5,127.57142857142857,216.47767857142856,709.6,94.57142857142857,131.47767857142856,813.9,69.57142857142857,122.47767857142857,914.9,13.57142857142857,96.47767857142857,1019.4,60.57142857142857,55.47767857142857,1124,61.57142857142857,54.47767857142857,1224.1,183.57142857142856,118.47767857142857,1329,528.5714285714286,399.47767857142856,1429,558.5714285714286,416.47767857142856,1533.9,558.5714285714286,416.47767857142856,1634.8,558.5714285714286,416.47767857142856,1739.4,558.5714285714286,416.47767857142856,1843.9,558.5714285714286,416.47767857142856,1944.1,558.5714285714286,416.47767857142856,2049,558.5714285714286,416.47767857142856,2150.1,558.5714285714286,416.47767857142856,2254.2,558.5714285714286,416.47767857142856,2354.2,558.5714285714286,416.47767857142856,2454.3,558.5714285714286,416.47767857142856,2554.4,558.5714285714286,416.47767857142856,2654.5,558.5714285714286,416.47767857142856,2754.5,558.5714285714286,416.47767857142856,2854.6,558.5714285714286,416.47767857142856,2954.7,558.5714285714286,416.47767857142856,3059.3,558.5714285714286,416.47767857142856,3159.4,558.5714285714286,416.47767857142856,3259.6,558.5714285714286,416.47767857142856,3363.8,558.5714285714286,416.47767857142856,3464.7,558.5714285714286,416.47767857142856,3569.8,558.5714285714286,416.47767857142856,3673.9,558.5714285714286,416.47767857142856,3774,558.5714285714286,416.47767857142856,3874.5,558.5714285714286,416.47767857142856,3974.6,558.5714285714286,416.47767857142856,4079,558.5714285714286,416.47767857142856,4179.7,558.5714285714286,416.47767857142856,4284.6,558.5714285714286,416.47767857142856,4388.8,558.5714285714286,416.47767857142856,4489.6,558.5714285714286,416.47767857142856,4594.7,558.5714285714286,416.47767857142856,4699.5,558.5714285714286,416.47767857142856,4799.6,558.5714285714286,416.47767857142856,4904.3]","[1403.7,1403.7,1000,0,403.7,""smooth"",""up"",""up"",""good_move"",3473.2,2069.3,1532.3,1403.9,537,""smooth"",""left"",""left"",""good_move"",6277.2,2803.8,2427.1,3473.4,376.7,""smooth"",""up"",""up"",""good_move"",12923.5,6646.2,2193.4,10395.4,334.7,""smooth"",""left"",""left"",""good_move"",15858.3,2934.7,2582,12923.6,352.7,""smooth"",""up"",""up"",""good_move"",18762.3,2903.9,2563.5,15858.4,340.4,""smooth"",""left"",""left"",""good_move""]"
"1580","","<div style=""width:500px;"">
  <p>What determined the result of this run?</p>
  </div>","81","html-slider-response","19","235112","0.0-7.0-1.1","3","1","2025-07-30 08:37:41","36c45c0696341be0efffe67d72a12abb","89.161.96.217","Mozilla/5.0 (Windows NT 10.0; Win64; x64) AppleWebKit/537.36 (KHTML, like Gecko) Chrome/135.0.0.0 Safari/537.36 OPR/120.0.0.0","WebKit","Opera","120.0.0.0","Windows","10.0","https://app.prolific.com/","pl,en-US;q=0.9,en;q=0.8,ko;q=0.7,cs;q=0.6,de;q=0.5,ru;q=0.4,es;q=0.3,fr;q=0.2,no;q=0.1","5eb2a99596070102a65d32c7","687a19d2168e237449fb8af4","6889d9d0c77e1898c38e2b1d","0","5eb2a99596070102a65d32c7","0","2025-07-30T08:41:37.341Z","","","","AttribQ","","","","","","","","","","","50","","","","","","","","","","","","","","","","","","","","","","","","","","",""
"1384","","<div style=""width:500px;"">
  <p>How much control did you have over the ball?</p>
  </div>","100","html-slider-response","20","236497","0.0-7.0-2.1","3","1","2025-07-30 08:37:41","36c45c0696341be0efffe67d72a12abb","89.161.96.217","Mozilla/5.0 (Windows NT 10.0; Win64; x64) AppleWebKit/537.36 (KHTML, like Gecko) Chrome/135.0.0.0 Safari/537.36 OPR/120.0.0.0","WebKit","Opera","120.0.0.0","Windows","10.0","https://app.prolific.com/","pl,en-US;q=0.9,en;q=0.8,ko;q=0.7,cs;q=0.6,de;q=0.5,ru;q=0.4,es;q=0.3,fr;q=0.2,no;q=0.1","5eb2a99596070102a65d32c7","687a19d2168e237449fb8af4","6889d9d0c77e1898c38e2b1d","0","5eb2a99596070102a65d32c7","0","2025-07-30T08:41:38.726Z","","","","ControlQ","","","","","","","","","","","50","","","","","","","","","","","","","","","","","","","","","","","","","","",""
"1784","","<div style=""width:500px;"">
  <p>How would you describe your current emotional state?</p>
  </div>","12","html-slider-response","21","238281","0.0-7.0-3.1","3","1","2025-07-30 08:37:41","36c45c0696341be0efffe67d72a12abb","89.161.96.217","Mozilla/5.0 (Windows NT 10.0; Win64; x64) AppleWebKit/537.36 (KHTML, like Gecko) Chrome/135.0.0.0 Safari/537.36 OPR/120.0.0.0","WebKit","Opera","120.0.0.0","Windows","10.0","https://app.prolific.com/","pl,en-US;q=0.9,en;q=0.8,ko;q=0.7,cs;q=0.6,de;q=0.5,ru;q=0.4,es;q=0.3,fr;q=0.2,no;q=0.1","5eb2a99596070102a65d32c7","687a19d2168e237449fb8af4","6889d9d0c77e1898c38e2b1d","0","5eb2a99596070102a65d32c7","0","2025-07-30T08:41:40.511Z","","","","StressQ","","","","","","","","","","","50","","","","","","","","","","","","","","","","","","","","","","","","","","",""
"2337","","<div style=""width:500px;"">
  <p>What best describes how you currently feel?</p>
  </div>","83","html-slider-response","22","240619","0.0-7.0-4.1","3","1","2025-07-30 08:37:41","36c45c0696341be0efffe67d72a12abb","89.161.96.217","Mozilla/5.0 (Windows NT 10.0; Win64; x64) AppleWebKit/537.36 (KHTML, like Gecko) Chrome/135.0.0.0 Safari/537.36 OPR/120.0.0.0","WebKit","Opera","120.0.0.0","Windows","10.0","https://app.prolific.com/","pl,en-US;q=0.9,en;q=0.8,ko;q=0.7,cs;q=0.6,de;q=0.5,ru;q=0.4,es;q=0.3,fr;q=0.2,no;q=0.1","5eb2a99596070102a65d32c7","687a19d2168e237449fb8af4","6889d9d0c77e1898c38e2b1d","0","5eb2a99596070102a65d32c7","0","2025-07-30T08:41:42.848Z","","","","MotivationQ","","","","","","","","","","","50","","","","","","","","","","","","","","","","","","","","","","","","","","",""
"","","","","ctl-task-cpt","23","263346","0.0-7.0-0.2","3","1","2025-07-30 08:37:41","36c45c0696341be0efffe67d72a12abb","89.161.96.217","Mozilla/5.0 (Windows NT 10.0; Win64; x64) AppleWebKit/537.36 (KHTML, like Gecko) Chrome/135.0.0.0 Safari/537.36 OPR/120.0.0.0","WebKit","Opera","120.0.0.0","Windows","10.0","https://app.prolific.com/","pl,en-US;q=0.9,en;q=0.8,ko;q=0.7,cs;q=0.6,de;q=0.5,ru;q=0.4,es;q=0.3,fr;q=0.2,no;q=0.1","5eb2a99596070102a65d32c7","687a19d2168e237449fb8af4","6889d9d0c77e1898c38e2b1d","0","5eb2a99596070102a65d32c7","0","2025-07-30T08:42:05.575Z","","","","","","","","","","","","","","","","win-only","2","g1:SE,g2:NW","0.8","3","0","242117.7","876.1","5880.3","19711.1","1","4","4","6","1","1","1","13","12","0.09848484848484848","3385.7","3000","1745","[""down"",""right""]","{""num_key_presses"":4,""num_perfect"":4,""num_errors"":0,""num_randdir"":0,""num_randdir_good_moves"":0,""num_whilered"":0,""num_whileblue"":0,""num_blue"":1,""num_good_moves"":4}","[417.57142857142856,416.47767857142856,0.2,417.57142857142856,416.47767857142856,104.6,418.57142857142856,417.47767857142856,209,452.57142857142856,432.47767857142856,309.2,450.57142857142856,432.47767857142856,409.2,404.57142857142856,412.47767857142856,509.5,646.5714285714286,543.4776785714286,614.2,667.5714285714286,555.4776785714286,714.6,737.5714285714286,629.4776785714286,819.1,743.5714285714286,677.4776785714286,919.4,746.5714285714286,751.4776785714286,1019.9,711.5714285714286,751.4776785714286,1124.8,711.5714285714286,750.4776785714286,1224.9,726.5714285714286,753.4776785714286,1329.6,782.5714285714286,775.4776785714286,1434.7,782.5714285714286,775.4776785714286,1539.2,782.5714285714286,775.4776785714286,1644.7,782.5714285714286,775.4776785714286,1749.7,782.5714285714286,775.4776785714286,1850,782.5714285714286,775.4776785714286,1954.6,782.5714285714286,775.4776785714286,2059.3,781.5714285714286,773.4776785714286,2159.7,780.5714285714286,771.4776785714286,2259.8,780.5714285714286,771.4776785714286,2359.9,780.5714285714286,771.4776785714286,2464.6,780.5714285714286,770.4776785714286,2569.3,780.5714285714286,770.4776785714286,2669.7,780.5714285714286,769.4776785714286,2774.5,779.5714285714286,768.4776785714286,2874.9,779.5714285714286,768.4776785714286,2979.6,779.5714285714286,768.4776785714286,3084.1,779.5714285714286,768.4776785714286,3184.9,779.5714285714286,768.4776785714286,3290,779.5714285714286,768.4776785714286,3394.3,779.5714285714286,768.4776785714286,3494.8,945.5714285714286,749.4776785714286,3599.6,982.5714285714286,723.4776785714286,3699.9,982.5714285714286,723.4776785714286,3804.8,979.5714285714286,724.4776785714286,3909.4,979.5714285714286,724.4776785714286,4014.4,979.5714285714286,724.4776785714286,4114.5,979.5714285714286,724.4776785714286,4214.6,979.5714285714286,724.4776785714286,4319.6,979.5714285714286,724.4776785714286,4419.7,979.5714285714286,724.4776785714286,4520,979.5714285714286,724.4776785714286,4624.1,979.5714285714286,724.4776785714286,4724.6,979.5714285714286,724.4776785714286,4829.1,979.5714285714286,724.4776785714286,4929.6]","[4757.1,4757,2430,2005.4,321.7,""smooth"",""down"",""down"",""good_move"",7677.9,2920.5,2580.3,4757.4,340.2,""smooth"",""right"",""right"",""good_move"",10818.2,3140,2844.2,7678.2,295.8,""smooth"",""down"",""down"",""good_move"",13741.9,2923.6,2604.4,10818.3,319.2,""smooth"",""right"",""right"",""good_move""]"
"2285","","<div style=""width:500px;"">
  <p>What determined the result of this run?</p>
  </div>","87","html-slider-response","24","265631","0.0-7.0-1.2","3","1","2025-07-30 08:37:41","36c45c0696341be0efffe67d72a12abb","89.161.96.217","Mozilla/5.0 (Windows NT 10.0; Win64; x64) AppleWebKit/537.36 (KHTML, like Gecko) Chrome/135.0.0.0 Safari/537.36 OPR/120.0.0.0","WebKit","Opera","120.0.0.0","Windows","10.0","https://app.prolific.com/","pl,en-US;q=0.9,en;q=0.8,ko;q=0.7,cs;q=0.6,de;q=0.5,ru;q=0.4,es;q=0.3,fr;q=0.2,no;q=0.1","5eb2a99596070102a65d32c7","687a19d2168e237449fb8af4","6889d9d0c77e1898c38e2b1d","0","5eb2a99596070102a65d32c7","0","2025-07-30T08:42:07.860Z","","","","AttribQ","","","","","","","","","","","50","","","","","","","","","","","","","","","","","","","","","","","","","","",""
"1270","","<div style=""width:500px;"">
  <p>How much control did you have over the ball?</p>
  </div>","100","html-slider-response","25","266901","0.0-7.0-2.2","3","1","2025-07-30 08:37:41","36c45c0696341be0efffe67d72a12abb","89.161.96.217","Mozilla/5.0 (Windows NT 10.0; Win64; x64) AppleWebKit/537.36 (KHTML, like Gecko) Chrome/135.0.0.0 Safari/537.36 OPR/120.0.0.0","WebKit","Opera","120.0.0.0","Windows","10.0","https://app.prolific.com/","pl,en-US;q=0.9,en;q=0.8,ko;q=0.7,cs;q=0.6,de;q=0.5,ru;q=0.4,es;q=0.3,fr;q=0.2,no;q=0.1","5eb2a99596070102a65d32c7","687a19d2168e237449fb8af4","6889d9d0c77e1898c38e2b1d","0","5eb2a99596070102a65d32c7","0","2025-07-30T08:42:09.130Z","","","","ControlQ","","","","","","","","","","","50","","","","","","","","","","","","","","","","","","","","","","","","","","",""
"1948","","<div style=""width:500px;"">
  <p>How would you describe your current emotional state?</p>
  </div>","1","html-slider-response","26","268850","0.0-7.0-3.2","3","1","2025-07-30 08:37:41","36c45c0696341be0efffe67d72a12abb","89.161.96.217","Mozilla/5.0 (Windows NT 10.0; Win64; x64) AppleWebKit/537.36 (KHTML, like Gecko) Chrome/135.0.0.0 Safari/537.36 OPR/120.0.0.0","WebKit","Opera","120.0.0.0","Windows","10.0","https://app.prolific.com/","pl,en-US;q=0.9,en;q=0.8,ko;q=0.7,cs;q=0.6,de;q=0.5,ru;q=0.4,es;q=0.3,fr;q=0.2,no;q=0.1","5eb2a99596070102a65d32c7","687a19d2168e237449fb8af4","6889d9d0c77e1898c38e2b1d","0","5eb2a99596070102a65d32c7","0","2025-07-30T08:42:11.079Z","","","","StressQ","","","","","","","","","","","50","","","","","","","","","","","","","","","","","","","","","","","","","","",""
"1833","","<div style=""width:500px;"">
  <p>What best describes how you currently feel?</p>
  </div>","95","html-slider-response","27","270684","0.0-7.0-4.2","3","1","2025-07-30 08:37:41","36c45c0696341be0efffe67d72a12abb","89.161.96.217","Mozilla/5.0 (Windows NT 10.0; Win64; x64) AppleWebKit/537.36 (KHTML, like Gecko) Chrome/135.0.0.0 Safari/537.36 OPR/120.0.0.0","WebKit","Opera","120.0.0.0","Windows","10.0","https://app.prolific.com/","pl,en-US;q=0.9,en;q=0.8,ko;q=0.7,cs;q=0.6,de;q=0.5,ru;q=0.4,es;q=0.3,fr;q=0.2,no;q=0.1","5eb2a99596070102a65d32c7","687a19d2168e237449fb8af4","6889d9d0c77e1898c38e2b1d","0","5eb2a99596070102a65d32c7","0","2025-07-30T08:42:12.913Z","","","","MotivationQ","","","","","","","","","","","50","","","","","","","","","","","","","","","","","","","","","","","","","","",""
"","","","","ctl-task-cpt","28","301606","0.0-7.0-0.3","3","1","2025-07-30 08:37:41","36c45c0696341be0efffe67d72a12abb","89.161.96.217","Mozilla/5.0 (Windows NT 10.0; Win64; x64) AppleWebKit/537.36 (KHTML, like Gecko) Chrome/135.0.0.0 Safari/537.36 OPR/120.0.0.0","WebKit","Opera","120.0.0.0","Windows","10.0","https://app.prolific.com/","pl,en-US;q=0.9,en;q=0.8,ko;q=0.7,cs;q=0.6,de;q=0.5,ru;q=0.4,es;q=0.3,fr;q=0.2,no;q=0.1","5eb2a99596070102a65d32c7","687a19d2168e237449fb8af4","6889d9d0c77e1898c38e2b1d","0","5eb2a99596070102a65d32c7","0","2025-07-30T08:42:43.835Z","","","","","","","","","","","","","","","","win-only","3","g1:SW,g2:NE","0.7","4","0","272183.2","714.5","5715.9","27905.3","1","4","8","6","2","8","8","21","13","0.1590909090909091","706.3","3000","385","[""up"",""right""]","{""num_key_presses"":8,""num_perfect"":6,""num_errors"":0,""num_randdir"":2,""num_randdir_good_moves"":1,""num_whilered"":0,""num_whileblue"":0,""num_blue"":1,""num_good_moves"":7}","[413.57142857142856,420.47767857142856,0.1,416.57142857142856,420.47767857142856,101.8,416.57142857142856,421.47767857142856,205.6,410.57142857142856,438.47767857142856,305.9,410.57142857142856,438.47767857142856,406,514.5714285714286,357.47767857142856,506.1,759.5714285714286,107.47767857142857,606.2,773.5714285714286,85.47767857142857,710.7,777.5714285714286,155.47767857142856,811.1,831.5714285714286,408.47767857142856,911.1,863.5714285714286,465.47767857142856,1016.2,863.5714285714286,465.47767857142856,1121,863.5714285714286,465.47767857142856,1225.8,863.5714285714286,465.47767857142856,1326,863.5714285714286,465.47767857142856,1426.1,863.5714285714286,465.47767857142856,1526.4,863.5714285714286,465.47767857142856,1630.9,863.5714285714286,465.47767857142856,1731.3,863.5714285714286,465.47767857142856,1835.7,863.5714285714286,465.47767857142856,1936,863.5714285714286,465.47767857142856,2040.9,863.5714285714286,465.47767857142856,2141.2,863.5714285714286,465.47767857142856,2246.4,863.5714285714286,465.47767857142856,2350.6,863.5714285714286,465.47767857142856,2450.7,863.5714285714286,465.47767857142856,2550.8,863.5714285714286,465.47767857142856,2650.8,863.5714285714286,465.47767857142856,2751,863.5714285714286,465.47767857142856,2855.8,863.5714285714286,465.47767857142856,2955.9,863.5714285714286,465.47767857142856,3056.3,863.5714285714286,465.47767857142856,3161,863.5714285714286,465.47767857142856,3265.6,863.5714285714286,465.47767857142856,3366.3,863.5714285714286,465.47767857142856,3470.7,863.5714285714286,465.47767857142856,3571.3,863.5714285714286,465.47767857142856,3676.2,863.5714285714286,465.47767857142856,3781.2,863.5714285714286,465.47767857142856,3886.1,863.5714285714286,465.47767857142856,3991.3,863.5714285714286,465.47767857142856,4095.6,863.5714285714286,465.47767857142856,4196.2,863.5714285714286,465.47767857142856,4296.3,863.5714285714286,465.47767857142856,4400.8,863.5714285714286,465.47767857142856,4506.3,863.5714285714286,465.47767857142856,4611.1,863.5714285714286,465.47767857142856,4715.8,863.5714285714286,465.47767857142856,4816,863.5714285714286,465.47767857142856,4916.1]","[1349.2,1349.2,1000,0,349.2,""smooth"",""up"",""up"",""good_move"",3801,2451.6,2111.2,1349.4,340.4,""smooth"",""right"",""right"",""good_move"",7010.1,3208.9,2739.5,3801.2,469.4,""oops"",""up"",""down"",""bad_move"",13140.1,6129.8,1980.7,10874.7,284.7,""oops"",""up"",""right"",""good_move"",15674.4,2534.3,2216.7,13140.1,317.6,""smooth"",""up"",""up"",""good_move"",18023.8,2349.3,2046.6,15674.5,302.7,""smooth"",""up"",""up"",""good_move"",19909.9,1885.9,1576.7,18024,309.2,""smooth"",""up"",""up"",""good_move"",22099.8,2189.7,1899.9,19910.1,289.8,""smooth"",""right"",""right"",""good_move""]"
"1503","","<div style=""width:500px;"">
  <p>What determined the result of this run?</p>
  </div>","32","html-slider-response","29","303111","0.0-7.0-1.3","3","1","2025-07-30 08:37:41","36c45c0696341be0efffe67d72a12abb","89.161.96.217","Mozilla/5.0 (Windows NT 10.0; Win64; x64) AppleWebKit/537.36 (KHTML, like Gecko) Chrome/135.0.0.0 Safari/537.36 OPR/120.0.0.0","WebKit","Opera","120.0.0.0","Windows","10.0","https://app.prolific.com/","pl,en-US;q=0.9,en;q=0.8,ko;q=0.7,cs;q=0.6,de;q=0.5,ru;q=0.4,es;q=0.3,fr;q=0.2,no;q=0.1","5eb2a99596070102a65d32c7","687a19d2168e237449fb8af4","6889d9d0c77e1898c38e2b1d","0","5eb2a99596070102a65d32c7","0","2025-07-30T08:42:45.340Z","","","","AttribQ","","","","","","","","","","","50","","","","","","","","","","","","","","","","","","","","","","","","","","",""
"1648","","<div style=""width:500px;"">
  <p>How much control did you have over the ball?</p>
  </div>","69","html-slider-response","30","304760","0.0-7.0-2.3","3","1","2025-07-30 08:37:41","36c45c0696341be0efffe67d72a12abb","89.161.96.217","Mozilla/5.0 (Windows NT 10.0; Win64; x64) AppleWebKit/537.36 (KHTML, like Gecko) Chrome/135.0.0.0 Safari/537.36 OPR/120.0.0.0","WebKit","Opera","120.0.0.0","Windows","10.0","https://app.prolific.com/","pl,en-US;q=0.9,en;q=0.8,ko;q=0.7,cs;q=0.6,de;q=0.5,ru;q=0.4,es;q=0.3,fr;q=0.2,no;q=0.1","5eb2a99596070102a65d32c7","687a19d2168e237449fb8af4","6889d9d0c77e1898c38e2b1d","0","5eb2a99596070102a65d32c7","0","2025-07-30T08:42:46.989Z","","","","ControlQ","","","","","","","","","","","50","","","","","","","","","","","","","","","","","","","","","","","","","","",""
"3465","","<div style=""width:500px;"">
  <p>How would you describe your current emotional state?</p>
  </div>","1","html-slider-response","31","308226","0.0-7.0-3.3","3","1","2025-07-30 08:37:41","36c45c0696341be0efffe67d72a12abb","89.161.96.217","Mozilla/5.0 (Windows NT 10.0; Win64; x64) AppleWebKit/537.36 (KHTML, like Gecko) Chrome/135.0.0.0 Safari/537.36 OPR/120.0.0.0","WebKit","Opera","120.0.0.0","Windows","10.0","https://app.prolific.com/","pl,en-US;q=0.9,en;q=0.8,ko;q=0.7,cs;q=0.6,de;q=0.5,ru;q=0.4,es;q=0.3,fr;q=0.2,no;q=0.1","5eb2a99596070102a65d32c7","687a19d2168e237449fb8af4","6889d9d0c77e1898c38e2b1d","0","5eb2a99596070102a65d32c7","0","2025-07-30T08:42:50.455Z","","","","StressQ","","","","","","","","","","","50","","","","","","","","","","","","","","","","","","","","","","","","","","",""
"1700","","<div style=""width:500px;"">
  <p>What best describes how you currently feel?</p>
  </div>","94","html-slider-response","32","309927","0.0-7.0-4.3","3","1","2025-07-30 08:37:41","36c45c0696341be0efffe67d72a12abb","89.161.96.217","Mozilla/5.0 (Windows NT 10.0; Win64; x64) AppleWebKit/537.36 (KHTML, like Gecko) Chrome/135.0.0.0 Safari/537.36 OPR/120.0.0.0","WebKit","Opera","120.0.0.0","Windows","10.0","https://app.prolific.com/","pl,en-US;q=0.9,en;q=0.8,ko;q=0.7,cs;q=0.6,de;q=0.5,ru;q=0.4,es;q=0.3,fr;q=0.2,no;q=0.1","5eb2a99596070102a65d32c7","687a19d2168e237449fb8af4","6889d9d0c77e1898c38e2b1d","0","5eb2a99596070102a65d32c7","0","2025-07-30T08:42:52.156Z","","","","MotivationQ","","","","","","","","","","","50","","","","","","","","","","","","","","","","","","","","","","","","","","",""
"","","","","ctl-task-cpt","33","344640","0.0-7.0-0.4","3","1","2025-07-30 08:37:41","36c45c0696341be0efffe67d72a12abb","89.161.96.217","Mozilla/5.0 (Windows NT 10.0; Win64; x64) AppleWebKit/537.36 (KHTML, like Gecko) Chrome/135.0.0.0 Safari/537.36 OPR/120.0.0.0","WebKit","Opera","120.0.0.0","Windows","10.0","https://app.prolific.com/","pl,en-US;q=0.9,en;q=0.8,ko;q=0.7,cs;q=0.6,de;q=0.5,ru;q=0.4,es;q=0.3,fr;q=0.2,no;q=0.1","5eb2a99596070102a65d32c7","687a19d2168e237449fb8af4","6889d9d0c77e1898c38e2b1d","0","5eb2a99596070102a65d32c7","0","2025-07-30T08:43:26.869Z","","","","","","","","","","","","","","","","win-only","3","g1:SW,g2:NE","0.6","5","0","311425.5","645.1","5645.4","31695.2","1","4","8","6","1","1","1","22","21","0.16666666666666666","3232.6","3000","1185","[""down"",""left""]","{""num_key_presses"":6,""num_perfect"":5,""num_errors"":0,""num_randdir"":1,""num_randdir_good_moves"":0,""num_whilered"":0,""num_whileblue"":0,""num_blue"":3,""num_good_moves"":5}","[424.57142857142856,422.47767857142856,0.1,424.57142857142856,422.47767857142856,100.1,438.57142857142856,428.47767857142856,200.3,458.57142857142856,447.47767857142856,300.5,458.57142857142856,448.47767857142856,400.6,458.57142857142856,448.47767857142856,500.8,457.57142857142856,449.47767857142856,605.5,362.57142857142856,490.47767857142856,710.2,259.57142857142856,576.4776785714286,810.4,249.57142857142856,607.4776785714286,915.3,250.57142857142856,618.4776785714286,1015.6,243.57142857142856,636.4776785714286,1120.9,239.57142857142856,648.4776785714286,1225.1,239.57142857142856,648.4776785714286,1325.8,199.57142857142856,672.4776785714286,1430.2,198.57142857142856,672.4776785714286,1530.3,199.57142857142856,670.4776785714286,1635.5,246.57142857142856,649.4776785714286,1740.2,326.57142857142856,611.4776785714286,1840.5,619.5714285714286,385.47767857142856,1946.2,707.5714285714286,240.47767857142856,2050.2,702.5714285714286,236.47767857142856,2150.5,702.5714285714286,236.47767857142856,2251,702.5714285714286,236.47767857142856,2356.5,584.5714285714286,356.47767857142856,2460.7,227.57142857142856,529.4776785714286,2565.1,161.57142857142856,664.4776785714286,2665.6,90.57142857142857,731.4776785714286,2765.6,86.57142857142857,734.4776785714286,2865.8,86.57142857142857,734.4776785714286,2970.2,86.57142857142857,734.4776785714286,3072,86.57142857142857,734.4776785714286,3175.2,86.57142857142857,734.4776785714286,3275.4,270.57142857142856,735.4776785714286,3375.8,563.5714285714286,710.4776785714286,3480.4,563.5714285714286,710.4776785714286,3585.3,579.5714285714286,720.4776785714286,3685.5,592.5714285714286,733.4776785714286,3790.3,592.5714285714286,733.4776785714286,3890.5,592.5714285714286,733.4776785714286,3995.2,592.5714285714286,733.4776785714286,4095.5,592.5714285714286,733.4776785714286,4200.6,592.5714285714286,733.4776785714286,4305.8,592.5714285714286,733.4776785714286,4405.8,592.5714285714286,733.4776785714286,4510.8,592.5714285714286,733.4776785714286,4615.4,592.5714285714286,733.4776785714286,4720.8,592.5714285714286,733.4776785714286,4826,592.5714285714286,733.4776785714286,4930.1]","[1338.4,1338.4,1000,0,338.4,""smooth"",""down"",""down"",""good_move"",4146.2,2807.5,2547,1338.7,260.5,""smooth"",""left"",""left"",""good_move"",18019.4,13872.9,2926.4,14760.1,332.9,""oops"",""down"",""right"",""bad_move"",20739.1,2719.6,2415.3,18019.6,304.2,""smooth"",""down"",""down"",""good_move"",23372,2632.6,2331.3,20739.4,301.3,""smooth"",""left"",""left"",""good_move"",25964,2591.7,2275,23372.3,316.7,""smooth"",""left"",""left"",""good_move""]"
"2234","","<div style=""width:500px;"">
  <p>What determined the result of this run?</p>
  </div>","89","html-slider-response","34","346874","0.0-7.0-1.4","3","1","2025-07-30 08:37:41","36c45c0696341be0efffe67d72a12abb","89.161.96.217","Mozilla/5.0 (Windows NT 10.0; Win64; x64) AppleWebKit/537.36 (KHTML, like Gecko) Chrome/135.0.0.0 Safari/537.36 OPR/120.0.0.0","WebKit","Opera","120.0.0.0","Windows","10.0","https://app.prolific.com/","pl,en-US;q=0.9,en;q=0.8,ko;q=0.7,cs;q=0.6,de;q=0.5,ru;q=0.4,es;q=0.3,fr;q=0.2,no;q=0.1","5eb2a99596070102a65d32c7","687a19d2168e237449fb8af4","6889d9d0c77e1898c38e2b1d","0","5eb2a99596070102a65d32c7","0","2025-07-30T08:43:29.103Z","","","","AttribQ","","","","","","","","","","","50","","","","","","","","","","","","","","","","","","","","","","","","","","",""
"1984","","<div style=""width:500px;"">
  <p>How much control did you have over the ball?</p>
  </div>","88","html-slider-response","35","348859","0.0-7.0-2.4","3","1","2025-07-30 08:37:41","36c45c0696341be0efffe67d72a12abb","89.161.96.217","Mozilla/5.0 (Windows NT 10.0; Win64; x64) AppleWebKit/537.36 (KHTML, like Gecko) Chrome/135.0.0.0 Safari/537.36 OPR/120.0.0.0","WebKit","Opera","120.0.0.0","Windows","10.0","https://app.prolific.com/","pl,en-US;q=0.9,en;q=0.8,ko;q=0.7,cs;q=0.6,de;q=0.5,ru;q=0.4,es;q=0.3,fr;q=0.2,no;q=0.1","5eb2a99596070102a65d32c7","687a19d2168e237449fb8af4","6889d9d0c77e1898c38e2b1d","0","5eb2a99596070102a65d32c7","0","2025-07-30T08:43:31.088Z","","","","ControlQ","","","","","","","","","","","50","","","","","","","","","","","","","","","","","","","","","","","","","","",""
"1346","","<div style=""width:500px;"">
  <p>How would you describe your current emotional state?</p>
  </div>","0","html-slider-response","36","350206","0.0-7.0-3.4","3","1","2025-07-30 08:37:41","36c45c0696341be0efffe67d72a12abb","89.161.96.217","Mozilla/5.0 (Windows NT 10.0; Win64; x64) AppleWebKit/537.36 (KHTML, like Gecko) Chrome/135.0.0.0 Safari/537.36 OPR/120.0.0.0","WebKit","Opera","120.0.0.0","Windows","10.0","https://app.prolific.com/","pl,en-US;q=0.9,en;q=0.8,ko;q=0.7,cs;q=0.6,de;q=0.5,ru;q=0.4,es;q=0.3,fr;q=0.2,no;q=0.1","5eb2a99596070102a65d32c7","687a19d2168e237449fb8af4","6889d9d0c77e1898c38e2b1d","0","5eb2a99596070102a65d32c7","0","2025-07-30T08:43:32.435Z","","","","StressQ","","","","","","","","","","","50","","","","","","","","","","","","","","","","","","","","","","","","","","",""
"1708","","<div style=""width:500px;"">
  <p>What best describes how you currently feel?</p>
  </div>","95","html-slider-response","37","351915","0.0-7.0-4.4","3","1","2025-07-30 08:37:41","36c45c0696341be0efffe67d72a12abb","89.161.96.217","Mozilla/5.0 (Windows NT 10.0; Win64; x64) AppleWebKit/537.36 (KHTML, like Gecko) Chrome/135.0.0.0 Safari/537.36 OPR/120.0.0.0","WebKit","Opera","120.0.0.0","Windows","10.0","https://app.prolific.com/","pl,en-US;q=0.9,en;q=0.8,ko;q=0.7,cs;q=0.6,de;q=0.5,ru;q=0.4,es;q=0.3,fr;q=0.2,no;q=0.1","5eb2a99596070102a65d32c7","687a19d2168e237449fb8af4","6889d9d0c77e1898c38e2b1d","0","5eb2a99596070102a65d32c7","0","2025-07-30T08:43:34.144Z","","","","MotivationQ","","","","","","","","","","","50","","","","","","","","","","","","","","","","","","","","","","","","","","",""
"","","","","ctl-task-cpt","38","378029","0.0-7.0-0.5","3","1","2025-07-30 08:37:41","36c45c0696341be0efffe67d72a12abb","89.161.96.217","Mozilla/5.0 (Windows NT 10.0; Win64; x64) AppleWebKit/537.36 (KHTML, like Gecko) Chrome/135.0.0.0 Safari/537.36 OPR/120.0.0.0","WebKit","Opera","120.0.0.0","Windows","10.0","https://app.prolific.com/","pl,en-US;q=0.9,en;q=0.8,ko;q=0.7,cs;q=0.6,de;q=0.5,ru;q=0.4,es;q=0.3,fr;q=0.2,no;q=0.1","5eb2a99596070102a65d32c7","687a19d2168e237449fb8af4","6889d9d0c77e1898c38e2b1d","0","5eb2a99596070102a65d32c7","0","2025-07-30T08:44:00.258Z","","","","","","","","","","","","","","","","win-only","0","g1:NW,g2:SE","0.5","6","0","353414","657.9","5661.1","23095.2","1","4","4","6","1","1","1","23","22","0.17424242424242425","3226.2","3000","1285","[""left"",""up""]","{""num_key_presses"":6,""num_perfect"":4,""num_errors"":0,""num_randdir"":2,""num_randdir_good_moves"":1,""num_whilered"":0,""num_whileblue"":0,""num_blue"":1,""num_good_moves"":5}","[410.57142857142856,427.47767857142856,0.1,410.57142857142856,427.47767857142856,102.3,410.57142857142856,427.47767857142856,202.5,378.57142857142856,433.47767857142856,302.6,365.57142857142856,432.47767857142856,404.1,466.57142857142856,484.47767857142856,507.8,528.5714285714286,516.4776785714286,612.7,710.5714285714286,636.4776785714286,717.8,716.5714285714286,674.4776785714286,822.9,687.5714285714286,672.4776785714286,927.3,401.57142857142856,464.47767857142856,1027.5,138.57142857142856,228.47767857142856,1127.5,187.57142857142856,244.47767857142856,1227.7,356.57142857142856,319.47767857142856,1328.8,351.57142857142856,313.47767857142856,1433,467.57142857142856,414.47767857142856,1537.6,630.5714285714286,572.4776785714286,1637.8,748.5714285714286,692.4776785714286,1742.3,803.5714285714286,746.4776785714286,1843,803.5714285714286,747.4776785714286,1947.8,752.5714285714286,710.4776785714286,2047.9,671.5714285714286,586.4776785714286,2148,252.57142857142856,263.47767857142856,2248.3,197.57142857142856,235.47767857142856,2353,206.57142857142856,256.47767857142856,2457.9,173.57142857142856,223.47767857142856,2562.4,93.57142857142857,127.47767857142857,2667.5,92.57142857142857,125.47767857142857,2772.6,120.57142857142857,154.47767857142856,2872.9,109.57142857142857,135.47767857142856,2977.8,85.57142857142857,90.47767857142857,3077.8,79.57142857142857,80.47767857142857,3177.9,79.57142857142857,80.47767857142857,3278.2,389.57142857142856,260.47767857142856,3383.3,780.5714285714286,415.47767857142856,3483.3,871.5714285714286,417.47767857142856,3587.4,871.5714285714286,417.47767857142856,3687.6,871.5714285714286,417.47767857142856,3787.6,871.5714285714286,417.47767857142856,3888.2,871.5714285714286,417.47767857142856,3992.3,871.5714285714286,417.47767857142856,4092.5,871.5714285714286,417.47767857142856,4192.8,871.5714285714286,417.47767857142856,4293,871.5714285714286,417.47767857142856,4393.1,871.5714285714286,417.47767857142856,4497.6,871.5714285714286,417.47767857142856,4597.9,871.5714285714286,417.47767857142856,4697.9,871.5714285714286,417.47767857142856,4797.9,871.5714285714286,417.47767857142856,4902.8]","[1321.5,1321.5,1000,0,321.5,""oops"",""up"",""left"",""good_move"",6614.7,5293,1707.1,4594.9,312.7,""smooth"",""up"",""up"",""good_move"",9321.2,2706.3,2419.7,6614.9,286.6,""smooth"",""left"",""left"",""good_move"",11781.6,2460.3,2184.7,9321.3,275.6,""oops"",""up"",""down"",""bad_move"",14632,2850.1,2583.7,11781.9,266.4,""smooth"",""up"",""up"",""good_move"",17349.4,2717.3,2436.9,14632.1,280.4,""smooth"",""up"",""up"",""good_move""]"
"1853","","<div style=""width:500px;"">
  <p>What determined the result of this run?</p>
  </div>","92","html-slider-response","39","379883","0.0-7.0-1.5","3","1","2025-07-30 08:37:41","36c45c0696341be0efffe67d72a12abb","89.161.96.217","Mozilla/5.0 (Windows NT 10.0; Win64; x64) AppleWebKit/537.36 (KHTML, like Gecko) Chrome/135.0.0.0 Safari/537.36 OPR/120.0.0.0","WebKit","Opera","120.0.0.0","Windows","10.0","https://app.prolific.com/","pl,en-US;q=0.9,en;q=0.8,ko;q=0.7,cs;q=0.6,de;q=0.5,ru;q=0.4,es;q=0.3,fr;q=0.2,no;q=0.1","5eb2a99596070102a65d32c7","687a19d2168e237449fb8af4","6889d9d0c77e1898c38e2b1d","0","5eb2a99596070102a65d32c7","0","2025-07-30T08:44:02.112Z","","","","AttribQ","","","","","","","","","","","50","","","","","","","","","","","","","","","","","","","","","","","","","","",""
"2260","","<div style=""width:500px;"">
  <p>How much control did you have over the ball?</p>
  </div>","85","html-slider-response","40","382144","0.0-7.0-2.5","3","1","2025-07-30 08:37:41","36c45c0696341be0efffe67d72a12abb","89.161.96.217","Mozilla/5.0 (Windows NT 10.0; Win64; x64) AppleWebKit/537.36 (KHTML, like Gecko) Chrome/135.0.0.0 Safari/537.36 OPR/120.0.0.0","WebKit","Opera","120.0.0.0","Windows","10.0","https://app.prolific.com/","pl,en-US;q=0.9,en;q=0.8,ko;q=0.7,cs;q=0.6,de;q=0.5,ru;q=0.4,es;q=0.3,fr;q=0.2,no;q=0.1","5eb2a99596070102a65d32c7","687a19d2168e237449fb8af4","6889d9d0c77e1898c38e2b1d","0","5eb2a99596070102a65d32c7","0","2025-07-30T08:44:04.373Z","","","","ControlQ","","","","","","","","","","","50","","","","","","","","","","","","","","","","","","","","","","","","","","",""
"1989","","<div style=""width:500px;"">
  <p>How would you describe your current emotional state?</p>
  </div>","3","html-slider-response","41","384134","0.0-7.0-3.5","3","1","2025-07-30 08:37:41","36c45c0696341be0efffe67d72a12abb","89.161.96.217","Mozilla/5.0 (Windows NT 10.0; Win64; x64) AppleWebKit/537.36 (KHTML, like Gecko) Chrome/135.0.0.0 Safari/537.36 OPR/120.0.0.0","WebKit","Opera","120.0.0.0","Windows","10.0","https://app.prolific.com/","pl,en-US;q=0.9,en;q=0.8,ko;q=0.7,cs;q=0.6,de;q=0.5,ru;q=0.4,es;q=0.3,fr;q=0.2,no;q=0.1","5eb2a99596070102a65d32c7","687a19d2168e237449fb8af4","6889d9d0c77e1898c38e2b1d","0","5eb2a99596070102a65d32c7","0","2025-07-30T08:44:06.363Z","","","","StressQ","","","","","","","","","","","50","","","","","","","","","","","","","","","","","","","","","","","","","","",""
"1823","","<div style=""width:500px;"">
  <p>What best describes how you currently feel?</p>
  </div>","94","html-slider-response","42","385958","0.0-7.0-4.5","3","1","2025-07-30 08:37:41","36c45c0696341be0efffe67d72a12abb","89.161.96.217","Mozilla/5.0 (Windows NT 10.0; Win64; x64) AppleWebKit/537.36 (KHTML, like Gecko) Chrome/135.0.0.0 Safari/537.36 OPR/120.0.0.0","WebKit","Opera","120.0.0.0","Windows","10.0","https://app.prolific.com/","pl,en-US;q=0.9,en;q=0.8,ko;q=0.7,cs;q=0.6,de;q=0.5,ru;q=0.4,es;q=0.3,fr;q=0.2,no;q=0.1","5eb2a99596070102a65d32c7","687a19d2168e237449fb8af4","6889d9d0c77e1898c38e2b1d","0","5eb2a99596070102a65d32c7","0","2025-07-30T08:44:08.187Z","","","","MotivationQ","","","","","","","","","","","50","","","","","","","","","","","","","","","","","","","","","","","","","","",""
"","","","","ctl-task-cpt","43","438027","0.0-7.0-0.6","3","1","2025-07-30 08:37:41","36c45c0696341be0efffe67d72a12abb","89.161.96.217","Mozilla/5.0 (Windows NT 10.0; Win64; x64) AppleWebKit/537.36 (KHTML, like Gecko) Chrome/135.0.0.0 Safari/537.36 OPR/120.0.0.0","WebKit","Opera","120.0.0.0","Windows","10.0","https://app.prolific.com/","pl,en-US;q=0.9,en;q=0.8,ko;q=0.7,cs;q=0.6,de;q=0.5,ru;q=0.4,es;q=0.3,fr;q=0.2,no;q=0.1","5eb2a99596070102a65d32c7","687a19d2168e237449fb8af4","6889d9d0c77e1898c38e2b1d","0","5eb2a99596070102a65d32c7","0","2025-07-30T08:45:00.256Z","","","","","","","","","","","","","","","","win-only","1","g1:NE,g2:SW","0.4","7","0","387456.5","943.1","5945.3","49050.4","1","4","8","6","2","-8","-8","15","23","0.11363636363636363","658.4","3000","-3015","[""down"",""left""]","{""num_key_presses"":10,""num_perfect"":4,""num_errors"":0,""num_randdir"":6,""num_randdir_good_moves"":1,""num_whilered"":0,""num_whileblue"":0,""num_blue"":4,""num_good_moves"":5}","[417.57142857142856,420.47767857142856,0.2,417.57142857142856,420.47767857142856,102.1,433.57142857142856,441.47767857142856,202.2,455.57142857142856,455.47767857142856,302.3,411.57142857142856,484.47767857142856,402.3,96.57142857142857,672.4776785714286,507.2,27.57142857142857,758.4776785714286,607.3,27.57142857142857,758.4776785714286,712.1,226.57142857142856,755.4776785714286,812.2,698.5714285714286,683.4776785714286,912.6,1009.5714285714286,602.4776785714286,1017.3,1013.5714285714286,605.4776785714286,1117.4,1013.5714285714286,605.4776785714286,1222.1,1013.5714285714286,605.4776785714286,1322.5,1013.5714285714286,605.4776785714286,1422.8,1013.5714285714286,605.4776785714286,1522.8,1013.5714285714286,605.4776785714286,1627.3,1013.5714285714286,605.4776785714286,1727.3,1013.5714285714286,605.4776785714286,1827.5,1013.5714285714286,605.4776785714286,1927.5,1013.5714285714286,605.4776785714286,2032.4,1013.5714285714286,605.4776785714286,2132.4,1013.5714285714286,605.4776785714286,2238,1013.5714285714286,605.4776785714286,2342.1,1013.5714285714286,605.4776785714286,2442.2,1013.5714285714286,605.4776785714286,2542.4,1013.5714285714286,605.4776785714286,2642.8,1013.5714285714286,605.4776785714286,2747,1013.5714285714286,605.4776785714286,2847.1,1013.5714285714286,605.4776785714286,2947.1,1013.5714285714286,605.4776785714286,3052.3,1013.5714285714286,605.4776785714286,3152.4,1013.5714285714286,605.4776785714286,3257.1,1013.5714285714286,605.4776785714286,3357.2,1013.5714285714286,605.4776785714286,3462.3,1013.5714285714286,605.4776785714286,3567.1,1013.5714285714286,605.4776785714286,3667.5,1013.5714285714286,605.4776785714286,3768,1013.5714285714286,605.4776785714286,3872.6,1013.5714285714286,605.4776785714286,3977,1013.5714285714286,605.4776785714286,4077.5,1013.5714285714286,605.4776785714286,4182.1,1013.5714285714286,605.4776785714286,4282.2,1013.5714285714286,605.4776785714286,4387.2,1013.5714285714286,605.4776785714286,4487.3,1013.5714285714286,605.4776785714286,4587.3,1013.5714285714286,605.4776785714286,4687.4,1013.5714285714286,605.4776785714286,4787.5,1013.5714285714286,605.4776785714286,4892.6,1013.5714285714286,605.4776785714286,4992.7]","[1299.8,1299.8,1000,0,299.8,""smooth"",""down"",""down"",""good_move"",4651.5,3351.4,3034.8,1300.1,316.6,""oops"",""left"",""right"",""bad_move"",10770.3,6118.5,2792.9,7715.2,262.2,""smooth"",""left"",""left"",""good_move"",14361.5,3590.9,3286.8,10770.6,304.1,""oops"",""down"",""right"",""bad_move"",20031.6,5669.9,2520.4,17230.1,281.1,""oops"",""down"",""up"",""bad_move"",26971.6,6939.8,2612.9,24065.7,293,""smooth"",""down"",""down"",""good_move"",30037.4,3065.7,2779.9,26971.7,285.8,""oops"",""down"",""up"",""bad_move"",32462.4,2424.8,2121.7,30037.6,303.1,""oops"",""left"",""up"",""bad_move"",37748.4,5285.8,1755.2,35716.3,276.9,""smooth"",""left"",""left"",""good_move"",40270.4,2521.8,2251.4,37748.6,270.4,""oops"",""down"",""left"",""good_move""]"
"3237","","<div style=""width:500px;"">
  <p>What determined the result of this run?</p>
  </div>","1","html-slider-response","44","441265","0.0-7.0-1.6","3","1","2025-07-30 08:37:41","36c45c0696341be0efffe67d72a12abb","89.161.96.217","Mozilla/5.0 (Windows NT 10.0; Win64; x64) AppleWebKit/537.36 (KHTML, like Gecko) Chrome/135.0.0.0 Safari/537.36 OPR/120.0.0.0","WebKit","Opera","120.0.0.0","Windows","10.0","https://app.prolific.com/","pl,en-US;q=0.9,en;q=0.8,ko;q=0.7,cs;q=0.6,de;q=0.5,ru;q=0.4,es;q=0.3,fr;q=0.2,no;q=0.1","5eb2a99596070102a65d32c7","687a19d2168e237449fb8af4","6889d9d0c77e1898c38e2b1d","0","5eb2a99596070102a65d32c7","0","2025-07-30T08:45:03.494Z","","","","AttribQ","","","","","","","","","","","50","","","","","","","","","","","","","","","","","","","","","","","","","","",""
"1992","","<div style=""width:500px;"">
  <p>How much control did you have over the ball?</p>
  </div>","8","html-slider-response","45","443257","0.0-7.0-2.6","3","1","2025-07-30 08:37:41","36c45c0696341be0efffe67d72a12abb","89.161.96.217","Mozilla/5.0 (Windows NT 10.0; Win64; x64) AppleWebKit/537.36 (KHTML, like Gecko) Chrome/135.0.0.0 Safari/537.36 OPR/120.0.0.0","WebKit","Opera","120.0.0.0","Windows","10.0","https://app.prolific.com/","pl,en-US;q=0.9,en;q=0.8,ko;q=0.7,cs;q=0.6,de;q=0.5,ru;q=0.4,es;q=0.3,fr;q=0.2,no;q=0.1","5eb2a99596070102a65d32c7","687a19d2168e237449fb8af4","6889d9d0c77e1898c38e2b1d","0","5eb2a99596070102a65d32c7","0","2025-07-30T08:45:05.487Z","","","","ControlQ","","","","","","","","","","","50","","","","","","","","","","","","","","","","","","","","","","","","","","",""
"1637","","<div style=""width:500px;"">
  <p>How would you describe your current emotional state?</p>
  </div>","35","html-slider-response","46","444895","0.0-7.0-3.6","3","1","2025-07-30 08:37:41","36c45c0696341be0efffe67d72a12abb","89.161.96.217","Mozilla/5.0 (Windows NT 10.0; Win64; x64) AppleWebKit/537.36 (KHTML, like Gecko) Chrome/135.0.0.0 Safari/537.36 OPR/120.0.0.0","WebKit","Opera","120.0.0.0","Windows","10.0","https://app.prolific.com/","pl,en-US;q=0.9,en;q=0.8,ko;q=0.7,cs;q=0.6,de;q=0.5,ru;q=0.4,es;q=0.3,fr;q=0.2,no;q=0.1","5eb2a99596070102a65d32c7","687a19d2168e237449fb8af4","6889d9d0c77e1898c38e2b1d","0","5eb2a99596070102a65d32c7","0","2025-07-30T08:45:07.124Z","","","","StressQ","","","","","","","","","","","50","","","","","","","","","","","","","","","","","","","","","","","","","","",""
"1651","","<div style=""width:500px;"">
  <p>What best describes how you currently feel?</p>
  </div>","78","html-slider-response","47","446547","0.0-7.0-4.6","3","1","2025-07-30 08:37:41","36c45c0696341be0efffe67d72a12abb","89.161.96.217","Mozilla/5.0 (Windows NT 10.0; Win64; x64) AppleWebKit/537.36 (KHTML, like Gecko) Chrome/135.0.0.0 Safari/537.36 OPR/120.0.0.0","WebKit","Opera","120.0.0.0","Windows","10.0","https://app.prolific.com/","pl,en-US;q=0.9,en;q=0.8,ko;q=0.7,cs;q=0.6,de;q=0.5,ru;q=0.4,es;q=0.3,fr;q=0.2,no;q=0.1","5eb2a99596070102a65d32c7","687a19d2168e237449fb8af4","6889d9d0c77e1898c38e2b1d","0","5eb2a99596070102a65d32c7","0","2025-07-30T08:45:08.776Z","","","","MotivationQ","","","","","","","","","","","50","","","","","","","","","","","","","","","","","","","","","","","","","","",""
"","","","","ctl-task-cpt","48","491831","0.0-7.0-0.7","3","1","2025-07-30 08:37:41","36c45c0696341be0efffe67d72a12abb","89.161.96.217","Mozilla/5.0 (Windows NT 10.0; Win64; x64) AppleWebKit/537.36 (KHTML, like Gecko) Chrome/135.0.0.0 Safari/537.36 OPR/120.0.0.0","WebKit","Opera","120.0.0.0","Windows","10.0","https://app.prolific.com/","pl,en-US;q=0.9,en;q=0.8,ko;q=0.7,cs;q=0.6,de;q=0.5,ru;q=0.4,es;q=0.3,fr;q=0.2,no;q=0.1","5eb2a99596070102a65d32c7","687a19d2168e237449fb8af4","6889d9d0c77e1898c38e2b1d","0","5eb2a99596070102a65d32c7","0","2025-07-30T08:45:54.060Z","","","","","","","","","","","","","","","","win-only","3","g1:SW,g2:NE","0.3","8","0","448046.1","644","5645.4","42265.2","1","4","4","6","2","-4","-4","11","15","0.08333333333333333","661.2","3000","-3015","[""up"",""right""]","{""num_key_presses"":10,""num_perfect"":3,""num_errors"":0,""num_randdir"":7,""num_randdir_good_moves"":1,""num_whilered"":0,""num_whileblue"":0,""num_blue"":2,""num_good_moves"":4}","[420.57142857142856,409.47767857142856,0.1,420.57142857142856,409.47767857142856,101.8,519.5714285714286,431.47767857142856,206.3,508.57142857142856,457.47767857142856,306.6,472.57142857142856,493.47767857142856,411.6,779.5714285714286,120.47767857142857,511.7,817.5714285714286,75.47767857142857,617,817.5714285714286,75.47767857142857,721.4,782.5714285714286,322.47767857142856,826.8,805.5714285714286,445.47767857142856,931.8,805.5714285714286,445.47767857142856,1037.1,805.5714285714286,445.47767857142856,1141.5,805.5714285714286,445.47767857142856,1246.6,805.5714285714286,445.47767857142856,1351.2,805.5714285714286,445.47767857142856,1451.2,805.5714285714286,445.47767857142856,1556.2,805.5714285714286,445.47767857142856,1656.4,805.5714285714286,445.47767857142856,1761.2,805.5714285714286,445.47767857142856,1862,805.5714285714286,445.47767857142856,1966.2,805.5714285714286,445.47767857142856,2067.1,805.5714285714286,445.47767857142856,2171.8,805.5714285714286,445.47767857142856,2277.2,805.5714285714286,445.47767857142856,2381.7,805.5714285714286,445.47767857142856,2486.7,805.5714285714286,445.47767857142856,2591.3,805.5714285714286,445.47767857142856,2691.5,805.5714285714286,445.47767857142856,2791.8,805.5714285714286,445.47767857142856,2896.7,805.5714285714286,445.47767857142856,3001.2,805.5714285714286,445.47767857142856,3101.2,805.5714285714286,445.47767857142856,3201.4,805.5714285714286,445.47767857142856,3302.3,805.5714285714286,445.47767857142856,3407,805.5714285714286,445.47767857142856,3511.2,805.5714285714286,445.47767857142856,3611.2,805.5714285714286,445.47767857142856,3711.2,805.5714285714286,445.47767857142856,3811.4,805.5714285714286,445.47767857142856,3916.3,805.5714285714286,445.47767857142856,4021.8,805.5714285714286,445.47767857142856,4122.1,805.5714285714286,445.47767857142856,4226.3,805.5714285714286,445.47767857142856,4326.4,805.5714285714286,445.47767857142856,4426.4,805.5714285714286,445.47767857142856,4531.3,805.5714285714286,445.47767857142856,4636.5,805.5714285714286,445.47767857142856,4741.5,805.5714285714286,445.47767857142856,4847.8,805.5714285714286,445.47767857142856,4951.9]","[1288.6,1288.6,1000,0,288.7,""smooth"",""up"",""up"",""good_move"",3343.5,2054.5,1736.3,1289,318.2,""oops"",""right"",""left"",""bad_move"",5528.4,2184.7,1937.9,3343.7,246.8,""oops"",""up"",""left"",""bad_move"",11975,6446.4,2749,9000.2,225.8,""oops"",""up"",""down"",""bad_move"",18660,6684.8,2484.2,15880.2,295.6,""oops"",""right"",""down"",""bad_move"",21796.6,3136.5,2744.2,18660.1,392.3,""smooth"",""right"",""right"",""good_move"",24583,2786.1,2518.1,21796.9,268,""oops"",""right"",""up"",""good_move"",27650,3066.7,2789.7,24583.3,277,""oops"",""right"",""down"",""bad_move"",30594.6,2944.3,2573.3,27650.3,371,""smooth"",""right"",""right"",""good_move"",33252.6,2657.7,2416.9,30594.9,240.8,""oops"",""up"",""left"",""bad_move""]"
"8983","","<div style=""width:500px;"">
  <p>What determined the result of this run?</p>
  </div>","5","html-slider-response","49","500814","0.0-7.0-1.7","3","1","2025-07-30 08:37:41","36c45c0696341be0efffe67d72a12abb","89.161.96.217","Mozilla/5.0 (Windows NT 10.0; Win64; x64) AppleWebKit/537.36 (KHTML, like Gecko) Chrome/135.0.0.0 Safari/537.36 OPR/120.0.0.0","WebKit","Opera","120.0.0.0","Windows","10.0","https://app.prolific.com/","pl,en-US;q=0.9,en;q=0.8,ko;q=0.7,cs;q=0.6,de;q=0.5,ru;q=0.4,es;q=0.3,fr;q=0.2,no;q=0.1","5eb2a99596070102a65d32c7","687a19d2168e237449fb8af4","6889d9d0c77e1898c38e2b1d","0","5eb2a99596070102a65d32c7","0","2025-07-30T08:46:03.043Z","","","","AttribQ","","","","","","","","","","","50","","","","","","","","","","","","","","","","","","","","","","","","","","",""
"1414","","<div style=""width:500px;"">
  <p>How much control did you have over the ball?</p>
  </div>","3","html-slider-response","50","502229","0.0-7.0-2.7","3","1","2025-07-30 08:37:41","36c45c0696341be0efffe67d72a12abb","89.161.96.217","Mozilla/5.0 (Windows NT 10.0; Win64; x64) AppleWebKit/537.36 (KHTML, like Gecko) Chrome/135.0.0.0 Safari/537.36 OPR/120.0.0.0","WebKit","Opera","120.0.0.0","Windows","10.0","https://app.prolific.com/","pl,en-US;q=0.9,en;q=0.8,ko;q=0.7,cs;q=0.6,de;q=0.5,ru;q=0.4,es;q=0.3,fr;q=0.2,no;q=0.1","5eb2a99596070102a65d32c7","687a19d2168e237449fb8af4","6889d9d0c77e1898c38e2b1d","0","5eb2a99596070102a65d32c7","0","2025-07-30T08:46:04.458Z","","","","ControlQ","","","","","","","","","","","50","","","","","","","","","","","","","","","","","","","","","","","","","","",""
"1241","","<div style=""width:500px;"">
  <p>How would you describe your current emotional state?</p>
  </div>","41","html-slider-response","51","503471","0.0-7.0-3.7","3","1","2025-07-30 08:37:41","36c45c0696341be0efffe67d72a12abb","89.161.96.217","Mozilla/5.0 (Windows NT 10.0; Win64; x64) AppleWebKit/537.36 (KHTML, like Gecko) Chrome/135.0.0.0 Safari/537.36 OPR/120.0.0.0","WebKit","Opera","120.0.0.0","Windows","10.0","https://app.prolific.com/","pl,en-US;q=0.9,en;q=0.8,ko;q=0.7,cs;q=0.6,de;q=0.5,ru;q=0.4,es;q=0.3,fr;q=0.2,no;q=0.1","5eb2a99596070102a65d32c7","687a19d2168e237449fb8af4","6889d9d0c77e1898c38e2b1d","0","5eb2a99596070102a65d32c7","0","2025-07-30T08:46:05.700Z","","","","StressQ","","","","","","","","","","","50","","","","","","","","","","","","","","","","","","","","","","","","","","",""
"1286","","<div style=""width:500px;"">
  <p>What best describes how you currently feel?</p>
  </div>","58","html-slider-response","52","504758","0.0-7.0-4.7","3","1","2025-07-30 08:37:41","36c45c0696341be0efffe67d72a12abb","89.161.96.217","Mozilla/5.0 (Windows NT 10.0; Win64; x64) AppleWebKit/537.36 (KHTML, like Gecko) Chrome/135.0.0.0 Safari/537.36 OPR/120.0.0.0","WebKit","Opera","120.0.0.0","Windows","10.0","https://app.prolific.com/","pl,en-US;q=0.9,en;q=0.8,ko;q=0.7,cs;q=0.6,de;q=0.5,ru;q=0.4,es;q=0.3,fr;q=0.2,no;q=0.1","5eb2a99596070102a65d32c7","687a19d2168e237449fb8af4","6889d9d0c77e1898c38e2b1d","0","5eb2a99596070102a65d32c7","0","2025-07-30T08:46:06.987Z","","","","MotivationQ","","","","","","","","","","","50","","","","","","","","","","","","","","","","","","","","","","","","","","",""
"","","","","ctl-task-cpt","53","559527","0.0-7.0-0.8","3","1","2025-07-30 08:37:41","36c45c0696341be0efffe67d72a12abb","89.161.96.217","Mozilla/5.0 (Windows NT 10.0; Win64; x64) AppleWebKit/537.36 (KHTML, like Gecko) Chrome/135.0.0.0 Safari/537.36 OPR/120.0.0.0","WebKit","Opera","120.0.0.0","Windows","10.0","https://app.prolific.com/","pl,en-US;q=0.9,en;q=0.8,ko;q=0.7,cs;q=0.6,de;q=0.5,ru;q=0.4,es;q=0.3,fr;q=0.2,no;q=0.1","5eb2a99596070102a65d32c7","687a19d2168e237449fb8af4","6889d9d0c77e1898c38e2b1d","0","5eb2a99596070102a65d32c7","0","2025-07-30T08:47:01.756Z","","","","","","","","","","","","","","","","win-only","1","g1:NE,g2:SW","0.4","9","0","506257.1","762.2","5765.2","51750.2","1","4","8","6","2","-8","-8","3","11","0.022727272727272728","696.2","3000","-2970","[""down"",""left""]","{""num_key_presses"":10,""num_perfect"":4,""num_errors"":0,""num_randdir"":6,""num_randdir_good_moves"":3,""num_whilered"":0,""num_whileblue"":0,""num_blue"":5,""num_good_moves"":7}","[422.57142857142856,410.47767857142856,0.2,494.57142857142856,438.47767857142856,103.8,595.5714285714286,460.47767857142856,208.3,596.5714285714286,461.47767857142856,313.3,487.57142857142856,478.47767857142856,413.7,150.57142857142856,659.4776785714286,514.3,88.57142857142857,730.4776785714286,618.8,59.57142857142857,737.4776785714286,718.9,235.57142857142856,716.4776785714286,824.3,860.5714285714286,559.4776785714286,927.9,859.5714285714286,559.4776785714286,1028.2,859.5714285714286,559.4776785714286,1133.2,859.5714285714286,559.4776785714286,1233.4,859.5714285714286,559.4776785714286,1333.4,859.5714285714286,559.4776785714286,1438.1,859.5714285714286,559.4776785714286,1538.8,859.5714285714286,559.4776785714286,1642.8,859.5714285714286,559.4776785714286,1744.1,859.5714285714286,559.4776785714286,1848.6,859.5714285714286,559.4776785714286,1953.2,859.5714285714286,559.4776785714286,2053.5,859.5714285714286,559.4776785714286,2158.5,859.5714285714286,559.4776785714286,2258.5,859.5714285714286,559.4776785714286,2363.3,859.5714285714286,559.4776785714286,2468.3,859.5714285714286,559.4776785714286,2569.1,859.5714285714286,559.4776785714286,2673.1,859.5714285714286,559.4776785714286,2778.2,859.5714285714286,559.4776785714286,2878.6,859.5714285714286,559.4776785714286,2978.7,859.5714285714286,559.4776785714286,3079.4,859.5714285714286,559.4776785714286,3183.6,859.5714285714286,559.4776785714286,3285.6,859.5714285714286,559.4776785714286,3389.5,859.5714285714286,559.4776785714286,3493.3,859.5714285714286,559.4776785714286,3593.6,859.5714285714286,559.4776785714286,3697.9,859.5714285714286,559.4776785714286,3798.1,859.5714285714286,559.4776785714286,3898.8,859.5714285714286,559.4776785714286,3999.5,859.5714285714286,559.4776785714286,4103.1,859.5714285714286,559.4776785714286,4203.4,859.5714285714286,559.4776785714286,4308,859.5714285714286,559.4776785714286,4408.3,859.5714285714286,559.4776785714286,4508.9,859.5714285714286,559.4776785714286,4613.2,859.5714285714286,559.4776785714286,4713.9,859.5714285714286,559.4776785714286,4819.3,859.5714285714286,559.4776785714286,4923]","[1313.9,1313.9,1000,0,313.9,""oops"",""down"",""right"",""bad_move"",6683.7,5369.6,2163,4295.2,225.5,""smooth"",""down"",""down"",""good_move"",8955.8,2271.9,2036.9,6683.9,235,""oops"",""down"",""left"",""good_move"",15665.1,6709,2627.4,12735.6,302.1,""smooth"",""down"",""down"",""good_move"",18043,2377.6,2067.9,15665.4,309.7,""oops"",""left"",""left"",""good_move"",25298,7254.9,3520.4,21500.3,277.3,""smooth"",""left"",""left"",""good_move"",34892.9,9594.7,2770.9,31740.2,381.8,""oops"",""down"",""up"",""bad_move"",37815.9,2922.9,2609.2,34893,313.7,""oops"",""down"",""down"",""good_move"",40205,2389,2110.7,37816,278.3,""oops"",""down"",""up"",""bad_move"",42598.7,2393.6,2125.6,40205.1,268,""smooth"",""down"",""down"",""good_move""]"
"2065","","<div style=""width:500px;"">
  <p>What determined the result of this run?</p>
  </div>","16","html-slider-response","54","561593","0.0-7.0-1.8","3","1","2025-07-30 08:37:41","36c45c0696341be0efffe67d72a12abb","89.161.96.217","Mozilla/5.0 (Windows NT 10.0; Win64; x64) AppleWebKit/537.36 (KHTML, like Gecko) Chrome/135.0.0.0 Safari/537.36 OPR/120.0.0.0","WebKit","Opera","120.0.0.0","Windows","10.0","https://app.prolific.com/","pl,en-US;q=0.9,en;q=0.8,ko;q=0.7,cs;q=0.6,de;q=0.5,ru;q=0.4,es;q=0.3,fr;q=0.2,no;q=0.1","5eb2a99596070102a65d32c7","687a19d2168e237449fb8af4","6889d9d0c77e1898c38e2b1d","0","5eb2a99596070102a65d32c7","0","2025-07-30T08:47:03.822Z","","","","AttribQ","","","","","","","","","","","50","","","","","","","","","","","","","","","","","","","","","","","","","","",""
"1206","","<div style=""width:500px;"">
  <p>How much control did you have over the ball?</p>
  </div>","19","html-slider-response","55","562800","0.0-7.0-2.8","3","1","2025-07-30 08:37:41","36c45c0696341be0efffe67d72a12abb","89.161.96.217","Mozilla/5.0 (Windows NT 10.0; Win64; x64) AppleWebKit/537.36 (KHTML, like Gecko) Chrome/135.0.0.0 Safari/537.36 OPR/120.0.0.0","WebKit","Opera","120.0.0.0","Windows","10.0","https://app.prolific.com/","pl,en-US;q=0.9,en;q=0.8,ko;q=0.7,cs;q=0.6,de;q=0.5,ru;q=0.4,es;q=0.3,fr;q=0.2,no;q=0.1","5eb2a99596070102a65d32c7","687a19d2168e237449fb8af4","6889d9d0c77e1898c38e2b1d","0","5eb2a99596070102a65d32c7","0","2025-07-30T08:47:05.029Z","","","","ControlQ","","","","","","","","","","","50","","","","","","","","","","","","","","","","","","","","","","","","","","",""
"1481","","<div style=""width:500px;"">
  <p>How would you describe your current emotional state?</p>
  </div>","64","html-slider-response","56","564282","0.0-7.0-3.8","3","1","2025-07-30 08:37:41","36c45c0696341be0efffe67d72a12abb","89.161.96.217","Mozilla/5.0 (Windows NT 10.0; Win64; x64) AppleWebKit/537.36 (KHTML, like Gecko) Chrome/135.0.0.0 Safari/537.36 OPR/120.0.0.0","WebKit","Opera","120.0.0.0","Windows","10.0","https://app.prolific.com/","pl,en-US;q=0.9,en;q=0.8,ko;q=0.7,cs;q=0.6,de;q=0.5,ru;q=0.4,es;q=0.3,fr;q=0.2,no;q=0.1","5eb2a99596070102a65d32c7","687a19d2168e237449fb8af4","6889d9d0c77e1898c38e2b1d","0","5eb2a99596070102a65d32c7","0","2025-07-30T08:47:06.511Z","","","","StressQ","","","","","","","","","","","50","","","","","","","","","","","","","","","","","","","","","","","","","","",""
"1602","","<div style=""width:500px;"">
  <p>What best describes how you currently feel?</p>
  </div>","32","html-slider-response","57","565885","0.0-7.0-4.8","3","1","2025-07-30 08:37:41","36c45c0696341be0efffe67d72a12abb","89.161.96.217","Mozilla/5.0 (Windows NT 10.0; Win64; x64) AppleWebKit/537.36 (KHTML, like Gecko) Chrome/135.0.0.0 Safari/537.36 OPR/120.0.0.0","WebKit","Opera","120.0.0.0","Windows","10.0","https://app.prolific.com/","pl,en-US;q=0.9,en;q=0.8,ko;q=0.7,cs;q=0.6,de;q=0.5,ru;q=0.4,es;q=0.3,fr;q=0.2,no;q=0.1","5eb2a99596070102a65d32c7","687a19d2168e237449fb8af4","6889d9d0c77e1898c38e2b1d","0","5eb2a99596070102a65d32c7","0","2025-07-30T08:47:08.114Z","","","","MotivationQ","","","","","","","","","","","50","","","","","","","","","","","","","","","","","","","","","","","","","","",""
"","","","","ctl-task-cpt","58","609777","0.0-7.0-0.9","3","1","2025-07-30 08:37:41","36c45c0696341be0efffe67d72a12abb","89.161.96.217","Mozilla/5.0 (Windows NT 10.0; Win64; x64) AppleWebKit/537.36 (KHTML, like Gecko) Chrome/135.0.0.0 Safari/537.36 OPR/120.0.0.0","WebKit","Opera","120.0.0.0","Windows","10.0","https://app.prolific.com/","pl,en-US;q=0.9,en;q=0.8,ko;q=0.7,cs;q=0.6,de;q=0.5,ru;q=0.4,es;q=0.3,fr;q=0.2,no;q=0.1","5eb2a99596070102a65d32c7","687a19d2168e237449fb8af4","6889d9d0c77e1898c38e2b1d","0","5eb2a99596070102a65d32c7","0","2025-07-30T08:47:52.006Z","","","","","","","","","","","","","","","","win-only","3","g1:SW,g2:NE","0.5","10","0","567384.1","478.1","5480.4","40873.2","1","4","4","6","2","-4","-5","0","3","0","720.7","3000","-2995","[""up"",""right""]","{""num_key_presses"":10,""num_perfect"":4,""num_errors"":1,""num_randdir"":5,""num_randdir_good_moves"":3,""num_whilered"":0,""num_whileblue"":1,""num_blue"":3,""num_good_moves"":7}","[409.57142857142856,418.47767857142856,0.1,409.57142857142856,418.47767857142856,103.4,475.57142857142856,437.47767857142856,207.1,470.57142857142856,480.47767857142856,307.3,423.57142857142856,504.47767857142856,407.6,640.5714285714286,322.47767857142856,507.8,803.5714285714286,106.47767857142857,607.8,784.5714285714286,94.47767857142857,713,791.5714285714286,113.47767857142857,813.1,854.5714285714286,349.47767857142856,917.5,866.5714285714286,397.47767857142856,1018.8,866.5714285714286,397.47767857142856,1122.3,866.5714285714286,397.47767857142856,1222.3,866.5714285714286,397.47767857142856,1323,866.5714285714286,397.47767857142856,1427.2,866.5714285714286,397.47767857142856,1527.3,866.5714285714286,397.47767857142856,1632.2,866.5714285714286,397.47767857142856,1732.7,866.5714285714286,397.47767857142856,1837.4,866.5714285714286,397.47767857142856,1937.4,866.5714285714286,397.47767857142856,2037.6,866.5714285714286,397.47767857142856,2142,866.5714285714286,397.47767857142856,2242,866.5714285714286,397.47767857142856,2342.4,866.5714285714286,397.47767857142856,2442.5,866.5714285714286,397.47767857142856,2548,866.5714285714286,397.47767857142856,2652.1,866.5714285714286,397.47767857142856,2752.7,866.5714285714286,397.47767857142856,2857.8,866.5714285714286,397.47767857142856,2962.5,866.5714285714286,397.47767857142856,3067.3,866.5714285714286,397.47767857142856,3169,866.5714285714286,397.47767857142856,3272.7,866.5714285714286,397.47767857142856,3377,866.5714285714286,397.47767857142856,3477.4,866.5714285714286,397.47767857142856,3577.4,866.5714285714286,397.47767857142856,3682.2,866.5714285714286,397.47767857142856,3782.4,866.5714285714286,397.47767857142856,3882.7,866.5714285714286,397.47767857142856,3987.5,866.5714285714286,397.47767857142856,4091.9,866.5714285714286,397.47767857142856,4192.5,866.5714285714286,397.47767857142856,4297.1,866.5714285714286,397.47767857142856,4397.6,866.5714285714286,397.47767857142856,4497.9,866.5714285714286,397.47767857142856,4598,866.5714285714286,397.47767857142856,4703,866.5714285714286,397.47767857142856,4807,866.5714285714286,397.47767857142856,4907.3]","[1302.5,1302.5,1000,0,302.5,""smooth"",""up"",""up"",""good_move"",4651.7,3348.9,3034,1302.8,314.9,""oops"",""right"",""up"",""good_move"",11555,6903.2,2506.1,8775.4,273.5,""smooth"",""right"",""right"",""good_move"",14171.6,2616.5,2271.6,11555.2,344.9,""oops"",""right"",""left"",""bad_move"",17007.3,2835.5,2192.4,14171.8,643.1,""oops"",""right"",""up"",""good_move"",19701.7,2694.2,2422.9,17007.5,271.3,""oops"",""right"",""right"",""good_move"",21673.3,1971.2,1678.3,19702.1,292.9,""while_blue"",""right"",""left"",""bad_move"",28137.4,6463.8,2772.1,24985.5,379.8,""smooth"",""right"",""right"",""good_move"",30858.7,2721,2438.2,28137.7,282.9,""oops"",""right"",""down"",""bad_move"",33249.8,2390.8,2129.2,30859,261.6,""smooth"",""right"",""right"",""good_move""]"
"2285","","<div style=""width:500px;"">
  <p>What determined the result of this run?</p>
  </div>","11","html-slider-response","59","612063","0.0-7.0-1.9","3","1","2025-07-30 08:37:41","36c45c0696341be0efffe67d72a12abb","89.161.96.217","Mozilla/5.0 (Windows NT 10.0; Win64; x64) AppleWebKit/537.36 (KHTML, like Gecko) Chrome/135.0.0.0 Safari/537.36 OPR/120.0.0.0","WebKit","Opera","120.0.0.0","Windows","10.0","https://app.prolific.com/","pl,en-US;q=0.9,en;q=0.8,ko;q=0.7,cs;q=0.6,de;q=0.5,ru;q=0.4,es;q=0.3,fr;q=0.2,no;q=0.1","5eb2a99596070102a65d32c7","687a19d2168e237449fb8af4","6889d9d0c77e1898c38e2b1d","0","5eb2a99596070102a65d32c7","0","2025-07-30T08:47:54.292Z","","","","AttribQ","","","","","","","","","","","50","","","","","","","","","","","","","","","","","","","","","","","","","","",""
"1094","","<div style=""width:500px;"">
  <p>How much control did you have over the ball?</p>
  </div>","26","html-slider-response","60","613158","0.0-7.0-2.9","3","1","2025-07-30 08:37:41","36c45c0696341be0efffe67d72a12abb","89.161.96.217","Mozilla/5.0 (Windows NT 10.0; Win64; x64) AppleWebKit/537.36 (KHTML, like Gecko) Chrome/135.0.0.0 Safari/537.36 OPR/120.0.0.0","WebKit","Opera","120.0.0.0","Windows","10.0","https://app.prolific.com/","pl,en-US;q=0.9,en;q=0.8,ko;q=0.7,cs;q=0.6,de;q=0.5,ru;q=0.4,es;q=0.3,fr;q=0.2,no;q=0.1","5eb2a99596070102a65d32c7","687a19d2168e237449fb8af4","6889d9d0c77e1898c38e2b1d","0","5eb2a99596070102a65d32c7","0","2025-07-30T08:47:55.388Z","","","","ControlQ","","","","","","","","","","","50","","","","","","","","","","","","","","","","","","","","","","","","","","",""
"1322","","<div style=""width:500px;"">
  <p>How would you describe your current emotional state?</p>
  </div>","83","html-slider-response","61","614481","0.0-7.0-3.9","3","1","2025-07-30 08:37:41","36c45c0696341be0efffe67d72a12abb","89.161.96.217","Mozilla/5.0 (Windows NT 10.0; Win64; x64) AppleWebKit/537.36 (KHTML, like Gecko) Chrome/135.0.0.0 Safari/537.36 OPR/120.0.0.0","WebKit","Opera","120.0.0.0","Windows","10.0","https://app.prolific.com/","pl,en-US;q=0.9,en;q=0.8,ko;q=0.7,cs;q=0.6,de;q=0.5,ru;q=0.4,es;q=0.3,fr;q=0.2,no;q=0.1","5eb2a99596070102a65d32c7","687a19d2168e237449fb8af4","6889d9d0c77e1898c38e2b1d","0","5eb2a99596070102a65d32c7","0","2025-07-30T08:47:56.710Z","","","","StressQ","","","","","","","","","","","50","","","","","","","","","","","","","","","","","","","","","","","","","","",""
"1493","","<div style=""width:500px;"">
  <p>What best describes how you currently feel?</p>
  </div>","20","html-slider-response","62","615974","0.0-7.0-4.9","3","1","2025-07-30 08:37:41","36c45c0696341be0efffe67d72a12abb","89.161.96.217","Mozilla/5.0 (Windows NT 10.0; Win64; x64) AppleWebKit/537.36 (KHTML, like Gecko) Chrome/135.0.0.0 Safari/537.36 OPR/120.0.0.0","WebKit","Opera","120.0.0.0","Windows","10.0","https://app.prolific.com/","pl,en-US;q=0.9,en;q=0.8,ko;q=0.7,cs;q=0.6,de;q=0.5,ru;q=0.4,es;q=0.3,fr;q=0.2,no;q=0.1","5eb2a99596070102a65d32c7","687a19d2168e237449fb8af4","6889d9d0c77e1898c38e2b1d","0","5eb2a99596070102a65d32c7","0","2025-07-30T08:47:58.203Z","","","","MotivationQ","","","","","","","","","","","50","","","","","","","","","","","","","","","","","","","","","","","","","","",""
"","","","","ctl-task-cpt","63","658411","0.0-7.0-0.10","3","1","2025-07-30 08:37:41","36c45c0696341be0efffe67d72a12abb","89.161.96.217","Mozilla/5.0 (Windows NT 10.0; Win64; x64) AppleWebKit/537.36 (KHTML, like Gecko) Chrome/135.0.0.0 Safari/537.36 OPR/120.0.0.0","WebKit","Opera","120.0.0.0","Windows","10.0","https://app.prolific.com/","pl,en-US;q=0.9,en;q=0.8,ko;q=0.7,cs;q=0.6,de;q=0.5,ru;q=0.4,es;q=0.3,fr;q=0.2,no;q=0.1","5eb2a99596070102a65d32c7","687a19d2168e237449fb8af4","6889d9d0c77e1898c38e2b1d","0","5eb2a99596070102a65d32c7","0","2025-07-30T08:48:40.640Z","","","","","","","","","","","","","","","","win-only","1","g1:NE,g2:SW","0.6","11","0","617474","640.9","5642.7","39417.3","1","4","8","6","2","8","7","7","0","0.05303030303030303","698.4","3000","130","[""down"",""left""]","{""num_key_presses"":12,""num_perfect"":7,""num_errors"":1,""num_randdir"":4,""num_randdir_good_moves"":2,""num_whilered"":0,""num_whileblue"":1,""num_blue"":1,""num_good_moves"":9}","[410.57142857142856,423.47767857142856,0.2,425.57142857142856,425.47767857142856,103,655.5714285714286,429.47767857142856,207.4,802.5714285714286,298.47767857142856,312.8,199.57142857142856,443.47767857142856,416.9,10.57142857142857,715.4776785714286,521.3,20.57142857142857,720.4776785714286,623,20.57142857142857,720.4776785714286,725,33.57142857142857,718.4776785714286,830,633.5714285714286,569.4776785714286,933.6,939.5714285714286,474.47767857142856,1034.8,939.5714285714286,474.47767857142856,1136.2,938.5714285714286,479.47767857142856,1237.7,938.5714285714286,479.47767857142856,1338.4,938.5714285714286,479.47767857142856,1440.9,938.5714285714286,479.47767857142856,1542.7,938.5714285714286,479.47767857142856,1643.9,938.5714285714286,479.47767857142856,1747.1,938.5714285714286,479.47767857142856,1849,938.5714285714286,479.47767857142856,1953.3,938.5714285714286,479.47767857142856,2055.4,938.5714285714286,479.47767857142856,2158.5,938.5714285714286,479.47767857142856,2262.9,938.5714285714286,479.47767857142856,2365.2,938.5714285714286,479.47767857142856,2467.4,938.5714285714286,479.47767857142856,2567.7,938.5714285714286,479.47767857142856,2670.5,938.5714285714286,479.47767857142856,2771.1,938.5714285714286,479.47767857142856,2875.9,938.5714285714286,479.47767857142856,2977,938.5714285714286,479.47767857142856,3078.3,938.5714285714286,479.47767857142856,3178.3,938.5714285714286,479.47767857142856,3281.9,938.5714285714286,479.47767857142856,3386.3,938.5714285714286,479.47767857142856,3491.9,938.5714285714286,479.47767857142856,3594.8,938.5714285714286,479.47767857142856,3695,938.5714285714286,479.47767857142856,3797.6,938.5714285714286,479.47767857142856,3902.3,938.5714285714286,479.47767857142856,4005.1,938.5714285714286,479.47767857142856,4108.7,938.5714285714286,479.47767857142856,4211.2,938.5714285714286,479.47767857142856,4315.7,938.5714285714286,479.47767857142856,4420.3,938.5714285714286,479.47767857142856,4523.6,938.5714285714286,479.47767857142856,4627.2,938.5714285714286,479.47767857142856,4732.3,938.5714285714286,479.47767857142856,4835.7,938.5714285714286,479.47767857142856,4937.5]","[1282,1282,1000,0,282,""smooth"",""down"",""down"",""good_move"",4296.4,3013.9,2776,1282.5,237.9,""while_blue"",""left"",""right"",""bad_move"",6858.8,2562.1,2172.9,4296.7,389.2,""oops"",""left"",""left"",""good_move"",10174.6,3315.5,2890.3,6859.1,425.2,""oops"",""left"",""right"",""bad_move"",13533.8,3359,3063.4,10174.8,295.6,""smooth"",""left"",""left"",""good_move"",16864.8,3330.9,3020.8,13533.9,310.1,""oops"",""left"",""down"",""good_move"",19622.5,2757.4,2437.9,16865.1,319.5,""smooth"",""left"",""left"",""good_move"",22079.8,2457.2,2175.6,19622.6,281.6,""smooth"",""down"",""down"",""good_move"",24870,2790,2493.3,22080,296.7,""smooth"",""left"",""left"",""good_move"",28376.4,3506.1,3195.2,24870.3,310.9,""oops"",""left"",""up"",""bad_move"",31057,2680.1,2393.4,28376.9,286.7,""smooth"",""left"",""left"",""good_move"",33685.8,2628.5,2362,31057.3,266.5,""smooth"",""down"",""down"",""good_move""]"
"3147","","<div style=""width:500px;"">
  <p>What determined the result of this run?</p>
  </div>","69","html-slider-response","64","661559","0.0-7.0-1.10","3","1","2025-07-30 08:37:41","36c45c0696341be0efffe67d72a12abb","89.161.96.217","Mozilla/5.0 (Windows NT 10.0; Win64; x64) AppleWebKit/537.36 (KHTML, like Gecko) Chrome/135.0.0.0 Safari/537.36 OPR/120.0.0.0","WebKit","Opera","120.0.0.0","Windows","10.0","https://app.prolific.com/","pl,en-US;q=0.9,en;q=0.8,ko;q=0.7,cs;q=0.6,de;q=0.5,ru;q=0.4,es;q=0.3,fr;q=0.2,no;q=0.1","5eb2a99596070102a65d32c7","687a19d2168e237449fb8af4","6889d9d0c77e1898c38e2b1d","0","5eb2a99596070102a65d32c7","0","2025-07-30T08:48:43.788Z","","","","AttribQ","","","","","","","","","","","50","","","","","","","","","","","","","","","","","","","","","","","","","","",""
"1458","","<div style=""width:500px;"">
  <p>How much control did you have over the ball?</p>
  </div>","41","html-slider-response","65","663017","0.0-7.0-2.10","3","1","2025-07-30 08:37:41","36c45c0696341be0efffe67d72a12abb","89.161.96.217","Mozilla/5.0 (Windows NT 10.0; Win64; x64) AppleWebKit/537.36 (KHTML, like Gecko) Chrome/135.0.0.0 Safari/537.36 OPR/120.0.0.0","WebKit","Opera","120.0.0.0","Windows","10.0","https://app.prolific.com/","pl,en-US;q=0.9,en;q=0.8,ko;q=0.7,cs;q=0.6,de;q=0.5,ru;q=0.4,es;q=0.3,fr;q=0.2,no;q=0.1","5eb2a99596070102a65d32c7","687a19d2168e237449fb8af4","6889d9d0c77e1898c38e2b1d","0","5eb2a99596070102a65d32c7","0","2025-07-30T08:48:45.246Z","","","","ControlQ","","","","","","","","","","","50","","","","","","","","","","","","","","","","","","","","","","","","","","",""
"5200","","<div style=""width:500px;"">
  <p>How would you describe your current emotional state?</p>
  </div>","69","html-slider-response","66","668218","0.0-7.0-3.10","3","1","2025-07-30 08:37:41","36c45c0696341be0efffe67d72a12abb","89.161.96.217","Mozilla/5.0 (Windows NT 10.0; Win64; x64) AppleWebKit/537.36 (KHTML, like Gecko) Chrome/135.0.0.0 Safari/537.36 OPR/120.0.0.0","WebKit","Opera","120.0.0.0","Windows","10.0","https://app.prolific.com/","pl,en-US;q=0.9,en;q=0.8,ko;q=0.7,cs;q=0.6,de;q=0.5,ru;q=0.4,es;q=0.3,fr;q=0.2,no;q=0.1","5eb2a99596070102a65d32c7","687a19d2168e237449fb8af4","6889d9d0c77e1898c38e2b1d","0","5eb2a99596070102a65d32c7","0","2025-07-30T08:48:50.447Z","","","","StressQ","","","","","","","","","","","50","","","","","","","","","","","","","","","","","","","","","","","","","","",""
"1980","","<div style=""width:500px;"">
  <p>What best describes how you currently feel?</p>
  </div>","36","html-slider-response","67","670199","0.0-7.0-4.10","3","1","2025-07-30 08:37:41","36c45c0696341be0efffe67d72a12abb","89.161.96.217","Mozilla/5.0 (Windows NT 10.0; Win64; x64) AppleWebKit/537.36 (KHTML, like Gecko) Chrome/135.0.0.0 Safari/537.36 OPR/120.0.0.0","WebKit","Opera","120.0.0.0","Windows","10.0","https://app.prolific.com/","pl,en-US;q=0.9,en;q=0.8,ko;q=0.7,cs;q=0.6,de;q=0.5,ru;q=0.4,es;q=0.3,fr;q=0.2,no;q=0.1","5eb2a99596070102a65d32c7","687a19d2168e237449fb8af4","6889d9d0c77e1898c38e2b1d","0","5eb2a99596070102a65d32c7","0","2025-07-30T08:48:52.428Z","","","","MotivationQ","","","","","","","","","","","50","","","","","","","","","","","","","","","","","","","","","","","","","","",""
"","","","","ctl-task-cpt","68","700319","0.0-7.0-0.11","3","1","2025-07-30 08:37:41","36c45c0696341be0efffe67d72a12abb","89.161.96.217","Mozilla/5.0 (Windows NT 10.0; Win64; x64) AppleWebKit/537.36 (KHTML, like Gecko) Chrome/135.0.0.0 Safari/537.36 OPR/120.0.0.0","WebKit","Opera","120.0.0.0","Windows","10.0","https://app.prolific.com/","pl,en-US;q=0.9,en;q=0.8,ko;q=0.7,cs;q=0.6,de;q=0.5,ru;q=0.4,es;q=0.3,fr;q=0.2,no;q=0.1","5eb2a99596070102a65d32c7","687a19d2168e237449fb8af4","6889d9d0c77e1898c38e2b1d","0","5eb2a99596070102a65d32c7","0","2025-07-30T08:49:22.548Z","","","","","","","","","","","","","","","","win-only","1","g1:NE,g2:SW","0.7","12","0","671698.2","416.6","5420.1","27097.8","1","4","4","6","2","4","4","11","7","0.08333333333333333","546.4","3000","1400","[""down"",""left""]","{""num_key_presses"":8,""num_perfect"":7,""num_errors"":0,""num_randdir"":1,""num_randdir_good_moves"":0,""num_whilered"":0,""num_whileblue"":0,""num_blue"":0,""num_good_moves"":7}","[404.57142857142856,422.47767857142856,0.1,404.57142857142856,422.47767857142856,102.3,420.57142857142856,425.47767857142856,208.5,378.57142857142856,505.47767857142856,309.8,175.57142857142856,705.4776785714286,412.3,81.57142857142857,760.4776785714286,516.3,81.57142857142857,760.4776785714286,621.7,101.57142857142857,764.4776785714286,722.8,125.57142857142857,744.4776785714286,823.3,126.57142857142857,743.4776785714286,928.4,125.57142857142857,739.4776785714286,1032.4,128.57142857142856,737.4776785714286,1135.5,129.57142857142856,736.4776785714286,1242.2,129.57142857142856,736.4776785714286,1346.9,129.57142857142856,736.4776785714286,1451.4,129.57142857142856,736.4776785714286,1555.4,129.57142857142856,736.4776785714286,1661.4,129.57142857142856,736.4776785714286,1761.9,129.57142857142856,736.4776785714286,1865.7,129.57142857142856,736.4776785714286,1971.4,129.57142857142856,736.4776785714286,2072.5,129.57142857142856,736.4776785714286,2173.4,129.57142857142856,736.4776785714286,2278.3,129.57142857142856,736.4776785714286,2380.1,129.57142857142856,736.4776785714286,2484.4,129.57142857142856,736.4776785714286,2588,129.57142857142856,736.4776785714286,2689.7,129.57142857142856,736.4776785714286,2791.9,129.57142857142856,736.4776785714286,2893.6,129.57142857142856,736.4776785714286,2998,129.57142857142856,736.4776785714286,3101.6,129.57142857142856,736.4776785714286,3204.1,129.57142857142856,736.4776785714286,3306.2,129.57142857142856,736.4776785714286,3407.4,129.57142857142856,736.4776785714286,3511.5,129.57142857142856,736.4776785714286,3616.9,129.57142857142856,736.4776785714286,3720.7,129.57142857142856,736.4776785714286,3824.7,129.57142857142856,736.4776785714286,3926.3,129.57142857142856,736.4776785714286,4031.4,129.57142857142856,736.4776785714286,4135.3,129.57142857142856,736.4776785714286,4239.9,129.57142857142856,736.4776785714286,4345.6,129.57142857142856,736.4776785714286,4450.2,129.57142857142856,736.4776785714286,4553.5,129.57142857142856,736.4776785714286,4657.3,129.57142857142856,736.4776785714286,4759.8,129.57142857142856,736.4776785714286,4860.9,129.57142857142856,736.4776785714286,4965.7]","[1343.2,1343.2,1000,0,343.2,""oops"",""down"",""right"",""bad_move"",4195.2,2851.7,2586.7,1343.5,265,""smooth"",""down"",""down"",""good_move"",6926.9,2731.4,2452.4,4195.5,279,""smooth"",""down"",""down"",""good_move"",9703.7,2776.7,2511.9,6927,264.8,""smooth"",""left"",""left"",""good_move"",12661,2957.1,2654.4,9703.9,302.7,""smooth"",""left"",""left"",""good_move"",15323,2661.9,2354.7,12661.1,307.2,""smooth"",""left"",""left"",""good_move"",18577,3253.9,2960.1,15323.1,293.8,""smooth"",""down"",""down"",""good_move"",21568.2,2990.9,2648,18577.3,342.9,""smooth"",""left"",""left"",""good_move""]"
"1561","","<div style=""width:500px;"">
  <p>What determined the result of this run?</p>
  </div>","93","html-slider-response","69","701880","0.0-7.0-1.11","3","1","2025-07-30 08:37:41","36c45c0696341be0efffe67d72a12abb","89.161.96.217","Mozilla/5.0 (Windows NT 10.0; Win64; x64) AppleWebKit/537.36 (KHTML, like Gecko) Chrome/135.0.0.0 Safari/537.36 OPR/120.0.0.0","WebKit","Opera","120.0.0.0","Windows","10.0","https://app.prolific.com/","pl,en-US;q=0.9,en;q=0.8,ko;q=0.7,cs;q=0.6,de;q=0.5,ru;q=0.4,es;q=0.3,fr;q=0.2,no;q=0.1","5eb2a99596070102a65d32c7","687a19d2168e237449fb8af4","6889d9d0c77e1898c38e2b1d","0","5eb2a99596070102a65d32c7","0","2025-07-30T08:49:24.115Z","","","","AttribQ","","","","","","","","","","","50","","","","","","","","","","","","","","","","","","","","","","","","","","",""
"1522","","<div style=""width:500px;"">
  <p>How much control did you have over the ball?</p>
  </div>","92","html-slider-response","70","703409","0.0-7.0-2.11","3","1","2025-07-30 08:37:41","36c45c0696341be0efffe67d72a12abb","89.161.96.217","Mozilla/5.0 (Windows NT 10.0; Win64; x64) AppleWebKit/537.36 (KHTML, like Gecko) Chrome/135.0.0.0 Safari/537.36 OPR/120.0.0.0","WebKit","Opera","120.0.0.0","Windows","10.0","https://app.prolific.com/","pl,en-US;q=0.9,en;q=0.8,ko;q=0.7,cs;q=0.6,de;q=0.5,ru;q=0.4,es;q=0.3,fr;q=0.2,no;q=0.1","5eb2a99596070102a65d32c7","687a19d2168e237449fb8af4","6889d9d0c77e1898c38e2b1d","0","5eb2a99596070102a65d32c7","0","2025-07-30T08:49:25.639Z","","","","ControlQ","","","","","","","","","","","50","","","","","","","","","","","","","","","","","","","","","","","","","","",""
"2259","","<div style=""width:500px;"">
  <p>How would you describe your current emotional state?</p>
  </div>","56","html-slider-response","71","705669","0.0-7.0-3.11","3","1","2025-07-30 08:37:41","36c45c0696341be0efffe67d72a12abb","89.161.96.217","Mozilla/5.0 (Windows NT 10.0; Win64; x64) AppleWebKit/537.36 (KHTML, like Gecko) Chrome/135.0.0.0 Safari/537.36 OPR/120.0.0.0","WebKit","Opera","120.0.0.0","Windows","10.0","https://app.prolific.com/","pl,en-US;q=0.9,en;q=0.8,ko;q=0.7,cs;q=0.6,de;q=0.5,ru;q=0.4,es;q=0.3,fr;q=0.2,no;q=0.1","5eb2a99596070102a65d32c7","687a19d2168e237449fb8af4","6889d9d0c77e1898c38e2b1d","0","5eb2a99596070102a65d32c7","0","2025-07-30T08:49:27.898Z","","","","StressQ","","","","","","","","","","","50","","","","","","","","","","","","","","","","","","","","","","","","","","",""
"2154","","<div style=""width:500px;"">
  <p>What best describes how you currently feel?</p>
  </div>","42","html-slider-response","72","707824","0.0-7.0-4.11","3","1","2025-07-30 08:37:41","36c45c0696341be0efffe67d72a12abb","89.161.96.217","Mozilla/5.0 (Windows NT 10.0; Win64; x64) AppleWebKit/537.36 (KHTML, like Gecko) Chrome/135.0.0.0 Safari/537.36 OPR/120.0.0.0","WebKit","Opera","120.0.0.0","Windows","10.0","https://app.prolific.com/","pl,en-US;q=0.9,en;q=0.8,ko;q=0.7,cs;q=0.6,de;q=0.5,ru;q=0.4,es;q=0.3,fr;q=0.2,no;q=0.1","5eb2a99596070102a65d32c7","687a19d2168e237449fb8af4","6889d9d0c77e1898c38e2b1d","0","5eb2a99596070102a65d32c7","0","2025-07-30T08:49:30.053Z","","","","MotivationQ","","","","","","","","","","","50","","","","","","","","","","","","","","","","","","","","","","","","","","",""
