"rt","response_timestamp","stimulus","response","trial_type","trial_index","time_elapsed","internal_node_id","run_id","condition","recorded_at","source_code_version","ip","user_agent","device","browser","browser_version","platform","platform_version","referer","accept_language","PROLIFIC_PID","STUDY_ID","SESSION_ID","BATCH","prolific_id","batch","realtime","success","question_order","question_id","eventType","responses","item_order","radio_event_ids","radio_event_times","key_event_times","mouse_event_times","straightlining","zigzagging","honeypot","view_history","slider_start","which_type","canvas_config","goals_layout","control_level","trial_number","tutorial_trial_number","trial_start_time","phase1_start_time","phase2_start_time","phase3_start_time","goal_1_value","goal_1_distance","goal_2_value","goal_2_distance","goal_selected","outcome","outcome_total","participant_final_score","participant_initial_score","participant_final_score_prop","goal_choice_rt","allocated_time","allocated_time_remaining","goal_direction","counts","mouse_movements","key_presses"
"6595","1754634350444","<p style='font-size:40px;line-height:1.25'><strong>Welcome to the experiment!</strong></p><p style='font-size:1.1em;line-height:1.25'>Thank you for participanting in our experiment again! You will be asked to play the Dysfunctional Ball Game again. We will briefly recap the rules before we start.</p><p style='font-size:1.1em;line-height:1.25'>Press <strong>Next</strong> to continue.</p>","0","custom-html-button-response","0","6628","0.0-0.0","237","1","2025-08-08 06:25:42","36c45c0696341be0efffe67d72a12abb","5.185.246.114","Mozilla/5.0 (Windows NT 10.0; Win64; x64; rv:141.0) Gecko/20100101 Firefox/141.0","","Firefox","141.0","Windows","10.0","https://app.prolific.com/","pl,en-US;q=0.7,en;q=0.3","5f0214e58782120a8c970fd6","6877649eabb845cf142cd221","6895985d0fdc14dc9e5a9c6a","1","5f0214e58782120a8c970fd6","1","2025-08-08T06:25:50.446Z","","","","","","","","","","","","","","","","","","","","","","","","","","","","","","","","","","","","","","","","","",""
"4137","","","","fullscreen","1","11777","0.0-1.0","237","1","2025-08-08 06:25:42","36c45c0696341be0efffe67d72a12abb","5.185.246.114","Mozilla/5.0 (Windows NT 10.0; Win64; x64; rv:141.0) Gecko/20100101 Firefox/141.0","","Firefox","141.0","Windows","10.0","https://app.prolific.com/","pl,en-US;q=0.7,en;q=0.3","5f0214e58782120a8c970fd6","6877649eabb845cf142cd221","6895985d0fdc14dc9e5a9c6a","1","5f0214e58782120a8c970fd6","1","","true","","","","","","","","","","","","","","","","","","","","","","","","","","","","","","","","","","","","","","","","",""
"3268","1754634358873"," <p style='font-size:1.1em;line-height:1.25'>Thank you for closing all other tabs.</p><p style='font-size:1.1em;line-height:1.25'>We will now invite you to fill in some questionnaires, before starting the game.<br>This will take about 5 minutes.<br></p><p style='font-size:1.1em;line-height:1.25'>Press the <strong>Next</strong> button to continue.</p>","0","custom-html-button-response","2","15055","0.0-2.0","237","1","2025-08-08 06:25:42","36c45c0696341be0efffe67d72a12abb","5.185.246.114","Mozilla/5.0 (Windows NT 10.0; Win64; x64; rv:141.0) Gecko/20100101 Firefox/141.0","","Firefox","141.0","Windows","10.0","https://app.prolific.com/","pl,en-US;q=0.7,en;q=0.3","5f0214e58782120a8c970fd6","6877649eabb845cf142cd221","6895985d0fdc14dc9e5a9c6a","1","5f0214e58782120a8c970fd6","1","2025-08-08T06:25:58.873Z","","","","","","","","","","","","","","","","","","","","","","","","","","","","","","","","","","","","","","","","","",""
"4079","","","{""assigned_sex"":""female""}","survey-multi-choice","3","19138","0.0-3.0-0.0","237","1","2025-08-08 06:25:42","36c45c0696341be0efffe67d72a12abb","5.185.246.114","Mozilla/5.0 (Windows NT 10.0; Win64; x64; rv:141.0) Gecko/20100101 Firefox/141.0","","Firefox","141.0","Windows","10.0","https://app.prolific.com/","pl,en-US;q=0.7,en;q=0.3","5f0214e58782120a8c970fd6","6877649eabb845cf142cd221","6895985d0fdc14dc9e5a9c6a","1","5f0214e58782120a8c970fd6","1","","","[0]","0","demographics","","","","","","","","","","","","","","","","","","","","","","","","","","","","","","","","","","","","","",""
"972","1754634363929","<p style='font-size:1.1em;line-height:1.25'>In the following, we will perform a baseline assessment. This means that we will ask you a few questions relating to your experiences over the past month.<br></p><p style='font-size:1.1em;line-height:1.25'>Press the <strong>Next</strong> button to continue.</p>","0","custom-html-button-response","4","20112","0.0-4.0-0.0","237","1","2025-08-08 06:25:42","36c45c0696341be0efffe67d72a12abb","5.185.246.114","Mozilla/5.0 (Windows NT 10.0; Win64; x64; rv:141.0) Gecko/20100101 Firefox/141.0","","Firefox","141.0","Windows","10.0","https://app.prolific.com/","pl,en-US;q=0.7,en;q=0.3","5f0214e58782120a8c970fd6","6877649eabb845cf142cd221","6895985d0fdc14dc9e5a9c6a","1","5f0214e58782120a8c970fd6","1","2025-08-08T06:26:03.930Z","","","","","","","","","","","","","","","","","","","","","","","","","","","","","","","","","","","","","","","","","",""
"95163","","","","survey-template","5","115299","0.0-4.0-1.0","237","1","2025-08-08 06:25:42","36c45c0696341be0efffe67d72a12abb","5.185.246.114","Mozilla/5.0 (Windows NT 10.0; Win64; x64; rv:141.0) Gecko/20100101 Firefox/141.0","","Firefox","141.0","Windows","10.0","https://app.prolific.com/","pl,en-US;q=0.7,en;q=0.3","5f0214e58782120a8c970fd6","6877649eabb845cf142cd221","6895985d0fdc14dc9e5a9c6a","1","5f0214e58782120a8c970fd6","1","2025-08-08T06:27:39.117Z","","","","pss","{""Q01"":""1"",""Q02"":""0"",""Q03"":""1"",""Q04"":""0"",""Q05"":""1"",""Q06"":""1"",""Q07"":""0"",""Q08"":""1"",""Q09"":""0"",""Q10"":""0""}","[0,1,2,3,4,5,6,7,8,9]","[""Q01"",""Q02"",""Q03"",""Q04"",""Q05"",""Q06"",""Q07"",""Q08"",""Q09"",""Q10""]","[45705,51116,54442,64706,68794,74444,82637,87214,91537,94429]","[]","[0,45705,51116,54442,64706,68794,74444,82637,87214,91537,94429,95162]","0.3","0.4444444444444444","0","","","","","","","","","","","","","","","","","","","","","","","","","","","","",""
"1409","1754634460535","<p style='font-size:1.1em;line-height:1.25'>Thank you for your answers! Now we will ask you a few more questions relating to your feelings in the last 24 hours.<br></p><p style='font-size:1.1em;line-height:1.25'>Press the <strong>Next</strong> button to continue.</p>","0","custom-html-button-response","6","116718","0.0-4.0-2.0","237","1","2025-08-08 06:25:42","36c45c0696341be0efffe67d72a12abb","5.185.246.114","Mozilla/5.0 (Windows NT 10.0; Win64; x64; rv:141.0) Gecko/20100101 Firefox/141.0","","Firefox","141.0","Windows","10.0","https://app.prolific.com/","pl,en-US;q=0.7,en;q=0.3","5f0214e58782120a8c970fd6","6877649eabb845cf142cd221","6895985d0fdc14dc9e5a9c6a","1","5f0214e58782120a8c970fd6","1","2025-08-08T06:27:40.536Z","","","","","","","","","","","","","","","","","","","","","","","","","","","","","","","","","","","","","","","","","",""
"118368","","","","survey-template","7","235101","0.0-4.0-3.0","237","1","2025-08-08 06:25:42","36c45c0696341be0efffe67d72a12abb","5.185.246.114","Mozilla/5.0 (Windows NT 10.0; Win64; x64; rv:141.0) Gecko/20100101 Firefox/141.0","","Firefox","141.0","Windows","10.0","https://app.prolific.com/","pl,en-US;q=0.7,en;q=0.3","5f0214e58782120a8c970fd6","6877649eabb845cf142cd221","6895985d0fdc14dc9e5a9c6a","1","5f0214e58782120a8c970fd6","1","2025-08-08T06:29:38.919Z","","","","drsp","{""Q01"":""0"",""Q02"":""0"",""Q03"":""0"",""Q04"":""1"",""Q05"":""0"",""Q06"":""0"",""Q07"":""0"",""Q08"":""0"",""Q09"":""0"",""Q10"":""2"",""Q11"":""1"",""Q12"":""0"",""Q13"":""5"",""Q14"":""0"",""Q15"":""1"",""Q16"":""0"",""Q17"":""0"",""Q18"":""0"",""Q19"":""0"",""Q20"":""0"",""Q21"":""0"",""Q22"":""0""}","[0,1,2,3,4,5,6,7,8,9,10,11,12,13,14,15,16,17,18,19,20,21]","[""Q01"",""Q02"",""Q03"",""Q04"",""Q05"",""Q06"",""Q07"",""Q08"",""Q09"",""Q10"",""Q11"",""Q12"",""Q13"",""Q14"",""Q15"",""Q16"",""Q17"",""Q18"",""Q19"",""Q20"",""Q21"",""Q22""]","[68868,70694,72031,78919,80902,82492,84659,85982,88296,93793,97755,99196,102684,105670,107983,108826,110677,111676,113261,113976,116079,116991]","[]","[0,68868,70694,72031,78919,80902,82492,84659,85982,88296,93793,94937,97755,99196,102684,105670,107983,108826,110677,111676,113261,113976,116079,116991,118363]","0.7727272727272727","0.38095238095238093","0","","","","","","","","","","","","","","","","","","","","","","","","","","","","",""
"11019","","","","survey-template","8","246132","0.0-4.0-4.0","237","1","2025-08-08 06:25:42","36c45c0696341be0efffe67d72a12abb","5.185.246.114","Mozilla/5.0 (Windows NT 10.0; Win64; x64; rv:141.0) Gecko/20100101 Firefox/141.0","","Firefox","141.0","Windows","10.0","https://app.prolific.com/","pl,en-US;q=0.7,en;q=0.3","5f0214e58782120a8c970fd6","6877649eabb845cf142cd221","6895985d0fdc14dc9e5a9c6a","1","5f0214e58782120a8c970fd6","1","2025-08-08T06:29:49.950Z","","","","stress","{""Q01"":""1"",""Q02"":""1"",""Q03"":""0""}","[0,1,2]","[""Q01"",""Q02"",""Q03""]","[4287,7688,10201]","[]","[4287,7688,10201,11018]","0.3333333333333333","0","0","","","","","","","","","","","","","","","","","","","","","","","","","","","","",""
"10119","","","","instructions","9","256256","0.0-5.0-0.0","237","1","2025-08-08 06:25:42","36c45c0696341be0efffe67d72a12abb","5.185.246.114","Mozilla/5.0 (Windows NT 10.0; Win64; x64; rv:141.0) Gecko/20100101 Firefox/141.0","","Firefox","141.0","Windows","10.0","https://app.prolific.com/","pl,en-US;q=0.7,en;q=0.3","5f0214e58782120a8c970fd6","6877649eabb845cf142cd221","6895985d0fdc14dc9e5a9c6a","1","5f0214e58782120a8c970fd6","1","","","","","","","","","","","","","","","[{""page_index"":0,""viewing_time"":10119}]","","","","","","","","","","","","","","","","","","","","","","","","","","","",""
"4778","","<p>Before you start with this game please answer the following three questions yourself. </p>
  <p>Through this game, we measure several aspects of your cognitive performance, such as reaction times, multi-tasking capabilities </p>
  <p>and the ability to assess the situation you are in.</p>
  <p></p>
  <p><b>How good do you usually are in such tasks?</b></p>","58","html-slider-response","10","261037","0.0-6.0-0.0","237","1","2025-08-08 06:25:42","36c45c0696341be0efffe67d72a12abb","5.185.246.114","Mozilla/5.0 (Windows NT 10.0; Win64; x64; rv:141.0) Gecko/20100101 Firefox/141.0","","Firefox","141.0","Windows","10.0","https://app.prolific.com/","pl,en-US;q=0.7,en;q=0.3","5f0214e58782120a8c970fd6","6877649eabb845cf142cd221","6895985d0fdc14dc9e5a9c6a","1","5f0214e58782120a8c970fd6","1","2025-08-08T06:30:04.855Z","","","","PreSkillQ","","","","","","","","","","","50","","","","","","","","","","","","","","","","","","","","","","","","","","",""
"4650","","<div style=""width:500px;"">
  <p>How well do you think you will perform in this task compared to other participants?</p>
  </div>","57","html-slider-response","11","265692","0.0-6.0-1.0","237","1","2025-08-08 06:25:42","36c45c0696341be0efffe67d72a12abb","5.185.246.114","Mozilla/5.0 (Windows NT 10.0; Win64; x64; rv:141.0) Gecko/20100101 Firefox/141.0","","Firefox","141.0","Windows","10.0","https://app.prolific.com/","pl,en-US;q=0.7,en;q=0.3","5f0214e58782120a8c970fd6","6877649eabb845cf142cd221","6895985d0fdc14dc9e5a9c6a","1","5f0214e58782120a8c970fd6","1","2025-08-08T06:30:09.510Z","","","","PrePerfQ","","","","","","","","","","","50","","","","","","","","","","","","","","","","","","","","","","","","","","",""
"2868","","<div style=""width:500px;"">
  <p>What best describes how you currently feel?</p>
  </div>","85","html-slider-response","12","268565","0.0-6.0-2.0","237","1","2025-08-08 06:25:42","36c45c0696341be0efffe67d72a12abb","5.185.246.114","Mozilla/5.0 (Windows NT 10.0; Win64; x64; rv:141.0) Gecko/20100101 Firefox/141.0","","Firefox","141.0","Windows","10.0","https://app.prolific.com/","pl,en-US;q=0.7,en;q=0.3","5f0214e58782120a8c970fd6","6877649eabb845cf142cd221","6895985d0fdc14dc9e5a9c6a","1","5f0214e58782120a8c970fd6","1","2025-08-08T06:30:12.383Z","","","","PreMotivationQ","","","","","","","","","","","50","","","","","","","","","","","","","","","","","","","","","","","","","","",""
"","","","","ctl-task-cpt","13","305031","0.0-7.0-0.0","237","1","2025-08-08 06:25:42","36c45c0696341be0efffe67d72a12abb","5.185.246.114","Mozilla/5.0 (Windows NT 10.0; Win64; x64; rv:141.0) Gecko/20100101 Firefox/141.0","","Firefox","141.0","Windows","10.0","https://app.prolific.com/","pl,en-US;q=0.7,en;q=0.3","5f0214e58782120a8c970fd6","6877649eabb845cf142cd221","6895985d0fdc14dc9e5a9c6a","1","5f0214e58782120a8c970fd6","1","2025-08-08T06:30:48.849Z","","","","","","","","","","","","","","","","win-only","2","g1:SE,g2:NW","1","1","0","270898","1222","6236","33449","1","4","4","6","2","4","4","4","0","0.030303030303030304","1530","3000","2135","[""left"",""up""]","{""num_key_presses"":6,""num_perfect"":6,""num_errors"":0,""num_randdir"":0,""num_randdir_good_moves"":0,""num_whilered"":0,""num_whileblue"":0,""num_blue"":2,""num_good_moves"":6}","[302.22857753208706,300.92857448032925,0,302.22857753208706,300.92857448032925,114,302.22857753208706,300.92857448032925,214,302.22857753208706,300.92857448032925,314,302.22857753208706,300.92857448032925,425,302.22857753208706,300.92857448032925,539,302.22857753208706,300.92857448032925,644,302.22857753208706,300.92857448032925,744,304.22857753208706,300.92857448032925,864,304.22857753208706,300.92857448032925,964,106.22857753208706,221.92857448032925,1084,79.22857753208706,158.92857448032925,1184,49.22857753208705,115.92857448032925,1303,47.22857753208705,93.92857448032925,1404,51.22857753208705,78.92857448032925,1504,52.22857753208705,76.92857448032925,1623,52.22857753208705,76.92857448032925,1725,52.22857753208705,76.92857448032925,1825,52.22857753208705,76.92857448032925,1925,52.22857753208705,76.92857448032925,2034,52.22857753208705,76.92857448032925,2134,52.22857753208705,76.92857448032925,2234,52.22857753208705,76.92857448032925,2334,52.22857753208705,76.92857448032925,2434,52.22857753208705,76.92857448032925,2545,52.22857753208705,76.92857448032925,2663,52.22857753208705,76.92857448032925,2764,52.22857753208705,76.92857448032925,2864,52.22857753208705,76.92857448032925,2964,52.22857753208705,76.92857448032925,3078,52.22857753208705,76.92857448032925,3184,52.22857753208705,76.92857448032925,3284,52.22857753208705,76.92857448032925,3384,52.22857753208705,76.92857448032925,3484,52.22857753208705,76.92857448032925,3584,52.22857753208705,76.92857448032925,3686,52.22857753208705,76.92857448032925,3804,52.22857753208705,76.92857448032925,3905,52.22857753208705,76.92857448032925,4025,52.22857753208705,76.92857448032925,4143,52.22857753208705,76.92857448032925,4244,52.22857753208705,76.92857448032925,4344,52.22857753208705,76.92857448032925,4444,52.22857753208705,76.92857448032925,4544,52.22857753208705,76.92857448032925,4664,52.22857753208705,76.92857448032925,4764,52.22857753208705,76.92857448032925,4864,52.22857753208705,76.92857448032925,4975]","[1490,1490,1000,0,490,""smooth"",""up"",""up"",""good_move"",5264,3774,2922.2,1490,851.8,""smooth"",""up"",""up"",""good_move"",9140,3876,3455.9,5264,420.1,""smooth"",""left"",""left"",""good_move"",20233,11093,2788.8,16863,581.2,""smooth"",""left"",""left"",""good_move"",23511,3277,2581.7,20234,695.3,""smooth"",""left"",""left"",""good_move"",26917,3405,2847,23512,558,""smooth"",""up"",""up"",""good_move""]"
"2935","","<div style=""width:500px;"">
  <p>What determined the result of this run?</p>
  </div>","83","html-slider-response","14","307967","0.0-7.0-1.0","237","1","2025-08-08 06:25:42","36c45c0696341be0efffe67d72a12abb","5.185.246.114","Mozilla/5.0 (Windows NT 10.0; Win64; x64; rv:141.0) Gecko/20100101 Firefox/141.0","","Firefox","141.0","Windows","10.0","https://app.prolific.com/","pl,en-US;q=0.7,en;q=0.3","5f0214e58782120a8c970fd6","6877649eabb845cf142cd221","6895985d0fdc14dc9e5a9c6a","1","5f0214e58782120a8c970fd6","1","2025-08-08T06:30:51.785Z","","","","AttribQ","","","","","","","","","","","50","","","","","","","","","","","","","","","","","","","","","","","","","","",""
"1882","","<div style=""width:500px;"">
  <p>How much control did you have over the ball?</p>
  </div>","99","html-slider-response","15","309851","0.0-7.0-2.0","237","1","2025-08-08 06:25:42","36c45c0696341be0efffe67d72a12abb","5.185.246.114","Mozilla/5.0 (Windows NT 10.0; Win64; x64; rv:141.0) Gecko/20100101 Firefox/141.0","","Firefox","141.0","Windows","10.0","https://app.prolific.com/","pl,en-US;q=0.7,en;q=0.3","5f0214e58782120a8c970fd6","6877649eabb845cf142cd221","6895985d0fdc14dc9e5a9c6a","1","5f0214e58782120a8c970fd6","1","2025-08-08T06:30:53.669Z","","","","ControlQ","","","","","","","","","","","50","","","","","","","","","","","","","","","","","","","","","","","","","","",""
"2611","","<div style=""width:500px;"">
  <p>How would you describe your current emotional state?</p>
  </div>","4","html-slider-response","16","312465","0.0-7.0-3.0","237","1","2025-08-08 06:25:42","36c45c0696341be0efffe67d72a12abb","5.185.246.114","Mozilla/5.0 (Windows NT 10.0; Win64; x64; rv:141.0) Gecko/20100101 Firefox/141.0","","Firefox","141.0","Windows","10.0","https://app.prolific.com/","pl,en-US;q=0.7,en;q=0.3","5f0214e58782120a8c970fd6","6877649eabb845cf142cd221","6895985d0fdc14dc9e5a9c6a","1","5f0214e58782120a8c970fd6","1","2025-08-08T06:30:56.284Z","","","","StressQ","","","","","","","","","","","50","","","","","","","","","","","","","","","","","","","","","","","","","","",""
"1869","","<div style=""width:500px;"">
  <p>What best describes how you currently feel?</p>
  </div>","91","html-slider-response","17","314338","0.0-7.0-4.0","237","1","2025-08-08 06:25:42","36c45c0696341be0efffe67d72a12abb","5.185.246.114","Mozilla/5.0 (Windows NT 10.0; Win64; x64; rv:141.0) Gecko/20100101 Firefox/141.0","","Firefox","141.0","Windows","10.0","https://app.prolific.com/","pl,en-US;q=0.7,en;q=0.3","5f0214e58782120a8c970fd6","6877649eabb845cf142cd221","6895985d0fdc14dc9e5a9c6a","1","5f0214e58782120a8c970fd6","1","2025-08-08T06:30:58.157Z","","","","MotivationQ","","","","","","","","","","","50","","","","","","","","","","","","","","","","","","","","","","","","","","",""
"","","","","ctl-task-cpt","18","349910","0.0-7.0-0.1","237","1","2025-08-08 06:25:42","36c45c0696341be0efffe67d72a12abb","5.185.246.114","Mozilla/5.0 (Windows NT 10.0; Win64; x64; rv:141.0) Gecko/20100101 Firefox/141.0","","Firefox","141.0","Windows","10.0","https://app.prolific.com/","pl,en-US;q=0.7,en;q=0.3","5f0214e58782120a8c970fd6","6877649eabb845cf142cd221","6895985d0fdc14dc9e5a9c6a","1","5f0214e58782120a8c970fd6","1","2025-08-08T06:31:33.728Z","","","","","","","","","","","","","","","","win-only","1","g1:NE,g2:SW","0.9","2","0","316663","751","5752","32551","1","4","8","6","2","8","8","12","4","0.09090909090909091","931","3000","2165","[""down"",""left""]","{""num_key_presses"":6,""num_perfect"":5,""num_errors"":0,""num_randdir"":1,""num_randdir_good_moves"":1,""num_whilered"":0,""num_whileblue"":0,""num_blue"":2,""num_good_moves"":6}","[296.22857753208706,293.92857448032925,0,296.22857753208706,293.92857448032925,115,296.22857753208706,293.92857448032925,222,296.22857753208706,293.92857448032925,334,296.22857753208706,293.92857448032925,448,157.22857753208706,422.92857448032925,553,80.22857753208706,516.9285744803292,667,51.22857753208705,518.9285744803292,774,27.22857753208705,536.9285744803292,884,27.22857753208705,536.9285744803292,997,27.22857753208705,536.9285744803292,1103,27.22857753208705,536.9285744803292,1209,31.22857753208705,530.9285744803292,1315,311.22857753208706,574.9285744803292,1420,318.22857753208706,636.9285744803292,1526,466.22857753208706,659.9285744803292,1631,642.228577532087,558.9285744803292,1733,690.228577532087,529.9285744803292,1833,695.228577532087,522.9285744803292,1943,696.228577532087,522.9285744803292,2048,696.228577532087,522.9285744803292,2148,696.228577532087,522.9285744803292,2248,696.228577532087,522.9285744803292,2351,696.228577532087,522.9285744803292,2457,696.228577532087,522.9285744803292,2565,696.228577532087,522.9285744803292,2674,696.228577532087,522.9285744803292,2784,696.228577532087,522.9285744803292,2892,696.228577532087,522.9285744803292,3002,696.228577532087,522.9285744803292,3114,696.228577532087,522.9285744803292,3222,696.228577532087,522.9285744803292,3332,696.228577532087,522.9285744803292,3441,696.228577532087,522.9285744803292,3547,696.228577532087,522.9285744803292,3657,696.228577532087,522.9285744803292,3768,696.228577532087,522.9285744803292,3876,696.228577532087,522.9285744803292,3985,696.228577532087,522.9285744803292,4092,696.228577532087,522.9285744803292,4202,696.228577532087,522.9285744803292,4314,696.228577532087,522.9285744803292,4421,696.228577532087,522.9285744803292,4531,696.228577532087,522.9285744803292,4640,696.228577532087,522.9285744803292,4751,696.228577532087,522.9285744803292,4860,696.228577532087,522.9285744803292,4968]","[1461,1461,1000,0,461,""smooth"",""down"",""down"",""good_move"",4772,3311,2750.3,1461,560.7,""oops"",""left"",""left"",""good_move"",15694,10921,2862.6,12222,609.4,""smooth"",""down"",""down"",""good_move"",19578,3884,3364.3,15694,519.7,""smooth"",""down"",""down"",""good_move"",22599,3020,2487.3,19579,532.7,""smooth"",""left"",""left"",""good_move"",26449,3849,1735.5,22600,2113.5,""smooth"",""left"",""left"",""good_move""]"
"1715","","<div style=""width:500px;"">
  <p>What determined the result of this run?</p>
  </div>","80","html-slider-response","19","351628","0.0-7.0-1.1","237","1","2025-08-08 06:25:42","36c45c0696341be0efffe67d72a12abb","5.185.246.114","Mozilla/5.0 (Windows NT 10.0; Win64; x64; rv:141.0) Gecko/20100101 Firefox/141.0","","Firefox","141.0","Windows","10.0","https://app.prolific.com/","pl,en-US;q=0.7,en;q=0.3","5f0214e58782120a8c970fd6","6877649eabb845cf142cd221","6895985d0fdc14dc9e5a9c6a","1","5f0214e58782120a8c970fd6","1","2025-08-08T06:31:35.446Z","","","","AttribQ","","","","","","","","","","","50","","","","","","","","","","","","","","","","","","","","","","","","","","",""
"1208","","<div style=""width:500px;"">
  <p>How much control did you have over the ball?</p>
  </div>","68","html-slider-response","20","352838","0.0-7.0-2.1","237","1","2025-08-08 06:25:42","36c45c0696341be0efffe67d72a12abb","5.185.246.114","Mozilla/5.0 (Windows NT 10.0; Win64; x64; rv:141.0) Gecko/20100101 Firefox/141.0","","Firefox","141.0","Windows","10.0","https://app.prolific.com/","pl,en-US;q=0.7,en;q=0.3","5f0214e58782120a8c970fd6","6877649eabb845cf142cd221","6895985d0fdc14dc9e5a9c6a","1","5f0214e58782120a8c970fd6","1","2025-08-08T06:31:36.656Z","","","","ControlQ","","","","","","","","","","","50","","","","","","","","","","","","","","","","","","","","","","","","","","",""
"2867","","<div style=""width:500px;"">
  <p>How would you describe your current emotional state?</p>
  </div>","5","html-slider-response","21","355706","0.0-7.0-3.1","237","1","2025-08-08 06:25:42","36c45c0696341be0efffe67d72a12abb","5.185.246.114","Mozilla/5.0 (Windows NT 10.0; Win64; x64; rv:141.0) Gecko/20100101 Firefox/141.0","","Firefox","141.0","Windows","10.0","https://app.prolific.com/","pl,en-US;q=0.7,en;q=0.3","5f0214e58782120a8c970fd6","6877649eabb845cf142cd221","6895985d0fdc14dc9e5a9c6a","1","5f0214e58782120a8c970fd6","1","2025-08-08T06:31:39.524Z","","","","StressQ","","","","","","","","","","","50","","","","","","","","","","","","","","","","","","","","","","","","","","",""
"2657","","<div style=""width:500px;"">
  <p>What best describes how you currently feel?</p>
  </div>","92","html-slider-response","22","358366","0.0-7.0-4.1","237","1","2025-08-08 06:25:42","36c45c0696341be0efffe67d72a12abb","5.185.246.114","Mozilla/5.0 (Windows NT 10.0; Win64; x64; rv:141.0) Gecko/20100101 Firefox/141.0","","Firefox","141.0","Windows","10.0","https://app.prolific.com/","pl,en-US;q=0.7,en;q=0.3","5f0214e58782120a8c970fd6","6877649eabb845cf142cd221","6895985d0fdc14dc9e5a9c6a","1","5f0214e58782120a8c970fd6","1","2025-08-08T06:31:42.184Z","","","","MotivationQ","","","","","","","","","","","50","","","","","","","","","","","","","","","","","","","","","","","","","","",""
"","","","","ctl-task-cpt","23","402507","0.0-7.0-0.2","237","1","2025-08-08 06:25:42","36c45c0696341be0efffe67d72a12abb","5.185.246.114","Mozilla/5.0 (Windows NT 10.0; Win64; x64; rv:141.0) Gecko/20100101 Firefox/141.0","","Firefox","141.0","Windows","10.0","https://app.prolific.com/","pl,en-US;q=0.7,en;q=0.3","5f0214e58782120a8c970fd6","6877649eabb845cf142cd221","6895985d0fdc14dc9e5a9c6a","1","5f0214e58782120a8c970fd6","1","2025-08-08T06:32:26.325Z","","","","","","","","","","","","","","","","win-only","2","g1:SE,g2:NW","0.8","3","0","360689","714","5727","41121","1","4","4","6","1","1","1","13","12","0.09848484848484848","2323","3000","1710","[""down"",""right""]","{""num_key_presses"":8,""num_perfect"":6,""num_errors"":0,""num_randdir"":2,""num_randdir_good_moves"":0,""num_whilered"":0,""num_whileblue"":0,""num_blue"":3,""num_good_moves"":6}","[298.22857753208706,292.92857448032925,0,298.22857753208706,292.92857448032925,100,298.22857753208706,292.92857448032925,201,298.22857753208706,292.92857448032925,301,298.22857753208706,292.92857448032925,401,297.22857753208706,293.92857448032925,521,317.22857753208706,305.92857448032925,622,418.22857753208706,342.92857448032925,724,493.22857753208706,395.92857448032925,824,584.228577532087,466.92857448032925,924,576.228577532087,491.92857448032925,1024,561.228577532087,516.9285744803292,1125,556.228577532087,529.9285744803292,1240,554.228577532087,529.9285744803292,1341,554.228577532087,529.9285744803292,1462,554.228577532087,529.9285744803292,1581,554.228577532087,529.9285744803292,1682,554.228577532087,529.9285744803292,1782,554.228577532087,528.9285744803292,1901,554.228577532087,528.9285744803292,2002,554.228577532087,528.9285744803292,2121,554.228577532087,528.9285744803292,2222,554.228577532087,528.9285744803292,2325,554.228577532087,528.9285744803292,2442,554.228577532087,527.9285744803292,2562,807.228577532087,368.92857448032925,2676,831.228577532087,317.92857448032925,2783,827.228577532087,314.92857448032925,2901,827.228577532087,314.92857448032925,3002,827.228577532087,314.92857448032925,3102,827.228577532087,314.92857448032925,3222,827.228577532087,314.92857448032925,3322,827.228577532087,314.92857448032925,3429,827.228577532087,314.92857448032925,3534,827.228577532087,314.92857448032925,3639,827.228577532087,314.92857448032925,3743,827.228577532087,314.92857448032925,3856,827.228577532087,314.92857448032925,3963,827.228577532087,314.92857448032925,4070,827.228577532087,314.92857448032925,4176,827.228577532087,314.92857448032925,4290,827.228577532087,314.92857448032925,4396,827.228577532087,314.92857448032925,4496,827.228577532087,314.92857448032925,4609,827.228577532087,314.92857448032925,4724,827.228577532087,314.92857448032925,4826,827.228577532087,314.92857448032925,4940]","[1443,1443,1000,0,443,""smooth"",""down"",""down"",""good_move"",4581,3137,2643,1444,494,""oops"",""down"",""left"",""bad_move"",7535,2954,2364.1,4581,589.9,""smooth"",""down"",""down"",""good_move"",14077,6542,2499.4,11033,544.6,""smooth"",""right"",""right"",""good_move"",24960,10883,2714.1,21697,548.9,""oops"",""right"",""left"",""bad_move"",28143,3183,2156.1,24960,1026.9,""smooth"",""right"",""right"",""good_move"",31362,3219,2751.6,28143,467.4,""smooth"",""right"",""right"",""good_move"",35114,3752,3140.6,31362,611.4,""smooth"",""right"",""right"",""good_move""]"
"2296","","<div style=""width:500px;"">
  <p>What determined the result of this run?</p>
  </div>","71","html-slider-response","24","404804","0.0-7.0-1.2","237","1","2025-08-08 06:25:42","36c45c0696341be0efffe67d72a12abb","5.185.246.114","Mozilla/5.0 (Windows NT 10.0; Win64; x64; rv:141.0) Gecko/20100101 Firefox/141.0","","Firefox","141.0","Windows","10.0","https://app.prolific.com/","pl,en-US;q=0.7,en;q=0.3","5f0214e58782120a8c970fd6","6877649eabb845cf142cd221","6895985d0fdc14dc9e5a9c6a","1","5f0214e58782120a8c970fd6","1","2025-08-08T06:32:28.622Z","","","","AttribQ","","","","","","","","","","","50","","","","","","","","","","","","","","","","","","","","","","","","","","",""
"1570","","<div style=""width:500px;"">
  <p>How much control did you have over the ball?</p>
  </div>","66","html-slider-response","25","406377","0.0-7.0-2.2","237","1","2025-08-08 06:25:42","36c45c0696341be0efffe67d72a12abb","5.185.246.114","Mozilla/5.0 (Windows NT 10.0; Win64; x64; rv:141.0) Gecko/20100101 Firefox/141.0","","Firefox","141.0","Windows","10.0","https://app.prolific.com/","pl,en-US;q=0.7,en;q=0.3","5f0214e58782120a8c970fd6","6877649eabb845cf142cd221","6895985d0fdc14dc9e5a9c6a","1","5f0214e58782120a8c970fd6","1","2025-08-08T06:32:30.195Z","","","","ControlQ","","","","","","","","","","","50","","","","","","","","","","","","","","","","","","","","","","","","","","",""
"1455","","<div style=""width:500px;"">
  <p>How would you describe your current emotional state?</p>
  </div>","9","html-slider-response","26","407833","0.0-7.0-3.2","237","1","2025-08-08 06:25:42","36c45c0696341be0efffe67d72a12abb","5.185.246.114","Mozilla/5.0 (Windows NT 10.0; Win64; x64; rv:141.0) Gecko/20100101 Firefox/141.0","","Firefox","141.0","Windows","10.0","https://app.prolific.com/","pl,en-US;q=0.7,en;q=0.3","5f0214e58782120a8c970fd6","6877649eabb845cf142cd221","6895985d0fdc14dc9e5a9c6a","1","5f0214e58782120a8c970fd6","1","2025-08-08T06:32:31.651Z","","","","StressQ","","","","","","","","","","","50","","","","","","","","","","","","","","","","","","","","","","","","","","",""
"1511","","<div style=""width:500px;"">
  <p>What best describes how you currently feel?</p>
  </div>","93","html-slider-response","27","409348","0.0-7.0-4.2","237","1","2025-08-08 06:25:42","36c45c0696341be0efffe67d72a12abb","5.185.246.114","Mozilla/5.0 (Windows NT 10.0; Win64; x64; rv:141.0) Gecko/20100101 Firefox/141.0","","Firefox","141.0","Windows","10.0","https://app.prolific.com/","pl,en-US;q=0.7,en;q=0.3","5f0214e58782120a8c970fd6","6877649eabb845cf142cd221","6895985d0fdc14dc9e5a9c6a","1","5f0214e58782120a8c970fd6","1","2025-08-08T06:32:33.166Z","","","","MotivationQ","","","","","","","","","","","50","","","","","","","","","","","","","","","","","","","","","","","","","","",""
"","","","","ctl-task-cpt","28","454302","0.0-7.0-0.3","237","1","2025-08-08 06:25:42","36c45c0696341be0efffe67d72a12abb","5.185.246.114","Mozilla/5.0 (Windows NT 10.0; Win64; x64; rv:141.0) Gecko/20100101 Firefox/141.0","","Firefox","141.0","Windows","10.0","https://app.prolific.com/","pl,en-US;q=0.7,en;q=0.3","5f0214e58782120a8c970fd6","6877649eabb845cf142cd221","6895985d0fdc14dc9e5a9c6a","1","5f0214e58782120a8c970fd6","1","2025-08-08T06:33:18.121Z","","","","","","","","","","","","","","","","win-only","1","g1:NE,g2:SW","0.7","4","0","411672","843","5844","41938","1","4","8","6","2","8","8","21","13","0.1590909090909091","1059","3000","1755","[""down"",""left""]","{""num_key_presses"":8,""num_perfect"":6,""num_errors"":0,""num_randdir"":2,""num_randdir_good_moves"":1,""num_whilered"":0,""num_whileblue"":0,""num_blue"":3,""num_good_moves"":7}","[299.22857753208706,300.92857448032925,0,299.22857753208706,300.92857448032925,102,299.22857753208706,300.92857448032925,210,299.22857753208706,300.92857448032925,319,299.22857753208706,300.92857448032925,429,299.22857753208706,300.92857448032925,537,19.22857753208705,494.92857448032925,645,7.228577532087051,546.9285744803292,755,17.22857753208705,542.9285744803292,865,22.22857753208705,541.9285744803292,975,22.22857753208705,541.9285744803292,1082,23.22857753208705,540.9285744803292,1193,23.22857753208705,539.9285744803292,1300,23.22857753208705,539.9285744803292,1411,-40.77142246791295,493.92857448032925,1520,-299.77142246791294,376.92857448032925,1627,-299.77142246791294,375.92857448032925,1736,-299.77142246791294,375.92857448032925,1845,-299.77142246791294,375.92857448032925,1954,-299.77142246791294,375.92857448032925,2064,-299.77142246791294,375.92857448032925,2175,-299.77142246791294,375.92857448032925,2283,-299.77142246791294,375.92857448032925,2392,-299.77142246791294,375.92857448032925,2500,-299.77142246791294,375.92857448032925,2611,-299.77142246791294,375.92857448032925,2721,-299.77142246791294,375.92857448032925,2831,-299.77142246791294,375.92857448032925,2943,-299.77142246791294,375.92857448032925,3049,-299.77142246791294,375.92857448032925,3159,-299.77142246791294,375.92857448032925,3268,-299.77142246791294,375.92857448032925,3377,-299.77142246791294,375.92857448032925,3486,-299.77142246791294,375.92857448032925,3594,-299.77142246791294,375.92857448032925,3703,-299.77142246791294,375.92857448032925,3813,-299.77142246791294,375.92857448032925,3924,-299.77142246791294,375.92857448032925,4033,-299.77142246791294,375.92857448032925,4144,-299.77142246791294,375.92857448032925,4253,-299.77142246791294,375.92857448032925,4361,-299.77142246791294,375.92857448032925,4470,-299.77142246791294,375.92857448032925,4580,-299.77142246791294,375.92857448032925,4690,-299.77142246791294,375.92857448032925,4799,-299.77142246791294,375.92857448032925,4909]","[1441,1441,1000,0,441,""oops"",""down"",""down"",""good_move"",8279,6837,2721.8,5063,494.2,""oops"",""down"",""right"",""bad_move"",10645,2365,1783.5,8280,581.5,""smooth"",""down"",""down"",""good_move"",14047,3402,2959.5,10645,442.5,""smooth"",""down"",""down"",""good_move"",17373,3326,2851.4,14047,474.6,""smooth"",""left"",""left"",""good_move"",21100,3726,3213.3,17374,512.7,""smooth"",""left"",""left"",""good_move"",31963,10862,2871.6,28541,550.4,""smooth"",""left"",""left"",""good_move"",35828,3865,3347.3,31963,517.7,""smooth"",""left"",""left"",""good_move""]"
"1696","","<div style=""width:500px;"">
  <p>What determined the result of this run?</p>
  </div>","77","html-slider-response","29","456001","0.0-7.0-1.3","237","1","2025-08-08 06:25:42","36c45c0696341be0efffe67d72a12abb","5.185.246.114","Mozilla/5.0 (Windows NT 10.0; Win64; x64; rv:141.0) Gecko/20100101 Firefox/141.0","","Firefox","141.0","Windows","10.0","https://app.prolific.com/","pl,en-US;q=0.7,en;q=0.3","5f0214e58782120a8c970fd6","6877649eabb845cf142cd221","6895985d0fdc14dc9e5a9c6a","1","5f0214e58782120a8c970fd6","1","2025-08-08T06:33:19.819Z","","","","AttribQ","","","","","","","","","","","50","","","","","","","","","","","","","","","","","","","","","","","","","","",""
"1524","","<div style=""width:500px;"">
  <p>How much control did you have over the ball?</p>
  </div>","63","html-slider-response","30","457527","0.0-7.0-2.3","237","1","2025-08-08 06:25:42","36c45c0696341be0efffe67d72a12abb","5.185.246.114","Mozilla/5.0 (Windows NT 10.0; Win64; x64; rv:141.0) Gecko/20100101 Firefox/141.0","","Firefox","141.0","Windows","10.0","https://app.prolific.com/","pl,en-US;q=0.7,en;q=0.3","5f0214e58782120a8c970fd6","6877649eabb845cf142cd221","6895985d0fdc14dc9e5a9c6a","1","5f0214e58782120a8c970fd6","1","2025-08-08T06:33:21.345Z","","","","ControlQ","","","","","","","","","","","50","","","","","","","","","","","","","","","","","","","","","","","","","","",""
"1808","","<div style=""width:500px;"">
  <p>How would you describe your current emotional state?</p>
  </div>","19","html-slider-response","31","459336","0.0-7.0-3.3","237","1","2025-08-08 06:25:42","36c45c0696341be0efffe67d72a12abb","5.185.246.114","Mozilla/5.0 (Windows NT 10.0; Win64; x64; rv:141.0) Gecko/20100101 Firefox/141.0","","Firefox","141.0","Windows","10.0","https://app.prolific.com/","pl,en-US;q=0.7,en;q=0.3","5f0214e58782120a8c970fd6","6877649eabb845cf142cd221","6895985d0fdc14dc9e5a9c6a","1","5f0214e58782120a8c970fd6","1","2025-08-08T06:33:23.155Z","","","","StressQ","","","","","","","","","","","50","","","","","","","","","","","","","","","","","","","","","","","","","","",""
"1288","","<div style=""width:500px;"">
  <p>What best describes how you currently feel?</p>
  </div>","85","html-slider-response","32","460626","0.0-7.0-4.3","237","1","2025-08-08 06:25:42","36c45c0696341be0efffe67d72a12abb","5.185.246.114","Mozilla/5.0 (Windows NT 10.0; Win64; x64; rv:141.0) Gecko/20100101 Firefox/141.0","","Firefox","141.0","Windows","10.0","https://app.prolific.com/","pl,en-US;q=0.7,en;q=0.3","5f0214e58782120a8c970fd6","6877649eabb845cf142cd221","6895985d0fdc14dc9e5a9c6a","1","5f0214e58782120a8c970fd6","1","2025-08-08T06:33:24.445Z","","","","MotivationQ","","","","","","","","","","","50","","","","","","","","","","","","","","","","","","","","","","","","","","",""
"","","","","ctl-task-cpt","33","479477","0.0-7.0-0.4","237","1","2025-08-08 06:25:42","36c45c0696341be0efffe67d72a12abb","5.185.246.114","Mozilla/5.0 (Windows NT 10.0; Win64; x64; rv:141.0) Gecko/20100101 Firefox/141.0","","Firefox","141.0","Windows","10.0","https://app.prolific.com/","pl,en-US;q=0.7,en;q=0.3","5f0214e58782120a8c970fd6","6877649eabb845cf142cd221","6895985d0fdc14dc9e5a9c6a","1","5f0214e58782120a8c970fd6","1","2025-08-08T06:33:43.295Z","","","","","","","","","","","","","","","","win-only","2","g1:SE,g2:NW","0.6","5","0","462949","614","5624","15846","1","4","4","6","1","1","1","22","21","0.16666666666666666","959","3000","2415","[""down"",""right""]","{""num_key_presses"":4,""num_perfect"":4,""num_errors"":0,""num_randdir"":0,""num_randdir_good_moves"":0,""num_whilered"":0,""num_whileblue"":0,""num_blue"":0,""num_good_moves"":4}","[300.22857753208706,302.92857448032925,0,300.22857753208706,301.92857448032925,103,300.22857753208706,301.92857448032925,213,300.22857753208706,301.92857448032925,316,328.22857753208706,308.92857448032925,425,529.228577532087,477.92857448032925,529,600.228577532087,562.9285744803292,636,600.228577532087,563.9285744803292,736,587.228577532087,554.9285744803292,837,564.228577532087,543.9285744803292,949,564.228577532087,543.9285744803292,1052,564.228577532087,543.9285744803292,1159,810.228577532087,460.92857448032925,1266,854.228577532087,436.92857448032925,1378,854.228577532087,436.92857448032925,1481,854.228577532087,436.92857448032925,1586,854.228577532087,436.92857448032925,1694,854.228577532087,436.92857448032925,1796,854.228577532087,436.92857448032925,1896,854.228577532087,436.92857448032925,1998,854.228577532087,436.92857448032925,2109,854.228577532087,436.92857448032925,2225,854.228577532087,436.92857448032925,2334,854.228577532087,436.92857448032925,2436,854.228577532087,436.92857448032925,2543,854.228577532087,436.92857448032925,2644,854.228577532087,436.92857448032925,2744,854.228577532087,436.92857448032925,2845,854.228577532087,436.92857448032925,2948,854.228577532087,436.92857448032925,3051,854.228577532087,436.92857448032925,3151,854.228577532087,436.92857448032925,3260,854.228577532087,436.92857448032925,3375,854.228577532087,436.92857448032925,3475,854.228577532087,436.92857448032925,3575,854.228577532087,436.92857448032925,3685,854.228577532087,436.92857448032925,3798,854.228577532087,436.92857448032925,3900,854.228577532087,436.92857448032925,4004,854.228577532087,436.92857448032925,4110,854.228577532087,436.92857448032925,4226,854.228577532087,436.92857448032925,4336,854.228577532087,436.92857448032925,4436,854.228577532087,436.92857448032925,4543,854.228577532087,436.92857448032925,4644,854.228577532087,436.92857448032925,4748,854.228577532087,436.92857448032925,4849,854.228577532087,436.92857448032925,4950]","[1491,1491,1000,0,491,""smooth"",""down"",""down"",""good_move"",4137,2646,2105.3,1491,540.7,""smooth"",""down"",""down"",""good_move"",7056,2919,2467.3,4137,451.7,""smooth"",""right"",""right"",""good_move"",9948,2892,2492.2,7056,399.8,""smooth"",""right"",""right"",""good_move""]"
"2110","","<div style=""width:500px;"">
  <p>What determined the result of this run?</p>
  </div>","100","html-slider-response","34","481588","0.0-7.0-1.4","237","1","2025-08-08 06:25:42","36c45c0696341be0efffe67d72a12abb","5.185.246.114","Mozilla/5.0 (Windows NT 10.0; Win64; x64; rv:141.0) Gecko/20100101 Firefox/141.0","","Firefox","141.0","Windows","10.0","https://app.prolific.com/","pl,en-US;q=0.7,en;q=0.3","5f0214e58782120a8c970fd6","6877649eabb845cf142cd221","6895985d0fdc14dc9e5a9c6a","1","5f0214e58782120a8c970fd6","1","2025-08-08T06:33:45.406Z","","","","AttribQ","","","","","","","","","","","50","","","","","","","","","","","","","","","","","","","","","","","","","","",""
"1799","","<div style=""width:500px;"">
  <p>How much control did you have over the ball?</p>
  </div>","100","html-slider-response","35","483390","0.0-7.0-2.4","237","1","2025-08-08 06:25:42","36c45c0696341be0efffe67d72a12abb","5.185.246.114","Mozilla/5.0 (Windows NT 10.0; Win64; x64; rv:141.0) Gecko/20100101 Firefox/141.0","","Firefox","141.0","Windows","10.0","https://app.prolific.com/","pl,en-US;q=0.7,en;q=0.3","5f0214e58782120a8c970fd6","6877649eabb845cf142cd221","6895985d0fdc14dc9e5a9c6a","1","5f0214e58782120a8c970fd6","1","2025-08-08T06:33:47.208Z","","","","ControlQ","","","","","","","","","","","50","","","","","","","","","","","","","","","","","","","","","","","","","","",""
"1408","","<div style=""width:500px;"">
  <p>How would you describe your current emotional state?</p>
  </div>","5","html-slider-response","36","484800","0.0-7.0-3.4","237","1","2025-08-08 06:25:42","36c45c0696341be0efffe67d72a12abb","5.185.246.114","Mozilla/5.0 (Windows NT 10.0; Win64; x64; rv:141.0) Gecko/20100101 Firefox/141.0","","Firefox","141.0","Windows","10.0","https://app.prolific.com/","pl,en-US;q=0.7,en;q=0.3","5f0214e58782120a8c970fd6","6877649eabb845cf142cd221","6895985d0fdc14dc9e5a9c6a","1","5f0214e58782120a8c970fd6","1","2025-08-08T06:33:48.618Z","","","","StressQ","","","","","","","","","","","50","","","","","","","","","","","","","","","","","","","","","","","","","","",""
"1581","","<div style=""width:500px;"">
  <p>What best describes how you currently feel?</p>
  </div>","97","html-slider-response","37","486382","0.0-7.0-4.4","237","1","2025-08-08 06:25:42","36c45c0696341be0efffe67d72a12abb","5.185.246.114","Mozilla/5.0 (Windows NT 10.0; Win64; x64; rv:141.0) Gecko/20100101 Firefox/141.0","","Firefox","141.0","Windows","10.0","https://app.prolific.com/","pl,en-US;q=0.7,en;q=0.3","5f0214e58782120a8c970fd6","6877649eabb845cf142cd221","6895985d0fdc14dc9e5a9c6a","1","5f0214e58782120a8c970fd6","1","2025-08-08T06:33:50.200Z","","","","MotivationQ","","","","","","","","","","","50","","","","","","","","","","","","","","","","","","","","","","","","","","",""
"","","","","ctl-task-cpt","38","513218","0.0-7.0-0.5","237","1","2025-08-08 06:25:42","36c45c0696341be0efffe67d72a12abb","5.185.246.114","Mozilla/5.0 (Windows NT 10.0; Win64; x64; rv:141.0) Gecko/20100101 Firefox/141.0","","Firefox","141.0","Windows","10.0","https://app.prolific.com/","pl,en-US;q=0.7,en;q=0.3","5f0214e58782120a8c970fd6","6877649eabb845cf142cd221","6895985d0fdc14dc9e5a9c6a","1","5f0214e58782120a8c970fd6","1","2025-08-08T06:34:17.036Z","","","","","","","","","","","","","","","","win-only","1","g1:NE,g2:SW","0.5","6","0","488707","805","5814","23828","1","4","8","6","1","1","1","23","22","0.17424242424242425","963","3000","2340","[""up"",""right""]","{""num_key_presses"":6,""num_perfect"":4,""num_errors"":0,""num_randdir"":2,""num_randdir_good_moves"":1,""num_whilered"":0,""num_whileblue"":0,""num_blue"":0,""num_good_moves"":5}","[296.22857753208706,293.92857448032925,0,296.22857753208706,292.92857448032925,111,296.22857753208706,293.92857448032925,216,296.22857753208706,293.92857448032925,326,300.22857753208706,295.92857448032925,433,628.228577532087,153.92857448032925,544,617.228577532087,113.92857448032925,650,606.228577532087,98.92857448032925,759,568.228577532087,64.92857448032925,868,564.228577532087,52.92857448032924,978,564.228577532087,52.92857448032924,1092,564.228577532087,52.92857448032924,1198,811.228577532087,78.92857448032925,1309,844.228577532087,78.92857448032925,1418,844.228577532087,78.92857448032925,1528,844.228577532087,78.92857448032925,1637,844.228577532087,78.92857448032925,1746,844.228577532087,78.92857448032925,1858,844.228577532087,78.92857448032925,1963,844.228577532087,78.92857448032925,2075,844.228577532087,78.92857448032925,2183,844.228577532087,78.92857448032925,2293,844.228577532087,78.92857448032925,2402,844.228577532087,78.92857448032925,2510,844.228577532087,78.92857448032925,2621,844.228577532087,78.92857448032925,2732,844.228577532087,78.92857448032925,2843,844.228577532087,78.92857448032925,2950,844.228577532087,78.92857448032925,3060,844.228577532087,78.92857448032925,3169,844.228577532087,78.92857448032925,3278,844.228577532087,78.92857448032925,3386,844.228577532087,78.92857448032925,3495,844.228577532087,78.92857448032925,3609,844.228577532087,78.92857448032925,3714,844.228577532087,78.92857448032925,3825,844.228577532087,78.92857448032925,3933,844.228577532087,78.92857448032925,4043,844.228577532087,78.92857448032925,4151,844.228577532087,78.92857448032925,4258,844.228577532087,78.92857448032925,4368,844.228577532087,78.92857448032925,4477,844.228577532087,78.92857448032925,4586,844.228577532087,78.92857448032925,4695,844.228577532087,78.92857448032925,4807,844.228577532087,78.92857448032925,4913]","[1454,1454,1000,0,454,""oops"",""up"",""up"",""good_move"",4554,3100,2673.5,1454,426.5,""smooth"",""up"",""up"",""good_move"",8093,3539,2790.6,4554,748.4,""smooth"",""right"",""right"",""good_move"",11447,3354,2974.5,8093,379.5,""oops"",""right"",""left"",""bad_move"",15223,3776,2461.5,11447,1314.5,""smooth"",""right"",""right"",""good_move"",17637,2414,2039.1,15223,374.9,""smooth"",""right"",""right"",""good_move""]"
"1948","","<div style=""width:500px;"">
  <p>What determined the result of this run?</p>
  </div>","85","html-slider-response","39","515167","0.0-7.0-1.5","237","1","2025-08-08 06:25:42","36c45c0696341be0efffe67d72a12abb","5.185.246.114","Mozilla/5.0 (Windows NT 10.0; Win64; x64; rv:141.0) Gecko/20100101 Firefox/141.0","","Firefox","141.0","Windows","10.0","https://app.prolific.com/","pl,en-US;q=0.7,en;q=0.3","5f0214e58782120a8c970fd6","6877649eabb845cf142cd221","6895985d0fdc14dc9e5a9c6a","1","5f0214e58782120a8c970fd6","1","2025-08-08T06:34:18.985Z","","","","AttribQ","","","","","","","","","","","50","","","","","","","","","","","","","","","","","","","","","","","","","","",""
"1418","","<div style=""width:500px;"">
  <p>How much control did you have over the ball?</p>
  </div>","70","html-slider-response","40","516588","0.0-7.0-2.5","237","1","2025-08-08 06:25:42","36c45c0696341be0efffe67d72a12abb","5.185.246.114","Mozilla/5.0 (Windows NT 10.0; Win64; x64; rv:141.0) Gecko/20100101 Firefox/141.0","","Firefox","141.0","Windows","10.0","https://app.prolific.com/","pl,en-US;q=0.7,en;q=0.3","5f0214e58782120a8c970fd6","6877649eabb845cf142cd221","6895985d0fdc14dc9e5a9c6a","1","5f0214e58782120a8c970fd6","1","2025-08-08T06:34:20.406Z","","","","ControlQ","","","","","","","","","","","50","","","","","","","","","","","","","","","","","","","","","","","","","","",""
"1573","","<div style=""width:500px;"">
  <p>How would you describe your current emotional state?</p>
  </div>","5","html-slider-response","41","518162","0.0-7.0-3.5","237","1","2025-08-08 06:25:42","36c45c0696341be0efffe67d72a12abb","5.185.246.114","Mozilla/5.0 (Windows NT 10.0; Win64; x64; rv:141.0) Gecko/20100101 Firefox/141.0","","Firefox","141.0","Windows","10.0","https://app.prolific.com/","pl,en-US;q=0.7,en;q=0.3","5f0214e58782120a8c970fd6","6877649eabb845cf142cd221","6895985d0fdc14dc9e5a9c6a","1","5f0214e58782120a8c970fd6","1","2025-08-08T06:34:21.980Z","","","","StressQ","","","","","","","","","","","50","","","","","","","","","","","","","","","","","","","","","","","","","","",""
"1743","","<div style=""width:500px;"">
  <p>What best describes how you currently feel?</p>
  </div>","95","html-slider-response","42","519909","0.0-7.0-4.5","237","1","2025-08-08 06:25:42","36c45c0696341be0efffe67d72a12abb","5.185.246.114","Mozilla/5.0 (Windows NT 10.0; Win64; x64; rv:141.0) Gecko/20100101 Firefox/141.0","","Firefox","141.0","Windows","10.0","https://app.prolific.com/","pl,en-US;q=0.7,en;q=0.3","5f0214e58782120a8c970fd6","6877649eabb845cf142cd221","6895985d0fdc14dc9e5a9c6a","1","5f0214e58782120a8c970fd6","1","2025-08-08T06:34:23.727Z","","","","MotivationQ","","","","","","","","","","","50","","","","","","","","","","","","","","","","","","","","","","","","","","",""
"","","","","ctl-task-cpt","43","542792","0.0-7.0-0.6","237","1","2025-08-08 06:25:42","36c45c0696341be0efffe67d72a12abb","5.185.246.114","Mozilla/5.0 (Windows NT 10.0; Win64; x64; rv:141.0) Gecko/20100101 Firefox/141.0","","Firefox","141.0","Windows","10.0","https://app.prolific.com/","pl,en-US;q=0.7,en;q=0.3","5f0214e58782120a8c970fd6","6877649eabb845cf142cd221","6895985d0fdc14dc9e5a9c6a","1","5f0214e58782120a8c970fd6","1","2025-08-08T06:34:46.610Z","","","","","","","","","","","","","","","","win-only","2","g1:SE,g2:NW","0.4","7","0","522231","670","5680","19871","1","4","4","6","1","1","1","24","23","0.18181818181818182","819","3000","2415","[""down"",""right""]","{""num_key_presses"":4,""num_perfect"":2,""num_errors"":0,""num_randdir"":2,""num_randdir_good_moves"":2,""num_whilered"":0,""num_whileblue"":0,""num_blue"":1,""num_good_moves"":4}","[294.22857753208706,292.92857448032925,1,294.22857753208706,292.92857448032925,107,294.22857753208706,292.92857448032925,218,294.22857753208706,292.92857448032925,326,374.22857753208706,354.92857448032925,438,556.228577532087,492.92857448032925,552,552.228577532087,511.92857448032925,659,551.228577532087,521.9285744803292,769,551.228577532087,521.9285744803292,877,549.228577532087,520.9285744803292,987,758.228577532087,479.92857448032925,1094,977.228577532087,404.92857448032925,1203,978.228577532087,394.92857448032925,1310,978.228577532087,394.92857448032925,1420,978.228577532087,394.92857448032925,1520,978.228577532087,394.92857448032925,1626,978.228577532087,394.92857448032925,1736,978.228577532087,394.92857448032925,1839,978.228577532087,394.92857448032925,1951,978.228577532087,394.92857448032925,2055,978.228577532087,394.92857448032925,2168,978.228577532087,394.92857448032925,2277,978.228577532087,394.92857448032925,2384,978.228577532087,394.92857448032925,2493,978.228577532087,394.92857448032925,2595,978.228577532087,394.92857448032925,2704,978.228577532087,394.92857448032925,2804,978.228577532087,394.92857448032925,2914,978.228577532087,394.92857448032925,3024,978.228577532087,394.92857448032925,3136,978.228577532087,394.92857448032925,3242,978.228577532087,394.92857448032925,3353,978.228577532087,394.92857448032925,3461,978.228577532087,394.92857448032925,3567,978.228577532087,394.92857448032925,3671,978.228577532087,394.92857448032925,3780,978.228577532087,394.92857448032925,3885,978.228577532087,394.92857448032925,3991,978.228577532087,394.92857448032925,4100,978.228577532087,394.92857448032925,4211,978.228577532087,394.92857448032925,4319,978.228577532087,394.92857448032925,4429,978.228577532087,394.92857448032925,4539,978.228577532087,394.92857448032925,4651,978.228577532087,394.92857448032925,4760,978.228577532087,394.92857448032925,4873,978.228577532087,394.92857448032925,4980]","[1440,1440,1000,0,440,""oops"",""down"",""down"",""good_move"",4561,3120,2652.4,1441,467.6,""oops"",""down"",""down"",""good_move"",10771,6210,2153,8136,482,""smooth"",""right"",""right"",""good_move"",13933,3161,2750,10772,411,""smooth"",""right"",""right"",""good_move""]"
"1824","","<div style=""width:500px;"">
  <p>What determined the result of this run?</p>
  </div>","77","html-slider-response","44","544616","0.0-7.0-1.6","237","1","2025-08-08 06:25:42","36c45c0696341be0efffe67d72a12abb","5.185.246.114","Mozilla/5.0 (Windows NT 10.0; Win64; x64; rv:141.0) Gecko/20100101 Firefox/141.0","","Firefox","141.0","Windows","10.0","https://app.prolific.com/","pl,en-US;q=0.7,en;q=0.3","5f0214e58782120a8c970fd6","6877649eabb845cf142cd221","6895985d0fdc14dc9e5a9c6a","1","5f0214e58782120a8c970fd6","1","2025-08-08T06:34:48.434Z","","","","AttribQ","","","","","","","","","","","50","","","","","","","","","","","","","","","","","","","","","","","","","","",""
"1271","","<div style=""width:500px;"">
  <p>How much control did you have over the ball?</p>
  </div>","77","html-slider-response","45","545889","0.0-7.0-2.6","237","1","2025-08-08 06:25:42","36c45c0696341be0efffe67d72a12abb","5.185.246.114","Mozilla/5.0 (Windows NT 10.0; Win64; x64; rv:141.0) Gecko/20100101 Firefox/141.0","","Firefox","141.0","Windows","10.0","https://app.prolific.com/","pl,en-US;q=0.7,en;q=0.3","5f0214e58782120a8c970fd6","6877649eabb845cf142cd221","6895985d0fdc14dc9e5a9c6a","1","5f0214e58782120a8c970fd6","1","2025-08-08T06:34:49.707Z","","","","ControlQ","","","","","","","","","","","50","","","","","","","","","","","","","","","","","","","","","","","","","","",""
"1369","","<div style=""width:500px;"">
  <p>How would you describe your current emotional state?</p>
  </div>","4","html-slider-response","46","547260","0.0-7.0-3.6","237","1","2025-08-08 06:25:42","36c45c0696341be0efffe67d72a12abb","5.185.246.114","Mozilla/5.0 (Windows NT 10.0; Win64; x64; rv:141.0) Gecko/20100101 Firefox/141.0","","Firefox","141.0","Windows","10.0","https://app.prolific.com/","pl,en-US;q=0.7,en;q=0.3","5f0214e58782120a8c970fd6","6877649eabb845cf142cd221","6895985d0fdc14dc9e5a9c6a","1","5f0214e58782120a8c970fd6","1","2025-08-08T06:34:51.078Z","","","","StressQ","","","","","","","","","","","50","","","","","","","","","","","","","","","","","","","","","","","","","","",""
"1636","","<div style=""width:500px;"">
  <p>What best describes how you currently feel?</p>
  </div>","96","html-slider-response","47","548896","0.0-7.0-4.6","237","1","2025-08-08 06:25:42","36c45c0696341be0efffe67d72a12abb","5.185.246.114","Mozilla/5.0 (Windows NT 10.0; Win64; x64; rv:141.0) Gecko/20100101 Firefox/141.0","","Firefox","141.0","Windows","10.0","https://app.prolific.com/","pl,en-US;q=0.7,en;q=0.3","5f0214e58782120a8c970fd6","6877649eabb845cf142cd221","6895985d0fdc14dc9e5a9c6a","1","5f0214e58782120a8c970fd6","1","2025-08-08T06:34:52.714Z","","","","MotivationQ","","","","","","","","","","","50","","","","","","","","","","","","","","","","","","","","","","","","","","",""
"","","","","ctl-task-cpt","48","599928","0.0-7.0-0.7","237","1","2025-08-08 06:25:42","36c45c0696341be0efffe67d72a12abb","5.185.246.114","Mozilla/5.0 (Windows NT 10.0; Win64; x64; rv:141.0) Gecko/20100101 Firefox/141.0","","Firefox","141.0","Windows","10.0","https://app.prolific.com/","pl,en-US;q=0.7,en;q=0.3","5f0214e58782120a8c970fd6","6877649eabb845cf142cd221","6895985d0fdc14dc9e5a9c6a","1","5f0214e58782120a8c970fd6","1","2025-08-08T06:35:43.746Z","","","","","","","","","","","","","","","","win-only","3","g1:SW,g2:NE","0.3","8","0","551219","652","5667","48017","1","4","8","6","2","8","8","32","24","0.24242424242424243","965","3000","1905","[""up"",""right""]","{""num_key_presses"":10,""num_perfect"":3,""num_errors"":0,""num_randdir"":7,""num_randdir_good_moves"":5,""num_whilered"":0,""num_whileblue"":0,""num_blue"":3,""num_good_moves"":8}","[295.22857753208706,299.92857448032925,0,295.22857753208706,299.92857448032925,106,295.22857753208706,299.92857448032925,216,295.22857753208706,299.92857448032925,330,296.22857753208706,303.92857448032925,436,331.22857753208706,310.92857448032925,547,548.228577532087,117.92857448032925,655,545.228577532087,84.92857448032925,765,554.228577532087,66.92857448032925,874,556.228577532087,57.92857448032924,984,556.228577532087,57.92857448032924,1096,584.228577532087,57.92857448032924,1204,907.228577532087,74.92857448032925,1315,970.228577532087,77.92857448032925,1420,978.228577532087,120.92857448032925,1529,978.228577532087,121.92857448032925,1638,978.228577532087,121.92857448032925,1747,978.228577532087,121.92857448032925,1857,978.228577532087,121.92857448032925,1966,978.228577532087,121.92857448032925,2066,978.228577532087,121.92857448032925,2171,978.228577532087,121.92857448032925,2281,978.228577532087,121.92857448032925,2390,978.228577532087,121.92857448032925,2499,978.228577532087,121.92857448032925,2609,978.228577532087,121.92857448032925,2719,978.228577532087,121.92857448032925,2830,978.228577532087,121.92857448032925,2938,978.228577532087,121.92857448032925,3048,978.228577532087,121.92857448032925,3156,978.228577532087,121.92857448032925,3266,978.228577532087,121.92857448032925,3379,978.228577532087,121.92857448032925,3485,978.228577532087,121.92857448032925,3598,978.228577532087,121.92857448032925,3703,978.228577532087,121.92857448032925,3814,978.228577532087,121.92857448032925,3920,978.228577532087,121.92857448032925,4030,978.228577532087,121.92857448032925,4140,978.228577532087,121.92857448032925,4249,978.228577532087,121.92857448032925,4358,978.228577532087,121.92857448032925,4468,978.228577532087,121.92857448032925,4580,978.228577532087,121.92857448032925,4688,978.228577532087,121.92857448032925,4798,978.228577532087,121.92857448032925,4905]","[1363,1363,1000,0,363,""smooth"",""up"",""up"",""good_move"",4653,3290,2937.3,1363,352.7,""oops"",""up"",""right"",""good_move"",8156,3503,3100.4,4653,402.6,""oops"",""up"",""right"",""good_move"",10740,2584,2200.7,8156,383.3,""oops"",""up"",""left"",""bad_move"",14422,3682,2845.6,10740,836.4,""smooth"",""up"",""up"",""good_move"",18122,3700,3043.6,14422,656.4,""oops"",""up"",""left"",""bad_move"",21843,3720,2284.3,18123,1435.7,""oops"",""up"",""up"",""good_move"",25862,4019,2803,21843,1216,""oops"",""right"",""right"",""good_move"",34963,9101,2211.7,32329,422.3,""smooth"",""right"",""right"",""good_move"",42088,7124,2875.3,38602,610.7,""oops"",""right"",""right"",""good_move""]"
"1772","","<div style=""width:500px;"">
  <p>What determined the result of this run?</p>
  </div>","81","html-slider-response","49","601702","0.0-7.0-1.7","237","1","2025-08-08 06:25:42","36c45c0696341be0efffe67d72a12abb","5.185.246.114","Mozilla/5.0 (Windows NT 10.0; Win64; x64; rv:141.0) Gecko/20100101 Firefox/141.0","","Firefox","141.0","Windows","10.0","https://app.prolific.com/","pl,en-US;q=0.7,en;q=0.3","5f0214e58782120a8c970fd6","6877649eabb845cf142cd221","6895985d0fdc14dc9e5a9c6a","1","5f0214e58782120a8c970fd6","1","2025-08-08T06:35:45.520Z","","","","AttribQ","","","","","","","","","","","50","","","","","","","","","","","","","","","","","","","","","","","","","","",""
"1358","","<div style=""width:500px;"">
  <p>How much control did you have over the ball?</p>
  </div>","54","html-slider-response","50","603064","0.0-7.0-2.7","237","1","2025-08-08 06:25:42","36c45c0696341be0efffe67d72a12abb","5.185.246.114","Mozilla/5.0 (Windows NT 10.0; Win64; x64; rv:141.0) Gecko/20100101 Firefox/141.0","","Firefox","141.0","Windows","10.0","https://app.prolific.com/","pl,en-US;q=0.7,en;q=0.3","5f0214e58782120a8c970fd6","6877649eabb845cf142cd221","6895985d0fdc14dc9e5a9c6a","1","5f0214e58782120a8c970fd6","1","2025-08-08T06:35:46.882Z","","","","ControlQ","","","","","","","","","","","50","","","","","","","","","","","","","","","","","","","","","","","","","","",""
"1574","","<div style=""width:500px;"">
  <p>How would you describe your current emotional state?</p>
  </div>","26","html-slider-response","51","604640","0.0-7.0-3.7","237","1","2025-08-08 06:25:42","36c45c0696341be0efffe67d72a12abb","5.185.246.114","Mozilla/5.0 (Windows NT 10.0; Win64; x64; rv:141.0) Gecko/20100101 Firefox/141.0","","Firefox","141.0","Windows","10.0","https://app.prolific.com/","pl,en-US;q=0.7,en;q=0.3","5f0214e58782120a8c970fd6","6877649eabb845cf142cd221","6895985d0fdc14dc9e5a9c6a","1","5f0214e58782120a8c970fd6","1","2025-08-08T06:35:48.458Z","","","","StressQ","","","","","","","","","","","50","","","","","","","","","","","","","","","","","","","","","","","","","","",""
"1597","","<div style=""width:500px;"">
  <p>What best describes how you currently feel?</p>
  </div>","94","html-slider-response","52","606239","0.0-7.0-4.7","237","1","2025-08-08 06:25:42","36c45c0696341be0efffe67d72a12abb","5.185.246.114","Mozilla/5.0 (Windows NT 10.0; Win64; x64; rv:141.0) Gecko/20100101 Firefox/141.0","","Firefox","141.0","Windows","10.0","https://app.prolific.com/","pl,en-US;q=0.7,en;q=0.3","5f0214e58782120a8c970fd6","6877649eabb845cf142cd221","6895985d0fdc14dc9e5a9c6a","1","5f0214e58782120a8c970fd6","1","2025-08-08T06:35:50.058Z","","","","MotivationQ","","","","","","","","","","","50","","","","","","","","","","","","","","","","","","","","","","","","","","",""
"","","","","ctl-task-cpt","53","679336","0.0-7.0-0.8","237","1","2025-08-08 06:25:42","36c45c0696341be0efffe67d72a12abb","5.185.246.114","Mozilla/5.0 (Windows NT 10.0; Win64; x64; rv:141.0) Gecko/20100101 Firefox/141.0","","Firefox","141.0","Windows","10.0","https://app.prolific.com/","pl,en-US;q=0.7,en;q=0.3","5f0214e58782120a8c970fd6","6877649eabb845cf142cd221","6895985d0fdc14dc9e5a9c6a","1","5f0214e58782120a8c970fd6","1","2025-08-08T06:37:03.154Z","","","","","","","","","","","","","","","","win-only","0","g1:NW,g2:SE","0.4","9","0","608564","638","5652","70081","1","4","4","6","2","4","4","36","32","0.2727272727272727","964","3000","1015","[""down"",""right""]","{""num_key_presses"":16,""num_perfect"":8,""num_errors"":0,""num_randdir"":8,""num_randdir_good_moves"":3,""num_whilered"":0,""num_whileblue"":0,""num_blue"":5,""num_good_moves"":11}","[295.22857753208706,297.92857448032925,0,295.22857753208706,297.92857448032925,115,295.22857753208706,297.92857448032925,220,295.22857753208706,297.92857448032925,330,295.22857753208706,297.92857448032925,437,420.22857753208706,350.92857448032925,547,541.228577532087,442.92857448032925,655,554.228577532087,480.92857448032925,766,548.228577532087,507.92857448032925,874,548.228577532087,511.92857448032925,981,546.228577532087,511.92857448032925,1088,545.228577532087,510.92857448032925,1198,720.228577532087,381.92857448032925,1308,810.228577532087,288.92857448032925,1416,823.228577532087,278.92857448032925,1524,823.228577532087,277.92857448032925,1634,823.228577532087,277.92857448032925,1746,823.228577532087,277.92857448032925,1852,823.228577532087,277.92857448032925,1963,823.228577532087,277.92857448032925,2072,823.228577532087,277.92857448032925,2181,823.228577532087,277.92857448032925,2291,823.228577532087,277.92857448032925,2401,823.228577532087,277.92857448032925,2514,823.228577532087,277.92857448032925,2621,823.228577532087,277.92857448032925,2730,823.228577532087,277.92857448032925,2839,823.228577532087,277.92857448032925,2948,823.228577532087,277.92857448032925,3058,823.228577532087,277.92857448032925,3166,823.228577532087,277.92857448032925,3279,823.228577532087,277.92857448032925,3386,823.228577532087,277.92857448032925,3496,823.228577532087,277.92857448032925,3606,823.228577532087,277.92857448032925,3716,823.228577532087,277.92857448032925,3825,823.228577532087,277.92857448032925,3934,823.228577532087,277.92857448032925,4046,823.228577532087,277.92857448032925,4153,823.228577532087,277.92857448032925,4264,823.228577532087,277.92857448032925,4370,823.228577532087,277.92857448032925,4480,823.228577532087,277.92857448032925,4589,823.228577532087,277.92857448032925,4697,823.228577532087,277.92857448032925,4807,823.228577532087,277.92857448032925,4917]","[1432,1432,1000,0,432,""oops"",""down"",""left"",""bad_move"",4569,3136,2379.4,1433,756.6,""smooth"",""down"",""down"",""good_move"",10107,5538,2329.4,7351,426.6,""oops"",""down"",""down"",""good_move"",12801,2693,2196.7,10108,496.3,""smooth"",""down"",""down"",""good_move"",15612,2811,2340.2,12801,470.8,""smooth"",""right"",""right"",""good_move"",18906,3293,2877.4,15613,415.6,""smooth"",""right"",""right"",""good_move"",21859,2953,2551.4,18906,401.6,""oops"",""right"",""up"",""bad_move"",25543,3684,3298.6,21859,385.4,""oops"",""down"",""up"",""bad_move"",32450,6907,2417.6,29598,434.4,""oops"",""down"",""up"",""bad_move"",35759,3309,2905.6,32450,403.4,""oops"",""down"",""left"",""bad_move"",42288,6529,1675.5,40147,465.5,""oops"",""down"",""down"",""good_move"",49235,6946,2911.1,45888,435.9,""oops"",""down"",""down"",""good_move"",55421,6186,2360.6,52657,403.4,""smooth"",""down"",""down"",""good_move"",58689,3268,2905.9,55421,362.1,""smooth"",""right"",""right"",""good_move"",61811,3121,2697,58690,424,""smooth"",""right"",""right"",""good_move"",64053,2242,1743.7,61811,498.3,""smooth"",""right"",""right"",""good_move""]"
"4737","","<div style=""width:500px;"">
  <p>What determined the result of this run?</p>
  </div>","83","html-slider-response","54","684073","0.0-7.0-1.8","237","1","2025-08-08 06:25:42","36c45c0696341be0efffe67d72a12abb","5.185.246.114","Mozilla/5.0 (Windows NT 10.0; Win64; x64; rv:141.0) Gecko/20100101 Firefox/141.0","","Firefox","141.0","Windows","10.0","https://app.prolific.com/","pl,en-US;q=0.7,en;q=0.3","5f0214e58782120a8c970fd6","6877649eabb845cf142cd221","6895985d0fdc14dc9e5a9c6a","1","5f0214e58782120a8c970fd6","1","2025-08-08T06:37:07.891Z","","","","AttribQ","","","","","","","","","","","50","","","","","","","","","","","","","","","","","","","","","","","","","","",""
"1211","","<div style=""width:500px;"">
  <p>How much control did you have over the ball?</p>
  </div>","37","html-slider-response","55","685286","0.0-7.0-2.8","237","1","2025-08-08 06:25:42","36c45c0696341be0efffe67d72a12abb","5.185.246.114","Mozilla/5.0 (Windows NT 10.0; Win64; x64; rv:141.0) Gecko/20100101 Firefox/141.0","","Firefox","141.0","Windows","10.0","https://app.prolific.com/","pl,en-US;q=0.7,en;q=0.3","5f0214e58782120a8c970fd6","6877649eabb845cf142cd221","6895985d0fdc14dc9e5a9c6a","1","5f0214e58782120a8c970fd6","1","2025-08-08T06:37:09.104Z","","","","ControlQ","","","","","","","","","","","50","","","","","","","","","","","","","","","","","","","","","","","","","","",""
"2979","","<div style=""width:500px;"">
  <p>How would you describe your current emotional state?</p>
  </div>","16","html-slider-response","56","688269","0.0-7.0-3.8","237","1","2025-08-08 06:25:42","36c45c0696341be0efffe67d72a12abb","5.185.246.114","Mozilla/5.0 (Windows NT 10.0; Win64; x64; rv:141.0) Gecko/20100101 Firefox/141.0","","Firefox","141.0","Windows","10.0","https://app.prolific.com/","pl,en-US;q=0.7,en;q=0.3","5f0214e58782120a8c970fd6","6877649eabb845cf142cd221","6895985d0fdc14dc9e5a9c6a","1","5f0214e58782120a8c970fd6","1","2025-08-08T06:37:12.087Z","","","","StressQ","","","","","","","","","","","50","","","","","","","","","","","","","","","","","","","","","","","","","","",""
"2186","","<div style=""width:500px;"">
  <p>What best describes how you currently feel?</p>
  </div>","93","html-slider-response","57","690457","0.0-7.0-4.8","237","1","2025-08-08 06:25:42","36c45c0696341be0efffe67d72a12abb","5.185.246.114","Mozilla/5.0 (Windows NT 10.0; Win64; x64; rv:141.0) Gecko/20100101 Firefox/141.0","","Firefox","141.0","Windows","10.0","https://app.prolific.com/","pl,en-US;q=0.7,en;q=0.3","5f0214e58782120a8c970fd6","6877649eabb845cf142cd221","6895985d0fdc14dc9e5a9c6a","1","5f0214e58782120a8c970fd6","1","2025-08-08T06:37:14.275Z","","","","MotivationQ","","","","","","","","","","","50","","","","","","","","","","","","","","","","","","","","","","","","","","",""
"","","","","ctl-task-cpt","58","760823","0.0-7.0-0.9","237","1","2025-08-08 06:25:42","36c45c0696341be0efffe67d72a12abb","5.185.246.114","Mozilla/5.0 (Windows NT 10.0; Win64; x64; rv:141.0) Gecko/20100101 Firefox/141.0","","Firefox","141.0","Windows","10.0","https://app.prolific.com/","pl,en-US;q=0.7,en;q=0.3","5f0214e58782120a8c970fd6","6877649eabb845cf142cd221","6895985d0fdc14dc9e5a9c6a","1","5f0214e58782120a8c970fd6","1","2025-08-08T06:38:24.641Z","","","","","","","","","","","","","","","","win-only","3","g1:SW,g2:NE","0.5","10","0","692779","655","5666","67346","1","4","8","6","2","8","8","44","36","0.3333333333333333","1046","3000","1625","[""up"",""right""]","{""num_key_presses"":14,""num_perfect"":9,""num_errors"":0,""num_randdir"":5,""num_randdir_good_moves"":1,""num_whilered"":0,""num_whileblue"":0,""num_blue"":5,""num_good_moves"":10}","[293.22857753208706,300.92857448032925,0,293.22857753208706,300.92857448032925,106,293.22857753208706,300.92857448032925,215,293.22857753208706,300.92857448032925,329,291.22857753208706,303.92857448032925,434,431.22857753208706,255.92857448032925,544,445.22857753208706,164.92857448032925,650,468.22857753208706,128.92857448032925,762,525.228577532087,106.92857448032925,868,526.228577532087,82.92857448032925,978,528.228577532087,74.92857448032925,1087,528.228577532087,74.92857448032925,1196,557.228577532087,80.92857448032925,1296,898.228577532087,99.92857448032925,1398,913.228577532087,99.92857448032925,1506,913.228577532087,99.92857448032925,1611,913.228577532087,99.92857448032925,1730,913.228577532087,99.92857448032925,1850,913.228577532087,99.92857448032925,1950,913.228577532087,99.92857448032925,2050,913.228577532087,99.92857448032925,2150,913.228577532087,99.92857448032925,2250,913.228577532087,99.92857448032925,2350,913.228577532087,99.92857448032925,2451,913.228577532087,99.92857448032925,2570,913.228577532087,99.92857448032925,2670,913.228577532087,99.92857448032925,2770,913.228577532087,99.92857448032925,2870,913.228577532087,99.92857448032925,2971,913.228577532087,99.92857448032925,3072,913.228577532087,99.92857448032925,3191,913.228577532087,99.92857448032925,3292,913.228577532087,99.92857448032925,3393,913.228577532087,99.92857448032925,3511,913.228577532087,99.92857448032925,3611,913.228577532087,99.92857448032925,3711,913.228577532087,99.92857448032925,3811,913.228577532087,99.92857448032925,3911,913.228577532087,99.92857448032925,4031,913.228577532087,99.92857448032925,4150,913.228577532087,99.92857448032925,4251,913.228577532087,99.92857448032925,4371,913.228577532087,99.92857448032925,4492,913.228577532087,99.92857448032925,4592,913.228577532087,99.92857448032925,4711,913.228577532087,99.92857448032925,4811,913.228577532087,99.92857448032925,4931]","[1448,1448,1000,0,448,""oops"",""up"",""right"",""good_move"",7260,5812,2102.2,4732,425.8,""oops"",""up"",""down"",""bad_move"",9766,2506,1769.9,7260,736.1,""smooth"",""up"",""up"",""good_move"",13473,3707,2545.4,9766,1161.6,""smooth"",""up"",""up"",""good_move"",24100,10627,2658.8,21070,371.2,""smooth"",""up"",""up"",""good_move"",27874,3774,2305.9,24100,1468.1,""oops"",""up"",""down"",""bad_move"",30641,2767,2322.7,27874,444.3,""smooth"",""up"",""up"",""good_move"",37859,7218,2495.7,35020,343.3,""oops"",""right"",""left"",""bad_move"",41523,3664,2191.9,37859,1472.1,""smooth"",""up"",""up"",""good_move"",48524,7001,2244.9,45881,398.1,""oops"",""right"",""down"",""bad_move"",51487,2963,2587.1,48524,375.9,""smooth"",""right"",""right"",""good_move"",54647,3160,2792.3,51487,367.7,""smooth"",""up"",""up"",""good_move"",58332,3685,2431.7,54647,1253.3,""smooth"",""right"",""right"",""good_move"",61313,2981,2635.4,58332,345.6,""smooth"",""right"",""right"",""good_move""]"
"2713","","<div style=""width:500px;"">
  <p>What determined the result of this run?</p>
  </div>","61","html-slider-response","59","763537","0.0-7.0-1.9","237","1","2025-08-08 06:25:42","36c45c0696341be0efffe67d72a12abb","5.185.246.114","Mozilla/5.0 (Windows NT 10.0; Win64; x64; rv:141.0) Gecko/20100101 Firefox/141.0","","Firefox","141.0","Windows","10.0","https://app.prolific.com/","pl,en-US;q=0.7,en;q=0.3","5f0214e58782120a8c970fd6","6877649eabb845cf142cd221","6895985d0fdc14dc9e5a9c6a","1","5f0214e58782120a8c970fd6","1","2025-08-08T06:38:27.355Z","","","","AttribQ","","","","","","","","","","","50","","","","","","","","","","","","","","","","","","","","","","","","","","",""
"1307","","<div style=""width:500px;"">
  <p>How much control did you have over the ball?</p>
  </div>","31","html-slider-response","60","764845","0.0-7.0-2.9","237","1","2025-08-08 06:25:42","36c45c0696341be0efffe67d72a12abb","5.185.246.114","Mozilla/5.0 (Windows NT 10.0; Win64; x64; rv:141.0) Gecko/20100101 Firefox/141.0","","Firefox","141.0","Windows","10.0","https://app.prolific.com/","pl,en-US;q=0.7,en;q=0.3","5f0214e58782120a8c970fd6","6877649eabb845cf142cd221","6895985d0fdc14dc9e5a9c6a","1","5f0214e58782120a8c970fd6","1","2025-08-08T06:38:28.663Z","","","","ControlQ","","","","","","","","","","","50","","","","","","","","","","","","","","","","","","","","","","","","","","",""
"1306","","<div style=""width:500px;"">
  <p>How would you describe your current emotional state?</p>
  </div>","33","html-slider-response","61","766153","0.0-7.0-3.9","237","1","2025-08-08 06:25:42","36c45c0696341be0efffe67d72a12abb","5.185.246.114","Mozilla/5.0 (Windows NT 10.0; Win64; x64; rv:141.0) Gecko/20100101 Firefox/141.0","","Firefox","141.0","Windows","10.0","https://app.prolific.com/","pl,en-US;q=0.7,en;q=0.3","5f0214e58782120a8c970fd6","6877649eabb845cf142cd221","6895985d0fdc14dc9e5a9c6a","1","5f0214e58782120a8c970fd6","1","2025-08-08T06:38:29.971Z","","","","StressQ","","","","","","","","","","","50","","","","","","","","","","","","","","","","","","","","","","","","","","",""
"1602","","<div style=""width:500px;"">
  <p>What best describes how you currently feel?</p>
  </div>","93","html-slider-response","62","767757","0.0-7.0-4.9","237","1","2025-08-08 06:25:42","36c45c0696341be0efffe67d72a12abb","5.185.246.114","Mozilla/5.0 (Windows NT 10.0; Win64; x64; rv:141.0) Gecko/20100101 Firefox/141.0","","Firefox","141.0","Windows","10.0","https://app.prolific.com/","pl,en-US;q=0.7,en;q=0.3","5f0214e58782120a8c970fd6","6877649eabb845cf142cd221","6895985d0fdc14dc9e5a9c6a","1","5f0214e58782120a8c970fd6","1","2025-08-08T06:38:31.575Z","","","","MotivationQ","","","","","","","","","","","50","","","","","","","","","","","","","","","","","","","","","","","","","","",""
"","","","","ctl-task-cpt","63","827070","0.0-7.0-0.10","237","1","2025-08-08 06:25:42","36c45c0696341be0efffe67d72a12abb","5.185.246.114","Mozilla/5.0 (Windows NT 10.0; Win64; x64; rv:141.0) Gecko/20100101 Firefox/141.0","","Firefox","141.0","Windows","10.0","https://app.prolific.com/","pl,en-US;q=0.7,en;q=0.3","5f0214e58782120a8c970fd6","6877649eabb845cf142cd221","6895985d0fdc14dc9e5a9c6a","1","5f0214e58782120a8c970fd6","1","2025-08-08T06:39:30.888Z","","","","","","","","","","","","","","","","win-only","2","g1:SE,g2:NW","0.6","11","0","770079","559","5566","56310","1","4","8","6","2","8","8","52","44","0.3939393939393939","1288","3000","1945","[""left"",""up""]","{""num_key_presses"":8,""num_perfect"":6,""num_errors"":0,""num_randdir"":2,""num_randdir_good_moves"":1,""num_whilered"":0,""num_whileblue"":0,""num_blue"":8,""num_good_moves"":7}","[302.22857753208706,290.92857448032925,1,302.22857753208706,290.92857448032925,119,302.22857753208706,290.92857448032925,231,302.22857753208706,290.92857448032925,340,313.22857753208706,299.92857448032925,456,319.22857753208706,305.92857448032925,560,375.22857753208706,342.92857448032925,674,420.22857753208706,361.92857448032925,776,108.22857753208706,147.92857448032925,897,76.22857753208706,121.92857448032925,997,82.22857753208706,100.92857448032925,1098,62.22857753208705,60.92857448032924,1221,60.22857753208705,58.92857448032924,1338,60.22857753208705,58.92857448032924,1438,60.22857753208705,58.92857448032924,1538,669.228577532087,63.92857448032924,1658,890.228577532087,49.92857448032924,1776,890.228577532087,48.92857448032924,1876,890.228577532087,48.92857448032924,1976,890.228577532087,48.92857448032924,2077,890.228577532087,48.92857448032924,2196,890.228577532087,48.92857448032924,2296,890.228577532087,48.92857448032924,2396,890.228577532087,48.92857448032924,2496,890.228577532087,48.92857448032924,2597,890.228577532087,48.92857448032924,2697,890.228577532087,48.92857448032924,2816,890.228577532087,48.92857448032924,2918,890.228577532087,48.92857448032924,3018,890.228577532087,48.92857448032924,3127,890.228577532087,48.92857448032924,3227,890.228577532087,48.92857448032924,3347,890.228577532087,48.92857448032924,3468,890.228577532087,48.92857448032924,3587,890.228577532087,48.92857448032924,3687,890.228577532087,48.92857448032924,3787,890.228577532087,48.92857448032924,3906,890.228577532087,48.92857448032924,4007,890.228577532087,48.92857448032924,4107,890.228577532087,48.92857448032924,4227,890.228577532087,48.92857448032924,4346,890.228577532087,48.92857448032924,4446,890.228577532087,48.92857448032924,4566,890.228577532087,48.92857448032924,4668,890.228577532087,48.92857448032924,4768,890.228577532087,48.92857448032924,4868,890.228577532087,48.92857448032924,4987]","[8611,8611,2803.9,5361,446.1,""smooth"",""up"",""up"",""good_move"",21880,13269,2051.7,19429,399.3,""smooth"",""up"",""up"",""good_move"",25028,3148,2724.3,21880,423.7,""smooth"",""up"",""up"",""good_move"",27864,2835,2386.9,25029,448.1,""smooth"",""left"",""left"",""good_move"",31070,3206,2829.9,27864,376.1,""oops"",""left"",""down"",""bad_move"",34070,3000,2589.4,31070,410.6,""oops"",""left"",""up"",""good_move"",44161,10091,2047.4,41638,475.6,""smooth"",""left"",""left"",""good_move"",50504,6343,2119.6,47785,599.4,""smooth"",""left"",""left"",""good_move""]"
"1819","","<div style=""width:500px;"">
  <p>What determined the result of this run?</p>
  </div>","80","html-slider-response","64","828891","0.0-7.0-1.10","237","1","2025-08-08 06:25:42","36c45c0696341be0efffe67d72a12abb","5.185.246.114","Mozilla/5.0 (Windows NT 10.0; Win64; x64; rv:141.0) Gecko/20100101 Firefox/141.0","","Firefox","141.0","Windows","10.0","https://app.prolific.com/","pl,en-US;q=0.7,en;q=0.3","5f0214e58782120a8c970fd6","6877649eabb845cf142cd221","6895985d0fdc14dc9e5a9c6a","1","5f0214e58782120a8c970fd6","1","2025-08-08T06:39:32.709Z","","","","AttribQ","","","","","","","","","","","50","","","","","","","","","","","","","","","","","","","","","","","","","","",""
"1402","","<div style=""width:500px;"">
  <p>How much control did you have over the ball?</p>
  </div>","55","html-slider-response","65","830295","0.0-7.0-2.10","237","1","2025-08-08 06:25:42","36c45c0696341be0efffe67d72a12abb","5.185.246.114","Mozilla/5.0 (Windows NT 10.0; Win64; x64; rv:141.0) Gecko/20100101 Firefox/141.0","","Firefox","141.0","Windows","10.0","https://app.prolific.com/","pl,en-US;q=0.7,en;q=0.3","5f0214e58782120a8c970fd6","6877649eabb845cf142cd221","6895985d0fdc14dc9e5a9c6a","1","5f0214e58782120a8c970fd6","1","2025-08-08T06:39:34.113Z","","","","ControlQ","","","","","","","","","","","50","","","","","","","","","","","","","","","","","","","","","","","","","","",""
"1591","","<div style=""width:500px;"">
  <p>How would you describe your current emotional state?</p>
  </div>","9","html-slider-response","66","831890","0.0-7.0-3.10","237","1","2025-08-08 06:25:42","36c45c0696341be0efffe67d72a12abb","5.185.246.114","Mozilla/5.0 (Windows NT 10.0; Win64; x64; rv:141.0) Gecko/20100101 Firefox/141.0","","Firefox","141.0","Windows","10.0","https://app.prolific.com/","pl,en-US;q=0.7,en;q=0.3","5f0214e58782120a8c970fd6","6877649eabb845cf142cd221","6895985d0fdc14dc9e5a9c6a","1","5f0214e58782120a8c970fd6","1","2025-08-08T06:39:35.708Z","","","","StressQ","","","","","","","","","","","50","","","","","","","","","","","","","","","","","","","","","","","","","","",""
"3273","","<div style=""width:500px;"">
  <p>What best describes how you currently feel?</p>
  </div>","85","html-slider-response","67","835165","0.0-7.0-4.10","237","1","2025-08-08 06:25:42","36c45c0696341be0efffe67d72a12abb","5.185.246.114","Mozilla/5.0 (Windows NT 10.0; Win64; x64; rv:141.0) Gecko/20100101 Firefox/141.0","","Firefox","141.0","Windows","10.0","https://app.prolific.com/","pl,en-US;q=0.7,en;q=0.3","5f0214e58782120a8c970fd6","6877649eabb845cf142cd221","6895985d0fdc14dc9e5a9c6a","1","5f0214e58782120a8c970fd6","1","2025-08-08T06:39:38.984Z","","","","MotivationQ","","","","","","","","","","","50","","","","","","","","","","","","","","","","","","","","","","","","","","",""
"","","","","ctl-task-cpt","68","885244","0.0-7.0-0.11","237","1","2025-08-08 06:25:42","36c45c0696341be0efffe67d72a12abb","5.185.246.114","Mozilla/5.0 (Windows NT 10.0; Win64; x64; rv:141.0) Gecko/20100101 Firefox/141.0","","Firefox","141.0","Windows","10.0","https://app.prolific.com/","pl,en-US;q=0.7,en;q=0.3","5f0214e58782120a8c970fd6","6877649eabb845cf142cd221","6895985d0fdc14dc9e5a9c6a","1","5f0214e58782120a8c970fd6","1","2025-08-08T06:40:29.062Z","","","","","","","","","","","","","","","","win-only","1","g1:NE,g2:SW","0.7","12","0","837487","1691","6700","47058","1","4","4","6","1","1","1","53","52","0.4015151515151515","1128","3000","2315","[""up"",""right""]","{""num_key_presses"":6,""num_perfect"":4,""num_errors"":0,""num_randdir"":2,""num_randdir_good_moves"":1,""num_whilered"":0,""num_whileblue"":0,""num_blue"":6,""num_good_moves"":5}","[298.22857753208706,291.92857448032925,0,298.22857753208706,291.92857448032925,117,298.22857753208706,291.92857448032925,236,298.22857753208706,291.92857448032925,336,298.22857753208706,291.92857448032925,436,317.22857753208706,277.92857448032925,559,674.228577532087,15.928574480329239,660,672.228577532087,12.928574480329239,760,608.228577532087,12.928574480329239,861,575.228577532087,24.92857448032924,967,562.228577532087,31.92857448032924,1067,562.228577532087,31.92857448032924,1167,562.228577532087,31.92857448032924,1287,570.228577532087,34.92857448032924,1387,765.228577532087,63.92857448032924,1511,765.228577532087,63.92857448032924,1627,765.228577532087,63.92857448032924,1727,765.228577532087,63.92857448032924,1827,765.228577532087,63.92857448032924,1927,765.228577532087,63.92857448032924,2028,765.228577532087,63.92857448032924,2147,765.228577532087,63.92857448032924,2268,765.228577532087,63.92857448032924,2387,765.228577532087,63.92857448032924,2487,765.228577532087,63.92857448032924,2608,765.228577532087,63.92857448032924,2709,765.228577532087,63.92857448032924,2827,765.228577532087,63.92857448032924,2927,765.228577532087,63.92857448032924,3028,765.228577532087,63.92857448032924,3146,765.228577532087,63.92857448032924,3246,765.228577532087,63.92857448032924,3346,765.228577532087,63.92857448032924,3447,765.228577532087,63.92857448032924,3567,765.228577532087,63.92857448032924,3686,765.228577532087,63.92857448032924,3786,765.228577532087,63.92857448032924,3886,765.228577532087,63.92857448032924,3988,765.228577532087,63.92857448032924,4109,765.228577532087,63.92857448032924,4227,765.228577532087,63.92857448032924,4327,765.228577532087,63.92857448032924,4427,765.228577532087,63.92857448032924,4527,765.228577532087,63.92857448032924,4645,765.228577532087,63.92857448032924,4747,765.228577532087,63.92857448032924,4847,765.228577532087,63.92857448032924,4966]","[1437,1437,1000,0,437,""smooth"",""up"",""up"",""good_move"",8402,6965,2235.6,5828,338.4,""oops"",""up"",""left"",""bad_move"",12108,3706,2845.3,8402,860.7,""smooth"",""up"",""up"",""good_move"",15843,3734,2629.5,12109,1104.5,""oops"",""right"",""right"",""good_move"",36811,20968,2272.9,34100,438.1,""smooth"",""right"",""right"",""good_move"",39989,3178,2333.5,36811,844.5,""smooth"",""right"",""right"",""good_move""]"
"2109","","<div style=""width:500px;"">
  <p>What determined the result of this run?</p>
  </div>","69","html-slider-response","69","887354","0.0-7.0-1.11","237","1","2025-08-08 06:25:42","36c45c0696341be0efffe67d72a12abb","5.185.246.114","Mozilla/5.0 (Windows NT 10.0; Win64; x64; rv:141.0) Gecko/20100101 Firefox/141.0","","Firefox","141.0","Windows","10.0","https://app.prolific.com/","pl,en-US;q=0.7,en;q=0.3","5f0214e58782120a8c970fd6","6877649eabb845cf142cd221","6895985d0fdc14dc9e5a9c6a","1","5f0214e58782120a8c970fd6","1","2025-08-08T06:40:31.172Z","","","","AttribQ","","","","","","","","","","","50","","","","","","","","","","","","","","","","","","","","","","","","","","",""
"1335","","<div style=""width:500px;"">
  <p>How much control did you have over the ball?</p>
  </div>","71","html-slider-response","70","888692","0.0-7.0-2.11","237","1","2025-08-08 06:25:42","36c45c0696341be0efffe67d72a12abb","5.185.246.114","Mozilla/5.0 (Windows NT 10.0; Win64; x64; rv:141.0) Gecko/20100101 Firefox/141.0","","Firefox","141.0","Windows","10.0","https://app.prolific.com/","pl,en-US;q=0.7,en;q=0.3","5f0214e58782120a8c970fd6","6877649eabb845cf142cd221","6895985d0fdc14dc9e5a9c6a","1","5f0214e58782120a8c970fd6","1","2025-08-08T06:40:32.510Z","","","","ControlQ","","","","","","","","","","","50","","","","","","","","","","","","","","","","","","","","","","","","","","",""
"6322","","<div style=""width:500px;"">
  <p>How would you describe your current emotional state?</p>
  </div>","8","html-slider-response","71","895019","0.0-7.0-3.11","237","1","2025-08-08 06:25:42","36c45c0696341be0efffe67d72a12abb","5.185.246.114","Mozilla/5.0 (Windows NT 10.0; Win64; x64; rv:141.0) Gecko/20100101 Firefox/141.0","","Firefox","141.0","Windows","10.0","https://app.prolific.com/","pl,en-US;q=0.7,en;q=0.3","5f0214e58782120a8c970fd6","6877649eabb845cf142cd221","6895985d0fdc14dc9e5a9c6a","1","5f0214e58782120a8c970fd6","1","2025-08-08T06:40:38.837Z","","","","StressQ","","","","","","","","","","","50","","","","","","","","","","","","","","","","","","","","","","","","","","",""
"4305","","<div style=""width:500px;"">
  <p>What best describes how you currently feel?</p>
  </div>","91","html-slider-response","72","899325","0.0-7.0-4.11","237","1","2025-08-08 06:25:42","36c45c0696341be0efffe67d72a12abb","5.185.246.114","Mozilla/5.0 (Windows NT 10.0; Win64; x64; rv:141.0) Gecko/20100101 Firefox/141.0","","Firefox","141.0","Windows","10.0","https://app.prolific.com/","pl,en-US;q=0.7,en;q=0.3","5f0214e58782120a8c970fd6","6877649eabb845cf142cd221","6895985d0fdc14dc9e5a9c6a","1","5f0214e58782120a8c970fd6","1","2025-08-08T06:40:43.143Z","","","","MotivationQ","","","","","","","","","","","50","","","","","","","","","","","","","","","","","","","","","","","","","","",""
"","","","","ctl-task-cpt","73","919268","0.0-7.0-0.12","237","1","2025-08-08 06:25:42","36c45c0696341be0efffe67d72a12abb","5.185.246.114","Mozilla/5.0 (Windows NT 10.0; Win64; x64; rv:141.0) Gecko/20100101 Firefox/141.0","","Firefox","141.0","Windows","10.0","https://app.prolific.com/","pl,en-US;q=0.7,en;q=0.3","5f0214e58782120a8c970fd6","6877649eabb845cf142cd221","6895985d0fdc14dc9e5a9c6a","1","5f0214e58782120a8c970fd6","1","2025-08-08T06:41:03.086Z","","","","","","","","","","","","","","","","win-only","1","g1:NE,g2:SW","0.8","13","0","901647","764","5772","16927","1","4","4","6","1","1","1","54","53","0.4090909090909091","2786","3000","2455","[""up"",""right""]","{""num_key_presses"":4,""num_perfect"":4,""num_errors"":0,""num_randdir"":0,""num_randdir_good_moves"":0,""num_whilered"":0,""num_whileblue"":0,""num_blue"":0,""num_good_moves"":4}","[297.22857753208706,305.92857448032925,0,297.22857753208706,305.92857448032925,111,297.22857753208706,305.92857448032925,212,297.22857753208706,305.92857448032925,313,297.22857753208706,305.92857448032925,414,297.22857753208706,305.92857448032925,533,297.22857753208706,305.92857448032925,633,297.22857753208706,305.92857448032925,754,321.22857753208706,294.92857448032925,858,411.22857753208706,226.92857448032925,958,482.22857753208706,141.92857448032925,1059,499.22857753208706,118.92857448032925,1174,530.228577532087,93.92857448032925,1274,557.228577532087,64.92857448032925,1377,567.228577532087,56.92857448032924,1493,571.228577532087,52.92857448032924,1594,572.228577532087,51.92857448032924,1715,572.228577532087,51.92857448032924,1815,572.228577532087,51.92857448032924,1934,572.228577532087,51.92857448032924,2034,572.228577532087,51.92857448032924,2134,572.228577532087,51.92857448032924,2234,572.228577532087,51.92857448032924,2334,572.228577532087,51.92857448032924,2455,572.228577532087,51.92857448032924,2555,572.228577532087,51.92857448032924,2663,572.228577532087,51.92857448032924,2776,572.228577532087,51.92857448032924,2886,572.228577532087,51.92857448032924,2995,572.228577532087,51.92857448032924,3107,605.228577532087,95.92857448032925,3215,685.228577532087,148.92857448032925,3325,685.228577532087,148.92857448032925,3434,685.228577532087,148.92857448032925,3545,685.228577532087,148.92857448032925,3658,685.228577532087,148.92857448032925,3764,685.228577532087,148.92857448032925,3875,685.228577532087,148.92857448032925,3981,685.228577532087,148.92857448032925,4090,685.228577532087,148.92857448032925,4198,685.228577532087,148.92857448032925,4309,685.228577532087,148.92857448032925,4418,685.228577532087,148.92857448032925,4527,685.228577532087,148.92857448032925,4634,685.228577532087,148.92857448032925,4744,685.228577532087,148.92857448032925,4856,685.228577532087,148.92857448032925,4961]","[1422,1423,1000,0,423,""smooth"",""up"",""up"",""good_move"",4390,2967,2573.2,1423,393.8,""smooth"",""right"",""right"",""good_move"",7700,3310,2878,4390,432,""smooth"",""up"",""up"",""good_move"",10908,3208,2818.1,7700,389.9,""smooth"",""right"",""right"",""good_move""]"
"1987","","<div style=""width:500px;"">
  <p>What determined the result of this run?</p>
  </div>","95","html-slider-response","74","921257","0.0-7.0-1.12","237","1","2025-08-08 06:25:42","36c45c0696341be0efffe67d72a12abb","5.185.246.114","Mozilla/5.0 (Windows NT 10.0; Win64; x64; rv:141.0) Gecko/20100101 Firefox/141.0","","Firefox","141.0","Windows","10.0","https://app.prolific.com/","pl,en-US;q=0.7,en;q=0.3","5f0214e58782120a8c970fd6","6877649eabb845cf142cd221","6895985d0fdc14dc9e5a9c6a","1","5f0214e58782120a8c970fd6","1","2025-08-08T06:41:05.075Z","","","","AttribQ","","","","","","","","","","","50","","","","","","","","","","","","","","","","","","","","","","","","","","",""
"1446","","<div style=""width:500px;"">
  <p>How much control did you have over the ball?</p>
  </div>","100","html-slider-response","75","922705","0.0-7.0-2.12","237","1","2025-08-08 06:25:42","36c45c0696341be0efffe67d72a12abb","5.185.246.114","Mozilla/5.0 (Windows NT 10.0; Win64; x64; rv:141.0) Gecko/20100101 Firefox/141.0","","Firefox","141.0","Windows","10.0","https://app.prolific.com/","pl,en-US;q=0.7,en;q=0.3","5f0214e58782120a8c970fd6","6877649eabb845cf142cd221","6895985d0fdc14dc9e5a9c6a","1","5f0214e58782120a8c970fd6","1","2025-08-08T06:41:06.523Z","","","","ControlQ","","","","","","","","","","","50","","","","","","","","","","","","","","","","","","","","","","","","","","",""
"1239","","<div style=""width:500px;"">
  <p>How would you describe your current emotional state?</p>
  </div>","11","html-slider-response","76","923947","0.0-7.0-3.12","237","1","2025-08-08 06:25:42","36c45c0696341be0efffe67d72a12abb","5.185.246.114","Mozilla/5.0 (Windows NT 10.0; Win64; x64; rv:141.0) Gecko/20100101 Firefox/141.0","","Firefox","141.0","Windows","10.0","https://app.prolific.com/","pl,en-US;q=0.7,en;q=0.3","5f0214e58782120a8c970fd6","6877649eabb845cf142cd221","6895985d0fdc14dc9e5a9c6a","1","5f0214e58782120a8c970fd6","1","2025-08-08T06:41:07.765Z","","","","StressQ","","","","","","","","","","","50","","","","","","","","","","","","","","","","","","","","","","","","","","",""
"1537","","<div style=""width:500px;"">
  <p>What best describes how you currently feel?</p>
  </div>","95","html-slider-response","77","925486","0.0-7.0-4.12","237","1","2025-08-08 06:25:42","36c45c0696341be0efffe67d72a12abb","5.185.246.114","Mozilla/5.0 (Windows NT 10.0; Win64; x64; rv:141.0) Gecko/20100101 Firefox/141.0","","Firefox","141.0","Windows","10.0","https://app.prolific.com/","pl,en-US;q=0.7,en;q=0.3","5f0214e58782120a8c970fd6","6877649eabb845cf142cd221","6895985d0fdc14dc9e5a9c6a","1","5f0214e58782120a8c970fd6","1","2025-08-08T06:41:09.304Z","","","","MotivationQ","","","","","","","","","","","50","","","","","","","","","","","","","","","","","","","","","","","","","","",""
"","","","","ctl-task-cpt","78","959081","0.0-7.0-0.13","237","1","2025-08-08 06:25:42","36c45c0696341be0efffe67d72a12abb","5.185.246.114","Mozilla/5.0 (Windows NT 10.0; Win64; x64; rv:141.0) Gecko/20100101 Firefox/141.0","","Firefox","141.0","Windows","10.0","https://app.prolific.com/","pl,en-US;q=0.7,en;q=0.3","5f0214e58782120a8c970fd6","6877649eabb845cf142cd221","6895985d0fdc14dc9e5a9c6a","1","5f0214e58782120a8c970fd6","1","2025-08-08T06:41:42.899Z","","","","","","","","","","","","","","","","win-only","3","g1:SW,g2:NE","0.9","14","0","927807","504","5513","30569","1","4","8","6","2","8","7","61","54","0.4621212121212121","1075","3000","2415","[""up"",""right""]","{""num_key_presses"":6,""num_perfect"":5,""num_errors"":1,""num_randdir"":0,""num_randdir_good_moves"":0,""num_whilered"":0,""num_whileblue"":1,""num_blue"":3,""num_good_moves"":6}","[298.22857753208706,302.92857448032925,0,298.22857753208706,302.92857448032925,110,298.22857753208706,302.92857448032925,216,298.22857753208706,302.92857448032925,326,298.22857753208706,302.92857448032925,426,287.22857753208706,309.92857448032925,539,413.22857753208706,266.92857448032925,649,565.228577532087,148.92857448032925,756,574.228577532087,105.92857448032925,879,574.228577532087,69.92857448032925,997,570.228577532087,59.92857448032924,1099,570.228577532087,59.92857448032924,1211,570.228577532087,59.92857448032924,1318,799.228577532087,166.92857448032925,1429,839.228577532087,176.92857448032925,1546,839.228577532087,176.92857448032925,1659,839.228577532087,176.92857448032925,1768,839.228577532087,176.92857448032925,1875,839.228577532087,176.92857448032925,1990,839.228577532087,176.92857448032925,2097,839.228577532087,176.92857448032925,2207,839.228577532087,176.92857448032925,2317,839.228577532087,176.92857448032925,2425,839.228577532087,176.92857448032925,2527,839.228577532087,176.92857448032925,2630,839.228577532087,176.92857448032925,2744,839.228577532087,176.92857448032925,2845,839.228577532087,176.92857448032925,2951,839.228577532087,176.92857448032925,3059,839.228577532087,176.92857448032925,3167,839.228577532087,176.92857448032925,3278,839.228577532087,176.92857448032925,3393,839.228577532087,176.92857448032925,3505,839.228577532087,176.92857448032925,3614,839.228577532087,176.92857448032925,3725,839.228577532087,176.92857448032925,3840,839.228577532087,176.92857448032925,3951,839.228577532087,176.92857448032925,4060,839.228577532087,176.92857448032925,4167,839.228577532087,176.92857448032925,4292,839.228577532087,176.92857448032925,4398,839.228577532087,176.92857448032925,4514,839.228577532087,176.92857448032925,4624,839.228577532087,176.92857448032925,4728,839.228577532087,176.92857448032925,4835,839.228577532087,176.92857448032925,4941]","[1468,1468,1000,0,468,""smooth"",""up"",""up"",""good_move"",5123,3655,2733.4,1468,921.6,""smooth"",""up"",""up"",""good_move"",8756,3633,3309,5123,324,""while_blue"",""right"",""up"",""good_move"",12380,3624,2212.8,8756,1411.2,""smooth"",""right"",""right"",""good_move"",21238,8857,2140.1,18705,392.9,""smooth"",""right"",""right"",""good_move"",24711,3473,3009.9,21238,463.1,""smooth"",""right"",""right"",""good_move""]"
"1476","","<div style=""width:500px;"">
  <p>What determined the result of this run?</p>
  </div>","86","html-slider-response","79","960558","0.0-7.0-1.13","237","1","2025-08-08 06:25:42","36c45c0696341be0efffe67d72a12abb","5.185.246.114","Mozilla/5.0 (Windows NT 10.0; Win64; x64; rv:141.0) Gecko/20100101 Firefox/141.0","","Firefox","141.0","Windows","10.0","https://app.prolific.com/","pl,en-US;q=0.7,en;q=0.3","5f0214e58782120a8c970fd6","6877649eabb845cf142cd221","6895985d0fdc14dc9e5a9c6a","1","5f0214e58782120a8c970fd6","1","2025-08-08T06:41:44.376Z","","","","AttribQ","","","","","","","","","","","50","","","","","","","","","","","","","","","","","","","","","","","","","","",""
"1428","","<div style=""width:500px;"">
  <p>How much control did you have over the ball?</p>
  </div>","87","html-slider-response","80","961990","0.0-7.0-2.13","237","1","2025-08-08 06:25:42","36c45c0696341be0efffe67d72a12abb","5.185.246.114","Mozilla/5.0 (Windows NT 10.0; Win64; x64; rv:141.0) Gecko/20100101 Firefox/141.0","","Firefox","141.0","Windows","10.0","https://app.prolific.com/","pl,en-US;q=0.7,en;q=0.3","5f0214e58782120a8c970fd6","6877649eabb845cf142cd221","6895985d0fdc14dc9e5a9c6a","1","5f0214e58782120a8c970fd6","1","2025-08-08T06:41:45.808Z","","","","ControlQ","","","","","","","","","","","50","","","","","","","","","","","","","","","","","","","","","","","","","","",""
"1636","","<div style=""width:500px;"">
  <p>How would you describe your current emotional state?</p>
  </div>","9","html-slider-response","81","963627","0.0-7.0-3.13","237","1","2025-08-08 06:25:42","36c45c0696341be0efffe67d72a12abb","5.185.246.114","Mozilla/5.0 (Windows NT 10.0; Win64; x64; rv:141.0) Gecko/20100101 Firefox/141.0","","Firefox","141.0","Windows","10.0","https://app.prolific.com/","pl,en-US;q=0.7,en;q=0.3","5f0214e58782120a8c970fd6","6877649eabb845cf142cd221","6895985d0fdc14dc9e5a9c6a","1","5f0214e58782120a8c970fd6","1","2025-08-08T06:41:47.445Z","","","","StressQ","","","","","","","","","","","50","","","","","","","","","","","","","","","","","","","","","","","","","","",""
"1540","","<div style=""width:500px;"">
  <p>What best describes how you currently feel?</p>
  </div>","94","html-slider-response","82","965169","0.0-7.0-4.13","237","1","2025-08-08 06:25:42","36c45c0696341be0efffe67d72a12abb","5.185.246.114","Mozilla/5.0 (Windows NT 10.0; Win64; x64; rv:141.0) Gecko/20100101 Firefox/141.0","","Firefox","141.0","Windows","10.0","https://app.prolific.com/","pl,en-US;q=0.7,en;q=0.3","5f0214e58782120a8c970fd6","6877649eabb845cf142cd221","6895985d0fdc14dc9e5a9c6a","1","5f0214e58782120a8c970fd6","1","2025-08-08T06:41:48.987Z","","","","MotivationQ","","","","","","","","","","","50","","","","","","","","","","","","","","","","","","","","","","","","","","",""
