"rt","response_timestamp","stimulus","response","trial_type","trial_index","time_elapsed","internal_node_id","run_id","condition","recorded_at","source_code_version","ip","user_agent","device","browser","browser_version","platform","platform_version","referer","accept_language","PROLIFIC_PID","STUDY_ID","SESSION_ID","BATCH","prolific_id","batch","realtime","success","question_order","question_id","eventType","responses","item_order","radio_event_ids","radio_event_times","key_event_times","mouse_event_times","straightlining","zigzagging","honeypot","view_history","slider_start","which_type","canvas_config","goals_layout","control_level","trial_number","tutorial_trial_number","trial_start_time","phase1_start_time","phase2_start_time","phase3_start_time","goal_1_value","goal_1_distance","goal_2_value","goal_2_distance","goal_selected","outcome","outcome_total","participant_final_score","participant_initial_score","participant_final_score_prop","goal_choice_rt","allocated_time","allocated_time_remaining","goal_direction","counts","mouse_movements","key_presses"
"20939","1753865272247","<p style='font-size:40px;line-height:1.25'><strong>Welcome to the experiment!</strong></p><p style='font-size:1.1em;line-height:1.25'>Thank you for participanting in our experiment again! You will be asked to play the Dysfunctional Ball Game again. We will briefly recap the rules before we start.</p><p style='font-size:1.1em;line-height:1.25'>Press <strong>Next</strong> to continue.</p>","0","custom-html-button-response","0","20942","0.0-0.0","54","1","2025-07-30 08:47:28","36c45c0696341be0efffe67d72a12abb","91.94.108.50","Mozilla/5.0 (Windows NT 10.0; Win64; x64) AppleWebKit/537.36 (KHTML, like Gecko) Chrome/138.0.0.0 Safari/537.36","WebKit","Chrome","138.0.0.0","Windows","10.0","https://app.prolific.com/","pl-PL,pl;q=0.9,en-US;q=0.8,en;q=0.7","5f06eefaf3fc742667b4e79d","687a19d2168e237449fb8af4","6889dba1374a60489dc977e4","0","5f06eefaf3fc742667b4e79d","0","2025-07-30T08:47:52.249Z","","","","","","","","","","","","","","","","","","","","","","","","","","","","","","","","","","","","","","","","","",""
"22901","","","","fullscreen","1","44854","0.0-1.0","54","1","2025-07-30 08:47:28","36c45c0696341be0efffe67d72a12abb","91.94.108.50","Mozilla/5.0 (Windows NT 10.0; Win64; x64) AppleWebKit/537.36 (KHTML, like Gecko) Chrome/138.0.0.0 Safari/537.36","WebKit","Chrome","138.0.0.0","Windows","10.0","https://app.prolific.com/","pl-PL,pl;q=0.9,en-US;q=0.8,en;q=0.7","5f06eefaf3fc742667b4e79d","687a19d2168e237449fb8af4","6889dba1374a60489dc977e4","0","5f06eefaf3fc742667b4e79d","0","","true","","","","","","","","","","","","","","","","","","","","","","","","","","","","","","","","","","","","","","","","",""
"6500","1753865302665"," <p style='font-size:1.1em;line-height:1.25'>Thank you for closing all other tabs.</p><p style='font-size:1.1em;line-height:1.25'>We will now invite you to fill in some questionnaires, before starting the game.<br>This will take about 5 minutes.<br></p><p style='font-size:1.1em;line-height:1.25'>Press the <strong>Next</strong> button to continue.</p>","0","custom-html-button-response","2","51359","0.0-2.0","54","1","2025-07-30 08:47:28","36c45c0696341be0efffe67d72a12abb","91.94.108.50","Mozilla/5.0 (Windows NT 10.0; Win64; x64) AppleWebKit/537.36 (KHTML, like Gecko) Chrome/138.0.0.0 Safari/537.36","WebKit","Chrome","138.0.0.0","Windows","10.0","https://app.prolific.com/","pl-PL,pl;q=0.9,en-US;q=0.8,en;q=0.7","5f06eefaf3fc742667b4e79d","687a19d2168e237449fb8af4","6889dba1374a60489dc977e4","0","5f06eefaf3fc742667b4e79d","0","2025-07-30T08:48:22.667Z","","","","","","","","","","","","","","","","","","","","","","","","","","","","","","","","","","","","","","","","","",""
"3601","","","{""assigned_sex"":""male""}","survey-multi-choice","3","54968","0.0-3.0-0.0","54","1","2025-07-30 08:47:28","36c45c0696341be0efffe67d72a12abb","91.94.108.50","Mozilla/5.0 (Windows NT 10.0; Win64; x64) AppleWebKit/537.36 (KHTML, like Gecko) Chrome/138.0.0.0 Safari/537.36","WebKit","Chrome","138.0.0.0","Windows","10.0","https://app.prolific.com/","pl-PL,pl;q=0.9,en-US;q=0.8,en;q=0.7","5f06eefaf3fc742667b4e79d","687a19d2168e237449fb8af4","6889dba1374a60489dc977e4","0","5f06eefaf3fc742667b4e79d","0","","","[0]","0","demographics","","","","","","","","","","","","","","","","","","","","","","","","","","","","","","","","","","","","","",""
"3854","1753865310131","<p style='font-size:1.1em;line-height:1.25'>In the following, we will perform a baseline assessment. This means that we will ask you a few questions relating to your experiences over the past month.<br></p><p style='font-size:1.1em;line-height:1.25'>Press the <strong>Next</strong> button to continue.</p>","0","custom-html-button-response","4","58825","0.0-4.0-0.0","54","1","2025-07-30 08:47:28","36c45c0696341be0efffe67d72a12abb","91.94.108.50","Mozilla/5.0 (Windows NT 10.0; Win64; x64) AppleWebKit/537.36 (KHTML, like Gecko) Chrome/138.0.0.0 Safari/537.36","WebKit","Chrome","138.0.0.0","Windows","10.0","https://app.prolific.com/","pl-PL,pl;q=0.9,en-US;q=0.8,en;q=0.7","5f06eefaf3fc742667b4e79d","687a19d2168e237449fb8af4","6889dba1374a60489dc977e4","0","5f06eefaf3fc742667b4e79d","0","2025-07-30T08:48:30.132Z","","","","","","","","","","","","","","","","","","","","","","","","","","","","","","","","","","","","","","","","","",""
"39008.90000003576","","","","survey-template","5","97851","0.0-4.0-1.0","54","1","2025-07-30 08:47:28","36c45c0696341be0efffe67d72a12abb","91.94.108.50","Mozilla/5.0 (Windows NT 10.0; Win64; x64) AppleWebKit/537.36 (KHTML, like Gecko) Chrome/138.0.0.0 Safari/537.36","WebKit","Chrome","138.0.0.0","Windows","10.0","https://app.prolific.com/","pl-PL,pl;q=0.9,en-US;q=0.8,en;q=0.7","5f06eefaf3fc742667b4e79d","687a19d2168e237449fb8af4","6889dba1374a60489dc977e4","0","5f06eefaf3fc742667b4e79d","0","2025-07-30T08:49:09.158Z","","","","pss","{""Q01"":""1"",""Q02"":""1"",""Q03"":""2"",""Q04"":""1"",""Q05"":""1"",""Q06"":""2"",""Q07"":""2"",""Q08"":""2"",""Q09"":""1"",""Q10"":""1""}","[0,1,2,3,4,5,6,7,8,9]","[""Q01"",""Q02"",""Q03"",""Q04"",""Q05"",""Q06"",""Q07"",""Q08"",""Q09"",""Q10""]","[6324.900000035763,9047.5,12700.400000035763,19084.200000047684,20245.100000023842,24092,27608.30000001192,30363.80000001192,34591,37800.90000003576]","[]","[0.30000001192092896,6324.900000035763,9047.5,12700.400000035763,16428.100000023842,19084.200000047684,20245.100000023842,24092,27608.30000001192,30363.80000001192,34591,37800.90000003576,38995.90000003576]","0.4","0.4444444444444444","0","","","","","","","","","","","","","","","","","","","","","","","","","","","","",""
"3772","1753865352934","<p style='font-size:1.1em;line-height:1.25'>Thank you for your answers! Now we will ask you a few more questions relating to your feelings in the last 24 hours.<br></p><p style='font-size:1.1em;line-height:1.25'>Press the <strong>Next</strong> button to continue.</p>","0","custom-html-button-response","6","101627","0.0-4.0-2.0","54","1","2025-07-30 08:47:28","36c45c0696341be0efffe67d72a12abb","91.94.108.50","Mozilla/5.0 (Windows NT 10.0; Win64; x64) AppleWebKit/537.36 (KHTML, like Gecko) Chrome/138.0.0.0 Safari/537.36","WebKit","Chrome","138.0.0.0","Windows","10.0","https://app.prolific.com/","pl-PL,pl;q=0.9,en-US;q=0.8,en;q=0.7","5f06eefaf3fc742667b4e79d","687a19d2168e237449fb8af4","6889dba1374a60489dc977e4","0","5f06eefaf3fc742667b4e79d","0","2025-07-30T08:49:12.934Z","","","","","","","","","","","","","","","","","","","","","","","","","","","","","","","","","","","","","","","","","",""
"67924.30000001192","","","","survey-template","7","169558","0.0-4.0-3.0","54","1","2025-07-30 08:47:28","36c45c0696341be0efffe67d72a12abb","91.94.108.50","Mozilla/5.0 (Windows NT 10.0; Win64; x64) AppleWebKit/537.36 (KHTML, like Gecko) Chrome/138.0.0.0 Safari/537.36","WebKit","Chrome","138.0.0.0","Windows","10.0","https://app.prolific.com/","pl-PL,pl;q=0.9,en-US;q=0.8,en;q=0.7","5f06eefaf3fc742667b4e79d","687a19d2168e237449fb8af4","6889dba1374a60489dc977e4","0","5f06eefaf3fc742667b4e79d","0","2025-07-30T08:50:20.866Z","","","","drsp","{""Q01"":""0"",""Q02"":""0"",""Q03"":""0"",""Q04"":""1"",""Q05"":""1"",""Q06"":""1"",""Q07"":""0"",""Q08"":""0"",""Q09"":""1"",""Q10"":""0"",""Q11"":""0"",""Q12"":""0"",""Q13"":""5"",""Q14"":""3"",""Q15"":""1"",""Q16"":""0"",""Q17"":""0"",""Q18"":""0"",""Q19"":""0"",""Q20"":""0"",""Q21"":""0"",""Q22"":""0""}","[0,1,2,3,4,5,6,7,8,9,10,11,12,13,14,15,16,17,18,19,20,21]","[""Q01"",""Q02"",""Q03"",""Q04"",""Q05"",""Q06"",""Q07"",""Q08"",""Q09"",""Q10"",""Q11"",""Q12"",""Q13"",""Q14"",""Q14"",""Q14"",""Q15"",""Q17"",""Q16"",""Q18"",""Q19"",""Q20"",""Q21"",""Q22""]","[4885.300000011921,6192.699999988079,7677.300000011921,9715.400000035763,13416.600000023842,14747.400000035763,16274.400000035763,18145.100000023842,20970.30000001192,23044.69999998808,24643.100000023842,25853.80000001192,28524.400000035763,39410.40000003576,44629.90000003576,46069.5,48643,54092.60000002384,54664.5,56365.19999998808,58207.69999998808,62814.10000002384,63805.80000001192,66495.30000001192]","[]","[0.10000002384185791,4885.300000011921,6192.699999988079,7677.300000011921,9715.400000035763,11505.199999988079,13416.600000023842,14747.400000035763,16274.400000035763,18145.100000023842,20970.30000001192,23044.69999998808,24643.100000023842,25853.80000001192,28524.400000035763,34079.80000001192,35313.69999998808,37218,39410.40000003576,44629.90000003576,46069.5,48643,52794.10000002384,54092.60000002384,54664.5,56365.19999998808,58207.69999998808,60794.5,62814.10000002384,63805.80000001192,66495.30000001192,67918.40000003576]","0.6818181818181818","0.2857142857142857","0","","","","","","","","","","","","","","","","","","","","","","","","","","","","",""
"18449","","","","survey-template","8","188010","0.0-4.0-4.0","54","1","2025-07-30 08:47:28","36c45c0696341be0efffe67d72a12abb","91.94.108.50","Mozilla/5.0 (Windows NT 10.0; Win64; x64) AppleWebKit/537.36 (KHTML, like Gecko) Chrome/138.0.0.0 Safari/537.36","WebKit","Chrome","138.0.0.0","Windows","10.0","https://app.prolific.com/","pl-PL,pl;q=0.9,en-US;q=0.8,en;q=0.7","5f06eefaf3fc742667b4e79d","687a19d2168e237449fb8af4","6889dba1374a60489dc977e4","0","5f06eefaf3fc742667b4e79d","0","2025-07-30T08:50:39.317Z","","","","stress","{""Q01"":""0"",""Q02"":""1"",""Q03"":""1""}","[0,1,2]","[""Q01"",""Q02"",""Q03""]","[5619.5,13572.699999988079,17151.399999976158]","[]","[4039.199999988079,5619.5,8868.599999964237,9808.5,12163,13572.699999988079,17151.399999976158,18447.399999976158]","0.3333333333333333","0","0","","","","","","","","","","","","","","","","","","","","","","","","","","","","",""
"42418","","","","instructions","9","230430","0.0-5.0-0.0","54","1","2025-07-30 08:47:28","36c45c0696341be0efffe67d72a12abb","91.94.108.50","Mozilla/5.0 (Windows NT 10.0; Win64; x64) AppleWebKit/537.36 (KHTML, like Gecko) Chrome/138.0.0.0 Safari/537.36","WebKit","Chrome","138.0.0.0","Windows","10.0","https://app.prolific.com/","pl-PL,pl;q=0.9,en-US;q=0.8,en;q=0.7","5f06eefaf3fc742667b4e79d","687a19d2168e237449fb8af4","6889dba1374a60489dc977e4","0","5f06eefaf3fc742667b4e79d","0","","","","","","","","","","","","","","","[{""page_index"":0,""viewing_time"":42417}]","","","","","","","","","","","","","","","","","","","","","","","","","","","",""
"11346","","<p>Before you start with this game please answer the following three questions yourself. </p>
  <p>Through this game, we measure several aspects of your cognitive performance, such as reaction times, multi-tasking capabilities </p>
  <p>and the ability to assess the situation you are in.</p>
  <p></p>
  <p><b>How good do you usually are in such tasks?</b></p>","88","html-slider-response","10","241791","0.0-6.0-0.0","54","1","2025-07-30 08:47:28","36c45c0696341be0efffe67d72a12abb","91.94.108.50","Mozilla/5.0 (Windows NT 10.0; Win64; x64) AppleWebKit/537.36 (KHTML, like Gecko) Chrome/138.0.0.0 Safari/537.36","WebKit","Chrome","138.0.0.0","Windows","10.0","https://app.prolific.com/","pl-PL,pl;q=0.9,en-US;q=0.8,en;q=0.7","5f06eefaf3fc742667b4e79d","687a19d2168e237449fb8af4","6889dba1374a60489dc977e4","0","5f06eefaf3fc742667b4e79d","0","2025-07-30T08:51:33.098Z","","","","PreSkillQ","","","","","","","","","","","50","","","","","","","","","","","","","","","","","","","","","","","","","","",""
"4520","","<div style=""width:500px;"">
  <p>How well do you think you will perform in this task compared to other participants?</p>
  </div>","78","html-slider-response","11","246318","0.0-6.0-1.0","54","1","2025-07-30 08:47:28","36c45c0696341be0efffe67d72a12abb","91.94.108.50","Mozilla/5.0 (Windows NT 10.0; Win64; x64) AppleWebKit/537.36 (KHTML, like Gecko) Chrome/138.0.0.0 Safari/537.36","WebKit","Chrome","138.0.0.0","Windows","10.0","https://app.prolific.com/","pl-PL,pl;q=0.9,en-US;q=0.8,en;q=0.7","5f06eefaf3fc742667b4e79d","687a19d2168e237449fb8af4","6889dba1374a60489dc977e4","0","5f06eefaf3fc742667b4e79d","0","2025-07-30T08:51:37.625Z","","","","PrePerfQ","","","","","","","","","","","50","","","","","","","","","","","","","","","","","","","","","","","","","","",""
"4916","","<div style=""width:500px;"">
  <p>What best describes how you currently feel?</p>
  </div>","84","html-slider-response","12","251239","0.0-6.0-2.0","54","1","2025-07-30 08:47:28","36c45c0696341be0efffe67d72a12abb","91.94.108.50","Mozilla/5.0 (Windows NT 10.0; Win64; x64) AppleWebKit/537.36 (KHTML, like Gecko) Chrome/138.0.0.0 Safari/537.36","WebKit","Chrome","138.0.0.0","Windows","10.0","https://app.prolific.com/","pl-PL,pl;q=0.9,en-US;q=0.8,en;q=0.7","5f06eefaf3fc742667b4e79d","687a19d2168e237449fb8af4","6889dba1374a60489dc977e4","0","5f06eefaf3fc742667b4e79d","0","2025-07-30T08:51:42.546Z","","","","PreMotivationQ","","","","","","","","","","","50","","","","","","","","","","","","","","","","","","","","","","","","","","",""
"","","","","ctl-task-cpt","13","282308","0.0-7.0-0.0","54","1","2025-07-30 08:47:28","36c45c0696341be0efffe67d72a12abb","91.94.108.50","Mozilla/5.0 (Windows NT 10.0; Win64; x64) AppleWebKit/537.36 (KHTML, like Gecko) Chrome/138.0.0.0 Safari/537.36","WebKit","Chrome","138.0.0.0","Windows","10.0","https://app.prolific.com/","pl-PL,pl;q=0.9,en-US;q=0.8,en;q=0.7","5f06eefaf3fc742667b4e79d","687a19d2168e237449fb8af4","6889dba1374a60489dc977e4","0","5f06eefaf3fc742667b4e79d","0","2025-07-30T08:52:13.616Z","","","","","","","","","","","","","","","","win-only","3","g1:SW,g2:NE","1","1","0","254107.1","4265.8","9268.6","28042.3","1","4","8","6","2","8","8","8","0","0.06060606060606061","1342.4","3000","1385","[""up"",""right""]","{""num_key_presses"":6,""num_perfect"":6,""num_errors"":0,""num_randdir"":0,""num_randdir_good_moves"":0,""num_whilered"":0,""num_whileblue"":0,""num_blue"":1,""num_good_moves"":6}","[416.57142857142856,423.6808016640799,1.4,416.57142857142856,423.6808016640799,102.7,416.57142857142856,423.6808016640799,209.4,416.57142857142856,423.6808016640799,318.4,416.57142857142856,423.6808016640799,420.2,416.57142857142856,423.6808016640799,527.4,416.57142857142856,423.6808016640799,635.3,431.57142857142856,410.1808016640799,737.4,707.5714285714286,164.18080166407992,842.2,764.5714285714286,117.68080166407994,947.4,782.5714285714286,95.18080166407994,1051.7,782.5714285714286,89.18080166407994,1153.6,782.5714285714286,89.18080166407994,1259.5,782.5714285714286,89.18080166407994,1366.2,782.5714285714286,89.18080166407994,1470.4,782.5714285714286,89.18080166407994,1571.2,782.5714285714286,89.18080166407994,1680.7,782.5714285714286,89.18080166407994,1786.3,782.5714285714286,89.18080166407994,1886.6,782.5714285714286,89.18080166407994,1995.9,782.5714285714286,89.18080166407994,2102.4,782.5714285714286,89.18080166407994,2202.7,782.5714285714286,89.18080166407994,2306.1,782.5714285714286,89.18080166407994,2411.2,782.5714285714286,89.18080166407994,2519.2,782.5714285714286,89.18080166407994,2625.7,782.5714285714286,89.18080166407994,2732,782.5714285714286,89.18080166407994,2837,782.5714285714286,89.18080166407994,2942.2,782.5714285714286,89.18080166407994,3042.3,782.5714285714286,89.18080166407994,3145.6,782.5714285714286,89.18080166407994,3245.6,782.5714285714286,89.18080166407994,3350.5,782.5714285714286,89.18080166407994,3458.5,782.5714285714286,89.18080166407994,3560.7,782.5714285714286,89.18080166407994,3662.3,782.5714285714286,89.18080166407994,3768.8,782.5714285714286,89.18080166407994,3874.4,782.5714285714286,89.18080166407994,3975.9,782.5714285714286,89.18080166407994,4077.5,782.5714285714286,89.18080166407994,4184.5,782.5714285714286,89.18080166407994,4290.4,782.5714285714286,89.18080166407994,4391.5,782.5714285714286,89.18080166407994,4496.5,782.5714285714286,89.18080166407994,4600.3,782.5714285714286,89.18080166407994,4708.9,782.5714285714286,89.18080166407994,4810.2,782.5714285714286,89.18080166407994,4919.2]","[4338.1,4338,1895.7,2003.5,438.9,""smooth"",""up"",""up"",""good_move"",7705.9,3363.3,2965,4342.7,398.2,""smooth"",""right"",""right"",""good_move"",10616.3,2906.8,2557.3,7709.5,349.5,""smooth"",""right"",""right"",""good_move"",13466.8,2849.5,2471.7,10617.5,377.8,""smooth"",""right"",""right"",""good_move"",16343.5,2873,2459.3,13470.6,413.6,""smooth"",""up"",""up"",""good_move"",18640.8,2296.3,1862.1,16345,433.8,""smooth"",""up"",""up"",""good_move""]"
"5641","","<div style=""width:500px;"">
  <p>What determined the result of this run?</p>
  </div>","95","html-slider-response","14","287954","0.0-7.0-1.0","54","1","2025-07-30 08:47:28","36c45c0696341be0efffe67d72a12abb","91.94.108.50","Mozilla/5.0 (Windows NT 10.0; Win64; x64) AppleWebKit/537.36 (KHTML, like Gecko) Chrome/138.0.0.0 Safari/537.36","WebKit","Chrome","138.0.0.0","Windows","10.0","https://app.prolific.com/","pl-PL,pl;q=0.9,en-US;q=0.8,en;q=0.7","5f06eefaf3fc742667b4e79d","687a19d2168e237449fb8af4","6889dba1374a60489dc977e4","0","5f06eefaf3fc742667b4e79d","0","2025-07-30T08:52:19.262Z","","","","AttribQ","","","","","","","","","","","50","","","","","","","","","","","","","","","","","","","","","","","","","","",""
"4229","","<div style=""width:500px;"">
  <p>How much control did you have over the ball?</p>
  </div>","95","html-slider-response","15","292193","0.0-7.0-2.0","54","1","2025-07-30 08:47:28","36c45c0696341be0efffe67d72a12abb","91.94.108.50","Mozilla/5.0 (Windows NT 10.0; Win64; x64) AppleWebKit/537.36 (KHTML, like Gecko) Chrome/138.0.0.0 Safari/537.36","WebKit","Chrome","138.0.0.0","Windows","10.0","https://app.prolific.com/","pl-PL,pl;q=0.9,en-US;q=0.8,en;q=0.7","5f06eefaf3fc742667b4e79d","687a19d2168e237449fb8af4","6889dba1374a60489dc977e4","0","5f06eefaf3fc742667b4e79d","0","2025-07-30T08:52:23.500Z","","","","ControlQ","","","","","","","","","","","50","","","","","","","","","","","","","","","","","","","","","","","","","","",""
"6527","","<div style=""width:500px;"">
  <p>How would you describe your current emotional state?</p>
  </div>","41","html-slider-response","16","298736","0.0-7.0-3.0","54","1","2025-07-30 08:47:28","36c45c0696341be0efffe67d72a12abb","91.94.108.50","Mozilla/5.0 (Windows NT 10.0; Win64; x64) AppleWebKit/537.36 (KHTML, like Gecko) Chrome/138.0.0.0 Safari/537.36","WebKit","Chrome","138.0.0.0","Windows","10.0","https://app.prolific.com/","pl-PL,pl;q=0.9,en-US;q=0.8,en;q=0.7","5f06eefaf3fc742667b4e79d","687a19d2168e237449fb8af4","6889dba1374a60489dc977e4","0","5f06eefaf3fc742667b4e79d","0","2025-07-30T08:52:30.043Z","","","","StressQ","","","","","","","","","","","50","","","","","","","","","","","","","","","","","","","","","","","","","","",""
"5386","","<div style=""width:500px;"">
  <p>What best describes how you currently feel?</p>
  </div>","72","html-slider-response","17","304134","0.0-7.0-4.0","54","1","2025-07-30 08:47:28","36c45c0696341be0efffe67d72a12abb","91.94.108.50","Mozilla/5.0 (Windows NT 10.0; Win64; x64) AppleWebKit/537.36 (KHTML, like Gecko) Chrome/138.0.0.0 Safari/537.36","WebKit","Chrome","138.0.0.0","Windows","10.0","https://app.prolific.com/","pl-PL,pl;q=0.9,en-US;q=0.8,en;q=0.7","5f06eefaf3fc742667b4e79d","687a19d2168e237449fb8af4","6889dba1374a60489dc977e4","0","5f06eefaf3fc742667b4e79d","0","2025-07-30T08:52:35.442Z","","","","MotivationQ","","","","","","","","","","","50","","","","","","","","","","","","","","","","","","","","","","","","","","",""
"","","","","ctl-task-cpt","18","342980","0.0-7.0-0.1","54","1","2025-07-30 08:47:28","36c45c0696341be0efffe67d72a12abb","91.94.108.50","Mozilla/5.0 (Windows NT 10.0; Win64; x64) AppleWebKit/537.36 (KHTML, like Gecko) Chrome/138.0.0.0 Safari/537.36","WebKit","Chrome","138.0.0.0","Windows","10.0","https://app.prolific.com/","pl-PL,pl;q=0.9,en-US;q=0.8,en;q=0.7","5f06eefaf3fc742667b4e79d","687a19d2168e237449fb8af4","6889dba1374a60489dc977e4","0","5f06eefaf3fc742667b4e79d","0","2025-07-30T08:53:14.287Z","","","","","","","","","","","","","","","","win-only","0","g1:NW,g2:SE","0.9","2","0","306996.6","2023.8","7025","35826.9","1","4","4","6","2","4","4","12","8","0.09090909090909091","1680.6","3000","940","[""down"",""right""]","{""num_key_presses"":8,""num_perfect"":7,""num_errors"":0,""num_randdir"":1,""num_randdir_good_moves"":0,""num_whilered"":0,""num_whileblue"":0,""num_blue"":2,""num_good_moves"":7}","[419.57142857142856,419.1808016640799,1.4,419.57142857142856,419.1808016640799,111.2,419.57142857142856,419.1808016640799,227.6,419.57142857142856,419.1808016640799,337.3,419.57142857142856,419.1808016640799,441.7,419.57142857142856,419.1808016640799,547.7,419.57142857142856,419.1808016640799,647.9,517.0714285714286,503.1808016640799,781.4,613.0714285714286,602.1808016640799,889,638.5714285714286,626.1808016640799,990.1,668.5714285714286,710.1808016640799,1091,713.5714285714286,746.1808016640799,1194.7,737.5714285714286,752.1808016640799,1301.9,743.5714285714286,752.1808016640799,1403.6,743.5714285714286,753.6808016640799,1509.5,743.5714285714286,753.6808016640799,1612.7,743.5714285714286,753.6808016640799,1718.4,743.5714285714286,753.6808016640799,1824.2,743.5714285714286,753.6808016640799,1928.9,743.5714285714286,753.6808016640799,2029.4,743.5714285714286,753.6808016640799,2132.8,743.5714285714286,753.6808016640799,2234.6,812.5714285714286,759.6808016640799,2340.8,994.0714285714286,755.1808016640799,2444.4,994.0714285714286,755.1808016640799,2548.7,994.0714285714286,755.1808016640799,2649.1,994.0714285714286,755.1808016640799,2750.3,994.0714285714286,755.1808016640799,2852.7,994.0714285714286,755.1808016640799,2957.7,994.0714285714286,755.1808016640799,3060.4,994.0714285714286,755.1808016640799,3165.8,994.0714285714286,755.1808016640799,3272.8,994.0714285714286,755.1808016640799,3377.7,994.0714285714286,755.1808016640799,3478.6,994.0714285714286,755.1808016640799,3582.3,994.0714285714286,755.1808016640799,3688.6,994.0714285714286,755.1808016640799,3794.8,994.0714285714286,755.1808016640799,3899.3,994.0714285714286,755.1808016640799,4007,994.0714285714286,755.1808016640799,4107.2,994.0714285714286,755.1808016640799,4209.8,994.0714285714286,755.1808016640799,4312.4,994.0714285714286,755.1808016640799,4412.6,994.0714285714286,755.1808016640799,4516.5,994.0714285714286,755.1808016640799,4624,994.0714285714286,755.1808016640799,4727.5,994.0714285714286,755.1808016640799,4832.9,994.0714285714286,755.1808016640799,4937.9]","[9081.3,9081.3,3197.4,5471.4,412.5,""smooth"",""down"",""down"",""good_move"",12480.7,3397,3071.9,9083.7,325.2,""smooth"",""down"",""down"",""good_move"",14965.7,2483.2,2037.3,12482.6,445.8,""oops"",""right"",""up"",""bad_move"",17313.7,2344.5,1985.7,14969.2,358.8,""smooth"",""right"",""right"",""good_move"",20446.5,3129.1,2792.7,17317.5,336.3,""smooth"",""right"",""right"",""good_move"",22966.2,2518.4,2152.8,20447.9,365.5,""smooth"",""right"",""right"",""good_move"",26030.8,3061.5,2713.6,22969.9,347.4,""smooth"",""down"",""down"",""good_move"",28679.5,2647,2283,26032.5,364,""smooth"",""down"",""down"",""good_move""]"
"4311","","<div style=""width:500px;"">
  <p>What determined the result of this run?</p>
  </div>","50","html-slider-response","19","347294","0.0-7.0-1.1","54","1","2025-07-30 08:47:28","36c45c0696341be0efffe67d72a12abb","91.94.108.50","Mozilla/5.0 (Windows NT 10.0; Win64; x64) AppleWebKit/537.36 (KHTML, like Gecko) Chrome/138.0.0.0 Safari/537.36","WebKit","Chrome","138.0.0.0","Windows","10.0","https://app.prolific.com/","pl-PL,pl;q=0.9,en-US;q=0.8,en;q=0.7","5f06eefaf3fc742667b4e79d","687a19d2168e237449fb8af4","6889dba1374a60489dc977e4","0","5f06eefaf3fc742667b4e79d","0","2025-07-30T08:53:18.603Z","","","","AttribQ","","","","","","","","","","","50","","","","","","","","","","","","","","","","","","","","","","","","","","",""
"3134","","<div style=""width:500px;"">
  <p>How much control did you have over the ball?</p>
  </div>","64","html-slider-response","20","350436","0.0-7.0-2.1","54","1","2025-07-30 08:47:28","36c45c0696341be0efffe67d72a12abb","91.94.108.50","Mozilla/5.0 (Windows NT 10.0; Win64; x64) AppleWebKit/537.36 (KHTML, like Gecko) Chrome/138.0.0.0 Safari/537.36","WebKit","Chrome","138.0.0.0","Windows","10.0","https://app.prolific.com/","pl-PL,pl;q=0.9,en-US;q=0.8,en;q=0.7","5f06eefaf3fc742667b4e79d","687a19d2168e237449fb8af4","6889dba1374a60489dc977e4","0","5f06eefaf3fc742667b4e79d","0","2025-07-30T08:53:21.744Z","","","","ControlQ","","","","","","","","","","","50","","","","","","","","","","","","","","","","","","","","","","","","","","",""
"4935","","<div style=""width:500px;"">
  <p>How would you describe your current emotional state?</p>
  </div>","39","html-slider-response","21","355377","0.0-7.0-3.1","54","1","2025-07-30 08:47:28","36c45c0696341be0efffe67d72a12abb","91.94.108.50","Mozilla/5.0 (Windows NT 10.0; Win64; x64) AppleWebKit/537.36 (KHTML, like Gecko) Chrome/138.0.0.0 Safari/537.36","WebKit","Chrome","138.0.0.0","Windows","10.0","https://app.prolific.com/","pl-PL,pl;q=0.9,en-US;q=0.8,en;q=0.7","5f06eefaf3fc742667b4e79d","687a19d2168e237449fb8af4","6889dba1374a60489dc977e4","0","5f06eefaf3fc742667b4e79d","0","2025-07-30T08:53:26.684Z","","","","StressQ","","","","","","","","","","","50","","","","","","","","","","","","","","","","","","","","","","","","","","",""
"3797","","<div style=""width:500px;"">
  <p>What best describes how you currently feel?</p>
  </div>","58","html-slider-response","22","359188","0.0-7.0-4.1","54","1","2025-07-30 08:47:28","36c45c0696341be0efffe67d72a12abb","91.94.108.50","Mozilla/5.0 (Windows NT 10.0; Win64; x64) AppleWebKit/537.36 (KHTML, like Gecko) Chrome/138.0.0.0 Safari/537.36","WebKit","Chrome","138.0.0.0","Windows","10.0","https://app.prolific.com/","pl-PL,pl;q=0.9,en-US;q=0.8,en;q=0.7","5f06eefaf3fc742667b4e79d","687a19d2168e237449fb8af4","6889dba1374a60489dc977e4","0","5f06eefaf3fc742667b4e79d","0","2025-07-30T08:53:30.496Z","","","","MotivationQ","","","","","","","","","","","50","","","","","","","","","","","","","","","","","","","","","","","","","","",""
"","","","","ctl-task-cpt","23","396745","0.0-7.0-0.2","54","1","2025-07-30 08:47:28","36c45c0696341be0efffe67d72a12abb","91.94.108.50","Mozilla/5.0 (Windows NT 10.0; Win64; x64) AppleWebKit/537.36 (KHTML, like Gecko) Chrome/138.0.0.0 Safari/537.36","WebKit","Chrome","138.0.0.0","Windows","10.0","https://app.prolific.com/","pl-PL,pl;q=0.9,en-US;q=0.8,en;q=0.7","5f06eefaf3fc742667b4e79d","687a19d2168e237449fb8af4","6889dba1374a60489dc977e4","0","5f06eefaf3fc742667b4e79d","0","2025-07-30T08:54:08.052Z","","","","","","","","","","","","","","","","win-only","0","g1:NW,g2:SE","0.8","3","0","362064.6","2633.6","7636","34519.3","1","4","8","6","2","8","8","20","12","0.15151515151515152","1389.1","3000","1210","[""down"",""right""]","{""num_key_presses"":6,""num_perfect"":6,""num_errors"":0,""num_randdir"":0,""num_randdir_good_moves"":0,""num_whilered"":0,""num_whileblue"":0,""num_blue"":3,""num_good_moves"":6}","[418.07142857142856,419.1808016640799,1.5,418.07142857142856,419.1808016640799,102.1,418.07142857142856,419.1808016640799,202.5,418.07142857142856,419.1808016640799,303.6,418.07142857142856,419.1808016640799,403.8,418.07142857142856,419.1808016640799,507.6,418.07142857142856,419.1808016640799,610.8,605.5714285714286,609.6808016640799,719.3,659.5714285714286,660.6808016640799,819.4,686.5714285714286,692.1808016640799,920,731.5714285714286,734.1808016640799,1025.2,752.5714285714286,764.1808016640799,1126.5,754.0714285714286,764.1808016640799,1228.9,754.0714285714286,764.1808016640799,1329.1,754.0714285714286,764.1808016640799,1434.8,754.0714285714286,764.1808016640799,1537.8,754.0714285714286,764.1808016640799,1644,754.0714285714286,764.1808016640799,1744.2,754.0714285714286,764.1808016640799,1845.1,992.5714285714286,708.6808016640799,1945.9,1010.5714285714286,707.1808016640799,2048.2,1010.5714285714286,707.1808016640799,2149.6,1010.5714285714286,707.1808016640799,2260.2,1010.5714285714286,707.1808016640799,2362.4,1010.5714285714286,707.1808016640799,2463.1,1010.5714285714286,707.1808016640799,2568.6,1010.5714285714286,707.1808016640799,2670.4,1010.5714285714286,707.1808016640799,2773.5,1010.5714285714286,707.1808016640799,2873.7,1010.5714285714286,707.1808016640799,2978.7,1010.5714285714286,707.1808016640799,3083,1010.5714285714286,707.1808016640799,3189.2,1010.5714285714286,707.1808016640799,3290.9,1010.5714285714286,707.1808016640799,3393.6,1010.5714285714286,707.1808016640799,3499.6,1010.5714285714286,707.1808016640799,3599.6,1010.5714285714286,707.1808016640799,3703.5,1010.5714285714286,707.1808016640799,3815.7,1010.5714285714286,707.1808016640799,3918.6,1010.5714285714286,707.1808016640799,4022,1010.5714285714286,707.1808016640799,4123.8,1010.5714285714286,707.1808016640799,4230.6,1010.5714285714286,707.1808016640799,4338.6,1010.5714285714286,707.1808016640799,4441.7,1010.5714285714286,707.1808016640799,4542.2,1010.5714285714286,707.1808016640799,4644.8,1010.5714285714286,707.1808016640799,4749.5,1010.5714285714286,707.1808016640799,4851,1010.5714285714286,707.1808016640799,4958.3]","[7820.2,7820.2,2061.5,5371.5,387.2,""smooth"",""down"",""down"",""good_move"",10838.2,3016.9,2663,7821.3,353.9,""smooth"",""right"",""right"",""good_move"",13270.9,2431.4,1983.7,10839.5,447.7,""smooth"",""down"",""down"",""good_move"",16057.4,2785.8,2404.3,13271.6,381.6,""smooth"",""right"",""right"",""good_move"",19623.1,3564.9,3209.9,16058.2,355,""smooth"",""down"",""down"",""good_move"",26758,7134.4,2708.7,23632.2,417.1,""smooth"",""right"",""right"",""good_move""]"
"4461","","<div style=""width:500px;"">
  <p>What determined the result of this run?</p>
  </div>","82","html-slider-response","24","401207","0.0-7.0-1.2","54","1","2025-07-30 08:47:28","36c45c0696341be0efffe67d72a12abb","91.94.108.50","Mozilla/5.0 (Windows NT 10.0; Win64; x64) AppleWebKit/537.36 (KHTML, like Gecko) Chrome/138.0.0.0 Safari/537.36","WebKit","Chrome","138.0.0.0","Windows","10.0","https://app.prolific.com/","pl-PL,pl;q=0.9,en-US;q=0.8,en;q=0.7","5f06eefaf3fc742667b4e79d","687a19d2168e237449fb8af4","6889dba1374a60489dc977e4","0","5f06eefaf3fc742667b4e79d","0","2025-07-30T08:54:12.515Z","","","","AttribQ","","","","","","","","","","","50","","","","","","","","","","","","","","","","","","","","","","","","","","",""
"4923","","<div style=""width:500px;"">
  <p>How much control did you have over the ball?</p>
  </div>","50","html-slider-response","25","406134","0.0-7.0-2.2","54","1","2025-07-30 08:47:28","36c45c0696341be0efffe67d72a12abb","91.94.108.50","Mozilla/5.0 (Windows NT 10.0; Win64; x64) AppleWebKit/537.36 (KHTML, like Gecko) Chrome/138.0.0.0 Safari/537.36","WebKit","Chrome","138.0.0.0","Windows","10.0","https://app.prolific.com/","pl-PL,pl;q=0.9,en-US;q=0.8,en;q=0.7","5f06eefaf3fc742667b4e79d","687a19d2168e237449fb8af4","6889dba1374a60489dc977e4","0","5f06eefaf3fc742667b4e79d","0","2025-07-30T08:54:17.441Z","","","","ControlQ","","","","","","","","","","","50","","","","","","","","","","","","","","","","","","","","","","","","","","",""
"4374","","<div style=""width:500px;"">
  <p>How would you describe your current emotional state?</p>
  </div>","59","html-slider-response","26","410512","0.0-7.0-3.2","54","1","2025-07-30 08:47:28","36c45c0696341be0efffe67d72a12abb","91.94.108.50","Mozilla/5.0 (Windows NT 10.0; Win64; x64) AppleWebKit/537.36 (KHTML, like Gecko) Chrome/138.0.0.0 Safari/537.36","WebKit","Chrome","138.0.0.0","Windows","10.0","https://app.prolific.com/","pl-PL,pl;q=0.9,en-US;q=0.8,en;q=0.7","5f06eefaf3fc742667b4e79d","687a19d2168e237449fb8af4","6889dba1374a60489dc977e4","0","5f06eefaf3fc742667b4e79d","0","2025-07-30T08:54:21.819Z","","","","StressQ","","","","","","","","","","","50","","","","","","","","","","","","","","","","","","","","","","","","","","",""
"3692","","<div style=""width:500px;"">
  <p>What best describes how you currently feel?</p>
  </div>","65","html-slider-response","27","414207","0.0-7.0-4.2","54","1","2025-07-30 08:47:28","36c45c0696341be0efffe67d72a12abb","91.94.108.50","Mozilla/5.0 (Windows NT 10.0; Win64; x64) AppleWebKit/537.36 (KHTML, like Gecko) Chrome/138.0.0.0 Safari/537.36","WebKit","Chrome","138.0.0.0","Windows","10.0","https://app.prolific.com/","pl-PL,pl;q=0.9,en-US;q=0.8,en;q=0.7","5f06eefaf3fc742667b4e79d","687a19d2168e237449fb8af4","6889dba1374a60489dc977e4","0","5f06eefaf3fc742667b4e79d","0","2025-07-30T08:54:25.514Z","","","","MotivationQ","","","","","","","","","","","50","","","","","","","","","","","","","","","","","","","","","","","","","","",""
"","","","","ctl-task-cpt","28","448302","0.0-7.0-0.3","54","1","2025-07-30 08:47:28","36c45c0696341be0efffe67d72a12abb","91.94.108.50","Mozilla/5.0 (Windows NT 10.0; Win64; x64) AppleWebKit/537.36 (KHTML, like Gecko) Chrome/138.0.0.0 Safari/537.36","WebKit","Chrome","138.0.0.0","Windows","10.0","https://app.prolific.com/","pl-PL,pl;q=0.9,en-US;q=0.8,en;q=0.7","5f06eefaf3fc742667b4e79d","687a19d2168e237449fb8af4","6889dba1374a60489dc977e4","0","5f06eefaf3fc742667b4e79d","0","2025-07-30T08:54:59.610Z","","","","","","","","","","","","","","","","win-only","0","g1:NW,g2:SE","0.7","4","0","417065.6","2100.5","7102.1","31082.3","1","4","4","6","2","4","4","24","20","0.18181818181818182","1290.5","3000","980","[""down"",""right""]","{""num_key_presses"":6,""num_perfect"":4,""num_errors"":0,""num_randdir"":2,""num_randdir_good_moves"":2,""num_whilered"":0,""num_whileblue"":0,""num_blue"":2,""num_good_moves"":6}","[416.57142857142856,417.6808016640799,1.3,416.57142857142856,417.6808016640799,107.4,416.57142857142856,417.6808016640799,213.5,416.57142857142856,417.6808016640799,315,416.57142857142856,417.6808016640799,421.7,416.57142857142856,417.6808016640799,525.6,506.57142857142856,494.1808016640799,626.5,677.5714285714286,680.1808016640799,738.7,703.0714285714286,698.1808016640799,843.9,722.5714285714286,713.1808016640799,946.9,749.5714285714286,765.6808016640799,1048.3,749.5714285714286,765.6808016640799,1153.6,749.5714285714286,765.6808016640799,1255.9,749.5714285714286,765.6808016640799,1356.2,749.5714285714286,765.6808016640799,1457.3,749.5714285714286,765.6808016640799,1563.6,749.5714285714286,765.6808016640799,1666,785.5714285714286,765.6808016640799,1767,1178.5714285714287,756.6808016640799,1880.2,1181.5714285714287,761.1808016640799,1984.1,1181.5714285714287,761.1808016640799,2088.8,1181.5714285714287,761.1808016640799,2196.5,1181.5714285714287,761.1808016640799,2304.9,1181.5714285714287,761.1808016640799,2407,1181.5714285714287,761.1808016640799,2508.4,1181.5714285714287,761.1808016640799,2615.6,1181.5714285714287,761.1808016640799,2718.8,1181.5714285714287,761.1808016640799,2820,1181.5714285714287,761.1808016640799,2920.9,1181.5714285714287,761.1808016640799,3026.2,1181.5714285714287,761.1808016640799,3127.9,1181.5714285714287,761.1808016640799,3230.4,1181.5714285714287,761.1808016640799,3331.9,1181.5714285714287,761.1808016640799,3445.8,1181.5714285714287,761.1808016640799,3551.6,1181.5714285714287,761.1808016640799,3653.7,1181.5714285714287,761.1808016640799,3755.4,1181.5714285714287,761.1808016640799,3857.7,1181.5714285714287,761.1808016640799,3959.8,1181.5714285714287,761.1808016640799,4060.5,1181.5714285714287,761.1808016640799,4161.7,1181.5714285714287,761.1808016640799,4271.5,1181.5714285714287,761.1808016640799,4377.2,1181.5714285714287,761.1808016640799,4480.9,1181.5714285714287,761.1808016640799,4587.3,1181.5714285714287,761.1808016640799,4689.5,1181.5714285714287,761.1808016640799,4791.2,1181.5714285714287,761.1808016640799,4896.4]","[5111.8,5111.8,2753.3,2003.5,355,""smooth"",""down"",""down"",""good_move"",8764.1,3650.4,3050.4,5113.7,600,""smooth"",""down"",""down"",""good_move"",11103.9,2338.6,1936.5,8765.4,402,""smooth"",""right"",""right"",""good_move"",13933.7,2828.7,2432.6,11105,396.1,""oops"",""right"",""right"",""good_move"",16885.1,2949.8,2504.1,13935.3,445.7,""smooth"",""down"",""down"",""good_move"",23846.8,6961.1,2759.3,20598.2,489.3,""oops"",""right"",""right"",""good_move""]"
"5892","","<div style=""width:500px;"">
  <p>What determined the result of this run?</p>
  </div>","90","html-slider-response","29","454196","0.0-7.0-1.3","54","1","2025-07-30 08:47:28","36c45c0696341be0efffe67d72a12abb","91.94.108.50","Mozilla/5.0 (Windows NT 10.0; Win64; x64) AppleWebKit/537.36 (KHTML, like Gecko) Chrome/138.0.0.0 Safari/537.36","WebKit","Chrome","138.0.0.0","Windows","10.0","https://app.prolific.com/","pl-PL,pl;q=0.9,en-US;q=0.8,en;q=0.7","5f06eefaf3fc742667b4e79d","687a19d2168e237449fb8af4","6889dba1374a60489dc977e4","0","5f06eefaf3fc742667b4e79d","0","2025-07-30T08:55:05.503Z","","","","AttribQ","","","","","","","","","","","50","","","","","","","","","","","","","","","","","","","","","","","","","","",""
"2761","","<div style=""width:500px;"">
  <p>How much control did you have over the ball?</p>
  </div>","86","html-slider-response","30","456960","0.0-7.0-2.3","54","1","2025-07-30 08:47:28","36c45c0696341be0efffe67d72a12abb","91.94.108.50","Mozilla/5.0 (Windows NT 10.0; Win64; x64) AppleWebKit/537.36 (KHTML, like Gecko) Chrome/138.0.0.0 Safari/537.36","WebKit","Chrome","138.0.0.0","Windows","10.0","https://app.prolific.com/","pl-PL,pl;q=0.9,en-US;q=0.8,en;q=0.7","5f06eefaf3fc742667b4e79d","687a19d2168e237449fb8af4","6889dba1374a60489dc977e4","0","5f06eefaf3fc742667b4e79d","0","2025-07-30T08:55:08.268Z","","","","ControlQ","","","","","","","","","","","50","","","","","","","","","","","","","","","","","","","","","","","","","","",""
"4400","","<div style=""width:500px;"">
  <p>How would you describe your current emotional state?</p>
  </div>","57","html-slider-response","31","461365","0.0-7.0-3.3","54","1","2025-07-30 08:47:28","36c45c0696341be0efffe67d72a12abb","91.94.108.50","Mozilla/5.0 (Windows NT 10.0; Win64; x64) AppleWebKit/537.36 (KHTML, like Gecko) Chrome/138.0.0.0 Safari/537.36","WebKit","Chrome","138.0.0.0","Windows","10.0","https://app.prolific.com/","pl-PL,pl;q=0.9,en-US;q=0.8,en;q=0.7","5f06eefaf3fc742667b4e79d","687a19d2168e237449fb8af4","6889dba1374a60489dc977e4","0","5f06eefaf3fc742667b4e79d","0","2025-07-30T08:55:12.672Z","","","","StressQ","","","","","","","","","","","50","","","","","","","","","","","","","","","","","","","","","","","","","","",""
"2550","","<div style=""width:500px;"">
  <p>What best describes how you currently feel?</p>
  </div>","59","html-slider-response","32","463917","0.0-7.0-4.3","54","1","2025-07-30 08:47:28","36c45c0696341be0efffe67d72a12abb","91.94.108.50","Mozilla/5.0 (Windows NT 10.0; Win64; x64) AppleWebKit/537.36 (KHTML, like Gecko) Chrome/138.0.0.0 Safari/537.36","WebKit","Chrome","138.0.0.0","Windows","10.0","https://app.prolific.com/","pl-PL,pl;q=0.9,en-US;q=0.8,en;q=0.7","5f06eefaf3fc742667b4e79d","687a19d2168e237449fb8af4","6889dba1374a60489dc977e4","0","5f06eefaf3fc742667b4e79d","0","2025-07-30T08:55:15.224Z","","","","MotivationQ","","","","","","","","","","","50","","","","","","","","","","","","","","","","","","","","","","","","","","",""
"","","","","ctl-task-cpt","33","499485","0.0-7.0-0.4","54","1","2025-07-30 08:47:28","36c45c0696341be0efffe67d72a12abb","91.94.108.50","Mozilla/5.0 (Windows NT 10.0; Win64; x64) AppleWebKit/537.36 (KHTML, like Gecko) Chrome/138.0.0.0 Safari/537.36","WebKit","Chrome","138.0.0.0","Windows","10.0","https://app.prolific.com/","pl-PL,pl;q=0.9,en-US;q=0.8,en;q=0.7","5f06eefaf3fc742667b4e79d","687a19d2168e237449fb8af4","6889dba1374a60489dc977e4","0","5f06eefaf3fc742667b4e79d","0","2025-07-30T08:55:50.793Z","","","","","","","","","","","","","","","","win-only","2","g1:SE,g2:NW","0.6","5","0","466776.5","3121.2","8122.8","32551","1","4","4","6","2","4","4","28","24","0.21212121212121213","1474.8","3000","775","[""left"",""up""]","{""num_key_presses"":8,""num_perfect"":5,""num_errors"":0,""num_randdir"":3,""num_randdir_good_moves"":2,""num_whilered"":0,""num_whileblue"":0,""num_blue"":1,""num_good_moves"":7}","[415.07142857142856,416.1808016640799,1.2,415.07142857142856,416.1808016640799,104.6,415.07142857142856,416.1808016640799,207.5,415.07142857142856,416.1808016640799,316.8,415.07142857142856,416.1808016640799,420.3,415.07142857142856,416.1808016640799,527.4,415.07142857142856,416.1808016640799,631.8,415.07142857142856,416.1808016640799,732.1,386.57142857142856,369.6808016640799,835.3,209.57142857142856,225.68080166407992,941.6,106.07142857142857,132.68080166407992,1053.7,59.57142857142857,80.18080166407994,1158.5,53.57142857142857,71.18080166407994,1259.3,52.07142857142857,69.68080166407994,1372.5,52.07142857142857,69.68080166407994,1482,52.07142857142857,69.68080166407994,1585,52.07142857142857,69.68080166407994,1685.7,52.07142857142857,69.68080166407994,1789.9,52.07142857142857,69.68080166407994,1899.1,-367.92857142857144,44.18080166407994,2014.9,-387.42857142857144,45.68080166407994,2116.4,-387.42857142857144,45.68080166407994,2228.6,-387.42857142857144,45.68080166407994,2331.6,-387.42857142857144,45.68080166407994,2431.9,-387.42857142857144,45.68080166407994,2532.2,-387.42857142857144,45.68080166407994,2632.7,-387.42857142857144,45.68080166407994,2735.3,-387.42857142857144,45.68080166407994,2840.8,-387.42857142857144,45.68080166407994,2951.5,-387.42857142857144,45.68080166407994,3054.5,-387.42857142857144,45.68080166407994,3167.4,-387.42857142857144,45.68080166407994,3267.6,-387.42857142857144,45.68080166407994,3371.2,-387.42857142857144,45.68080166407994,3484.5,-387.42857142857144,45.68080166407994,3584.6,-387.42857142857144,45.68080166407994,3685,-387.42857142857144,45.68080166407994,3785.5,-387.42857142857144,45.68080166407994,3887,-387.42857142857144,45.68080166407994,3993.7,-387.42857142857144,45.68080166407994,4101,-387.42857142857144,45.68080166407994,4207.8,-387.42857142857144,45.68080166407994,4318.1,-387.42857142857144,45.68080166407994,4418.2,-387.42857142857144,45.68080166407994,4520.5,-387.42857142857144,45.68080166407994,4628,-387.42857142857144,45.68080166407994,4734.9,-387.42857142857144,45.68080166407994,4840.5,-387.42857142857144,45.68080166407994,4940.8]","[1403.9,1403.9,1000,0,403.9,""smooth"",""up"",""up"",""good_move"",4350.9,2946.3,2581.2,1404.6,365.1,""smooth"",""left"",""left"",""good_move"",9444.1,5092,1151.7,7864.2,428.2,""smooth"",""up"",""up"",""good_move"",12782.4,3337.7,2892.1,9444.7,445.6,""oops"",""left"",""right"",""bad_move"",16095.2,3312.2,2966,12783,346.2,""oops"",""left"",""left"",""good_move"",18761.8,2665.9,2264.7,16095.9,401.2,""smooth"",""left"",""left"",""good_move"",21806.8,3044.4,2686.5,18762.4,358,""oops"",""left"",""left"",""good_move"",24306.5,2499,2083.9,21807.6,415.1,""smooth"",""up"",""up"",""good_move""]"
"3201","","<div style=""width:500px;"">
  <p>What determined the result of this run?</p>
  </div>","84","html-slider-response","34","502689","0.0-7.0-1.4","54","1","2025-07-30 08:47:28","36c45c0696341be0efffe67d72a12abb","91.94.108.50","Mozilla/5.0 (Windows NT 10.0; Win64; x64) AppleWebKit/537.36 (KHTML, like Gecko) Chrome/138.0.0.0 Safari/537.36","WebKit","Chrome","138.0.0.0","Windows","10.0","https://app.prolific.com/","pl-PL,pl;q=0.9,en-US;q=0.8,en;q=0.7","5f06eefaf3fc742667b4e79d","687a19d2168e237449fb8af4","6889dba1374a60489dc977e4","0","5f06eefaf3fc742667b4e79d","0","2025-07-30T08:55:53.996Z","","","","AttribQ","","","","","","","","","","","50","","","","","","","","","","","","","","","","","","","","","","","","","","",""
"3154","","<div style=""width:500px;"">
  <p>How much control did you have over the ball?</p>
  </div>","72","html-slider-response","35","505845","0.0-7.0-2.4","54","1","2025-07-30 08:47:28","36c45c0696341be0efffe67d72a12abb","91.94.108.50","Mozilla/5.0 (Windows NT 10.0; Win64; x64) AppleWebKit/537.36 (KHTML, like Gecko) Chrome/138.0.0.0 Safari/537.36","WebKit","Chrome","138.0.0.0","Windows","10.0","https://app.prolific.com/","pl-PL,pl;q=0.9,en-US;q=0.8,en;q=0.7","5f06eefaf3fc742667b4e79d","687a19d2168e237449fb8af4","6889dba1374a60489dc977e4","0","5f06eefaf3fc742667b4e79d","0","2025-07-30T08:55:57.152Z","","","","ControlQ","","","","","","","","","","","50","","","","","","","","","","","","","","","","","","","","","","","","","","",""
"2776","","<div style=""width:500px;"">
  <p>How would you describe your current emotional state?</p>
  </div>","59","html-slider-response","36","508623","0.0-7.0-3.4","54","1","2025-07-30 08:47:28","36c45c0696341be0efffe67d72a12abb","91.94.108.50","Mozilla/5.0 (Windows NT 10.0; Win64; x64) AppleWebKit/537.36 (KHTML, like Gecko) Chrome/138.0.0.0 Safari/537.36","WebKit","Chrome","138.0.0.0","Windows","10.0","https://app.prolific.com/","pl-PL,pl;q=0.9,en-US;q=0.8,en;q=0.7","5f06eefaf3fc742667b4e79d","687a19d2168e237449fb8af4","6889dba1374a60489dc977e4","0","5f06eefaf3fc742667b4e79d","0","2025-07-30T08:55:59.931Z","","","","StressQ","","","","","","","","","","","50","","","","","","","","","","","","","","","","","","","","","","","","","","",""
"2352","","<div style=""width:500px;"">
  <p>What best describes how you currently feel?</p>
  </div>","56","html-slider-response","37","510978","0.0-7.0-4.4","54","1","2025-07-30 08:47:28","36c45c0696341be0efffe67d72a12abb","91.94.108.50","Mozilla/5.0 (Windows NT 10.0; Win64; x64) AppleWebKit/537.36 (KHTML, like Gecko) Chrome/138.0.0.0 Safari/537.36","WebKit","Chrome","138.0.0.0","Windows","10.0","https://app.prolific.com/","pl-PL,pl;q=0.9,en-US;q=0.8,en;q=0.7","5f06eefaf3fc742667b4e79d","687a19d2168e237449fb8af4","6889dba1374a60489dc977e4","0","5f06eefaf3fc742667b4e79d","0","2025-07-30T08:56:02.286Z","","","","MotivationQ","","","","","","","","","","","50","","","","","","","","","","","","","","","","","","","","","","","","","","",""
"","","","","ctl-task-cpt","38","576127","0.0-7.0-0.5","54","1","2025-07-30 08:47:28","36c45c0696341be0efffe67d72a12abb","91.94.108.50","Mozilla/5.0 (Windows NT 10.0; Win64; x64) AppleWebKit/537.36 (KHTML, like Gecko) Chrome/138.0.0.0 Safari/537.36","WebKit","Chrome","138.0.0.0","Windows","10.0","https://app.prolific.com/","pl-PL,pl;q=0.9,en-US;q=0.8,en;q=0.7","5f06eefaf3fc742667b4e79d","687a19d2168e237449fb8af4","6889dba1374a60489dc977e4","0","5f06eefaf3fc742667b4e79d","0","2025-07-30T08:57:07.434Z","","","","","","","","","","","","","","","","win-only","3","g1:SW,g2:NE","0.5","6","0","513835.8","15176","20186.7","62127.5","1","4","8","6","2","-8","-8","20","28","0.15151515151515152","1384.4","3000","-2075","[""up"",""right""]","{""num_key_presses"":11,""num_perfect"":5,""num_errors"":0,""num_randdir"":6,""num_randdir_good_moves"":2,""num_whilered"":0,""num_whileblue"":0,""num_blue"":3,""num_good_moves"":7}","[415.07142857142856,423.6808016640799,2.3,415.07142857142856,423.6808016640799,101.1,415.07142857142856,423.6808016640799,212,415.07142857142856,423.6808016640799,312.6,415.07142857142856,423.6808016640799,415.9,415.07142857142856,423.6808016640799,525.8,415.07142857142856,423.6808016640799,640.7,637.0714285714286,248.18080166407992,741.8,742.0714285714286,158.18080166407992,842.1,778.0714285714286,125.18080166407994,943.2,790.0714285714286,108.68080166407994,1043.5,791.5714285714286,90.68080166407994,1145.3,791.5714285714286,90.68080166407994,1245.5,791.5714285714286,90.68080166407994,1351.2,791.5714285714286,90.68080166407994,1460.7,791.5714285714286,90.68080166407994,1561.3,791.5714285714286,90.68080166407994,1661.9,791.5714285714286,90.68080166407994,1766.4,791.5714285714286,90.68080166407994,1867.7,791.5714285714286,90.68080166407994,1976.8,791.5714285714286,90.68080166407994,2079.7,791.5714285714286,90.68080166407994,2190.6,791.5714285714286,90.68080166407994,2295.7,791.5714285714286,90.68080166407994,2401.4,791.5714285714286,90.68080166407994,2509.9,791.5714285714286,90.68080166407994,2616.3,1375.0714285714287,122.18080166407994,2720.7,1375.0714285714287,122.18080166407994,2823.1,1375.0714285714287,122.18080166407994,2923.3,1375.0714285714287,122.18080166407994,3025.9,1375.0714285714287,122.18080166407994,3128,1375.0714285714287,122.18080166407994,3242.8,1375.0714285714287,122.18080166407994,3350.1,1375.0714285714287,122.18080166407994,3454,1375.0714285714287,122.18080166407994,3558.4,1375.0714285714287,122.18080166407994,3667.3,1375.0714285714287,122.18080166407994,3770,1375.0714285714287,122.18080166407994,3873,1375.0714285714287,122.18080166407994,3979.8,1375.0714285714287,122.18080166407994,4082.4,1375.0714285714287,122.18080166407994,4189.3,1375.0714285714287,122.18080166407994,4289.7,1375.0714285714287,122.18080166407994,4390.9,1375.0714285714287,122.18080166407994,4491.3,1375.0714285714287,122.18080166407994,4598.8,1375.0714285714287,122.18080166407994,4701.1,1375.0714285714287,122.18080166407994,4807.4,1375.0714285714287,122.18080166407994,4914.7]","[8312.3,8312.3,2052.7,5787.9,471.7,""smooth"",""up"",""up"",""good_move"",10809.7,2496.2,2028.4,8313.5,467.8,""oops"",""right"",""right"",""good_move"",13726.5,2915.9,2482.4,10810.6,433.5,""smooth"",""right"",""right"",""good_move"",16263.8,2536.6,2176.3,13727.2,360.3,""oops"",""right"",""down"",""bad_move"",18861.5,2595.9,2235.5,16265.6,360.4,""oops"",""up"",""down"",""bad_move"",24518.9,5656.7,2195.9,21946.6,376.4,""oops"",""up"",""right"",""good_move"",27908.3,3388.8,3065.2,24519.9,323.2,""oops"",""up"",""down"",""bad_move"",30675.9,2766.9,2470.4,27909,296.5,""smooth"",""up"",""up"",""good_move"",33368.8,2690.4,2313.1,30678.5,377.3,""smooth"",""up"",""up"",""good_move"",36499.9,3130.3,2784.9,33369.6,345.4,""smooth"",""up"",""up"",""good_move"",38734.4,2232.1,1921.2,36502.3,310.9,""oops"",""up"",""left"",""bad_move""]"
"5565","","<div style=""width:500px;"">
  <p>What determined the result of this run?</p>
  </div>","12","html-slider-response","39","581694","0.0-7.0-1.5","54","1","2025-07-30 08:47:28","36c45c0696341be0efffe67d72a12abb","91.94.108.50","Mozilla/5.0 (Windows NT 10.0; Win64; x64) AppleWebKit/537.36 (KHTML, like Gecko) Chrome/138.0.0.0 Safari/537.36","WebKit","Chrome","138.0.0.0","Windows","10.0","https://app.prolific.com/","pl-PL,pl;q=0.9,en-US;q=0.8,en;q=0.7","5f06eefaf3fc742667b4e79d","687a19d2168e237449fb8af4","6889dba1374a60489dc977e4","0","5f06eefaf3fc742667b4e79d","0","2025-07-30T08:57:13.001Z","","","","AttribQ","","","","","","","","","","","50","","","","","","","","","","","","","","","","","","","","","","","","","","",""
"4743","","<div style=""width:500px;"">
  <p>How much control did you have over the ball?</p>
  </div>","8","html-slider-response","40","586440","0.0-7.0-2.5","54","1","2025-07-30 08:47:28","36c45c0696341be0efffe67d72a12abb","91.94.108.50","Mozilla/5.0 (Windows NT 10.0; Win64; x64) AppleWebKit/537.36 (KHTML, like Gecko) Chrome/138.0.0.0 Safari/537.36","WebKit","Chrome","138.0.0.0","Windows","10.0","https://app.prolific.com/","pl-PL,pl;q=0.9,en-US;q=0.8,en;q=0.7","5f06eefaf3fc742667b4e79d","687a19d2168e237449fb8af4","6889dba1374a60489dc977e4","0","5f06eefaf3fc742667b4e79d","0","2025-07-30T08:57:17.748Z","","","","ControlQ","","","","","","","","","","","50","","","","","","","","","","","","","","","","","","","","","","","","","","",""
"3804","","<div style=""width:500px;"">
  <p>How would you describe your current emotional state?</p>
  </div>","78","html-slider-response","41","590250","0.0-7.0-3.5","54","1","2025-07-30 08:47:28","36c45c0696341be0efffe67d72a12abb","91.94.108.50","Mozilla/5.0 (Windows NT 10.0; Win64; x64) AppleWebKit/537.36 (KHTML, like Gecko) Chrome/138.0.0.0 Safari/537.36","WebKit","Chrome","138.0.0.0","Windows","10.0","https://app.prolific.com/","pl-PL,pl;q=0.9,en-US;q=0.8,en;q=0.7","5f06eefaf3fc742667b4e79d","687a19d2168e237449fb8af4","6889dba1374a60489dc977e4","0","5f06eefaf3fc742667b4e79d","0","2025-07-30T08:57:21.557Z","","","","StressQ","","","","","","","","","","","50","","","","","","","","","","","","","","","","","","","","","","","","","","",""
"17027","","<div style=""width:500px;"">
  <p>What best describes how you currently feel?</p>
  </div>","85","html-slider-response","42","607283","0.0-7.0-4.5","54","1","2025-07-30 08:47:28","36c45c0696341be0efffe67d72a12abb","91.94.108.50","Mozilla/5.0 (Windows NT 10.0; Win64; x64) AppleWebKit/537.36 (KHTML, like Gecko) Chrome/138.0.0.0 Safari/537.36","WebKit","Chrome","138.0.0.0","Windows","10.0","https://app.prolific.com/","pl-PL,pl;q=0.9,en-US;q=0.8,en;q=0.7","5f06eefaf3fc742667b4e79d","687a19d2168e237449fb8af4","6889dba1374a60489dc977e4","0","5f06eefaf3fc742667b4e79d","0","2025-07-30T08:57:38.590Z","","","","MotivationQ","","","","","","","","","","","50","","","","","","","","","","","","","","","","","","","","","","","","","","",""
"","","","","ctl-task-cpt","43","659520","0.0-7.0-0.6","54","1","2025-07-30 08:47:28","36c45c0696341be0efffe67d72a12abb","91.94.108.50","Mozilla/5.0 (Windows NT 10.0; Win64; x64) AppleWebKit/537.36 (KHTML, like Gecko) Chrome/138.0.0.0 Safari/537.36","WebKit","Chrome","138.0.0.0","Windows","10.0","https://app.prolific.com/","pl-PL,pl;q=0.9,en-US;q=0.8,en;q=0.7","5f06eefaf3fc742667b4e79d","687a19d2168e237449fb8af4","6889dba1374a60489dc977e4","0","5f06eefaf3fc742667b4e79d","0","2025-07-30T08:58:30.827Z","","","","","","","","","","","","","","","","win-only","0","g1:NW,g2:SE","0.4","7","0","610154.2","10498.9","15511.4","49200.2","1","4","4","6","2","4","4","24","20","0.18181818181818182","1408.4","3000","315","[""down"",""right""]","{""num_key_presses"":10,""num_perfect"":4,""num_errors"":0,""num_randdir"":6,""num_randdir_good_moves"":4,""num_whilered"":0,""num_whileblue"":0,""num_blue"":2,""num_good_moves"":8}","[413.57142857142856,423.6808016640799,2.2,413.57142857142856,423.6808016640799,101.1,413.57142857142856,423.6808016640799,204.9,413.57142857142856,423.6808016640799,313.4,413.57142857142856,423.6808016640799,418.3,413.57142857142856,423.6808016640799,523.3,512.5714285714286,501.6808016640799,627.6,605.5714285714286,600.6808016640799,737.7,677.5714285714286,675.6808016640799,853.5,692.5714285714286,702.6808016640799,955.7,710.5714285714286,740.1808016640799,1059.6,710.5714285714286,749.1808016640799,1164,710.5714285714286,749.1808016640799,1265.4,710.5714285714286,749.1808016640799,1377.2,710.5714285714286,749.1808016640799,1478.8,710.5714285714286,749.1808016640799,1579.3,710.5714285714286,749.1808016640799,1682,710.5714285714286,749.1808016640799,1783.4,929.5714285714286,755.1808016640799,1887.9,1054.0714285714287,744.6808016640799,1993.8,1054.0714285714287,744.6808016640799,2097.4,1054.0714285714287,744.6808016640799,2214.8,1054.0714285714287,744.6808016640799,2321.5,1054.0714285714287,744.6808016640799,2428.5,1054.0714285714287,744.6808016640799,2528.6,1054.0714285714287,744.6808016640799,2633.4,1054.0714285714287,744.6808016640799,2746.4,1054.0714285714287,744.6808016640799,2846.6,1054.0714285714287,744.6808016640799,2947,1054.0714285714287,744.6808016640799,3049.1,1054.0714285714287,744.6808016640799,3151.9,1054.0714285714287,744.6808016640799,3252.2,1054.0714285714287,744.6808016640799,3354.5,1054.0714285714287,744.6808016640799,3455.5,1054.0714285714287,744.6808016640799,3558.5,1054.0714285714287,744.6808016640799,3667,1054.0714285714287,744.6808016640799,3776,1054.0714285714287,744.6808016640799,3878,1054.0714285714287,744.6808016640799,3983.7,1054.0714285714287,744.6808016640799,4084.2,1054.0714285714287,744.6808016640799,4194.2,1054.0714285714287,744.6808016640799,4294.5,1054.0714285714287,744.6808016640799,4397.9,1054.0714285714287,744.6808016640799,4511,1054.0714285714287,744.6808016640799,4616.7,1054.0714285714287,744.6808016640799,4717.2,1054.0714285714287,744.6808016640799,4824.3,1054.0714285714287,744.6808016640799,4931.8]","[1439.1,1439.1,1000,0.1,439,""smooth"",""down"",""down"",""good_move"",3924.2,2483.6,2080.1,1440.7,403.4,""smooth"",""down"",""down"",""good_move"",9561,5635.7,2896.2,6314.2,350.6,""oops"",""right"",""left"",""bad_move"",12441.5,2879.9,2468.4,9561.6,411.5,""smooth"",""right"",""right"",""good_move"",15006.3,2564,2117.8,12442.3,446.2,""oops"",""down"",""down"",""good_move"",17780.6,2773.5,2381.7,15007.1,391.8,""smooth"",""right"",""right"",""good_move"",20331.9,2550.7,2155.9,17781.2,394.8,""oops"",""right"",""right"",""good_move"",23741.1,3407.5,3010.9,20333.6,396.6,""oops"",""right"",""up"",""bad_move"",26165.3,2423.6,2004,23741.7,419.6,""oops"",""right"",""right"",""good_move"",33564,7397.9,3529.8,29637.8,396.5,""oops"",""down"",""down"",""good_move""]"
"3127","","<div style=""width:500px;"">
  <p>What determined the result of this run?</p>
  </div>","36","html-slider-response","44","662649","0.0-7.0-1.6","54","1","2025-07-30 08:47:28","36c45c0696341be0efffe67d72a12abb","91.94.108.50","Mozilla/5.0 (Windows NT 10.0; Win64; x64) AppleWebKit/537.36 (KHTML, like Gecko) Chrome/138.0.0.0 Safari/537.36","WebKit","Chrome","138.0.0.0","Windows","10.0","https://app.prolific.com/","pl-PL,pl;q=0.9,en-US;q=0.8,en;q=0.7","5f06eefaf3fc742667b4e79d","687a19d2168e237449fb8af4","6889dba1374a60489dc977e4","0","5f06eefaf3fc742667b4e79d","0","2025-07-30T08:58:33.956Z","","","","AttribQ","","","","","","","","","","","50","","","","","","","","","","","","","","","","","","","","","","","","","","",""
"4060","","<div style=""width:500px;"">
  <p>How much control did you have over the ball?</p>
  </div>","43","html-slider-response","45","666712","0.0-7.0-2.6","54","1","2025-07-30 08:47:28","36c45c0696341be0efffe67d72a12abb","91.94.108.50","Mozilla/5.0 (Windows NT 10.0; Win64; x64) AppleWebKit/537.36 (KHTML, like Gecko) Chrome/138.0.0.0 Safari/537.36","WebKit","Chrome","138.0.0.0","Windows","10.0","https://app.prolific.com/","pl-PL,pl;q=0.9,en-US;q=0.8,en;q=0.7","5f06eefaf3fc742667b4e79d","687a19d2168e237449fb8af4","6889dba1374a60489dc977e4","0","5f06eefaf3fc742667b4e79d","0","2025-07-30T08:58:38.019Z","","","","ControlQ","","","","","","","","","","","50","","","","","","","","","","","","","","","","","","","","","","","","","","",""
"3491","","<div style=""width:500px;"">
  <p>How would you describe your current emotional state?</p>
  </div>","58","html-slider-response","46","670208","0.0-7.0-3.6","54","1","2025-07-30 08:47:28","36c45c0696341be0efffe67d72a12abb","91.94.108.50","Mozilla/5.0 (Windows NT 10.0; Win64; x64) AppleWebKit/537.36 (KHTML, like Gecko) Chrome/138.0.0.0 Safari/537.36","WebKit","Chrome","138.0.0.0","Windows","10.0","https://app.prolific.com/","pl-PL,pl;q=0.9,en-US;q=0.8,en;q=0.7","5f06eefaf3fc742667b4e79d","687a19d2168e237449fb8af4","6889dba1374a60489dc977e4","0","5f06eefaf3fc742667b4e79d","0","2025-07-30T08:58:41.515Z","","","","StressQ","","","","","","","","","","","50","","","","","","","","","","","","","","","","","","","","","","","","","","",""
"2854","","<div style=""width:500px;"">
  <p>What best describes how you currently feel?</p>
  </div>","76","html-slider-response","47","673064","0.0-7.0-4.6","54","1","2025-07-30 08:47:28","36c45c0696341be0efffe67d72a12abb","91.94.108.50","Mozilla/5.0 (Windows NT 10.0; Win64; x64) AppleWebKit/537.36 (KHTML, like Gecko) Chrome/138.0.0.0 Safari/537.36","WebKit","Chrome","138.0.0.0","Windows","10.0","https://app.prolific.com/","pl-PL,pl;q=0.9,en-US;q=0.8,en;q=0.7","5f06eefaf3fc742667b4e79d","687a19d2168e237449fb8af4","6889dba1374a60489dc977e4","0","5f06eefaf3fc742667b4e79d","0","2025-07-30T08:58:44.371Z","","","","MotivationQ","","","","","","","","","","","50","","","","","","","","","","","","","","","","","","","","","","","","","","",""
"","","","","ctl-task-cpt","48","722022","0.0-7.0-0.7","54","1","2025-07-30 08:47:28","36c45c0696341be0efffe67d72a12abb","91.94.108.50","Mozilla/5.0 (Windows NT 10.0; Win64; x64) AppleWebKit/537.36 (KHTML, like Gecko) Chrome/138.0.0.0 Safari/537.36","WebKit","Chrome","138.0.0.0","Windows","10.0","https://app.prolific.com/","pl-PL,pl;q=0.9,en-US;q=0.8,en;q=0.7","5f06eefaf3fc742667b4e79d","687a19d2168e237449fb8af4","6889dba1374a60489dc977e4","0","5f06eefaf3fc742667b4e79d","0","2025-07-30T08:59:33.329Z","","","","","","","","","","","","","","","","win-only","3","g1:SW,g2:NE","0.3","8","0","675924","4683.3","9698.5","45936.8","1","4","8","6","2","8","7","31","24","0.23484848484848486","1416.1","3000","270","[""up"",""right""]","{""num_key_presses"":11,""num_perfect"":3,""num_errors"":1,""num_randdir"":7,""num_randdir_good_moves"":5,""num_whilered"":0,""num_whileblue"":0,""num_blue"":2,""num_good_moves"":8}","[422.57142857142856,414.6808016640799,1.4,422.57142857142856,414.6808016640799,100.7,422.57142857142856,414.6808016640799,211.7,422.57142857142856,414.6808016640799,319,422.57142857142856,414.6808016640799,420.4,422.57142857142856,414.6808016640799,525.2,422.57142857142856,414.6808016640799,626.4,452.57142857142856,372.6808016640799,730.1,643.0714285714286,207.68080166407992,841.1,715.0714285714286,123.68080166407994,950.8,755.5714285714286,107.18080166407994,1062.1,773.5714285714286,86.18080166407994,1163.2,773.5714285714286,84.68080166407994,1265.8,773.5714285714286,84.68080166407994,1380.7,773.5714285714286,84.68080166407994,1487,773.5714285714286,84.68080166407994,1588.9,773.5714285714286,84.68080166407994,1694.9,773.5714285714286,84.68080166407994,1810.5,958.0714285714286,20.180801664079937,1915.7,980.5714285714286,18.680801664079937,2035.6,980.5714285714286,18.680801664079937,2135.7,980.5714285714286,18.680801664079937,2242,980.5714285714286,18.680801664079937,2352.3,980.5714285714286,18.680801664079937,2453.7,980.5714285714286,18.680801664079937,2556.1,980.5714285714286,18.680801664079937,2663.2,980.5714285714286,18.680801664079937,2763.5,980.5714285714286,18.680801664079937,2866.4,980.5714285714286,18.680801664079937,2972.1,980.5714285714286,18.680801664079937,3074.4,980.5714285714286,18.680801664079937,3184,980.5714285714286,18.680801664079937,3285.4,980.5714285714286,18.680801664079937,3395.8,980.5714285714286,18.680801664079937,3503.7,980.5714285714286,18.680801664079937,3607.3,980.5714285714286,18.680801664079937,3713,980.5714285714286,18.680801664079937,3814.6,980.5714285714286,18.680801664079937,3921.2,980.5714285714286,18.680801664079937,4021.4,980.5714285714286,18.680801664079937,4124.1,980.5714285714286,18.680801664079937,4228.6,980.5714285714286,18.680801664079937,4333.8,980.5714285714286,18.680801664079937,4436.7,980.5714285714286,18.680801664079937,4538.6,980.5714285714286,18.680801664079937,4639.7,980.5714285714286,18.680801664079937,4746.5,980.5714285714286,18.680801664079937,4850.6,980.5714285714286,18.680801664079937,4951.8]","[5160.9,5160.9,2712.1,2007.8,441,""oops"",""up"",""left"",""bad_move"",5354.1,192,2234.3,5162.1,-2042.3,""error"",""-"",""-"",""no_move"",9707,4350.7,2945.6,6361,400.4,""smooth"",""up"",""up"",""good_move"",12235.8,2526.8,2076.4,9709,450.4,""smooth"",""right"",""right"",""good_move"",14623.8,2387.1,2000.7,12236.8,386.4,""oops"",""right"",""left"",""bad_move"",20656,6031.6,2446,17788.2,421.8,""oops"",""right"",""up"",""good_move"",23726.8,3070.4,2774.1,20656.4,296.3,""oops"",""right"",""right"",""good_move"",26448.8,2720,2311.5,23728.9,408.5,""oops"",""right"",""right"",""good_move"",29926.5,3477.1,3123.2,26449.4,353.9,""oops"",""up"",""right"",""good_move"",32700.5,2772.8,2238.2,29927.7,534.6,""oops"",""up"",""up"",""good_move"",36115.6,3414.4,3047.3,32701.2,367.1,""smooth"",""right"",""right"",""good_move""]"
"3095","","<div style=""width:500px;"">
  <p>What determined the result of this run?</p>
  </div>","59","html-slider-response","49","725119","0.0-7.0-1.7","54","1","2025-07-30 08:47:28","36c45c0696341be0efffe67d72a12abb","91.94.108.50","Mozilla/5.0 (Windows NT 10.0; Win64; x64) AppleWebKit/537.36 (KHTML, like Gecko) Chrome/138.0.0.0 Safari/537.36","WebKit","Chrome","138.0.0.0","Windows","10.0","https://app.prolific.com/","pl-PL,pl;q=0.9,en-US;q=0.8,en;q=0.7","5f06eefaf3fc742667b4e79d","687a19d2168e237449fb8af4","6889dba1374a60489dc977e4","0","5f06eefaf3fc742667b4e79d","0","2025-07-30T08:59:36.426Z","","","","AttribQ","","","","","","","","","","","50","","","","","","","","","","","","","","","","","","","","","","","","","","",""
"6210","","<div style=""width:500px;"">
  <p>How much control did you have over the ball?</p>
  </div>","59","html-slider-response","50","731337","0.0-7.0-2.7","54","1","2025-07-30 08:47:28","36c45c0696341be0efffe67d72a12abb","91.94.108.50","Mozilla/5.0 (Windows NT 10.0; Win64; x64) AppleWebKit/537.36 (KHTML, like Gecko) Chrome/138.0.0.0 Safari/537.36","WebKit","Chrome","138.0.0.0","Windows","10.0","https://app.prolific.com/","pl-PL,pl;q=0.9,en-US;q=0.8,en;q=0.7","5f06eefaf3fc742667b4e79d","687a19d2168e237449fb8af4","6889dba1374a60489dc977e4","0","5f06eefaf3fc742667b4e79d","0","2025-07-30T08:59:42.644Z","","","","ControlQ","","","","","","","","","","","50","","","","","","","","","","","","","","","","","","","","","","","","","","",""
"2511","","<div style=""width:500px;"">
  <p>How would you describe your current emotional state?</p>
  </div>","69","html-slider-response","51","733851","0.0-7.0-3.7","54","1","2025-07-30 08:47:28","36c45c0696341be0efffe67d72a12abb","91.94.108.50","Mozilla/5.0 (Windows NT 10.0; Win64; x64) AppleWebKit/537.36 (KHTML, like Gecko) Chrome/138.0.0.0 Safari/537.36","WebKit","Chrome","138.0.0.0","Windows","10.0","https://app.prolific.com/","pl-PL,pl;q=0.9,en-US;q=0.8,en;q=0.7","5f06eefaf3fc742667b4e79d","687a19d2168e237449fb8af4","6889dba1374a60489dc977e4","0","5f06eefaf3fc742667b4e79d","0","2025-07-30T08:59:45.158Z","","","","StressQ","","","","","","","","","","","50","","","","","","","","","","","","","","","","","","","","","","","","","","",""
"3269","","<div style=""width:500px;"">
  <p>What best describes how you currently feel?</p>
  </div>","82","html-slider-response","52","737123","0.0-7.0-4.7","54","1","2025-07-30 08:47:28","36c45c0696341be0efffe67d72a12abb","91.94.108.50","Mozilla/5.0 (Windows NT 10.0; Win64; x64) AppleWebKit/537.36 (KHTML, like Gecko) Chrome/138.0.0.0 Safari/537.36","WebKit","Chrome","138.0.0.0","Windows","10.0","https://app.prolific.com/","pl-PL,pl;q=0.9,en-US;q=0.8,en;q=0.7","5f06eefaf3fc742667b4e79d","687a19d2168e237449fb8af4","6889dba1374a60489dc977e4","0","5f06eefaf3fc742667b4e79d","0","2025-07-30T08:59:48.430Z","","","","MotivationQ","","","","","","","","","","","50","","","","","","","","","","","","","","","","","","","","","","","","","","",""
"","","","","ctl-task-cpt","53","787371","0.0-7.0-0.8","54","1","2025-07-30 08:47:28","36c45c0696341be0efffe67d72a12abb","91.94.108.50","Mozilla/5.0 (Windows NT 10.0; Win64; x64) AppleWebKit/537.36 (KHTML, like Gecko) Chrome/138.0.0.0 Safari/537.36","WebKit","Chrome","138.0.0.0","Windows","10.0","https://app.prolific.com/","pl-PL,pl;q=0.9,en-US;q=0.8,en;q=0.7","5f06eefaf3fc742667b4e79d","687a19d2168e237449fb8af4","6889dba1374a60489dc977e4","0","5f06eefaf3fc742667b4e79d","0","2025-07-30T09:00:38.679Z","","","","","","","","","","","","","","","","win-only","0","g1:NW,g2:SE","0.4","9","0","739981.3","3368.8","8376.6","47218.7","1","4","4","6","2","4","4","35","31","0.26515151515151514","1331.3","3000","120","[""down"",""right""]","{""num_key_presses"":12,""num_perfect"":5,""num_errors"":0,""num_randdir"":7,""num_randdir_good_moves"":4,""num_whilered"":0,""num_whileblue"":0,""num_blue"":2,""num_good_moves"":9}","[418.07142857142856,419.1808016640799,1.5,418.07142857142856,419.1808016640799,100.9,418.07142857142856,419.1808016640799,202.9,418.07142857142856,419.1808016640799,303.2,418.07142857142856,419.1808016640799,404.6,418.07142857142856,419.1808016640799,504.7,418.07142857142856,419.1808016640799,609.9,446.57142857142856,446.1808016640799,712.9,661.0714285714286,654.6808016640799,822.6,758.5714285714286,734.1808016640799,935.9,797.5714285714286,764.1808016640799,1044.3,805.0714285714286,770.1808016640799,1149.4,805.0714285714286,770.1808016640799,1252.1,805.0714285714286,770.1808016640799,1361.2,805.0714285714286,770.1808016640799,1470.8,805.0714285714286,770.1808016640799,1574.8,805.0714285714286,770.1808016640799,1680.6,941.5714285714286,768.6808016640799,1790.4,1349.5714285714287,830.1808016640799,1893.2,1349.5714285714287,830.1808016640799,1994.7,1349.5714285714287,830.1808016640799,2098.8,1349.5714285714287,830.1808016640799,2208.5,1349.5714285714287,830.1808016640799,2311.9,1349.5714285714287,830.1808016640799,2413.2,1349.5714285714287,830.1808016640799,2518.9,1349.5714285714287,830.1808016640799,2619.3,1349.5714285714287,830.1808016640799,2735.4,1349.5714285714287,830.1808016640799,2841.8,1349.5714285714287,830.1808016640799,2943.1,1349.5714285714287,830.1808016640799,3045.9,1349.5714285714287,830.1808016640799,3146.1,1349.5714285714287,830.1808016640799,3252.6,1349.5714285714287,830.1808016640799,3357.6,1349.5714285714287,830.1808016640799,3470.9,1349.5714285714287,830.1808016640799,3573,1349.5714285714287,830.1808016640799,3676.9,1349.5714285714287,830.1808016640799,3791.8,1349.5714285714287,830.1808016640799,3891.8,1349.5714285714287,830.1808016640799,3995.1,1349.5714285714287,830.1808016640799,4097.6,1349.5714285714287,830.1808016640799,4198.7,1349.5714285714287,830.1808016640799,4304.8,1349.5714285714287,830.1808016640799,4412.4,1349.5714285714287,830.1808016640799,4515,1349.5714285714287,830.1808016640799,4615.5,1349.5714285714287,830.1808016640799,4718,1349.5714285714287,830.1808016640799,4820.4,1349.5714285714287,830.1808016640799,4921.7]","[1331.9,1331.8,1000,0.1,331.8,""oops"",""right"",""right"",""good_move"",3988.8,2655.3,2261.6,1333.6,393.6,""smooth"",""right"",""right"",""good_move"",10008.1,6018.9,2472.7,7131.4,404,""oops"",""right"",""left"",""bad_move"",12638.8,2628.6,2259.8,10010.3,368.8,""smooth"",""right"",""right"",""good_move"",15541.3,2902,2515.5,12639.3,386.5,""oops"",""right"",""down"",""good_move"",17682,2139.9,1727,15542.1,412.9,""oops"",""right"",""left"",""bad_move"",21369.9,3687.2,3306.8,17682.7,380.5,""smooth"",""right"",""right"",""good_move"",24063.2,2692.3,2319.5,21370.9,372.8,""smooth"",""right"",""right"",""good_move"",29618.3,5554.1,2171.8,27025,421.5,""oops"",""down"",""down"",""good_move"",33563.5,3944.8,3507.8,29618.7,437,""oops"",""down"",""up"",""bad_move"",36237.3,2672.9,2242.5,33564.4,430.4,""oops"",""down"",""down"",""good_move"",38693.7,2455.2,2108.9,36238.5,346.3,""smooth"",""down"",""down"",""good_move""]"
"4017","","<div style=""width:500px;"">
  <p>What determined the result of this run?</p>
  </div>","65","html-slider-response","54","791391","0.0-7.0-1.8","54","1","2025-07-30 08:47:28","36c45c0696341be0efffe67d72a12abb","91.94.108.50","Mozilla/5.0 (Windows NT 10.0; Win64; x64) AppleWebKit/537.36 (KHTML, like Gecko) Chrome/138.0.0.0 Safari/537.36","WebKit","Chrome","138.0.0.0","Windows","10.0","https://app.prolific.com/","pl-PL,pl;q=0.9,en-US;q=0.8,en;q=0.7","5f06eefaf3fc742667b4e79d","687a19d2168e237449fb8af4","6889dba1374a60489dc977e4","0","5f06eefaf3fc742667b4e79d","0","2025-07-30T09:00:42.698Z","","","","AttribQ","","","","","","","","","","","50","","","","","","","","","","","","","","","","","","","","","","","","","","",""
"3069","","<div style=""width:500px;"">
  <p>How much control did you have over the ball?</p>
  </div>","58","html-slider-response","55","794464","0.0-7.0-2.8","54","1","2025-07-30 08:47:28","36c45c0696341be0efffe67d72a12abb","91.94.108.50","Mozilla/5.0 (Windows NT 10.0; Win64; x64) AppleWebKit/537.36 (KHTML, like Gecko) Chrome/138.0.0.0 Safari/537.36","WebKit","Chrome","138.0.0.0","Windows","10.0","https://app.prolific.com/","pl-PL,pl;q=0.9,en-US;q=0.8,en;q=0.7","5f06eefaf3fc742667b4e79d","687a19d2168e237449fb8af4","6889dba1374a60489dc977e4","0","5f06eefaf3fc742667b4e79d","0","2025-07-30T09:00:45.771Z","","","","ControlQ","","","","","","","","","","","50","","","","","","","","","","","","","","","","","","","","","","","","","","",""
"2196","","<div style=""width:500px;"">
  <p>How would you describe your current emotional state?</p>
  </div>","75","html-slider-response","56","796664","0.0-7.0-3.8","54","1","2025-07-30 08:47:28","36c45c0696341be0efffe67d72a12abb","91.94.108.50","Mozilla/5.0 (Windows NT 10.0; Win64; x64) AppleWebKit/537.36 (KHTML, like Gecko) Chrome/138.0.0.0 Safari/537.36","WebKit","Chrome","138.0.0.0","Windows","10.0","https://app.prolific.com/","pl-PL,pl;q=0.9,en-US;q=0.8,en;q=0.7","5f06eefaf3fc742667b4e79d","687a19d2168e237449fb8af4","6889dba1374a60489dc977e4","0","5f06eefaf3fc742667b4e79d","0","2025-07-30T09:00:47.971Z","","","","StressQ","","","","","","","","","","","50","","","","","","","","","","","","","","","","","","","","","","","","","","",""
"2619","","<div style=""width:500px;"">
  <p>What best describes how you currently feel?</p>
  </div>","91","html-slider-response","57","799287","0.0-7.0-4.8","54","1","2025-07-30 08:47:28","36c45c0696341be0efffe67d72a12abb","91.94.108.50","Mozilla/5.0 (Windows NT 10.0; Win64; x64) AppleWebKit/537.36 (KHTML, like Gecko) Chrome/138.0.0.0 Safari/537.36","WebKit","Chrome","138.0.0.0","Windows","10.0","https://app.prolific.com/","pl-PL,pl;q=0.9,en-US;q=0.8,en;q=0.7","5f06eefaf3fc742667b4e79d","687a19d2168e237449fb8af4","6889dba1374a60489dc977e4","0","5f06eefaf3fc742667b4e79d","0","2025-07-30T09:00:50.594Z","","","","MotivationQ","","","","","","","","","","","50","","","","","","","","","","","","","","","","","","","","","","","","","","",""
"","","","","ctl-task-cpt","58","880572","0.0-7.0-0.9","54","1","2025-07-30 08:47:28","36c45c0696341be0efffe67d72a12abb","91.94.108.50","Mozilla/5.0 (Windows NT 10.0; Win64; x64) AppleWebKit/537.36 (KHTML, like Gecko) Chrome/138.0.0.0 Safari/537.36","WebKit","Chrome","138.0.0.0","Windows","10.0","https://app.prolific.com/","pl-PL,pl;q=0.9,en-US;q=0.8,en;q=0.7","5f06eefaf3fc742667b4e79d","687a19d2168e237449fb8af4","6889dba1374a60489dc977e4","0","5f06eefaf3fc742667b4e79d","0","2025-07-30T09:02:11.879Z","","","","","","","","","","","","","","","","win-only","3","g1:SW,g2:NE","0.5","10","0","802147.1","18417.4","23424","78259.5","1","4","8","6","2","-8","-9","26","35","0.19696969696969696","1364.9","3000","-1845","[""up"",""right""]","{""num_key_presses"":15,""num_perfect"":7,""num_errors"":1,""num_randdir"":7,""num_randdir_good_moves"":2,""num_whilered"":0,""num_whileblue"":1,""num_blue"":4,""num_good_moves"":9}","[416.57142857142856,414.6808016640799,0.3,416.57142857142856,414.6808016640799,103.7,416.57142857142856,414.6808016640799,219.1,416.57142857142856,414.6808016640799,320.3,416.57142857142856,414.6808016640799,439.4,416.57142857142856,414.6808016640799,545.7,524.5714285714286,303.6808016640799,656,680.5714285714286,173.18080166407992,762.4,776.5714285714286,90.68080166407994,868.2,806.5714285714286,51.68080166407994,969.5,809.5714285714286,44.18080166407994,1069.5,809.5714285714286,44.18080166407994,1176.1,809.5714285714286,44.18080166407994,1279.6,809.5714285714286,44.18080166407994,1385.6,809.5714285714286,44.18080166407994,1486.7,809.5714285714286,44.18080166407994,1598.4,809.5714285714286,44.18080166407994,1704.3,809.5714285714286,44.18080166407994,1822.2,1072.0714285714287,27.680801664079937,1940.4,1096.0714285714287,38.18080166407994,2049.1,1096.0714285714287,38.18080166407994,2152.7,1096.0714285714287,38.18080166407994,2259.5,1096.0714285714287,38.18080166407994,2366.5,1096.0714285714287,38.18080166407994,2469.7,1096.0714285714287,38.18080166407994,2574.8,1096.0714285714287,38.18080166407994,2677,1096.0714285714287,38.18080166407994,2780.2,1096.0714285714287,38.18080166407994,2883,1096.0714285714287,38.18080166407994,2987.9,1096.0714285714287,38.18080166407994,3090.8,1096.0714285714287,38.18080166407994,3192.9,1096.0714285714287,38.18080166407994,3295,1096.0714285714287,38.18080166407994,3397.2,1096.0714285714287,38.18080166407994,3498.3,1096.0714285714287,38.18080166407994,3612.3,1096.0714285714287,38.18080166407994,3715.6,1096.0714285714287,38.18080166407994,3816.8,1096.0714285714287,38.18080166407994,3917.6,1096.0714285714287,38.18080166407994,4019.8,1096.0714285714287,38.18080166407994,4137.3,1096.0714285714287,38.18080166407994,4239.3,1096.0714285714287,38.18080166407994,4354.5,1096.0714285714287,38.18080166407994,4457.2,1096.0714285714287,38.18080166407994,4560.3,1096.0714285714287,38.18080166407994,4665.7,1096.0714285714287,38.18080166407994,4766.9,1096.0714285714287,38.18080166407994,4867.4,1096.0714285714287,38.18080166407994,4970]","[1361.3,1361.3,1000,0,361.3,""oops"",""up"",""left"",""bad_move"",4379.2,3016.7,2629.8,1362.5,386.9,""oops"",""up"",""left"",""bad_move"",7275.5,2895.4,2534.5,4380.1,360.9,""smooth"",""up"",""up"",""good_move"",10443.7,3167.4,2834.2,7276.3,333.2,""smooth"",""right"",""right"",""good_move"",17005.8,6560.3,2650,14042.8,313,""oops"",""right"",""up"",""good_move"",19676.2,2670.1,2304.7,17006.1,365.4,""oops"",""right"",""down"",""bad_move"",23311.3,3634.1,3327.7,19677.2,306.4,""smooth"",""right"",""right"",""good_move"",25817.2,2505.1,2177.1,23312.1,328,""oops"",""right"",""down"",""bad_move"",28568.8,2751.1,2405.8,25817.7,345.3,""while_blue"",""up"",""down"",""bad_move"",31603.5,3033.8,2573.5,28569.7,460.3,""smooth"",""up"",""up"",""good_move"",33722.5,2117.7,1656.7,31604.8,461,""smooth"",""up"",""up"",""good_move"",36839.4,3116.2,2774.7,33723.3,341.5,""oops"",""up"",""left"",""bad_move"",43400.1,6559.9,2900.5,40122.1,377.5,""smooth"",""right"",""right"",""good_move"",46587.7,3187.2,2823.4,43400.5,363.8,""oops"",""right"",""up"",""good_move"",48576.9,1988.3,1617.2,46588.6,371.1,""smooth"",""right"",""right"",""good_move""]"
"3106","","<div style=""width:500px;"">
  <p>What determined the result of this run?</p>
  </div>","2","html-slider-response","59","883679","0.0-7.0-1.9","54","1","2025-07-30 08:47:28","36c45c0696341be0efffe67d72a12abb","91.94.108.50","Mozilla/5.0 (Windows NT 10.0; Win64; x64) AppleWebKit/537.36 (KHTML, like Gecko) Chrome/138.0.0.0 Safari/537.36","WebKit","Chrome","138.0.0.0","Windows","10.0","https://app.prolific.com/","pl-PL,pl;q=0.9,en-US;q=0.8,en;q=0.7","5f06eefaf3fc742667b4e79d","687a19d2168e237449fb8af4","6889dba1374a60489dc977e4","0","5f06eefaf3fc742667b4e79d","0","2025-07-30T09:02:14.986Z","","","","AttribQ","","","","","","","","","","","50","","","","","","","","","","","","","","","","","","","","","","","","","","",""
"4150","","<div style=""width:500px;"">
  <p>How much control did you have over the ball?</p>
  </div>","0","html-slider-response","60","887832","0.0-7.0-2.9","54","1","2025-07-30 08:47:28","36c45c0696341be0efffe67d72a12abb","91.94.108.50","Mozilla/5.0 (Windows NT 10.0; Win64; x64) AppleWebKit/537.36 (KHTML, like Gecko) Chrome/138.0.0.0 Safari/537.36","WebKit","Chrome","138.0.0.0","Windows","10.0","https://app.prolific.com/","pl-PL,pl;q=0.9,en-US;q=0.8,en;q=0.7","5f06eefaf3fc742667b4e79d","687a19d2168e237449fb8af4","6889dba1374a60489dc977e4","0","5f06eefaf3fc742667b4e79d","0","2025-07-30T09:02:19.139Z","","","","ControlQ","","","","","","","","","","","50","","","","","","","","","","","","","","","","","","","","","","","","","","",""
"2411","","<div style=""width:500px;"">
  <p>How would you describe your current emotional state?</p>
  </div>","90","html-slider-response","61","890246","0.0-7.0-3.9","54","1","2025-07-30 08:47:28","36c45c0696341be0efffe67d72a12abb","91.94.108.50","Mozilla/5.0 (Windows NT 10.0; Win64; x64) AppleWebKit/537.36 (KHTML, like Gecko) Chrome/138.0.0.0 Safari/537.36","WebKit","Chrome","138.0.0.0","Windows","10.0","https://app.prolific.com/","pl-PL,pl;q=0.9,en-US;q=0.8,en;q=0.7","5f06eefaf3fc742667b4e79d","687a19d2168e237449fb8af4","6889dba1374a60489dc977e4","0","5f06eefaf3fc742667b4e79d","0","2025-07-30T09:02:21.553Z","","","","StressQ","","","","","","","","","","","50","","","","","","","","","","","","","","","","","","","","","","","","","","",""
"2255","","<div style=""width:500px;"">
  <p>What best describes how you currently feel?</p>
  </div>","100","html-slider-response","62","892504","0.0-7.0-4.9","54","1","2025-07-30 08:47:28","36c45c0696341be0efffe67d72a12abb","91.94.108.50","Mozilla/5.0 (Windows NT 10.0; Win64; x64) AppleWebKit/537.36 (KHTML, like Gecko) Chrome/138.0.0.0 Safari/537.36","WebKit","Chrome","138.0.0.0","Windows","10.0","https://app.prolific.com/","pl-PL,pl;q=0.9,en-US;q=0.8,en;q=0.7","5f06eefaf3fc742667b4e79d","687a19d2168e237449fb8af4","6889dba1374a60489dc977e4","0","5f06eefaf3fc742667b4e79d","0","2025-07-30T09:02:23.811Z","","","","MotivationQ","","","","","","","","","","","50","","","","","","","","","","","","","","","","","","","","","","","","","","",""
"","","","","ctl-task-cpt","63","922120","0.0-7.0-0.10","54","1","2025-07-30 08:47:28","36c45c0696341be0efffe67d72a12abb","91.94.108.50","Mozilla/5.0 (Windows NT 10.0; Win64; x64) AppleWebKit/537.36 (KHTML, like Gecko) Chrome/138.0.0.0 Safari/537.36","WebKit","Chrome","138.0.0.0","Windows","10.0","https://app.prolific.com/","pl-PL,pl;q=0.9,en-US;q=0.8,en;q=0.7","5f06eefaf3fc742667b4e79d","687a19d2168e237449fb8af4","6889dba1374a60489dc977e4","0","5f06eefaf3fc742667b4e79d","0","2025-07-30T09:02:53.427Z","","","","","","","","","","","","","","","","win-only","2","g1:SE,g2:NW","0.6","11","0","895360.3","1048.4","6051.6","26597.7","1","4","4","6","2","4","3","29","26","0.2196969696969697","1246.6","3000","1445","[""left"",""up""]","{""num_key_presses"":7,""num_perfect"":5,""num_errors"":1,""num_randdir"":1,""num_randdir_good_moves"":1,""num_whilered"":0,""num_whileblue"":0,""num_blue"":1,""num_good_moves"":6}","[424.07142857142856,410.1808016640799,1.4,424.07142857142856,410.1808016640799,104.2,424.07142857142856,410.1808016640799,218.6,424.07142857142856,410.1808016640799,320.7,424.07142857142856,410.1808016640799,421.5,623.5714285714286,572.1808016640799,529.8,658.0714285714286,689.1808016640799,641.6,580.0714285714286,657.6808016640799,744.4,71.57142857142857,174.68080166407992,858.5,16.07142857142857,107.18080166407994,961.1,8.57142857142857,93.68080166407994,1065.3,14.57142857142857,74.18080166407994,1174.4,26.57142857142857,72.68080166407994,1278.5,26.57142857142857,72.68080166407994,1383.9,26.57142857142857,72.68080166407994,1490.2,-237.42857142857144,186.68080166407992,1590.4,-297.42857142857144,204.68080166407992,1690.7,-297.42857142857144,204.68080166407992,1794.5,-297.42857142857144,204.68080166407992,1904.9,-297.42857142857144,204.68080166407992,2005.3,-297.42857142857144,204.68080166407992,2107.1,-297.42857142857144,204.68080166407992,2208,-297.42857142857144,204.68080166407992,2310.8,-297.42857142857144,204.68080166407992,2414.6,-297.42857142857144,204.68080166407992,2517.8,-297.42857142857144,204.68080166407992,2623.9,-297.42857142857144,204.68080166407992,2737.5,-297.42857142857144,204.68080166407992,2839.4,-297.42857142857144,204.68080166407992,2939.4,-297.42857142857144,204.68080166407992,3050.6,-297.42857142857144,204.68080166407992,3153.6,-297.42857142857144,204.68080166407992,3255,-297.42857142857144,204.68080166407992,3355.4,-297.42857142857144,204.68080166407992,3463.5,-297.42857142857144,204.68080166407992,3572.6,-297.42857142857144,204.68080166407992,3678.1,-297.42857142857144,204.68080166407992,3785.6,-297.42857142857144,204.68080166407992,3886.7,-297.42857142857144,204.68080166407992,3988.2,-297.42857142857144,204.68080166407992,4088.6,-297.42857142857144,204.68080166407992,4188.9,-297.42857142857144,204.68080166407992,4294.1,-297.42857142857144,204.68080166407992,4400.3,-297.42857142857144,204.68080166407992,4503.7,-297.42857142857144,204.68080166407992,4605.4,-297.42857142857144,204.68080166407992,4706.5,-297.42857142857144,204.68080166407992,4812.1,-297.42857142857144,204.68080166407992,4912.7]","[4905.5,4905.5,2497,2004.3,404.2,""oops"",""up"",""up"",""good_move"",5050.3,143.9,1868.8,4906.4,-1724.9,""error"",""-"",""-"",""no_move"",9358.4,4307.5,2778,6054.4,526,""smooth"",""up"",""up"",""good_move"",11657,2297.5,1813.7,9359.5,483.8,""smooth"",""left"",""left"",""good_move"",14635.5,2977.9,2578.1,11657.6,399.8,""smooth"",""left"",""left"",""good_move"",17345.6,2709.5,2166,14636.1,543.5,""smooth"",""left"",""left"",""good_move"",20409.6,3063.7,2669.3,17345.9,394.4,""smooth"",""up"",""up"",""good_move""]"
"3175","","<div style=""width:500px;"">
  <p>What determined the result of this run?</p>
  </div>","62","html-slider-response","64","925297","0.0-7.0-1.10","54","1","2025-07-30 08:47:28","36c45c0696341be0efffe67d72a12abb","91.94.108.50","Mozilla/5.0 (Windows NT 10.0; Win64; x64) AppleWebKit/537.36 (KHTML, like Gecko) Chrome/138.0.0.0 Safari/537.36","WebKit","Chrome","138.0.0.0","Windows","10.0","https://app.prolific.com/","pl-PL,pl;q=0.9,en-US;q=0.8,en;q=0.7","5f06eefaf3fc742667b4e79d","687a19d2168e237449fb8af4","6889dba1374a60489dc977e4","0","5f06eefaf3fc742667b4e79d","0","2025-07-30T09:02:56.605Z","","","","AttribQ","","","","","","","","","","","50","","","","","","","","","","","","","","","","","","","","","","","","","","",""
"3003","","<div style=""width:500px;"">
  <p>How much control did you have over the ball?</p>
  </div>","81","html-slider-response","65","928303","0.0-7.0-2.10","54","1","2025-07-30 08:47:28","36c45c0696341be0efffe67d72a12abb","91.94.108.50","Mozilla/5.0 (Windows NT 10.0; Win64; x64) AppleWebKit/537.36 (KHTML, like Gecko) Chrome/138.0.0.0 Safari/537.36","WebKit","Chrome","138.0.0.0","Windows","10.0","https://app.prolific.com/","pl-PL,pl;q=0.9,en-US;q=0.8,en;q=0.7","5f06eefaf3fc742667b4e79d","687a19d2168e237449fb8af4","6889dba1374a60489dc977e4","0","5f06eefaf3fc742667b4e79d","0","2025-07-30T09:02:59.610Z","","","","ControlQ","","","","","","","","","","","50","","","","","","","","","","","","","","","","","","","","","","","","","","",""
"4443","","<div style=""width:500px;"">
  <p>How would you describe your current emotional state?</p>
  </div>","82","html-slider-response","66","932748","0.0-7.0-3.10","54","1","2025-07-30 08:47:28","36c45c0696341be0efffe67d72a12abb","91.94.108.50","Mozilla/5.0 (Windows NT 10.0; Win64; x64) AppleWebKit/537.36 (KHTML, like Gecko) Chrome/138.0.0.0 Safari/537.36","WebKit","Chrome","138.0.0.0","Windows","10.0","https://app.prolific.com/","pl-PL,pl;q=0.9,en-US;q=0.8,en;q=0.7","5f06eefaf3fc742667b4e79d","687a19d2168e237449fb8af4","6889dba1374a60489dc977e4","0","5f06eefaf3fc742667b4e79d","0","2025-07-30T09:03:04.055Z","","","","StressQ","","","","","","","","","","","50","","","","","","","","","","","","","","","","","","","","","","","","","","",""
"2351","","<div style=""width:500px;"">
  <p>What best describes how you currently feel?</p>
  </div>","82","html-slider-response","67","935102","0.0-7.0-4.10","54","1","2025-07-30 08:47:28","36c45c0696341be0efffe67d72a12abb","91.94.108.50","Mozilla/5.0 (Windows NT 10.0; Win64; x64) AppleWebKit/537.36 (KHTML, like Gecko) Chrome/138.0.0.0 Safari/537.36","WebKit","Chrome","138.0.0.0","Windows","10.0","https://app.prolific.com/","pl-PL,pl;q=0.9,en-US;q=0.8,en;q=0.7","5f06eefaf3fc742667b4e79d","687a19d2168e237449fb8af4","6889dba1374a60489dc977e4","0","5f06eefaf3fc742667b4e79d","0","2025-07-30T09:03:06.409Z","","","","MotivationQ","","","","","","","","","","","50","","","","","","","","","","","","","","","","","","","","","","","","","","",""
"","","","","ctl-task-cpt","68","965172","0.0-7.0-0.11","54","1","2025-07-30 08:47:28","36c45c0696341be0efffe67d72a12abb","91.94.108.50","Mozilla/5.0 (Windows NT 10.0; Win64; x64) AppleWebKit/537.36 (KHTML, like Gecko) Chrome/138.0.0.0 Safari/537.36","WebKit","Chrome","138.0.0.0","Windows","10.0","https://app.prolific.com/","pl-PL,pl;q=0.9,en-US;q=0.8,en;q=0.7","5f06eefaf3fc742667b4e79d","687a19d2168e237449fb8af4","6889dba1374a60489dc977e4","0","5f06eefaf3fc742667b4e79d","0","2025-07-30T09:03:36.479Z","","","","","","","","","","","","","","","","win-only","2","g1:SE,g2:NW","0.7","12","0","937958.5","1028.5","6034.5","27041.5","1","4","8","6","2","8","8","37","29","0.2803030303030303","1152.9","3000","1315","[""left"",""up""]","{""num_key_presses"":8,""num_perfect"":6,""num_errors"":0,""num_randdir"":2,""num_randdir_good_moves"":1,""num_whilered"":0,""num_whileblue"":0,""num_blue"":0,""num_good_moves"":7}","[412.07142857142856,416.1808016640799,0.3,412.07142857142856,416.1808016640799,111.7,412.07142857142856,416.1808016640799,213.8,412.07142857142856,416.1808016640799,319.9,412.07142857142856,416.1808016640799,422.3,412.07142857142856,416.1808016640799,529.3,248.57142857142856,254.18080166407992,630.2,152.57142857142856,176.18080166407992,737.8,118.07142857142857,134.18080166407992,840.2,88.07142857142857,96.68080166407994,949.3,83.57142857142857,90.68080166407994,1056,83.57142857142857,90.68080166407994,1165,83.57142857142857,90.68080166407994,1269.1,83.57142857142857,90.68080166407994,1376.1,83.57142857142857,90.68080166407994,1478.5,-478.92857142857144,117.68080166407994,1579,-513.4285714285714,119.18080166407994,1681.5,-513.4285714285714,119.18080166407994,1783.7,-513.4285714285714,119.18080166407994,1887.7,-513.4285714285714,119.18080166407994,2004.6,-513.4285714285714,119.18080166407994,2122.5,-513.4285714285714,119.18080166407994,2226,-513.4285714285714,119.18080166407994,2333.7,-513.4285714285714,119.18080166407994,2437.4,-513.4285714285714,119.18080166407994,2542.3,-513.4285714285714,119.18080166407994,2648.5,-513.4285714285714,119.18080166407994,2754.3,-513.4285714285714,119.18080166407994,2856,-513.4285714285714,119.18080166407994,2971,-513.4285714285714,119.18080166407994,3072.8,-513.4285714285714,119.18080166407994,3177,-513.4285714285714,119.18080166407994,3280.6,-513.4285714285714,119.18080166407994,3387,-513.4285714285714,119.18080166407994,3488.1,-513.4285714285714,119.18080166407994,3588.3,-513.4285714285714,119.18080166407994,3692.2,-513.4285714285714,119.18080166407994,3797.8,-513.4285714285714,119.18080166407994,3903.4,-513.4285714285714,119.18080166407994,4007.3,-513.4285714285714,119.18080166407994,4112.1,-513.4285714285714,119.18080166407994,4212.9,-513.4285714285714,119.18080166407994,4315.4,-513.4285714285714,119.18080166407994,4417.7,-513.4285714285714,119.18080166407994,4522.9,-513.4285714285714,119.18080166407994,4632.8,-513.4285714285714,119.18080166407994,4738.9,-513.4285714285714,119.18080166407994,4839.6,-513.4285714285714,119.18080166407994,4948.8]","[1453.4,1453.5,1000,0,453.5,""oops"",""up"",""right"",""bad_move"",4608.5,3154.6,2793.9,1454,360.6,""oops"",""left"",""up"",""good_move"",7700.3,3091.2,2736,4609.1,355.2,""smooth"",""left"",""left"",""good_move"",9858.6,2156.9,1778,7701.7,378.9,""smooth"",""left"",""left"",""good_move"",12834,2974.9,2647.7,9859.1,327.2,""smooth"",""left"",""left"",""good_move"",15855.7,3020.9,2614.3,12834.8,406.6,""smooth"",""up"",""up"",""good_move"",18459.9,2603.5,2274,15856.4,329.6,""smooth"",""left"",""left"",""good_move"",20870.5,2408.8,2075.1,18461.7,333.7,""smooth"",""up"",""up"",""good_move""]"
"3142","","<div style=""width:500px;"">
  <p>What determined the result of this run?</p>
  </div>","92","html-slider-response","69","968317","0.0-7.0-1.11","54","1","2025-07-30 08:47:28","36c45c0696341be0efffe67d72a12abb","91.94.108.50","Mozilla/5.0 (Windows NT 10.0; Win64; x64) AppleWebKit/537.36 (KHTML, like Gecko) Chrome/138.0.0.0 Safari/537.36","WebKit","Chrome","138.0.0.0","Windows","10.0","https://app.prolific.com/","pl-PL,pl;q=0.9,en-US;q=0.8,en;q=0.7","5f06eefaf3fc742667b4e79d","687a19d2168e237449fb8af4","6889dba1374a60489dc977e4","0","5f06eefaf3fc742667b4e79d","0","2025-07-30T09:03:39.624Z","","","","AttribQ","","","","","","","","","","","50","","","","","","","","","","","","","","","","","","","","","","","","","","",""
"1904","","<div style=""width:500px;"">
  <p>How much control did you have over the ball?</p>
  </div>","85","html-slider-response","70","970223","0.0-7.0-2.11","54","1","2025-07-30 08:47:28","36c45c0696341be0efffe67d72a12abb","91.94.108.50","Mozilla/5.0 (Windows NT 10.0; Win64; x64) AppleWebKit/537.36 (KHTML, like Gecko) Chrome/138.0.0.0 Safari/537.36","WebKit","Chrome","138.0.0.0","Windows","10.0","https://app.prolific.com/","pl-PL,pl;q=0.9,en-US;q=0.8,en;q=0.7","5f06eefaf3fc742667b4e79d","687a19d2168e237449fb8af4","6889dba1374a60489dc977e4","0","5f06eefaf3fc742667b4e79d","0","2025-07-30T09:03:41.530Z","","","","ControlQ","","","","","","","","","","","50","","","","","","","","","","","","","","","","","","","","","","","","","","",""
"1554","","<div style=""width:500px;"">
  <p>How would you describe your current emotional state?</p>
  </div>","83","html-slider-response","71","971780","0.0-7.0-3.11","54","1","2025-07-30 08:47:28","36c45c0696341be0efffe67d72a12abb","91.94.108.50","Mozilla/5.0 (Windows NT 10.0; Win64; x64) AppleWebKit/537.36 (KHTML, like Gecko) Chrome/138.0.0.0 Safari/537.36","WebKit","Chrome","138.0.0.0","Windows","10.0","https://app.prolific.com/","pl-PL,pl;q=0.9,en-US;q=0.8,en;q=0.7","5f06eefaf3fc742667b4e79d","687a19d2168e237449fb8af4","6889dba1374a60489dc977e4","0","5f06eefaf3fc742667b4e79d","0","2025-07-30T09:03:43.088Z","","","","StressQ","","","","","","","","","","","50","","","","","","","","","","","","","","","","","","","","","","","","","","",""
"1626","","<div style=""width:500px;"">
  <p>What best describes how you currently feel?</p>
  </div>","85","html-slider-response","72","973410","0.0-7.0-4.11","54","1","2025-07-30 08:47:28","36c45c0696341be0efffe67d72a12abb","91.94.108.50","Mozilla/5.0 (Windows NT 10.0; Win64; x64) AppleWebKit/537.36 (KHTML, like Gecko) Chrome/138.0.0.0 Safari/537.36","WebKit","Chrome","138.0.0.0","Windows","10.0","https://app.prolific.com/","pl-PL,pl;q=0.9,en-US;q=0.8,en;q=0.7","5f06eefaf3fc742667b4e79d","687a19d2168e237449fb8af4","6889dba1374a60489dc977e4","0","5f06eefaf3fc742667b4e79d","0","2025-07-30T09:03:44.717Z","","","","MotivationQ","","","","","","","","","","","50","","","","","","","","","","","","","","","","","","","","","","","","","","",""
"","","","","ctl-task-cpt","73","999514","0.0-7.0-0.12","54","1","2025-07-30 08:47:28","36c45c0696341be0efffe67d72a12abb","91.94.108.50","Mozilla/5.0 (Windows NT 10.0; Win64; x64) AppleWebKit/537.36 (KHTML, like Gecko) Chrome/138.0.0.0 Safari/537.36","WebKit","Chrome","138.0.0.0","Windows","10.0","https://app.prolific.com/","pl-PL,pl;q=0.9,en-US;q=0.8,en;q=0.7","5f06eefaf3fc742667b4e79d","687a19d2168e237449fb8af4","6889dba1374a60489dc977e4","0","5f06eefaf3fc742667b4e79d","0","2025-07-30T09:04:10.822Z","","","","","","","","","","","","","","","","win-only","0","g1:NW,g2:SE","0.8","13","0","976266.6","1062.9","6071.7","23088.2","1","4","8","6","2","8","8","45","37","0.3409090909090909","1078.8","3000","1755","[""down"",""right""]","{""num_key_presses"":6,""num_perfect"":4,""num_errors"":0,""num_randdir"":2,""num_randdir_good_moves"":2,""num_whilered"":0,""num_whileblue"":0,""num_blue"":0,""num_good_moves"":6}","[419.57142857142856,417.6808016640799,0.4,419.57142857142856,417.6808016640799,101.3,419.57142857142856,417.6808016640799,212.1,419.57142857142856,417.6808016640799,318,419.57142857142856,417.6808016640799,424.9,572.5714285714286,548.1808016640799,532.2,650.5714285714286,644.1808016640799,637.8,700.0714285714286,719.1808016640799,738.5,740.5714285714286,779.1808016640799,843.6,748.0714285714286,779.1808016640799,945.4,748.0714285714286,779.1808016640799,1048.5,748.0714285714286,779.1808016640799,1152.8,748.0714285714286,779.1808016640799,1260.5,748.0714285714286,779.1808016640799,1372,1163.5714285714287,677.1808016640799,1477.4,1340.5714285714287,654.6808016640799,1586.6,1340.5714285714287,654.6808016640799,1694,1340.5714285714287,654.6808016640799,1794.8,1340.5714285714287,654.6808016640799,1900.4,1340.5714285714287,654.6808016640799,2000.7,1340.5714285714287,654.6808016640799,2101.4,1340.5714285714287,654.6808016640799,2210.1,1340.5714285714287,654.6808016640799,2315.1,1340.5714285714287,654.6808016640799,2422.5,1340.5714285714287,654.6808016640799,2537.2,1340.5714285714287,654.6808016640799,2643,1340.5714285714287,654.6808016640799,2750.3,1340.5714285714287,654.6808016640799,2851.2,1340.5714285714287,654.6808016640799,2952.3,1340.5714285714287,654.6808016640799,3058.6,1340.5714285714287,654.6808016640799,3165.4,1340.5714285714287,654.6808016640799,3272.2,1340.5714285714287,654.6808016640799,3374.9,1340.5714285714287,654.6808016640799,3479.5,1340.5714285714287,654.6808016640799,3580.1,1340.5714285714287,654.6808016640799,3680.5,1340.5714285714287,654.6808016640799,3781.5,1340.5714285714287,654.6808016640799,3887.1,1340.5714285714287,654.6808016640799,3991.5,1340.5714285714287,654.6808016640799,4109.3,1340.5714285714287,654.6808016640799,4217.5,1340.5714285714287,654.6808016640799,4325.3,1340.5714285714287,654.6808016640799,4427.4,1340.5714285714287,654.6808016640799,4535.4,1340.5714285714287,654.6808016640799,4637.3,1340.5714285714287,654.6808016640799,4737.9,1340.5714285714287,654.6808016640799,4837.9,1340.5714285714287,654.6808016640799,4940.1]","[1405.6,1405.6,1000,0,405.6,""smooth"",""down"",""down"",""good_move"",4337.6,2931.4,2518.6,1406.2,412.8,""smooth"",""down"",""down"",""good_move"",7566.4,3228.4,2865.5,4338,362.9,""smooth"",""right"",""right"",""good_move"",10277.3,2709.6,2346.4,7567.7,363.2,""smooth"",""right"",""right"",""good_move"",13639.8,3361.6,2982.5,10278.2,379.1,""oops"",""right"",""right"",""good_move"",16790.2,3148.6,2785,13641.6,363.6,""oops"",""down"",""down"",""good_move""]"
"2819","","<div style=""width:500px;"">
  <p>What determined the result of this run?</p>
  </div>","97","html-slider-response","74","1002335","0.0-7.0-1.12","54","1","2025-07-30 08:47:28","36c45c0696341be0efffe67d72a12abb","91.94.108.50","Mozilla/5.0 (Windows NT 10.0; Win64; x64) AppleWebKit/537.36 (KHTML, like Gecko) Chrome/138.0.0.0 Safari/537.36","WebKit","Chrome","138.0.0.0","Windows","10.0","https://app.prolific.com/","pl-PL,pl;q=0.9,en-US;q=0.8,en;q=0.7","5f06eefaf3fc742667b4e79d","687a19d2168e237449fb8af4","6889dba1374a60489dc977e4","0","5f06eefaf3fc742667b4e79d","0","2025-07-30T09:04:13.642Z","","","","AttribQ","","","","","","","","","","","50","","","","","","","","","","","","","","","","","","","","","","","","","","",""
"3120","","<div style=""width:500px;"">
  <p>How much control did you have over the ball?</p>
  </div>","96","html-slider-response","75","1005457","0.0-7.0-2.12","54","1","2025-07-30 08:47:28","36c45c0696341be0efffe67d72a12abb","91.94.108.50","Mozilla/5.0 (Windows NT 10.0; Win64; x64) AppleWebKit/537.36 (KHTML, like Gecko) Chrome/138.0.0.0 Safari/537.36","WebKit","Chrome","138.0.0.0","Windows","10.0","https://app.prolific.com/","pl-PL,pl;q=0.9,en-US;q=0.8,en;q=0.7","5f06eefaf3fc742667b4e79d","687a19d2168e237449fb8af4","6889dba1374a60489dc977e4","0","5f06eefaf3fc742667b4e79d","0","2025-07-30T09:04:16.764Z","","","","ControlQ","","","","","","","","","","","50","","","","","","","","","","","","","","","","","","","","","","","","","","",""
"1494","","<div style=""width:500px;"">
  <p>How would you describe your current emotional state?</p>
  </div>","91","html-slider-response","76","1006954","0.0-7.0-3.12","54","1","2025-07-30 08:47:28","36c45c0696341be0efffe67d72a12abb","91.94.108.50","Mozilla/5.0 (Windows NT 10.0; Win64; x64) AppleWebKit/537.36 (KHTML, like Gecko) Chrome/138.0.0.0 Safari/537.36","WebKit","Chrome","138.0.0.0","Windows","10.0","https://app.prolific.com/","pl-PL,pl;q=0.9,en-US;q=0.8,en;q=0.7","5f06eefaf3fc742667b4e79d","687a19d2168e237449fb8af4","6889dba1374a60489dc977e4","0","5f06eefaf3fc742667b4e79d","0","2025-07-30T09:04:18.261Z","","","","StressQ","","","","","","","","","","","50","","","","","","","","","","","","","","","","","","","","","","","","","","",""
"1733","","<div style=""width:500px;"">
