"rt","response_timestamp","stimulus","response","trial_type","trial_index","time_elapsed","internal_node_id","run_id","condition","recorded_at","source_code_version","ip","user_agent","device","browser","browser_version","platform","platform_version","referer","accept_language","PROLIFIC_PID","STUDY_ID","SESSION_ID","BATCH","prolific_id","batch","realtime","success","question_order","question_id","eventType","responses","item_order","radio_event_ids","radio_event_times","key_event_times","mouse_event_times","straightlining","zigzagging","honeypot","view_history","slider_start","which_type","canvas_config","goals_layout","control_level","trial_number","tutorial_trial_number","trial_start_time","phase1_start_time","phase2_start_time","phase3_start_time","goal_1_value","goal_1_distance","goal_2_value","goal_2_distance","goal_selected","outcome","outcome_total","participant_final_score","participant_initial_score","participant_final_score_prop","goal_choice_rt","allocated_time","allocated_time_remaining","goal_direction","counts","mouse_movements","key_presses"
"18533","1754815800870","<p style='font-size:40px;line-height:1.25'><strong>Welcome to the experiment!</strong></p><p style='font-size:1.1em;line-height:1.25'>Thank you for participanting in our experiment again! You will be asked to play the Dysfunctional Ball Game again. We will briefly recap the rules before we start.</p><p style='font-size:1.1em;line-height:1.25'>Press <strong>Next</strong> to continue.</p>","0","custom-html-button-response","0","18537","0.0-0.0","245","1","2025-08-10 08:49:41","36c45c0696341be0efffe67d72a12abb","71.138.89.249","Mozilla/5.0 (Windows NT 10.0; Win64; x64) AppleWebKit/537.36 (KHTML, like Gecko) Chrome/139.0.0.0 Safari/537.36","WebKit","Chrome","139.0.0.0","Windows","10.0","https://app.prolific.com/","en-US,en;q=0.9","5f0a7dec44c42c19a6c9f6d9","6877649eabb845cf142cd221","68985d209511899d24bcbd46","1","5f0a7dec44c42c19a6c9f6d9","1","2025-08-10T08:50:00.872Z","","","","","","","","","","","","","","","","","","","","","","","","","","","","","","","","","","","","","","","","","",""
"3954","","","","fullscreen","1","23501","0.0-1.0","245","1","2025-08-10 08:49:41","36c45c0696341be0efffe67d72a12abb","71.138.89.249","Mozilla/5.0 (Windows NT 10.0; Win64; x64) AppleWebKit/537.36 (KHTML, like Gecko) Chrome/139.0.0.0 Safari/537.36","WebKit","Chrome","139.0.0.0","Windows","10.0","https://app.prolific.com/","en-US,en;q=0.9","5f0a7dec44c42c19a6c9f6d9","6877649eabb845cf142cd221","68985d209511899d24bcbd46","1","5f0a7dec44c42c19a6c9f6d9","1","","true","","","","","","","","","","","","","","","","","","","","","","","","","","","","","","","","","","","","","","","","",""
"5965","1754815811802"," <p style='font-size:1.1em;line-height:1.25'>Thank you for closing all other tabs.</p><p style='font-size:1.1em;line-height:1.25'>We will now invite you to fill in some questionnaires, before starting the game.<br>This will take about 5 minutes.<br></p><p style='font-size:1.1em;line-height:1.25'>Press the <strong>Next</strong> button to continue.</p>","0","custom-html-button-response","2","29468","0.0-2.0","245","1","2025-08-10 08:49:41","36c45c0696341be0efffe67d72a12abb","71.138.89.249","Mozilla/5.0 (Windows NT 10.0; Win64; x64) AppleWebKit/537.36 (KHTML, like Gecko) Chrome/139.0.0.0 Safari/537.36","WebKit","Chrome","139.0.0.0","Windows","10.0","https://app.prolific.com/","en-US,en;q=0.9","5f0a7dec44c42c19a6c9f6d9","6877649eabb845cf142cd221","68985d209511899d24bcbd46","1","5f0a7dec44c42c19a6c9f6d9","1","2025-08-10T08:50:11.802Z","","","","","","","","","","","","","","","","","","","","","","","","","","","","","","","","","","","","","","","","","",""
"3603","","","{""assigned_sex"":""female""}","survey-multi-choice","3","33073","0.0-3.0-0.0","245","1","2025-08-10 08:49:41","36c45c0696341be0efffe67d72a12abb","71.138.89.249","Mozilla/5.0 (Windows NT 10.0; Win64; x64) AppleWebKit/537.36 (KHTML, like Gecko) Chrome/139.0.0.0 Safari/537.36","WebKit","Chrome","139.0.0.0","Windows","10.0","https://app.prolific.com/","en-US,en;q=0.9","5f0a7dec44c42c19a6c9f6d9","6877649eabb845cf142cd221","68985d209511899d24bcbd46","1","5f0a7dec44c42c19a6c9f6d9","1","","","[0]","0","demographics","","","","","","","","","","","","","","","","","","","","","","","","","","","","","","","","","","","","","",""
"4740","1754815820148","<p style='font-size:1.1em;line-height:1.25'>In the following, we will perform a baseline assessment. This means that we will ask you a few questions relating to your experiences over the past month.<br></p><p style='font-size:1.1em;line-height:1.25'>Press the <strong>Next</strong> button to continue.</p>","0","custom-html-button-response","4","37814","0.0-4.0-0.0","245","1","2025-08-10 08:49:41","36c45c0696341be0efffe67d72a12abb","71.138.89.249","Mozilla/5.0 (Windows NT 10.0; Win64; x64) AppleWebKit/537.36 (KHTML, like Gecko) Chrome/139.0.0.0 Safari/537.36","WebKit","Chrome","139.0.0.0","Windows","10.0","https://app.prolific.com/","en-US,en;q=0.9","5f0a7dec44c42c19a6c9f6d9","6877649eabb845cf142cd221","68985d209511899d24bcbd46","1","5f0a7dec44c42c19a6c9f6d9","1","2025-08-10T08:50:20.148Z","","","","","","","","","","","","","","","","","","","","","","","","","","","","","","","","","","","","","","","","","",""
"66545.80000001192","","","","survey-template","5","104363","0.0-4.0-1.0","245","1","2025-08-10 08:49:41","36c45c0696341be0efffe67d72a12abb","71.138.89.249","Mozilla/5.0 (Windows NT 10.0; Win64; x64) AppleWebKit/537.36 (KHTML, like Gecko) Chrome/139.0.0.0 Safari/537.36","WebKit","Chrome","139.0.0.0","Windows","10.0","https://app.prolific.com/","en-US,en;q=0.9","5f0a7dec44c42c19a6c9f6d9","6877649eabb845cf142cd221","68985d209511899d24bcbd46","1","5f0a7dec44c42c19a6c9f6d9","1","2025-08-10T08:51:26.697Z","","","","pss","{""Q01"":""2"",""Q02"":""1"",""Q03"":""2"",""Q04"":""1"",""Q05"":""1"",""Q06"":""0"",""Q07"":""1"",""Q08"":""1"",""Q09"":""2"",""Q10"":""2""}","[0,1,2,3,4,5,6,7,8,9]","[""Q01"",""Q02"",""Q03"",""Q04"",""Q05"",""Q06"",""Q06"",""Q07"",""Q08"",""Q09"",""Q10"",""Q10""]","[7279.699999988079,12007.699999988079,14741.899999976158,20075.69999998808,27973.399999976158,31779.80000001192,33160.60000002384,44989.80000001192,54416,59069.5,62536.89999997616,65813.39999997616]","[]","[0.19999998807907104,7279.699999988079,12007.699999988079,14204,14741.899999976158,20075.69999998808,27611.600000023842,27973.399999976158,31273.899999976158,31779.80000001192,32560.80000001192,33160.60000002384,44119.89999997616,44494.69999998808,44989.80000001192,53373.69999998808,53987.60000002384,54416,58683.80000001192,59069.5,62037.60000002384,62536.89999997616,63263.5,64719.19999998808,65477.89999997616,65813.39999997616,66544.30000001192]","0.4","0.4444444444444444","0","","","","","","","","","","","","","","","","","","","","","","","","","","","","",""
"3389","1754815890088","<p style='font-size:1.1em;line-height:1.25'>Thank you for your answers! Now we will ask you a few more questions relating to your feelings in the last 24 hours.<br></p><p style='font-size:1.1em;line-height:1.25'>Press the <strong>Next</strong> button to continue.</p>","0","custom-html-button-response","6","107754","0.0-4.0-2.0","245","1","2025-08-10 08:49:41","36c45c0696341be0efffe67d72a12abb","71.138.89.249","Mozilla/5.0 (Windows NT 10.0; Win64; x64) AppleWebKit/537.36 (KHTML, like Gecko) Chrome/139.0.0.0 Safari/537.36","WebKit","Chrome","139.0.0.0","Windows","10.0","https://app.prolific.com/","en-US,en;q=0.9","5f0a7dec44c42c19a6c9f6d9","6877649eabb845cf142cd221","68985d209511899d24bcbd46","1","5f0a7dec44c42c19a6c9f6d9","1","2025-08-10T08:51:30.088Z","","","","","","","","","","","","","","","","","","","","","","","","","","","","","","","","","","","","","","","","","",""
"62289.799999952316","","","","survey-template","7","170049","0.0-4.0-3.0","245","1","2025-08-10 08:49:41","36c45c0696341be0efffe67d72a12abb","71.138.89.249","Mozilla/5.0 (Windows NT 10.0; Win64; x64) AppleWebKit/537.36 (KHTML, like Gecko) Chrome/139.0.0.0 Safari/537.36","WebKit","Chrome","139.0.0.0","Windows","10.0","https://app.prolific.com/","en-US,en;q=0.9","5f0a7dec44c42c19a6c9f6d9","6877649eabb845cf142cd221","68985d209511899d24bcbd46","1","5f0a7dec44c42c19a6c9f6d9","1","2025-08-10T08:52:32.383Z","","","","drsp","{""Q01"":""1"",""Q02"":""0"",""Q03"":""0"",""Q04"":""3"",""Q05"":""2"",""Q06"":""1"",""Q07"":""1"",""Q08"":""1"",""Q09"":""1"",""Q10"":""0"",""Q11"":""1"",""Q12"":""2"",""Q13"":""5"",""Q14"":""2"",""Q15"":""1"",""Q16"":""1"",""Q17"":""1"",""Q18"":""0"",""Q19"":""2"",""Q20"":""1"",""Q21"":""1"",""Q22"":""1""}","[0,1,2,3,4,5,6,7,8,9,10,11,12,13,14,15,16,17,18,19,20,21]","[""Q01"",""Q02"",""Q03"",""Q04"",""Q05"",""Q06"",""Q07"",""Q08"",""Q09"",""Q10"",""Q11"",""Q12"",""Q13"",""Q14"",""Q15"",""Q15"",""Q16"",""Q17"",""Q18"",""Q19"",""Q20"",""Q21"",""Q22""]","[3626.5,5086.599999964237,7355.5,8789.299999952316,10470.399999976158,13294.5,17892.799999952316,19346.5,22766.599999964237,24894.899999976158,26291.399999976158,28258.69999998808,30378.69999998808,32237.099999964237,34592.799999952316,36141.09999996424,38345.299999952316,40440.5,41440.799999952316,44062,46904.59999996424,53966.69999998808,58771.299999952316]","[]","[0.09999996423721313,3626.5,5086.599999964237,7355.5,8789.299999952316,10470.399999976158,13294.5,17892.799999952316,19346.5,22766.599999964237,24894.899999976158,26291.399999976158,28258.69999998808,30378.69999998808,32237.099999964237,34592.799999952316,35412.59999996424,35785.19999998808,36141.09999996424,38345.299999952316,40440.5,41440.799999952316,44062,46904.59999996424,53440.5,53966.69999998808,57702.39999997616,58179,58506.69999998808,58771.299999952316,62286.69999998808]","0.5454545454545454","0.42857142857142855","0","","","","","","","","","","","","","","","","","","","","","","","","","","","","",""
"14383.800000011921","","","","survey-template","8","184435","0.0-4.0-4.0","245","1","2025-08-10 08:49:41","36c45c0696341be0efffe67d72a12abb","71.138.89.249","Mozilla/5.0 (Windows NT 10.0; Win64; x64) AppleWebKit/537.36 (KHTML, like Gecko) Chrome/139.0.0.0 Safari/537.36","WebKit","Chrome","139.0.0.0","Windows","10.0","https://app.prolific.com/","en-US,en;q=0.9","5f0a7dec44c42c19a6c9f6d9","6877649eabb845cf142cd221","68985d209511899d24bcbd46","1","5f0a7dec44c42c19a6c9f6d9","1","2025-08-10T08:52:46.769Z","","","","stress","{""Q01"":""2"",""Q02"":""2"",""Q03"":""0""}","[0,1,2]","[""Q01"",""Q01"",""Q02"",""Q03""]","[3433,6025.100000023842,9548.899999976158,12391.199999988079]","[]","[3433,6025.100000023842,9035.199999988079,9548.899999976158,12391.199999988079,14383.100000023842]","0.3333333333333333","0.5","0","","","","","","","","","","","","","","","","","","","","","","","","","","","","",""
"5938","","","","instructions","9","190374","0.0-5.0-0.0","245","1","2025-08-10 08:49:41","36c45c0696341be0efffe67d72a12abb","71.138.89.249","Mozilla/5.0 (Windows NT 10.0; Win64; x64) AppleWebKit/537.36 (KHTML, like Gecko) Chrome/139.0.0.0 Safari/537.36","WebKit","Chrome","139.0.0.0","Windows","10.0","https://app.prolific.com/","en-US,en;q=0.9","5f0a7dec44c42c19a6c9f6d9","6877649eabb845cf142cd221","68985d209511899d24bcbd46","1","5f0a7dec44c42c19a6c9f6d9","1","","","","","","","","","","","","","","","[{""page_index"":0,""viewing_time"":5938}]","","","","","","","","","","","","","","","","","","","","","","","","","","","",""
"4328","","<p>Before you start with this game please answer the following three questions yourself. </p>
  <p>Through this game, we measure several aspects of your cognitive performance, such as reaction times, multi-tasking capabilities </p>
  <p>and the ability to assess the situation you are in.</p>
  <p></p>
  <p><b>How good do you usually are in such tasks?</b></p>","69","html-slider-response","10","194704","0.0-6.0-0.0","245","1","2025-08-10 08:49:41","36c45c0696341be0efffe67d72a12abb","71.138.89.249","Mozilla/5.0 (Windows NT 10.0; Win64; x64) AppleWebKit/537.36 (KHTML, like Gecko) Chrome/139.0.0.0 Safari/537.36","WebKit","Chrome","139.0.0.0","Windows","10.0","https://app.prolific.com/","en-US,en;q=0.9","5f0a7dec44c42c19a6c9f6d9","6877649eabb845cf142cd221","68985d209511899d24bcbd46","1","5f0a7dec44c42c19a6c9f6d9","1","2025-08-10T08:52:57.038Z","","","","PreSkillQ","","","","","","","","","","","50","","","","","","","","","","","","","","","","","","","","","","","","","","",""
"4069","","<div style=""width:500px;"">
  <p>How well do you think you will perform in this task compared to other participants?</p>
  </div>","61","html-slider-response","11","198774","0.0-6.0-1.0","245","1","2025-08-10 08:49:41","36c45c0696341be0efffe67d72a12abb","71.138.89.249","Mozilla/5.0 (Windows NT 10.0; Win64; x64) AppleWebKit/537.36 (KHTML, like Gecko) Chrome/139.0.0.0 Safari/537.36","WebKit","Chrome","139.0.0.0","Windows","10.0","https://app.prolific.com/","en-US,en;q=0.9","5f0a7dec44c42c19a6c9f6d9","6877649eabb845cf142cd221","68985d209511899d24bcbd46","1","5f0a7dec44c42c19a6c9f6d9","1","2025-08-10T08:53:01.108Z","","","","PrePerfQ","","","","","","","","","","","50","","","","","","","","","","","","","","","","","","","","","","","","","","",""
"3261","","<div style=""width:500px;"">
  <p>What best describes how you currently feel?</p>
  </div>","74","html-slider-response","12","202036","0.0-6.0-2.0","245","1","2025-08-10 08:49:41","36c45c0696341be0efffe67d72a12abb","71.138.89.249","Mozilla/5.0 (Windows NT 10.0; Win64; x64) AppleWebKit/537.36 (KHTML, like Gecko) Chrome/139.0.0.0 Safari/537.36","WebKit","Chrome","139.0.0.0","Windows","10.0","https://app.prolific.com/","en-US,en;q=0.9","5f0a7dec44c42c19a6c9f6d9","6877649eabb845cf142cd221","68985d209511899d24bcbd46","1","5f0a7dec44c42c19a6c9f6d9","1","2025-08-10T08:53:04.370Z","","","","PreMotivationQ","","","","","","","","","","","50","","","","","","","","","","","","","","","","","","","","","","","","","","",""
"","","","","ctl-task-cpt","13","238295","0.0-7.0-0.0","245","1","2025-08-10 08:49:41","36c45c0696341be0efffe67d72a12abb","71.138.89.249","Mozilla/5.0 (Windows NT 10.0; Win64; x64) AppleWebKit/537.36 (KHTML, like Gecko) Chrome/139.0.0.0 Safari/537.36","WebKit","Chrome","139.0.0.0","Windows","10.0","https://app.prolific.com/","en-US,en;q=0.9","5f0a7dec44c42c19a6c9f6d9","6877649eabb845cf142cd221","68985d209511899d24bcbd46","1","5f0a7dec44c42c19a6c9f6d9","1","2025-08-10T08:53:40.629Z","","","","","","","","","","","","","","","","win-only","0","g1:NW,g2:SE","1","1","0","205607.2","3768.3","8771.4","33253.9","1","4","8","6","2","8","8","8","0","0.06060606060606061","5003.1","3000","315","[""down"",""right""]","{""num_key_presses"":6,""num_perfect"":6,""num_errors"":0,""num_randdir"":0,""num_randdir_good_moves"":0,""num_whilered"":0,""num_whileblue"":0,""num_blue"":2,""num_good_moves"":6}","[413.0116767883301,427.33984288573265,1,413.0116767883301,427.33984288573265,103,413.0116767883301,427.33984288573265,207.7,413.0116767883301,427.33984288573265,307.7,413.0116767883301,427.33984288573265,412.2,413.0116767883301,427.33984288573265,512.8,413.0116767883301,427.33984288573265,612.9,413.0116767883301,427.33984288573265,718.1,413.0116767883301,427.33984288573265,823.8,413.0116767883301,427.33984288573265,927.9,413.0116767883301,427.33984288573265,1027.9,413.0116767883301,427.33984288573265,1132.7,413.0116767883301,427.33984288573265,1237.2,413.0116767883301,427.33984288573265,1337.4,413.0116767883301,427.33984288573265,1442.4,413.0116767883301,427.33984288573265,1542.7,413.0116767883301,427.33984288573265,1643,413.0116767883301,427.33984288573265,1743,413.0116767883301,427.33984288573265,1847.3,413.0116767883301,427.33984288573265,1947.8,413.0116767883301,427.33984288573265,2049.4,413.0116767883301,427.33984288573265,2152.9,413.0116767883301,427.33984288573265,2252.9,413.0116767883301,427.33984288573265,2353.1,413.0116767883301,427.33984288573265,2457.3,413.0116767883301,427.33984288573265,2559.1,413.0116767883301,427.33984288573265,2664.1,413.0116767883301,427.33984288573265,2767.3,413.0116767883301,427.33984288573265,2868.2,413.0116767883301,427.33984288573265,2973.2,413.0116767883301,427.33984288573265,3077.7,413.0116767883301,427.33984288573265,3177.7,413.0116767883301,427.33984288573265,3282.8,413.0116767883301,427.33984288573265,3389.2,413.0116767883301,427.33984288573265,3493.6,413.0116767883301,427.33984288573265,3597.8,413.0116767883301,427.33984288573265,3702.9,413.0116767883301,427.33984288573265,3807.7,413.0116767883301,427.33984288573265,3909.5,413.0116767883301,427.33984288573265,4013,413.0116767883301,427.33984288573265,4113.8,413.0116767883301,427.33984288573265,4214,413.0116767883301,427.33984288573265,4319.3,413.0116767883301,427.33984288573265,4422.7,413.0116767883301,427.33984288573265,4523,413.0116767883301,427.33984288573265,4629.2,413.0116767883301,427.33984288573265,4732.7,413.0116767883301,427.33984288573265,4832.7,413.0116767883301,427.33984288573265,4934.3]","[1457.8,1457.7,1000,0.1,457.7,""smooth"",""down"",""down"",""good_move"",7735.7,6277.5,1933.1,5235.3,567.3,""smooth"",""right"",""right"",""good_move"",15405.9,7669.8,3025.3,11949.3,431.3,""smooth"",""right"",""right"",""good_move"",18351.8,2945.6,2494.1,15406.2,451.6,""smooth"",""right"",""right"",""good_move"",21278.4,2926,2527.2,18352.5,398.7,""smooth"",""down"",""down"",""good_move"",24382,3102.5,2680.9,21279.5,421.6,""smooth"",""down"",""down"",""good_move""]"
"5597","","<div style=""width:500px;"">
  <p>What determined the result of this run?</p>
  </div>","92","html-slider-response","14","243894","0.0-7.0-1.0","245","1","2025-08-10 08:49:41","36c45c0696341be0efffe67d72a12abb","71.138.89.249","Mozilla/5.0 (Windows NT 10.0; Win64; x64) AppleWebKit/537.36 (KHTML, like Gecko) Chrome/139.0.0.0 Safari/537.36","WebKit","Chrome","139.0.0.0","Windows","10.0","https://app.prolific.com/","en-US,en;q=0.9","5f0a7dec44c42c19a6c9f6d9","6877649eabb845cf142cd221","68985d209511899d24bcbd46","1","5f0a7dec44c42c19a6c9f6d9","1","2025-08-10T08:53:46.228Z","","","","AttribQ","","","","","","","","","","","50","","","","","","","","","","","","","","","","","","","","","","","","","","",""
"2365","","<div style=""width:500px;"">
  <p>How much control did you have over the ball?</p>
  </div>","84","html-slider-response","15","246260","0.0-7.0-2.0","245","1","2025-08-10 08:49:41","36c45c0696341be0efffe67d72a12abb","71.138.89.249","Mozilla/5.0 (Windows NT 10.0; Win64; x64) AppleWebKit/537.36 (KHTML, like Gecko) Chrome/139.0.0.0 Safari/537.36","WebKit","Chrome","139.0.0.0","Windows","10.0","https://app.prolific.com/","en-US,en;q=0.9","5f0a7dec44c42c19a6c9f6d9","6877649eabb845cf142cd221","68985d209511899d24bcbd46","1","5f0a7dec44c42c19a6c9f6d9","1","2025-08-10T08:53:48.594Z","","","","ControlQ","","","","","","","","","","","50","","","","","","","","","","","","","","","","","","","","","","","","","","",""
"3471","","<div style=""width:500px;"">
  <p>How would you describe your current emotional state?</p>
  </div>","28","html-slider-response","16","249732","0.0-7.0-3.0","245","1","2025-08-10 08:49:41","36c45c0696341be0efffe67d72a12abb","71.138.89.249","Mozilla/5.0 (Windows NT 10.0; Win64; x64) AppleWebKit/537.36 (KHTML, like Gecko) Chrome/139.0.0.0 Safari/537.36","WebKit","Chrome","139.0.0.0","Windows","10.0","https://app.prolific.com/","en-US,en;q=0.9","5f0a7dec44c42c19a6c9f6d9","6877649eabb845cf142cd221","68985d209511899d24bcbd46","1","5f0a7dec44c42c19a6c9f6d9","1","2025-08-10T08:53:52.066Z","","","","StressQ","","","","","","","","","","","50","","","","","","","","","","","","","","","","","","","","","","","","","","",""
"2317","","<div style=""width:500px;"">
  <p>What best describes how you currently feel?</p>
  </div>","81","html-slider-response","17","252051","0.0-7.0-4.0","245","1","2025-08-10 08:49:41","36c45c0696341be0efffe67d72a12abb","71.138.89.249","Mozilla/5.0 (Windows NT 10.0; Win64; x64) AppleWebKit/537.36 (KHTML, like Gecko) Chrome/139.0.0.0 Safari/537.36","WebKit","Chrome","139.0.0.0","Windows","10.0","https://app.prolific.com/","en-US,en;q=0.9","5f0a7dec44c42c19a6c9f6d9","6877649eabb845cf142cd221","68985d209511899d24bcbd46","1","5f0a7dec44c42c19a6c9f6d9","1","2025-08-10T08:53:54.385Z","","","","MotivationQ","","","","","","","","","","","50","","","","","","","","","","","","","","","","","","","","","","","","","","",""
"","","","","ctl-task-cpt","18","290628","0.0-7.0-0.1","245","1","2025-08-10 08:49:41","36c45c0696341be0efffe67d72a12abb","71.138.89.249","Mozilla/5.0 (Windows NT 10.0; Win64; x64) AppleWebKit/537.36 (KHTML, like Gecko) Chrome/139.0.0.0 Safari/537.36","WebKit","Chrome","139.0.0.0","Windows","10.0","https://app.prolific.com/","en-US,en;q=0.9","5f0a7dec44c42c19a6c9f6d9","6877649eabb845cf142cd221","68985d209511899d24bcbd46","1","5f0a7dec44c42c19a6c9f6d9","1","2025-08-10T08:54:32.962Z","","","","","","","","","","","","","","","","win-only","1","g1:NE,g2:SW","0.9","2","0","255620.7","1026.9","6031.3","35566.2","1","4","4","6","2","-4","-4","4","8","0.030303030303030304","5004.4","3000","-2700","[""down"",""left""]","{""num_key_presses"":7,""num_perfect"":6,""num_errors"":0,""num_randdir"":1,""num_randdir_good_moves"":0,""num_whilered"":0,""num_whileblue"":0,""num_blue"":2,""num_good_moves"":6}","[416.2929267883301,414.21484288573265,0.4,416.2929267883301,414.21484288573265,104.7,426.1366767883301,427.33984288573265,204.8,504.8866767883301,469.99609288573265,314.2,555.7460517883301,469.99609288573265,418.7,698.4804267883301,450.30859288573265,519.1,870.7460517883301,448.66796788573265,624.4,878.9491767883301,447.02734288573265,730.5,878.9491767883301,447.02734288573265,833.7,878.9491767883301,447.02734288573265,934.8,878.9491767883301,447.02734288573265,1038.9,878.9491767883301,447.02734288573265,1138.9,878.9491767883301,447.02734288573265,1246.8,878.9491767883301,447.02734288573265,1347,878.9491767883301,447.02734288573265,1447.3,878.9491767883301,447.02734288573265,1549.7,878.9491767883301,447.02734288573265,1653.8,878.9491767883301,447.02734288573265,1763.6,878.9491767883301,447.02734288573265,1869.6,878.9491767883301,447.02734288573265,1974.7,878.9491767883301,447.02734288573265,2081.4,878.9491767883301,447.02734288573265,2185.4,878.9491767883301,447.02734288573265,2288.9,878.9491767883301,447.02734288573265,2397.5,878.9491767883301,447.02734288573265,2499.8,878.9491767883301,447.02734288573265,2604.8,878.9491767883301,447.02734288573265,2713.2,878.9491767883301,447.02734288573265,2813.7,878.9491767883301,447.02734288573265,2919.7,878.9491767883301,447.02734288573265,3024.7,878.9491767883301,447.02734288573265,3130.9,878.9491767883301,447.02734288573265,3234.6,878.9491767883301,447.02734288573265,3334.7,878.9491767883301,447.02734288573265,3434.7,878.9491767883301,447.02734288573265,3536,878.9491767883301,447.02734288573265,3639,878.9491767883301,447.02734288573265,3746.5,878.9491767883301,447.02734288573265,3846.6,878.9491767883301,447.02734288573265,3949,878.9491767883301,447.02734288573265,4054.3,878.9491767883301,447.02734288573265,4163.8,878.9491767883301,447.02734288573265,4269.3,878.9491767883301,447.02734288573265,4369.6,878.9491767883301,447.02734288573265,4475.6,878.9491767883301,447.02734288573265,4580.9,878.9491767883301,447.02734288573265,4681.8,878.9491767883301,447.02734288573265,4784.7,878.9491767883301,447.02734288573265,4888.7,878.9491767883301,447.02734288573265,4988.7]","[9175.1,9175.1,2801.8,5915.3,458,""smooth"",""down"",""down"",""good_move"",11960.4,2784.9,2379,9175.5,405.9,""smooth"",""down"",""down"",""good_move"",14862.3,2901.7,2492.1,11960.7,409.5,""smooth"",""down"",""down"",""good_move"",18692.1,3829.5,2952,14862.6,877.5,""smooth"",""left"",""left"",""good_move"",21279,2586.4,2198,18692.6,388.4,""oops"",""left"",""right"",""bad_move"",24132,2851.9,2474.7,21280.1,377.2,""smooth"",""left"",""left"",""good_move"",27483.3,3351,2935.5,24132.3,415.5,""smooth"",""left"",""left"",""good_move""]"
"4027","","<div style=""width:500px;"">
  <p>What determined the result of this run?</p>
  </div>","22","html-slider-response","19","294657","0.0-7.0-1.1","245","1","2025-08-10 08:49:41","36c45c0696341be0efffe67d72a12abb","71.138.89.249","Mozilla/5.0 (Windows NT 10.0; Win64; x64) AppleWebKit/537.36 (KHTML, like Gecko) Chrome/139.0.0.0 Safari/537.36","WebKit","Chrome","139.0.0.0","Windows","10.0","https://app.prolific.com/","en-US,en;q=0.9","5f0a7dec44c42c19a6c9f6d9","6877649eabb845cf142cd221","68985d209511899d24bcbd46","1","5f0a7dec44c42c19a6c9f6d9","1","2025-08-10T08:54:36.991Z","","","","AttribQ","","","","","","","","","","","50","","","","","","","","","","","","","","","","","","","","","","","","","","",""
"2200","","<div style=""width:500px;"">
  <p>How much control did you have over the ball?</p>
  </div>","26","html-slider-response","20","296858","0.0-7.0-2.1","245","1","2025-08-10 08:49:41","36c45c0696341be0efffe67d72a12abb","71.138.89.249","Mozilla/5.0 (Windows NT 10.0; Win64; x64) AppleWebKit/537.36 (KHTML, like Gecko) Chrome/139.0.0.0 Safari/537.36","WebKit","Chrome","139.0.0.0","Windows","10.0","https://app.prolific.com/","en-US,en;q=0.9","5f0a7dec44c42c19a6c9f6d9","6877649eabb845cf142cd221","68985d209511899d24bcbd46","1","5f0a7dec44c42c19a6c9f6d9","1","2025-08-10T08:54:39.192Z","","","","ControlQ","","","","","","","","","","","50","","","","","","","","","","","","","","","","","","","","","","","","","","",""
"2204","","<div style=""width:500px;"">
  <p>How would you describe your current emotional state?</p>
  </div>","59","html-slider-response","21","299064","0.0-7.0-3.1","245","1","2025-08-10 08:49:41","36c45c0696341be0efffe67d72a12abb","71.138.89.249","Mozilla/5.0 (Windows NT 10.0; Win64; x64) AppleWebKit/537.36 (KHTML, like Gecko) Chrome/139.0.0.0 Safari/537.36","WebKit","Chrome","139.0.0.0","Windows","10.0","https://app.prolific.com/","en-US,en;q=0.9","5f0a7dec44c42c19a6c9f6d9","6877649eabb845cf142cd221","68985d209511899d24bcbd46","1","5f0a7dec44c42c19a6c9f6d9","1","2025-08-10T08:54:41.398Z","","","","StressQ","","","","","","","","","","","50","","","","","","","","","","","","","","","","","","","","","","","","","","",""
"1892","","<div style=""width:500px;"">
  <p>What best describes how you currently feel?</p>
  </div>","73","html-slider-response","22","300958","0.0-7.0-4.1","245","1","2025-08-10 08:49:41","36c45c0696341be0efffe67d72a12abb","71.138.89.249","Mozilla/5.0 (Windows NT 10.0; Win64; x64) AppleWebKit/537.36 (KHTML, like Gecko) Chrome/139.0.0.0 Safari/537.36","WebKit","Chrome","139.0.0.0","Windows","10.0","https://app.prolific.com/","en-US,en;q=0.9","5f0a7dec44c42c19a6c9f6d9","6877649eabb845cf142cd221","68985d209511899d24bcbd46","1","5f0a7dec44c42c19a6c9f6d9","1","2025-08-10T08:54:43.292Z","","","","MotivationQ","","","","","","","","","","","50","","","","","","","","","","","","","","","","","","","","","","","","","","",""
"","","","","ctl-task-cpt","23","333045","0.0-7.0-0.2","245","1","2025-08-10 08:49:41","36c45c0696341be0efffe67d72a12abb","71.138.89.249","Mozilla/5.0 (Windows NT 10.0; Win64; x64) AppleWebKit/537.36 (KHTML, like Gecko) Chrome/139.0.0.0 Safari/537.36","WebKit","Chrome","139.0.0.0","Windows","10.0","https://app.prolific.com/","en-US,en;q=0.9","5f0a7dec44c42c19a6c9f6d9","6877649eabb845cf142cd221","68985d209511899d24bcbd46","1","5f0a7dec44c42c19a6c9f6d9","1","2025-08-10T08:55:15.379Z","","","","","","","","","","","","","","","","win-only","2","g1:SE,g2:NW","0.8","3","0","304529.1","1911","6917.8","29072.7","1","4","8","6","2","8","7","11","4","0.08333333333333333","5006.8","3000","645","[""left"",""up""]","{""num_key_presses"":8,""num_perfect"":6,""num_errors"":1,""num_randdir"":1,""num_randdir_good_moves"":1,""num_whilered"":0,""num_whileblue"":1,""num_blue"":1,""num_good_moves"":7}","[411.3710517883301,412.57421788573265,0.2,411.3710517883301,412.57421788573265,102.9,513.0898017883301,443.74609288573265,204.4,773.9491767883301,430.62109288573265,305,821.5273017883301,425.69921788573265,405.2,864.1835517883301,417.49609288573265,509.3,1006.9179267883301,396.16796788573265,610.3,1006.9179267883301,396.16796788573265,715,1013.4804267883301,394.52734288573265,815.1,1020.0429267883301,391.24609288573265,918.4,1020.0429267883301,391.24609288573265,1020.9,1020.0429267883301,391.24609288573265,1124.7,1020.0429267883301,391.24609288573265,1224.7,1020.0429267883301,391.24609288573265,1328.3,1020.0429267883301,391.24609288573265,1429.7,1020.0429267883301,391.24609288573265,1534.8,1020.0429267883301,391.24609288573265,1636.9,1020.0429267883301,391.24609288573265,1737.9,1020.0429267883301,391.24609288573265,1840.2,1020.0429267883301,391.24609288573265,1944.6,1020.0429267883301,391.24609288573265,2044.6,1020.0429267883301,391.24609288573265,2145.2,1020.0429267883301,391.24609288573265,2249.3,1020.0429267883301,391.24609288573265,2349.4,1020.0429267883301,391.24609288573265,2450.7,1020.0429267883301,391.24609288573265,2558.6,1020.0429267883301,391.24609288573265,2661.3,1020.0429267883301,391.24609288573265,2764.9,1020.0429267883301,391.24609288573265,2874.3,1020.0429267883301,391.24609288573265,2975.8,1020.0429267883301,391.24609288573265,3077.2,1020.0429267883301,391.24609288573265,3179.4,1020.0429267883301,391.24609288573265,3280.1,1020.0429267883301,391.24609288573265,3389.1,1020.0429267883301,391.24609288573265,3489.7,1020.0429267883301,391.24609288573265,3595,1020.0429267883301,391.24609288573265,3695,1020.0429267883301,391.24609288573265,3795.6,1020.0429267883301,391.24609288573265,3905.6,1020.0429267883301,391.24609288573265,4006.3,1020.0429267883301,391.24609288573265,4109.9,1020.0429267883301,391.24609288573265,4214.9,1020.0429267883301,391.24609288573265,4316,1020.0429267883301,391.24609288573265,4423.2,1020.0429267883301,391.24609288573265,4524,1020.0429267883301,391.24609288573265,4625.7,1020.0429267883301,391.24609288573265,4730.4,1020.0429267883301,391.24609288573265,4837,1020.0429267883301,391.24609288573265,4939.1]","[1430.6,1430.6,1000,0,430.6,""smooth"",""up"",""up"",""good_move"",4064,2633,2217.4,1431,415.6,""smooth"",""left"",""left"",""good_move"",7749.6,3685.2,3302.6,4064.4,382.6,""smooth"",""left"",""left"",""good_move"",10881,3131.3,2769.4,7749.9,361.8,""smooth"",""up"",""up"",""good_move"",13698.1,2816.7,2460.8,10881.4,355.9,""oops"",""left"",""left"",""good_move"",16501.5,2802.5,2500.2,13699.1,302.2,""while_blue"",""up"",""down"",""bad_move"",19230.7,2728.6,2268.6,16502.1,460,""smooth"",""up"",""up"",""good_move"",22035.4,2804.4,2408,19231,396.4,""smooth"",""up"",""up"",""good_move""]"
"2534","","<div style=""width:500px;"">
  <p>What determined the result of this run?</p>
  </div>","86","html-slider-response","24","335580","0.0-7.0-1.2","245","1","2025-08-10 08:49:41","36c45c0696341be0efffe67d72a12abb","71.138.89.249","Mozilla/5.0 (Windows NT 10.0; Win64; x64) AppleWebKit/537.36 (KHTML, like Gecko) Chrome/139.0.0.0 Safari/537.36","WebKit","Chrome","139.0.0.0","Windows","10.0","https://app.prolific.com/","en-US,en;q=0.9","5f0a7dec44c42c19a6c9f6d9","6877649eabb845cf142cd221","68985d209511899d24bcbd46","1","5f0a7dec44c42c19a6c9f6d9","1","2025-08-10T08:55:17.914Z","","","","AttribQ","","","","","","","","","","","50","","","","","","","","","","","","","","","","","","","","","","","","","","",""
"2006","","<div style=""width:500px;"">
  <p>How much control did you have over the ball?</p>
  </div>","84","html-slider-response","25","337587","0.0-7.0-2.2","245","1","2025-08-10 08:49:41","36c45c0696341be0efffe67d72a12abb","71.138.89.249","Mozilla/5.0 (Windows NT 10.0; Win64; x64) AppleWebKit/537.36 (KHTML, like Gecko) Chrome/139.0.0.0 Safari/537.36","WebKit","Chrome","139.0.0.0","Windows","10.0","https://app.prolific.com/","en-US,en;q=0.9","5f0a7dec44c42c19a6c9f6d9","6877649eabb845cf142cd221","68985d209511899d24bcbd46","1","5f0a7dec44c42c19a6c9f6d9","1","2025-08-10T08:55:19.921Z","","","","ControlQ","","","","","","","","","","","50","","","","","","","","","","","","","","","","","","","","","","","","","","",""
"2336","","<div style=""width:500px;"">
  <p>How would you describe your current emotional state?</p>
  </div>","35","html-slider-response","26","339925","0.0-7.0-3.2","245","1","2025-08-10 08:49:41","36c45c0696341be0efffe67d72a12abb","71.138.89.249","Mozilla/5.0 (Windows NT 10.0; Win64; x64) AppleWebKit/537.36 (KHTML, like Gecko) Chrome/139.0.0.0 Safari/537.36","WebKit","Chrome","139.0.0.0","Windows","10.0","https://app.prolific.com/","en-US,en;q=0.9","5f0a7dec44c42c19a6c9f6d9","6877649eabb845cf142cd221","68985d209511899d24bcbd46","1","5f0a7dec44c42c19a6c9f6d9","1","2025-08-10T08:55:22.259Z","","","","StressQ","","","","","","","","","","","50","","","","","","","","","","","","","","","","","","","","","","","","","","",""
"1575","","<div style=""width:500px;"">
  <p>What best describes how you currently feel?</p>
  </div>","83","html-slider-response","27","341501","0.0-7.0-4.2","245","1","2025-08-10 08:49:41","36c45c0696341be0efffe67d72a12abb","71.138.89.249","Mozilla/5.0 (Windows NT 10.0; Win64; x64) AppleWebKit/537.36 (KHTML, like Gecko) Chrome/139.0.0.0 Safari/537.36","WebKit","Chrome","139.0.0.0","Windows","10.0","https://app.prolific.com/","en-US,en;q=0.9","5f0a7dec44c42c19a6c9f6d9","6877649eabb845cf142cd221","68985d209511899d24bcbd46","1","5f0a7dec44c42c19a6c9f6d9","1","2025-08-10T08:55:23.835Z","","","","MotivationQ","","","","","","","","","","","50","","","","","","","","","","","","","","","","","","","","","","","","","","",""
"","","","","ctl-task-cpt","28","381146","0.0-7.0-0.3","245","1","2025-08-10 08:49:41","36c45c0696341be0efffe67d72a12abb","71.138.89.249","Mozilla/5.0 (Windows NT 10.0; Win64; x64) AppleWebKit/537.36 (KHTML, like Gecko) Chrome/139.0.0.0 Safari/537.36","WebKit","Chrome","139.0.0.0","Windows","10.0","https://app.prolific.com/","en-US,en;q=0.9","5f0a7dec44c42c19a6c9f6d9","6877649eabb845cf142cd221","68985d209511899d24bcbd46","1","5f0a7dec44c42c19a6c9f6d9","1","2025-08-10T08:56:03.480Z","","","","","","","","","","","","","","","","win-only","0","g1:NW,g2:SE","0.7","4","0","345072.7","1150.3","6158.4","36625.9","1","4","4","6","2","4","4","15","11","0.11363636363636363","5008.1","3000","560","[""down"",""right""]","{""num_key_presses"":8,""num_perfect"":6,""num_errors"":0,""num_randdir"":2,""num_randdir_good_moves"":1,""num_whilered"":0,""num_whileblue"":0,""num_blue"":3,""num_good_moves"":7}","[404.8085517883301,417.49609288573265,0.2,403.1679267883301,417.49609288573265,108.8,406.4491767883301,417.49609288573265,212,703.4023017883301,360.07421788573265,315.8,964.2616767883301,317.41796788573265,415.9,964.2616767883301,317.41796788573265,516,964.2616767883301,317.41796788573265,619.8,964.2616767883301,317.41796788573265,720.6,964.2616767883301,317.41796788573265,824.4,965.9023017883301,317.41796788573265,925.2,965.9023017883301,317.41796788573265,1027.4,965.9023017883301,317.41796788573265,1127.7,965.9023017883301,317.41796788573265,1230.6,965.9023017883301,317.41796788573265,1340.8,965.9023017883301,317.41796788573265,1443,965.9023017883301,317.41796788573265,1545.6,965.9023017883301,317.41796788573265,1648.9,965.9023017883301,317.41796788573265,1750.7,965.9023017883301,317.41796788573265,1857.4,965.9023017883301,317.41796788573265,1961.8,965.9023017883301,317.41796788573265,2074.5,965.9023017883301,317.41796788573265,2175.8,965.9023017883301,317.41796788573265,2280.8,965.9023017883301,317.41796788573265,2385.8,965.9023017883301,317.41796788573265,2486.3,965.9023017883301,317.41796788573265,2590.8,965.9023017883301,317.41796788573265,2690.8,965.9023017883301,317.41796788573265,2795,965.9023017883301,317.41796788573265,2895.3,965.9023017883301,317.41796788573265,2995.4,965.9023017883301,317.41796788573265,3095.6,965.9023017883301,317.41796788573265,3196.9,965.9023017883301,317.41796788573265,3300.1,965.9023017883301,317.41796788573265,3402.9,965.9023017883301,317.41796788573265,3508,965.9023017883301,317.41796788573265,3609.2,965.9023017883301,317.41796788573265,3709.9,965.9023017883301,317.41796788573265,3811.2,965.9023017883301,317.41796788573265,3913.6,965.9023017883301,317.41796788573265,4015.3,965.9023017883301,317.41796788573265,4120.7,965.9023017883301,317.41796788573265,4225.3,965.9023017883301,317.41796788573265,4326.4,965.9023017883301,317.41796788573265,4430.4,965.9023017883301,317.41796788573265,4540.2,965.9023017883301,317.41796788573265,4640.2,965.9023017883301,317.41796788573265,4740.2,965.9023017883301,317.41796788573265,4840.8,965.9023017883301,317.41796788573265,4946.8]","[1380.5,1380.5,1000,0,380.5,""smooth"",""right"",""right"",""good_move"",4305.6,2924.2,2520.5,1381.4,403.7,""smooth"",""right"",""right"",""good_move"",10015.7,5709.9,1851,7752.1,412.6,""smooth"",""right"",""right"",""good_move"",12671,2655.1,2288.8,10015.9,366.3,""smooth"",""down"",""down"",""good_move"",18271.9,5600.5,2176.1,15717.9,377.9,""oops"",""down"",""up"",""bad_move"",20837.3,2564.9,2137.7,18272.4,427.2,""smooth"",""down"",""down"",""good_move"",26983.2,6145.4,2035.1,24604,344.1,""oops"",""down"",""down"",""good_move"",30353.6,3369.7,3043.5,26983.9,326.2,""smooth"",""down"",""down"",""good_move""]"
"2721","","<div style=""width:500px;"">
  <p>What determined the result of this run?</p>
  </div>","82","html-slider-response","29","383869","0.0-7.0-1.3","245","1","2025-08-10 08:49:41","36c45c0696341be0efffe67d72a12abb","71.138.89.249","Mozilla/5.0 (Windows NT 10.0; Win64; x64) AppleWebKit/537.36 (KHTML, like Gecko) Chrome/139.0.0.0 Safari/537.36","WebKit","Chrome","139.0.0.0","Windows","10.0","https://app.prolific.com/","en-US,en;q=0.9","5f0a7dec44c42c19a6c9f6d9","6877649eabb845cf142cd221","68985d209511899d24bcbd46","1","5f0a7dec44c42c19a6c9f6d9","1","2025-08-10T08:56:06.203Z","","","","AttribQ","","","","","","","","","","","50","","","","","","","","","","","","","","","","","","","","","","","","","","",""
"1766","","<div style=""width:500px;"">
  <p>How much control did you have over the ball?</p>
  </div>","78","html-slider-response","30","385636","0.0-7.0-2.3","245","1","2025-08-10 08:49:41","36c45c0696341be0efffe67d72a12abb","71.138.89.249","Mozilla/5.0 (Windows NT 10.0; Win64; x64) AppleWebKit/537.36 (KHTML, like Gecko) Chrome/139.0.0.0 Safari/537.36","WebKit","Chrome","139.0.0.0","Windows","10.0","https://app.prolific.com/","en-US,en;q=0.9","5f0a7dec44c42c19a6c9f6d9","6877649eabb845cf142cd221","68985d209511899d24bcbd46","1","5f0a7dec44c42c19a6c9f6d9","1","2025-08-10T08:56:07.971Z","","","","ControlQ","","","","","","","","","","","50","","","","","","","","","","","","","","","","","","","","","","","","","","",""
"2494","","<div style=""width:500px;"">
  <p>How would you describe your current emotional state?</p>
  </div>","33","html-slider-response","31","388132","0.0-7.0-3.3","245","1","2025-08-10 08:49:41","36c45c0696341be0efffe67d72a12abb","71.138.89.249","Mozilla/5.0 (Windows NT 10.0; Win64; x64) AppleWebKit/537.36 (KHTML, like Gecko) Chrome/139.0.0.0 Safari/537.36","WebKit","Chrome","139.0.0.0","Windows","10.0","https://app.prolific.com/","en-US,en;q=0.9","5f0a7dec44c42c19a6c9f6d9","6877649eabb845cf142cd221","68985d209511899d24bcbd46","1","5f0a7dec44c42c19a6c9f6d9","1","2025-08-10T08:56:10.466Z","","","","StressQ","","","","","","","","","","","50","","","","","","","","","","","","","","","","","","","","","","","","","","",""
"3171","","<div style=""width:500px;"">
  <p>What best describes how you currently feel?</p>
  </div>","76","html-slider-response","32","391304","0.0-7.0-4.3","245","1","2025-08-10 08:49:41","36c45c0696341be0efffe67d72a12abb","71.138.89.249","Mozilla/5.0 (Windows NT 10.0; Win64; x64) AppleWebKit/537.36 (KHTML, like Gecko) Chrome/139.0.0.0 Safari/537.36","WebKit","Chrome","139.0.0.0","Windows","10.0","https://app.prolific.com/","en-US,en;q=0.9","5f0a7dec44c42c19a6c9f6d9","6877649eabb845cf142cd221","68985d209511899d24bcbd46","1","5f0a7dec44c42c19a6c9f6d9","1","2025-08-10T08:56:13.638Z","","","","MotivationQ","","","","","","","","","","","50","","","","","","","","","","","","","","","","","","","","","","","","","","",""
"","","","","ctl-task-cpt","33","413151","0.0-7.0-0.4","245","1","2025-08-10 08:49:41","36c45c0696341be0efffe67d72a12abb","71.138.89.249","Mozilla/5.0 (Windows NT 10.0; Win64; x64) AppleWebKit/537.36 (KHTML, like Gecko) Chrome/139.0.0.0 Safari/537.36","WebKit","Chrome","139.0.0.0","Windows","10.0","https://app.prolific.com/","en-US,en;q=0.9","5f0a7dec44c42c19a6c9f6d9","6877649eabb845cf142cd221","68985d209511899d24bcbd46","1","5f0a7dec44c42c19a6c9f6d9","1","2025-08-10T08:56:35.485Z","","","","","","","","","","","","","","","","win-only","2","g1:SE,g2:NW","0.6","5","0","394875.2","1239.1","6239.9","18820.9","1","4","8","6","1","1","1","16","15","0.12121212121212122","5000.7","3000","1805","[""down"",""right""]","{""num_key_presses"":4,""num_perfect"":4,""num_errors"":0,""num_randdir"":0,""num_randdir_good_moves"":0,""num_whilered"":0,""num_whileblue"":0,""num_blue"":1,""num_good_moves"":4}","[417.9335517883301,412.57421788573265,0.3,417.9335517883301,412.57421788573265,104.6,424.4960517883301,412.57421788573265,206.4,465.5116767883301,417.49609288573265,307,488.4804267883301,422.41796788573265,407.4,498.3241767883301,425.69921788573265,507.4,583.6366767883301,461.79296788573265,608.4,604.9648017883301,463.43359288573265,713.1,604.9648017883301,463.43359288573265,816.5,604.9648017883301,463.43359288573265,916.6,608.2460517883301,463.43359288573265,1016.8,773.9491767883301,374.83984288573265,1117,988.8710517883301,284.60546788573265,1217.8,1020.0429267883301,268.19921788573265,1322.1,1097.15230178833,253.43359288573265,1436,1097.15230178833,253.43359288573265,1536.2,1100.43355178833,253.43359288573265,1636.5,1100.43355178833,253.43359288573265,1738.1,1100.43355178833,253.43359288573265,1841.4,1100.43355178833,253.43359288573265,1942.3,1100.43355178833,253.43359288573265,2050.8,1100.43355178833,253.43359288573265,2151.2,1100.43355178833,253.43359288573265,2251.8,1100.43355178833,253.43359288573265,2352.1,1100.43355178833,253.43359288573265,2456.8,1100.43355178833,253.43359288573265,2557,1100.43355178833,253.43359288573265,2662.8,1100.43355178833,253.43359288573265,2768,1100.43355178833,253.43359288573265,2872.5,1100.43355178833,253.43359288573265,2978,1100.43355178833,253.43359288573265,3085.4,1100.43355178833,253.43359288573265,3187,1100.43355178833,253.43359288573265,3287.2,1100.43355178833,253.43359288573265,3388.1,1100.43355178833,253.43359288573265,3491.6,1100.43355178833,253.43359288573265,3597.5,1100.43355178833,253.43359288573265,3700.6,1100.43355178833,253.43359288573265,3801.3,1100.43355178833,253.43359288573265,3902.2,1100.43355178833,253.43359288573265,4007.9,1100.43355178833,253.43359288573265,4118,1100.43355178833,253.43359288573265,4221.9,1100.43355178833,253.43359288573265,4325.6,1100.43355178833,253.43359288573265,4427.4,1100.43355178833,253.43359288573265,4536.9,1100.43355178833,253.43359288573265,4641.4,1100.43355178833,253.43359288573265,4749.5,1100.43355178833,253.43359288573265,4851.1,1100.43355178833,253.43359288573265,4951.2]","[1397.1,1397.1,1000,0,397.1,""smooth"",""down"",""down"",""good_move"",4767.7,3369.7,2965.8,1398,403.9,""smooth"",""down"",""down"",""good_move"",7431.1,2663.1,2289.7,4768,373.4,""smooth"",""right"",""right"",""good_move"",12466.4,5034.3,1577.3,10503.7,385.4,""smooth"",""right"",""right"",""good_move""]"
"2688","","<div style=""width:500px;"">
  <p>What determined the result of this run?</p>
  </div>","88","html-slider-response","34","415840","0.0-7.0-1.4","245","1","2025-08-10 08:49:41","36c45c0696341be0efffe67d72a12abb","71.138.89.249","Mozilla/5.0 (Windows NT 10.0; Win64; x64) AppleWebKit/537.36 (KHTML, like Gecko) Chrome/139.0.0.0 Safari/537.36","WebKit","Chrome","139.0.0.0","Windows","10.0","https://app.prolific.com/","en-US,en;q=0.9","5f0a7dec44c42c19a6c9f6d9","6877649eabb845cf142cd221","68985d209511899d24bcbd46","1","5f0a7dec44c42c19a6c9f6d9","1","2025-08-10T08:56:38.174Z","","","","AttribQ","","","","","","","","","","","50","","","","","","","","","","","","","","","","","","","","","","","","","","",""
"2493","","<div style=""width:500px;"">
  <p>How much control did you have over the ball?</p>
  </div>","86","html-slider-response","35","418335","0.0-7.0-2.4","245","1","2025-08-10 08:49:41","36c45c0696341be0efffe67d72a12abb","71.138.89.249","Mozilla/5.0 (Windows NT 10.0; Win64; x64) AppleWebKit/537.36 (KHTML, like Gecko) Chrome/139.0.0.0 Safari/537.36","WebKit","Chrome","139.0.0.0","Windows","10.0","https://app.prolific.com/","en-US,en;q=0.9","5f0a7dec44c42c19a6c9f6d9","6877649eabb845cf142cd221","68985d209511899d24bcbd46","1","5f0a7dec44c42c19a6c9f6d9","1","2025-08-10T08:56:40.669Z","","","","ControlQ","","","","","","","","","","","50","","","","","","","","","","","","","","","","","","","","","","","","","","",""
"2957","","<div style=""width:500px;"">
  <p>How would you describe your current emotional state?</p>
  </div>","21","html-slider-response","36","421293","0.0-7.0-3.4","245","1","2025-08-10 08:49:41","36c45c0696341be0efffe67d72a12abb","71.138.89.249","Mozilla/5.0 (Windows NT 10.0; Win64; x64) AppleWebKit/537.36 (KHTML, like Gecko) Chrome/139.0.0.0 Safari/537.36","WebKit","Chrome","139.0.0.0","Windows","10.0","https://app.prolific.com/","en-US,en;q=0.9","5f0a7dec44c42c19a6c9f6d9","6877649eabb845cf142cd221","68985d209511899d24bcbd46","1","5f0a7dec44c42c19a6c9f6d9","1","2025-08-10T08:56:43.627Z","","","","StressQ","","","","","","","","","","","50","","","","","","","","","","","","","","","","","","","","","","","","","","",""
"1578","","<div style=""width:500px;"">
  <p>What best describes how you currently feel?</p>
  </div>","90","html-slider-response","37","422872","0.0-7.0-4.4","245","1","2025-08-10 08:49:41","36c45c0696341be0efffe67d72a12abb","71.138.89.249","Mozilla/5.0 (Windows NT 10.0; Win64; x64) AppleWebKit/537.36 (KHTML, like Gecko) Chrome/139.0.0.0 Safari/537.36","WebKit","Chrome","139.0.0.0","Windows","10.0","https://app.prolific.com/","en-US,en;q=0.9","5f0a7dec44c42c19a6c9f6d9","6877649eabb845cf142cd221","68985d209511899d24bcbd46","1","5f0a7dec44c42c19a6c9f6d9","1","2025-08-10T08:56:45.206Z","","","","MotivationQ","","","","","","","","","","","50","","","","","","","","","","","","","","","","","","","","","","","","","","",""
"","","","","ctl-task-cpt","38","466868","0.0-7.0-0.5","245","1","2025-08-10 08:49:41","36c45c0696341be0efffe67d72a12abb","71.138.89.249","Mozilla/5.0 (Windows NT 10.0; Win64; x64) AppleWebKit/537.36 (KHTML, like Gecko) Chrome/139.0.0.0 Safari/537.36","WebKit","Chrome","139.0.0.0","Windows","10.0","https://app.prolific.com/","en-US,en;q=0.9","5f0a7dec44c42c19a6c9f6d9","6877649eabb845cf142cd221","68985d209511899d24bcbd46","1","5f0a7dec44c42c19a6c9f6d9","1","2025-08-10T08:57:29.202Z","","","","","","","","","","","","","","","","win-only","0","g1:NW,g2:SE","0.5","6","0","426443.1","980","5984.5","40976.5","1","4","4","6","1","1","1","17","16","0.12878787878787878","5004.5","3000","495","[""left"",""up""]","{""num_key_presses"":10,""num_perfect"":5,""num_errors"":0,""num_randdir"":5,""num_randdir_good_moves"":2,""num_whilered"":0,""num_whileblue"":0,""num_blue"":2,""num_good_moves"":7}","[426.1366767883301,424.05859288573265,0.1,426.1366767883301,424.05859288573265,111.1,434.3398017883301,424.05859288573265,211.7,529.4960517883301,440.46484288573265,315.1,682.0741767883301,455.23046788573265,415.5,685.3554267883301,455.23046788573265,516.6,688.6366767883301,455.23046788573265,628.1,688.6366767883301,455.23046788573265,731.8,877.3085517883301,435.54296788573265,838.2,982.3085517883301,427.33984288573265,941.6,982.3085517883301,427.33984288573265,1045.7,982.3085517883301,427.33984288573265,1160.6,982.3085517883301,427.33984288573265,1260.7,982.3085517883301,427.33984288573265,1365.8,982.3085517883301,427.33984288573265,1470.9,982.3085517883301,427.33984288573265,1575.1,982.3085517883301,427.33984288573265,1679.1,982.3085517883301,427.33984288573265,1783.2,982.3085517883301,427.33984288573265,1887.2,982.3085517883301,427.33984288573265,1991.1,982.3085517883301,427.33984288573265,2092.3,982.3085517883301,427.33984288573265,2196.1,982.3085517883301,427.33984288573265,2296.6,982.3085517883301,427.33984288573265,2410.5,982.3085517883301,427.33984288573265,2515.9,982.3085517883301,427.33984288573265,2620.3,982.3085517883301,427.33984288573265,2721.8,982.3085517883301,427.33984288573265,2826.1,982.3085517883301,427.33984288573265,2930.7,982.3085517883301,427.33984288573265,3038,982.3085517883301,427.33984288573265,3149.9,982.3085517883301,427.33984288573265,3259.8,982.3085517883301,427.33984288573265,3360.8,982.3085517883301,427.33984288573265,3462.3,982.3085517883301,427.33984288573265,3577.1,982.3085517883301,427.33984288573265,3677.2,982.3085517883301,427.33984288573265,3780.3,982.3085517883301,427.33984288573265,3880.8,982.3085517883301,427.33984288573265,3982.7,982.3085517883301,427.33984288573265,4086.9,982.3085517883301,427.33984288573265,4197.1,982.3085517883301,427.33984288573265,4308.1,982.3085517883301,427.33984288573265,4410.3,982.3085517883301,427.33984288573265,4518.5,982.3085517883301,427.33984288573265,4623.9,982.3085517883301,427.33984288573265,4726.7,982.3085517883301,427.33984288573265,4827.7,982.3085517883301,427.33984288573265,4928.5]","[1401,1401,1000,0,401,""oops"",""up"",""left"",""good_move"",7972.7,6570.9,2803.3,4838,331.4,""smooth"",""up"",""up"",""good_move"",11276.9,3303.7,2966.3,7973.2,337.4,""smooth"",""up"",""up"",""good_move"",13755.3,2478,2112.9,11277.3,365.1,""oops"",""left"",""right"",""bad_move"",16856.6,3101,2723.6,13755.6,377.4,""oops"",""left"",""left"",""good_move"",22506.6,5649.5,2103.4,20056.2,347,""oops"",""left"",""right"",""bad_move"",26126.6,3619.6,3249.8,22507.1,369.8,""smooth"",""left"",""left"",""good_move"",28962.6,2835.7,2518.2,26126.9,317.5,""oops"",""left"",""right"",""bad_move"",31706.1,2741.2,2386.8,28964.9,354.4,""smooth"",""left"",""left"",""good_move"",34858.8,3152.4,2803.7,31706.5,348.6,""smooth"",""left"",""left"",""good_move""]"
"3435","","<div style=""width:500px;"">
  <p>What determined the result of this run?</p>
  </div>","75","html-slider-response","39","470304","0.0-7.0-1.5","245","1","2025-08-10 08:49:41","36c45c0696341be0efffe67d72a12abb","71.138.89.249","Mozilla/5.0 (Windows NT 10.0; Win64; x64) AppleWebKit/537.36 (KHTML, like Gecko) Chrome/139.0.0.0 Safari/537.36","WebKit","Chrome","139.0.0.0","Windows","10.0","https://app.prolific.com/","en-US,en;q=0.9","5f0a7dec44c42c19a6c9f6d9","6877649eabb845cf142cd221","68985d209511899d24bcbd46","1","5f0a7dec44c42c19a6c9f6d9","1","2025-08-10T08:57:32.639Z","","","","AttribQ","","","","","","","","","","","50","","","","","","","","","","","","","","","","","","","","","","","","","","",""
"1508","","<div style=""width:500px;"">
  <p>How much control did you have over the ball?</p>
  </div>","40","html-slider-response","40","471814","0.0-7.0-2.5","245","1","2025-08-10 08:49:41","36c45c0696341be0efffe67d72a12abb","71.138.89.249","Mozilla/5.0 (Windows NT 10.0; Win64; x64) AppleWebKit/537.36 (KHTML, like Gecko) Chrome/139.0.0.0 Safari/537.36","WebKit","Chrome","139.0.0.0","Windows","10.0","https://app.prolific.com/","en-US,en;q=0.9","5f0a7dec44c42c19a6c9f6d9","6877649eabb845cf142cd221","68985d209511899d24bcbd46","1","5f0a7dec44c42c19a6c9f6d9","1","2025-08-10T08:57:34.148Z","","","","ControlQ","","","","","","","","","","","50","","","","","","","","","","","","","","","","","","","","","","","","","","",""
"2362","","<div style=""width:500px;"">
  <p>How would you describe your current emotional state?</p>
  </div>","55","html-slider-response","41","474178","0.0-7.0-3.5","245","1","2025-08-10 08:49:41","36c45c0696341be0efffe67d72a12abb","71.138.89.249","Mozilla/5.0 (Windows NT 10.0; Win64; x64) AppleWebKit/537.36 (KHTML, like Gecko) Chrome/139.0.0.0 Safari/537.36","WebKit","Chrome","139.0.0.0","Windows","10.0","https://app.prolific.com/","en-US,en;q=0.9","5f0a7dec44c42c19a6c9f6d9","6877649eabb845cf142cd221","68985d209511899d24bcbd46","1","5f0a7dec44c42c19a6c9f6d9","1","2025-08-10T08:57:36.512Z","","","","StressQ","","","","","","","","","","","50","","","","","","","","","","","","","","","","","","","","","","","","","","",""
"2202","","<div style=""width:500px;"">
  <p>What best describes how you currently feel?</p>
  </div>","78","html-slider-response","42","476381","0.0-7.0-4.5","245","1","2025-08-10 08:49:41","36c45c0696341be0efffe67d72a12abb","71.138.89.249","Mozilla/5.0 (Windows NT 10.0; Win64; x64) AppleWebKit/537.36 (KHTML, like Gecko) Chrome/139.0.0.0 Safari/537.36","WebKit","Chrome","139.0.0.0","Windows","10.0","https://app.prolific.com/","en-US,en;q=0.9","5f0a7dec44c42c19a6c9f6d9","6877649eabb845cf142cd221","68985d209511899d24bcbd46","1","5f0a7dec44c42c19a6c9f6d9","1","2025-08-10T08:57:38.716Z","","","","MotivationQ","","","","","","","","","","","50","","","","","","","","","","","","","","","","","","","","","","","","","","",""
"","","","","ctl-task-cpt","43","525491","0.0-7.0-0.6","245","1","2025-08-10 08:49:41","36c45c0696341be0efffe67d72a12abb","71.138.89.249","Mozilla/5.0 (Windows NT 10.0; Win64; x64) AppleWebKit/537.36 (KHTML, like Gecko) Chrome/139.0.0.0 Safari/537.36","WebKit","Chrome","139.0.0.0","Windows","10.0","https://app.prolific.com/","en-US,en;q=0.9","5f0a7dec44c42c19a6c9f6d9","6877649eabb845cf142cd221","68985d209511899d24bcbd46","1","5f0a7dec44c42c19a6c9f6d9","1","2025-08-10T08:58:27.825Z","","","","","","","","","","","","","","","","win-only","0","g1:NW,g2:SE","0.4","7","0","479954.1","979.6","5985.3","46084.6","1","4","4","6","2","-4","-5","12","17","0.09090909090909091","5005.7","3000","-2285","[""down"",""right""]","{""num_key_presses"":12,""num_perfect"":5,""num_errors"":1,""num_randdir"":6,""num_randdir_good_moves"":3,""num_whilered"":0,""num_whileblue"":0,""num_blue"":1,""num_good_moves"":8}","[421.2148017883301,417.49609288573265,0.8,421.2148017883301,419.13671788573265,103.5,429.4179267883301,422.41796788573265,210.3,529.4960517883301,483.12109288573265,322.8,575.4335517883301,502.80859288573265,431.2,659.1054267883301,504.44921788573265,536.1,659.1054267883301,504.44921788573265,637.6,670.5898017883301,489.68359288573265,737.7,728.0116767883301,437.18359288573265,850.7,728.0116767883301,437.18359288573265,951.8,760.8241767883301,427.33984288573265,1051.9,929.8085517883301,402.73046788573265,1155.7,1082.38667678833,392.88671788573265,1256.5,1115.19917678833,389.60546788573265,1367.3,1116.83980178833,389.60546788573265,1468.3,1116.83980178833,389.60546788573265,1569.2,1116.83980178833,389.60546788573265,1671.6,1116.83980178833,389.60546788573265,1772,1116.83980178833,389.60546788573265,1872.7,1116.83980178833,389.60546788573265,1978.9,1116.83980178833,389.60546788573265,2080.2,1116.83980178833,389.60546788573265,2189.3,1116.83980178833,389.60546788573265,2293.5,1116.83980178833,389.60546788573265,2397.4,1116.83980178833,389.60546788573265,2503.3,1116.83980178833,389.60546788573265,2606,1116.83980178833,389.60546788573265,2707.5,1116.83980178833,389.60546788573265,2812.2,1116.83980178833,389.60546788573265,2913.1,1116.83980178833,389.60546788573265,3019.1,1116.83980178833,389.60546788573265,3122.1,1116.83980178833,389.60546788573265,3236.5,1116.83980178833,389.60546788573265,3338.1,1116.83980178833,389.60546788573265,3444.1,1116.83980178833,389.60546788573265,3553.1,1116.83980178833,389.60546788573265,3654.7,1116.83980178833,389.60546788573265,3759.7,1116.83980178833,389.60546788573265,3863,1116.83980178833,389.60546788573265,3963.6,1116.83980178833,389.60546788573265,4063.6,1116.83980178833,389.60546788573265,4168.1,1116.83980178833,389.60546788573265,4272.2,1116.83980178833,389.60546788573265,4374.9,1116.83980178833,389.60546788573265,4478.8,1116.83980178833,389.60546788573265,4583.6,1116.83980178833,389.60546788573265,4686.4,1116.83980178833,389.60546788573265,4788.3,1116.83980178833,389.60546788573265,4892.9,1116.83980178833,389.60546788573265,4993.3]","[1368.3,1368.4,1000,0,368.4,""oops"",""right"",""left"",""bad_move"",4522,3152.2,2765.6,1369.8,386.6,""oops"",""down"",""down"",""good_move"",6767.6,2244.4,1873.9,4523.3,370.5,""smooth"",""down"",""down"",""good_move"",10143.7,3375,3041.5,6768.7,333.5,""smooth"",""down"",""down"",""good_move"",13405.5,3261.5,2902.8,10144,358.7,""oops"",""right"",""right"",""good_move"",16534.1,3126.7,2801.8,13407.4,324.9,""oops"",""right"",""left"",""bad_move"",19300.5,2765.6,2390.1,16534.9,375.5,""smooth"",""right"",""right"",""good_move"",22247.5,2946.5,2594.1,19301,352.4,""oops"",""right"",""up"",""bad_move"",25129.6,2881.5,2444.2,22248.1,437.3,""smooth"",""right"",""right"",""good_move"",31093,5963.1,1474.8,29137.4,480.8,""oops"",""right"",""down"",""good_move"",33969.5,2875.7,2527,31093.8,348.7,""smooth"",""right"",""right"",""good_move"",36560.5,2590.3,2754.3,33970.3,-164,""error"",""-"",""-"",""no_move""]"
"3779","","<div style=""width:500px;"">
  <p>What determined the result of this run?</p>
  </div>","22","html-slider-response","44","529272","0.0-7.0-1.6","245","1","2025-08-10 08:49:41","36c45c0696341be0efffe67d72a12abb","71.138.89.249","Mozilla/5.0 (Windows NT 10.0; Win64; x64) AppleWebKit/537.36 (KHTML, like Gecko) Chrome/139.0.0.0 Safari/537.36","WebKit","Chrome","139.0.0.0","Windows","10.0","https://app.prolific.com/","en-US,en;q=0.9","5f0a7dec44c42c19a6c9f6d9","6877649eabb845cf142cd221","68985d209511899d24bcbd46","1","5f0a7dec44c42c19a6c9f6d9","1","2025-08-10T08:58:31.606Z","","","","AttribQ","","","","","","","","","","","50","","","","","","","","","","","","","","","","","","","","","","","","","","",""
"2893","","<div style=""width:500px;"">
  <p>How much control did you have over the ball?</p>
  </div>","10","html-slider-response","45","532167","0.0-7.0-2.6","245","1","2025-08-10 08:49:41","36c45c0696341be0efffe67d72a12abb","71.138.89.249","Mozilla/5.0 (Windows NT 10.0; Win64; x64) AppleWebKit/537.36 (KHTML, like Gecko) Chrome/139.0.0.0 Safari/537.36","WebKit","Chrome","139.0.0.0","Windows","10.0","https://app.prolific.com/","en-US,en;q=0.9","5f0a7dec44c42c19a6c9f6d9","6877649eabb845cf142cd221","68985d209511899d24bcbd46","1","5f0a7dec44c42c19a6c9f6d9","1","2025-08-10T08:58:34.502Z","","","","ControlQ","","","","","","","","","","","50","","","","","","","","","","","","","","","","","","","","","","","","","","",""
"1893","","<div style=""width:500px;"">
  <p>How would you describe your current emotional state?</p>
  </div>","86","html-slider-response","46","534062","0.0-7.0-3.6","245","1","2025-08-10 08:49:41","36c45c0696341be0efffe67d72a12abb","71.138.89.249","Mozilla/5.0 (Windows NT 10.0; Win64; x64) AppleWebKit/537.36 (KHTML, like Gecko) Chrome/139.0.0.0 Safari/537.36","WebKit","Chrome","139.0.0.0","Windows","10.0","https://app.prolific.com/","en-US,en;q=0.9","5f0a7dec44c42c19a6c9f6d9","6877649eabb845cf142cd221","68985d209511899d24bcbd46","1","5f0a7dec44c42c19a6c9f6d9","1","2025-08-10T08:58:36.396Z","","","","StressQ","","","","","","","","","","","50","","","","","","","","","","","","","","","","","","","","","","","","","","",""
"2424","","<div style=""width:500px;"">
  <p>What best describes how you currently feel?</p>
  </div>","63","html-slider-response","47","536488","0.0-7.0-4.6","245","1","2025-08-10 08:49:41","36c45c0696341be0efffe67d72a12abb","71.138.89.249","Mozilla/5.0 (Windows NT 10.0; Win64; x64) AppleWebKit/537.36 (KHTML, like Gecko) Chrome/139.0.0.0 Safari/537.36","WebKit","Chrome","139.0.0.0","Windows","10.0","https://app.prolific.com/","en-US,en;q=0.9","5f0a7dec44c42c19a6c9f6d9","6877649eabb845cf142cd221","68985d209511899d24bcbd46","1","5f0a7dec44c42c19a6c9f6d9","1","2025-08-10T08:58:38.824Z","","","","MotivationQ","","","","","","","","","","","50","","","","","","","","","","","","","","","","","","","","","","","","","","",""
"","","","","ctl-task-cpt","48","590829","0.0-7.0-0.7","245","1","2025-08-10 08:49:41","36c45c0696341be0efffe67d72a12abb","71.138.89.249","Mozilla/5.0 (Windows NT 10.0; Win64; x64) AppleWebKit/537.36 (KHTML, like Gecko) Chrome/139.0.0.0 Safari/537.36","WebKit","Chrome","139.0.0.0","Windows","10.0","https://app.prolific.com/","en-US,en;q=0.9","5f0a7dec44c42c19a6c9f6d9","6877649eabb845cf142cd221","68985d209511899d24bcbd46","1","5f0a7dec44c42c19a6c9f6d9","1","2025-08-10T08:59:33.163Z","","","","","","","","","","","","","","","","win-only","2","g1:SE,g2:NW","0.3","8","0","540067.8","1439","6451.8","51320.8","1","4","8","6","2","-8","-8","4","12","0.030303030303030304","5012.8","3000","-1985","[""left"",""up""]","{""num_key_presses"":12,""num_perfect"":4,""num_errors"":0,""num_randdir"":8,""num_randdir_good_moves"":3,""num_whilered"":0,""num_whileblue"":0,""num_blue"":3,""num_good_moves"":7}","[408.0898017883301,417.49609288573265,0.2,408.0898017883301,417.49609288573265,120,406.4491767883301,417.49609288573265,220.4,411.3710517883301,422.41796788573265,326.1,476.9960517883301,450.30859288573265,427.3,516.3710517883301,489.68359288573265,533.1,554.1054267883301,527.4179678857327,645.6,829.7304267883301,522.4960928857327,749.1,1102.07417678833,432.26171788573265,865.8,1102.07417678833,432.26171788573265,969.3,1102.07417678833,432.26171788573265,1077.9,1102.07417678833,432.26171788573265,1184.4,1102.07417678833,432.26171788573265,1288,1102.07417678833,432.26171788573265,1391.2,1102.07417678833,432.26171788573265,1496,1102.07417678833,432.26171788573265,1600.9,1102.07417678833,432.26171788573265,1704.4,1102.07417678833,432.26171788573265,1819.8,1102.07417678833,432.26171788573265,1919.9,1102.07417678833,432.26171788573265,2020.2,1102.07417678833,432.26171788573265,2129.4,1102.07417678833,432.26171788573265,2232.4,1102.07417678833,432.26171788573265,2338.3,1102.07417678833,432.26171788573265,2443,1102.07417678833,432.26171788573265,2549.6,1102.07417678833,432.26171788573265,2652.6,1102.07417678833,432.26171788573265,2763.8,1102.07417678833,432.26171788573265,2864.6,1102.07417678833,432.26171788573265,2981.2,1102.07417678833,432.26171788573265,3081.6,1102.07417678833,432.26171788573265,3186,1102.07417678833,432.26171788573265,3286.6,1102.07417678833,432.26171788573265,3390.9,1102.07417678833,432.26171788573265,3492.2,1102.07417678833,432.26171788573265,3594.9,1102.07417678833,432.26171788573265,3697.2,1102.07417678833,432.26171788573265,3813.6,1102.07417678833,432.26171788573265,3918.6,1102.07417678833,432.26171788573265,4020.5,1102.07417678833,432.26171788573265,4133.3,1102.07417678833,432.26171788573265,4237.7,1102.07417678833,432.26171788573265,4343.8,1102.07417678833,432.26171788573265,4448.5,1102.07417678833,432.26171788573265,4554,1102.07417678833,432.26171788573265,4663.5,1102.07417678833,432.26171788573265,4770.5,1102.07417678833,432.26171788573265,4874.1,1102.07417678833,432.26171788573265,4979.8]","[1406.9,1407,1000,0,407,""oops"",""up"",""up"",""good_move"",11189.4,9780.7,2551.8,8261.4,376.2,""oops"",""left"",""right"",""bad_move"",13708.2,2518.2,2157.2,11190,361,""oops"",""up"",""down"",""bad_move"",16361.6,2652.5,2224.2,13709.1,428.3,""oops"",""left"",""up"",""good_move"",22984.7,6622.7,3029.3,19506,449.4,""oops"",""left"",""left"",""good_move"",26037,3051.9,2644,22985.2,407.8,""smooth"",""left"",""left"",""good_move"",28378,2340.8,1944.7,26037.3,396,""smooth"",""left"",""left"",""good_move"",31458.5,3080.2,2729.5,28378.3,350.7,""oops"",""left"",""right"",""bad_move"",34207.9,2748.9,2410.8,31459,338.1,""smooth"",""up"",""up"",""good_move"",36881.6,2672.9,2341.3,34208.7,331.6,""oops"",""up"",""down"",""bad_move"",39268.2,2385.2,2022,36883,363.2,""oops"",""up"",""down"",""bad_move"",41926.4,2657.9,2325.3,39268.5,332.6,""smooth"",""left"",""left"",""good_move""]"
"3013","","<div style=""width:500px;"">
  <p>What determined the result of this run?</p>
  </div>","0","html-slider-response","49","593844","0.0-7.0-1.7","245","1","2025-08-10 08:49:41","36c45c0696341be0efffe67d72a12abb","71.138.89.249","Mozilla/5.0 (Windows NT 10.0; Win64; x64) AppleWebKit/537.36 (KHTML, like Gecko) Chrome/139.0.0.0 Safari/537.36","WebKit","Chrome","139.0.0.0","Windows","10.0","https://app.prolific.com/","en-US,en;q=0.9","5f0a7dec44c42c19a6c9f6d9","6877649eabb845cf142cd221","68985d209511899d24bcbd46","1","5f0a7dec44c42c19a6c9f6d9","1","2025-08-10T08:59:36.178Z","","","","AttribQ","","","","","","","","","","","50","","","","","","","","","","","","","","","","","","","","","","","","","","",""
"1439","","<div style=""width:500px;"">
  <p>How much control did you have over the ball?</p>
  </div>","0","html-slider-response","50","595285","0.0-7.0-2.7","245","1","2025-08-10 08:49:41","36c45c0696341be0efffe67d72a12abb","71.138.89.249","Mozilla/5.0 (Windows NT 10.0; Win64; x64) AppleWebKit/537.36 (KHTML, like Gecko) Chrome/139.0.0.0 Safari/537.36","WebKit","Chrome","139.0.0.0","Windows","10.0","https://app.prolific.com/","en-US,en;q=0.9","5f0a7dec44c42c19a6c9f6d9","6877649eabb845cf142cd221","68985d209511899d24bcbd46","1","5f0a7dec44c42c19a6c9f6d9","1","2025-08-10T08:59:37.619Z","","","","ControlQ","","","","","","","","","","","50","","","","","","","","","","","","","","","","","","","","","","","","","","",""
"1588","","<div style=""width:500px;"">
  <p>How would you describe your current emotional state?</p>
  </div>","100","html-slider-response","51","596875","0.0-7.0-3.7","245","1","2025-08-10 08:49:41","36c45c0696341be0efffe67d72a12abb","71.138.89.249","Mozilla/5.0 (Windows NT 10.0; Win64; x64) AppleWebKit/537.36 (KHTML, like Gecko) Chrome/139.0.0.0 Safari/537.36","WebKit","Chrome","139.0.0.0","Windows","10.0","https://app.prolific.com/","en-US,en;q=0.9","5f0a7dec44c42c19a6c9f6d9","6877649eabb845cf142cd221","68985d209511899d24bcbd46","1","5f0a7dec44c42c19a6c9f6d9","1","2025-08-10T08:59:39.209Z","","","","StressQ","","","","","","","","","","","50","","","","","","","","","","","","","","","","","","","","","","","","","","",""
"3458","","<div style=""width:500px;"">
  <p>What best describes how you currently feel?</p>
  </div>","33","html-slider-response","52","600336","0.0-7.0-4.7","245","1","2025-08-10 08:49:41","36c45c0696341be0efffe67d72a12abb","71.138.89.249","Mozilla/5.0 (Windows NT 10.0; Win64; x64) AppleWebKit/537.36 (KHTML, like Gecko) Chrome/139.0.0.0 Safari/537.36","WebKit","Chrome","139.0.0.0","Windows","10.0","https://app.prolific.com/","en-US,en;q=0.9","5f0a7dec44c42c19a6c9f6d9","6877649eabb845cf142cd221","68985d209511899d24bcbd46","1","5f0a7dec44c42c19a6c9f6d9","1","2025-08-10T08:59:42.674Z","","","","MotivationQ","","","","","","","","","","","50","","","","","","","","","","","","","","","","","","","","","","","","","","",""
"","","","","ctl-task-cpt","53","663987","0.0-7.0-0.8","245","1","2025-08-10 08:49:41","36c45c0696341be0efffe67d72a12abb","71.138.89.249","Mozilla/5.0 (Windows NT 10.0; Win64; x64) AppleWebKit/537.36 (KHTML, like Gecko) Chrome/139.0.0.0 Safari/537.36","WebKit","Chrome","139.0.0.0","Windows","10.0","https://app.prolific.com/","en-US,en;q=0.9","5f0a7dec44c42c19a6c9f6d9","6877649eabb845cf142cd221","68985d209511899d24bcbd46","1","5f0a7dec44c42c19a6c9f6d9","1","2025-08-10T09:00:46.321Z","","","","","","","","","","","","","","","","win-only","1","g1:NE,g2:SW","0.4","9","0","603915.7","1564.4","6568.1","60617.3","1","4","8","6","2","-8","-10","0","4","0","5003.7","3000","-1490","[""down"",""left""]","{""num_key_presses"":15,""num_perfect"":6,""num_errors"":2,""num_randdir"":7,""num_randdir_good_moves"":2,""num_whilered"":0,""num_whileblue"":1,""num_blue"":4,""num_good_moves"":8}","[424.4960517883301,424.05859288573265,0.3,424.4960517883301,424.05859288573265,112.1,435.9804267883301,432.26171788573265,217.3,570.5116767883301,458.51171788573265,319.8,691.9179267883301,468.35546788573265,422.1,828.0898017883301,465.07421788573265,526.7,849.4179267883301,463.43359288573265,627.9,916.6835517883301,460.15234288573265,730.7,951.1366767883301,460.15234288573265,831.8,952.7773017883301,460.15234288573265,932.8,952.7773017883301,460.15234288573265,1033.4,952.7773017883301,460.15234288573265,1146.7,952.7773017883301,460.15234288573265,1249.8,952.7773017883301,460.15234288573265,1354.2,952.7773017883301,460.15234288573265,1464.2,952.7773017883301,460.15234288573265,1570.3,952.7773017883301,460.15234288573265,1673.4,952.7773017883301,460.15234288573265,1778.3,952.7773017883301,460.15234288573265,1880.8,952.7773017883301,460.15234288573265,1983.3,952.7773017883301,460.15234288573265,2094.6,952.7773017883301,460.15234288573265,2201.1,952.7773017883301,460.15234288573265,2304.1,952.7773017883301,460.15234288573265,2405.6,952.7773017883301,460.15234288573265,2509.9,952.7773017883301,460.15234288573265,2610,952.7773017883301,460.15234288573265,2714.8,952.7773017883301,460.15234288573265,2815.2,952.7773017883301,460.15234288573265,2917.5,952.7773017883301,460.15234288573265,3019.7,952.7773017883301,460.15234288573265,3123.2,952.7773017883301,460.15234288573265,3225.2,952.7773017883301,460.15234288573265,3346.5,952.7773017883301,460.15234288573265,3449.2,952.7773017883301,460.15234288573265,3550.3,952.7773017883301,460.15234288573265,3657.1,952.7773017883301,460.15234288573265,3759.7,952.7773017883301,460.15234288573265,3864.2,952.7773017883301,460.15234288573265,3964.2,952.7773017883301,460.15234288573265,4068.1,952.7773017883301,460.15234288573265,4174.3,952.7773017883301,460.15234288573265,4281.6,952.7773017883301,460.15234288573265,4393.6,952.7773017883301,460.15234288573265,4498.2,952.7773017883301,460.15234288573265,4598.8,952.7773017883301,460.15234288573265,4701.1,952.7773017883301,460.15234288573265,4806.5,952.7773017883301,460.15234288573265,4914.5]","[1470.1,1470.1,1000,0,470.1,""smooth"",""down"",""down"",""good_move"",4081.5,2610.8,2245.2,1470.7,365.6,""smooth"",""down"",""down"",""good_move"",6871.7,2789.6,2423.2,4082.1,366.4,""oops"",""down"",""right"",""bad_move"",9188.9,2316.8,1941.7,6872.1,375.1,""oops"",""left"",""up"",""bad_move"",12448.2,3258.3,2918.8,9189.9,339.5,""smooth"",""left"",""left"",""good_move"",15216.9,2768,2411.2,12449,356.7,""while_blue"",""left"",""right"",""bad_move"",28852.8,13633.2,2334.8,26072.8,445.2,""oops"",""down"",""up"",""bad_move"",31596,2742.7,2119.4,28853.3,623.3,""oops"",""left"",""down"",""good_move"",34410.3,2813.3,2445.5,31597,367.8,""oops"",""left"",""right"",""bad_move"",37320.3,2908.8,2499.4,34411.6,409.4,""smooth"",""down"",""down"",""good_move"",40442,3121.3,2724.7,37320.7,396.6,""oops"",""down"",""up"",""bad_move"",43699.5,3257.1,2893.2,40442.5,363.8,""smooth"",""left"",""left"",""good_move"",44577.9,868,2027.6,43710,-1159.7,""error"",""-"",""-"",""no_move"",48515.8,3937.5,2503.2,45582.9,429.7,""oops"",""left"",""down"",""good_move"",51735.1,3218.9,2831.1,48516.2,387.8,""smooth"",""left"",""left"",""good_move""]"
"2596","","<div style=""width:500px;"">
  <p>What determined the result of this run?</p>
  </div>","2","html-slider-response","54","666585","0.0-7.0-1.8","245","1","2025-08-10 08:49:41","36c45c0696341be0efffe67d72a12abb","71.138.89.249","Mozilla/5.0 (Windows NT 10.0; Win64; x64) AppleWebKit/537.36 (KHTML, like Gecko) Chrome/139.0.0.0 Safari/537.36","WebKit","Chrome","139.0.0.0","Windows","10.0","https://app.prolific.com/","en-US,en;q=0.9","5f0a7dec44c42c19a6c9f6d9","6877649eabb845cf142cd221","68985d209511899d24bcbd46","1","5f0a7dec44c42c19a6c9f6d9","1","2025-08-10T09:00:48.920Z","","","","AttribQ","","","","","","","","","","","50","","","","","","","","","","","","","","","","","","","","","","","","","","",""
"3377","","<div style=""width:500px;"">
  <p>How much control did you have over the ball?</p>
  </div>","0","html-slider-response","55","669965","0.0-7.0-2.8","245","1","2025-08-10 08:49:41","36c45c0696341be0efffe67d72a12abb","71.138.89.249","Mozilla/5.0 (Windows NT 10.0; Win64; x64) AppleWebKit/537.36 (KHTML, like Gecko) Chrome/139.0.0.0 Safari/537.36","WebKit","Chrome","139.0.0.0","Windows","10.0","https://app.prolific.com/","en-US,en;q=0.9","5f0a7dec44c42c19a6c9f6d9","6877649eabb845cf142cd221","68985d209511899d24bcbd46","1","5f0a7dec44c42c19a6c9f6d9","1","2025-08-10T09:00:52.299Z","","","","ControlQ","","","","","","","","","","","50","","","","","","","","","","","","","","","","","","","","","","","","","","",""
"3222","","<div style=""width:500px;"">
  <p>How would you describe your current emotional state?</p>
  </div>","100","html-slider-response","56","673192","0.0-7.0-3.8","245","1","2025-08-10 08:49:41","36c45c0696341be0efffe67d72a12abb","71.138.89.249","Mozilla/5.0 (Windows NT 10.0; Win64; x64) AppleWebKit/537.36 (KHTML, like Gecko) Chrome/139.0.0.0 Safari/537.36","WebKit","Chrome","139.0.0.0","Windows","10.0","https://app.prolific.com/","en-US,en;q=0.9","5f0a7dec44c42c19a6c9f6d9","6877649eabb845cf142cd221","68985d209511899d24bcbd46","1","5f0a7dec44c42c19a6c9f6d9","1","2025-08-10T09:00:55.526Z","","","","StressQ","","","","","","","","","","","50","","","","","","","","","","","","","","","","","","","","","","","","","","",""
"2005","","<div style=""width:500px;"">
  <p>What best describes how you currently feel?</p>
  </div>","55","html-slider-response","57","675199","0.0-7.0-4.8","245","1","2025-08-10 08:49:41","36c45c0696341be0efffe67d72a12abb","71.138.89.249","Mozilla/5.0 (Windows NT 10.0; Win64; x64) AppleWebKit/537.36 (KHTML, like Gecko) Chrome/139.0.0.0 Safari/537.36","WebKit","Chrome","139.0.0.0","Windows","10.0","https://app.prolific.com/","en-US,en;q=0.9","5f0a7dec44c42c19a6c9f6d9","6877649eabb845cf142cd221","68985d209511899d24bcbd46","1","5f0a7dec44c42c19a6c9f6d9","1","2025-08-10T09:00:57.534Z","","","","MotivationQ","","","","","","","","","","","50","","","","","","","","","","","","","","","","","","","","","","","","","","",""
"","","","","ctl-task-cpt","58","738431","0.0-7.0-0.9","245","1","2025-08-10 08:49:41","36c45c0696341be0efffe67d72a12abb","71.138.89.249","Mozilla/5.0 (Windows NT 10.0; Win64; x64) AppleWebKit/537.36 (KHTML, like Gecko) Chrome/139.0.0.0 Safari/537.36","WebKit","Chrome","139.0.0.0","Windows","10.0","https://app.prolific.com/","en-US,en;q=0.9","5f0a7dec44c42c19a6c9f6d9","6877649eabb845cf142cd221","68985d209511899d24bcbd46","1","5f0a7dec44c42c19a6c9f6d9","1","2025-08-10T09:02:00.765Z","","","","","","","","","","","","","","","","win-only","0","g1:NW,g2:SE","0.5","10","0","678778.1","7993.8","12998.3","60186.4","1","4","4","6","1","-1","-1","0","0","0","5004.5","3000","-1515","[""left"",""up""]","{""num_key_presses"":14,""num_perfect"":8,""num_errors"":0,""num_randdir"":6,""num_randdir_good_moves"":0,""num_whilered"":0,""num_whileblue"":0,""num_blue"":2,""num_good_moves"":8}","[411.3710517883301,412.57421788573265,0.3,411.3710517883301,412.57421788573265,110.8,417.9335517883301,414.21484288573265,216.2,421.2148017883301,427.33984288573265,324.5,498.3241767883301,502.80859288573265,425.7,686.9960517883301,492.96484288573265,531.2,814.9648017883301,486.40234288573265,638.4,814.9648017883301,486.40234288573265,744.3,814.9648017883301,486.40234288573265,858.5,814.9648017883301,486.40234288573265,959.6,814.9648017883301,486.40234288573265,1061.3,814.9648017883301,486.40234288573265,1161.4,814.9648017883301,486.40234288573265,1263.7,814.9648017883301,486.40234288573265,1364.8,814.9648017883301,486.40234288573265,1468.6,814.9648017883301,486.40234288573265,1583.2,933.0898017883301,463.43359288573265,1687.8,998.7148017883301,451.94921788573265,1791.4,998.7148017883301,451.94921788573265,1897.7,998.7148017883301,451.94921788573265,2006.6,998.7148017883301,451.94921788573265,2113.4,998.7148017883301,451.94921788573265,2217.5,998.7148017883301,451.94921788573265,2322,998.7148017883301,451.94921788573265,2424.2,998.7148017883301,451.94921788573265,2526.6,998.7148017883301,451.94921788573265,2627.7,998.7148017883301,451.94921788573265,2728.8,998.7148017883301,451.94921788573265,2829.6,998.7148017883301,451.94921788573265,2951,998.7148017883301,451.94921788573265,3054.1,998.7148017883301,451.94921788573265,3158,998.7148017883301,451.94921788573265,3259.6,998.7148017883301,451.94921788573265,3375.1,998.7148017883301,451.94921788573265,3477,998.7148017883301,451.94921788573265,3577.9,998.7148017883301,451.94921788573265,3680,998.7148017883301,451.94921788573265,3781.5,998.7148017883301,451.94921788573265,3890,998.7148017883301,451.94921788573265,3997,998.7148017883301,451.94921788573265,4097.4,998.7148017883301,451.94921788573265,4201.7,998.7148017883301,451.94921788573265,4306.3,998.7148017883301,451.94921788573265,4411.2,998.7148017883301,451.94921788573265,4511.5,998.7148017883301,451.94921788573265,4617.9,998.7148017883301,451.94921788573265,4720.7,998.7148017883301,451.94921788573265,4827.2,998.7148017883301,451.94921788573265,4927.2]","[1421.7,1421.7,1000,0,421.7,""smooth"",""up"",""up"",""good_move"",4637.9,3214.6,2828.3,1423.3,386.4,""smooth"",""up"",""up"",""good_move"",7320.1,2681.8,2307.4,4638.4,374.4,""smooth"",""left"",""left"",""good_move"",9882.6,2561.9,2016.9,7320.7,545,""oops"",""left"",""right"",""bad_move"",12048.2,2165,1756.5,9883.3,408.4,""oops"",""left"",""down"",""bad_move"",14879.5,2830.7,2452.1,12048.8,378.6,""smooth"",""left"",""left"",""good_move"",18117.3,3237.4,2864.6,14879.9,372.8,""smooth"",""left"",""left"",""good_move"",20794.2,2676.4,2316.6,18117.8,359.8,""oops"",""up"",""down"",""bad_move"",24099.3,3303.9,2878.6,20795.5,425.3,""oops"",""up"",""down"",""bad_move"",27161.1,3061.4,2071,24099.7,990.4,""oops"",""up"",""right"",""bad_move"",30585,3421.7,3022.4,27163.4,399.3,""smooth"",""up"",""up"",""good_move"",35980.6,5394.7,2211.2,33392.2,377.2,""smooth"",""up"",""up"",""good_move"",38680,2698.5,2300.9,35981.5,397.6,""smooth"",""up"",""up"",""good_move"",45365.5,6684.8,2989.2,42006,370.3,""oops"",""left"",""right"",""bad_move""]"
"4089","","<div style=""width:500px;"">
  <p>What determined the result of this run?</p>
  </div>","7","html-slider-response","59","742524","0.0-7.0-1.9","245","1","2025-08-10 08:49:41","36c45c0696341be0efffe67d72a12abb","71.138.89.249","Mozilla/5.0 (Windows NT 10.0; Win64; x64) AppleWebKit/537.36 (KHTML, like Gecko) Chrome/139.0.0.0 Safari/537.36","WebKit","Chrome","139.0.0.0","Windows","10.0","https://app.prolific.com/","en-US,en;q=0.9","5f0a7dec44c42c19a6c9f6d9","6877649eabb845cf142cd221","68985d209511899d24bcbd46","1","5f0a7dec44c42c19a6c9f6d9","1","2025-08-10T09:02:04.858Z","","","","AttribQ","","","","","","","","","","","50","","","","","","","","","","","","","","","","","","","","","","","","","","",""
"1727","","<div style=""width:500px;"">
  <p>How much control did you have over the ball?</p>
  </div>","2","html-slider-response","60","744256","0.0-7.0-2.9","245","1","2025-08-10 08:49:41","36c45c0696341be0efffe67d72a12abb","71.138.89.249","Mozilla/5.0 (Windows NT 10.0; Win64; x64) AppleWebKit/537.36 (KHTML, like Gecko) Chrome/139.0.0.0 Safari/537.36","WebKit","Chrome","139.0.0.0","Windows","10.0","https://app.prolific.com/","en-US,en;q=0.9","5f0a7dec44c42c19a6c9f6d9","6877649eabb845cf142cd221","68985d209511899d24bcbd46","1","5f0a7dec44c42c19a6c9f6d9","1","2025-08-10T09:02:06.591Z","","","","ControlQ","","","","","","","","","","","50","","","","","","","","","","","","","","","","","","","","","","","","","","",""
"1478","","<div style=""width:500px;"">
  <p>How would you describe your current emotional state?</p>
  </div>","98","html-slider-response","61","745736","0.0-7.0-3.9","245","1","2025-08-10 08:49:41","36c45c0696341be0efffe67d72a12abb","71.138.89.249","Mozilla/5.0 (Windows NT 10.0; Win64; x64) AppleWebKit/537.36 (KHTML, like Gecko) Chrome/139.0.0.0 Safari/537.36","WebKit","Chrome","139.0.0.0","Windows","10.0","https://app.prolific.com/","en-US,en;q=0.9","5f0a7dec44c42c19a6c9f6d9","6877649eabb845cf142cd221","68985d209511899d24bcbd46","1","5f0a7dec44c42c19a6c9f6d9","1","2025-08-10T09:02:08.070Z","","","","StressQ","","","","","","","","","","","50","","","","","","","","","","","","","","","","","","","","","","","","","","",""
"1378","","<div style=""width:500px;"">
  <p>What best describes how you currently feel?</p>
  </div>","24","html-slider-response","62","747118","0.0-7.0-4.9","245","1","2025-08-10 08:49:41","36c45c0696341be0efffe67d72a12abb","71.138.89.249","Mozilla/5.0 (Windows NT 10.0; Win64; x64) AppleWebKit/537.36 (KHTML, like Gecko) Chrome/139.0.0.0 Safari/537.36","WebKit","Chrome","139.0.0.0","Windows","10.0","https://app.prolific.com/","en-US,en;q=0.9","5f0a7dec44c42c19a6c9f6d9","6877649eabb845cf142cd221","68985d209511899d24bcbd46","1","5f0a7dec44c42c19a6c9f6d9","1","2025-08-10T09:02:09.452Z","","","","MotivationQ","","","","","","","","","","","50","","","","","","","","","","","","","","","","","","","","","","","","","","",""
"","","","","ctl-task-cpt","63","864427","0.0-7.0-0.10","245","1","2025-08-10 08:49:41","36c45c0696341be0efffe67d72a12abb","71.138.89.249","Mozilla/5.0 (Windows NT 10.0; Win64; x64) AppleWebKit/537.36 (KHTML, like Gecko) Chrome/139.0.0.0 Safari/537.36","WebKit","Chrome","139.0.0.0","Windows","10.0","https://app.prolific.com/","en-US,en;q=0.9","5f0a7dec44c42c19a6c9f6d9","6877649eabb845cf142cd221","68985d209511899d24bcbd46","1","5f0a7dec44c42c19a6c9f6d9","1","2025-08-10T09:04:06.762Z","","","","","","","","","","","","","","","","win-only","1","g1:NE,g2:SW","0.6","11","0","750694.5","34773.9","39779.5","114282.1","1","4","8","6","2","8","7","7","0","0.05303030303030303","5005.6","3000","420","[""down"",""left""]","{""num_key_presses"":16,""num_perfect"":10,""num_errors"":1,""num_randdir"":5,""num_randdir_good_moves"":1,""num_whilered"":0,""num_whileblue"":1,""num_blue"":9,""num_good_moves"":11}","[421.37106370925903,417.76171875,0.9,421.37106370925903,417.76171875,103.4,421.37106370925903,417.76171875,203.5,421.37106370925903,417.76171875,313,421.37106370925903,417.76171875,418.7,421.37106370925903,417.76171875,521.2,424.65231370925903,417.76171875,622.1,424.65231370925903,417.76171875,722.7,444.33981370925903,440.73046875,830.5,452.54293870925903,440.73046875,938.3,452.54293870925903,440.73046875,1042,452.54293870925903,440.73046875,1142.2,452.54293870925903,440.73046875,1254,452.54293870925903,440.73046875,1363,457.46481370925903,440.73046875,1466.9,457.46481370925903,440.73046875,1577.7,457.46481370925903,440.73046875,1688.3,457.46481370925903,440.73046875,1799.1,457.46481370925903,440.73046875,1906.4,457.46481370925903,440.73046875,2019.3,457.46481370925903,440.73046875,2120.2,457.46481370925903,440.73046875,2222.2,457.46481370925903,442.37109375,2326.9,462.38668870925903,448.93359375,2434.7,467.30856370925903,457.13671875,2538.1,539.496063709259,457.13671875,2646.3,764.261688709259,450.57421875,2758.9,838.089813709259,439.08984375,2864.9,838.089813709259,439.08984375,2978.2,1069.417938709259,407.91796875,3084.3,1092.386688709259,402.99609375,3191,1092.386688709259,402.99609375,3299.3,1092.386688709259,402.99609375,3409.3,1084.183563709259,402.99609375,3519.5,1084.183563709259,402.99609375,3622,1084.183563709259,402.99609375,3723,1084.183563709259,402.99609375,3823.6,1084.183563709259,402.99609375,3931.3,1084.183563709259,402.99609375,4034.7,1084.183563709259,402.99609375,4136,1084.183563709259,402.99609375,4242.3,1084.183563709259,402.99609375,4349.7,1084.183563709259,402.99609375,4451.6,1084.183563709259,402.99609375,4552.2,1084.183563709259,402.99609375,4655,1084.183563709259,402.99609375,4766.7,1084.183563709259,402.99609375,4873.8,1084.183563709259,402.99609375,4980.4]","[5296.6,5296.6,2835.6,2008.7,452.3,""smooth"",""down"",""down"",""good_move"",7839.5,2541.2,2131.5,5298.3,409.7,""smooth"",""down"",""down"",""good_move"",11551.8,3711.6,3385.4,7840.2,326.2,""while_blue"",""down"",""up"",""bad_move"",14857.4,3304.8,2890,11552.6,414.8,""oops"",""down"",""up"",""bad_move"",21903.4,7045.4,2770.8,18668.4,464.2,""oops"",""left"",""right"",""bad_move"",28200.5,6295.5,2610.2,25171.5,418.9,""smooth"",""down"",""down"",""good_move"",34973.5,6771.9,2744.7,31821.2,407.6,""smooth"",""down"",""down"",""good_move"",38189.5,3215.4,2806.1,34974.1,409.3,""oops"",""down"",""right"",""bad_move"",44109.3,5918.6,2450,41197.8,461.5,""oops"",""down"",""up"",""bad_move"",46698.1,2588.1,2199.3,44110,388.8,""smooth"",""left"",""left"",""good_move"",49349.4,2649.8,2284.4,46699.6,365.4,""smooth"",""left"",""left"",""good_move"",52320.1,2970.3,2586.8,49349.8,383.5,""smooth"",""left"",""left"",""good_move"",54953,2632.4,2166.2,52320.6,466.2,""smooth"",""left"",""left"",""good_move"",68549.6,13593,2927.2,65190.9,431.5,""smooth"",""left"",""left"",""good_move"",71331.8,2777.4,2163.1,68554.4,614.3,""smooth"",""down"",""down"",""good_move"",74369.9,3037.5,2659.4,71332.4,378.1,""oops"",""down"",""down"",""good_move""]"
"3222","","<div style=""width:500px;"">
  <p>What determined the result of this run?</p>
  </div>","74","html-slider-response","64","867651","0.0-7.0-1.10","245","1","2025-08-10 08:49:41","36c45c0696341be0efffe67d72a12abb","71.138.89.249","Mozilla/5.0 (Windows NT 10.0; Win64; x64) AppleWebKit/537.36 (KHTML, like Gecko) Chrome/139.0.0.0 Safari/537.36","WebKit","Chrome","139.0.0.0","Windows","10.0","https://app.prolific.com/","en-US,en;q=0.9","5f0a7dec44c42c19a6c9f6d9","6877649eabb845cf142cd221","68985d209511899d24bcbd46","1","5f0a7dec44c42c19a6c9f6d9","1","2025-08-10T09:04:09.985Z","","","","AttribQ","","","","","","","","","","","50","","","","","","","","","","","","","","","","","","","","","","","","","","",""
"3285","","<div style=""width:500px;"">
  <p>How much control did you have over the ball?</p>
  </div>","30","html-slider-response","65","870937","0.0-7.0-2.10","245","1","2025-08-10 08:49:41","36c45c0696341be0efffe67d72a12abb","71.138.89.249","Mozilla/5.0 (Windows NT 10.0; Win64; x64) AppleWebKit/537.36 (KHTML, like Gecko) Chrome/139.0.0.0 Safari/537.36","WebKit","Chrome","139.0.0.0","Windows","10.0","https://app.prolific.com/","en-US,en;q=0.9","5f0a7dec44c42c19a6c9f6d9","6877649eabb845cf142cd221","68985d209511899d24bcbd46","1","5f0a7dec44c42c19a6c9f6d9","1","2025-08-10T09:04:13.271Z","","","","ControlQ","","","","","","","","","","","50","","","","","","","","","","","","","","","","","","","","","","","","","","",""
"2826","","<div style=""width:500px;"">
  <p>How would you describe your current emotional state?</p>
  </div>","66","html-slider-response","66","873764","0.0-7.0-3.10","245","1","2025-08-10 08:49:41","36c45c0696341be0efffe67d72a12abb","71.138.89.249","Mozilla/5.0 (Windows NT 10.0; Win64; x64) AppleWebKit/537.36 (KHTML, like Gecko) Chrome/139.0.0.0 Safari/537.36","WebKit","Chrome","139.0.0.0","Windows","10.0","https://app.prolific.com/","en-US,en;q=0.9","5f0a7dec44c42c19a6c9f6d9","6877649eabb845cf142cd221","68985d209511899d24bcbd46","1","5f0a7dec44c42c19a6c9f6d9","1","2025-08-10T09:04:16.098Z","","","","StressQ","","","","","","","","","","","50","","","","","","","","","","","","","","","","","","","","","","","","","","",""
"1569","","<div style=""width:500px;"">
  <p>What best describes how you currently feel?</p>
  </div>","65","html-slider-response","67","875334","0.0-7.0-4.10","245","1","2025-08-10 08:49:41","36c45c0696341be0efffe67d72a12abb","71.138.89.249","Mozilla/5.0 (Windows NT 10.0; Win64; x64) AppleWebKit/537.36 (KHTML, like Gecko) Chrome/139.0.0.0 Safari/537.36","WebKit","Chrome","139.0.0.0","Windows","10.0","https://app.prolific.com/","en-US,en;q=0.9","5f0a7dec44c42c19a6c9f6d9","6877649eabb845cf142cd221","68985d209511899d24bcbd46","1","5f0a7dec44c42c19a6c9f6d9","1","2025-08-10T09:04:17.669Z","","","","MotivationQ","","","","","","","","","","","50","","","","","","","","","","","","","","","","","","","","","","","","","","",""
"","","","","ctl-task-cpt","68","920085","0.0-7.0-0.11","245","1","2025-08-10 08:49:41","36c45c0696341be0efffe67d72a12abb","71.138.89.249","Mozilla/5.0 (Windows NT 10.0; Win64; x64) AppleWebKit/537.36 (KHTML, like Gecko) Chrome/139.0.0.0 Safari/537.36","WebKit","Chrome","139.0.0.0","Windows","10.0","https://app.prolific.com/","en-US,en;q=0.9","5f0a7dec44c42c19a6c9f6d9","6877649eabb845cf142cd221","68985d209511899d24bcbd46","1","5f0a7dec44c42c19a6c9f6d9","1","2025-08-10T09:05:02.420Z","","","","","","","","","","","","","","","","win-only","2","g1:SE,g2:NW","0.7","12","0","878905.9","2065.4","7075.2","41737.1","1","4","4","6","1","1","1","8","7","0.06060606060606061","5009.8","3000","1420","[""down"",""right""]","{""num_key_presses"":8,""num_perfect"":6,""num_errors"":0,""num_randdir"":2,""num_randdir_good_moves"":0,""num_whilered"":0,""num_whileblue"":0,""num_blue"":4,""num_good_moves"":6}","[345.9257712364197,347.1757789850235,0.5,345.9257712364197,347.1757789850235,102,345.9257712364197,347.1757789850235,207.1,345.9257712364197,348.8164039850235,315.4,388.5820212364197,365.2226539850235,425.7,424.6757712364197,401.3164039850235,531.9,426.3163962364197,417.7226539850235,644.2,427.9570212364197,425.9257789850235,745.7,427.9570212364197,427.5664039850235,849.3,455.8476462364197,429.2070289850235,960.4,769.2070212364197,429.2070289850235,1060.8,834.8320212364197,424.2851539850235,1165.1,857.8007712364197,416.0820289850235,1272.3,864.3632712364197,412.8007789850235,1388.2,864.3632712364197,412.8007789850235,1497.7,864.3632712364197,412.8007789850235,1603.6,872.5663962364197,412.8007789850235,1706,872.5663962364197,412.8007789850235,1807.7,872.5663962364197,412.8007789850235,1913.7,872.5663962364197,412.8007789850235,2015.5,872.5663962364197,412.8007789850235,2120.6,872.5663962364197,412.8007789850235,2229.3,872.5663962364197,412.8007789850235,2336,872.5663962364197,412.8007789850235,2443.6,872.5663962364197,412.8007789850235,2549.1,872.5663962364197,412.8007789850235,2660.1,872.5663962364197,412.8007789850235,2763,872.5663962364197,412.8007789850235,2874.7,872.5663962364197,412.8007789850235,2978.4,872.5663962364197,412.8007789850235,3083.3,872.5663962364197,412.8007789850235,3185.4,872.5663962364197,412.8007789850235,3291,872.5663962364197,412.8007789850235,3394.1,872.5663962364197,412.8007789850235,3501.7,872.5663962364197,412.8007789850235,3609.7,872.5663962364197,412.8007789850235,3722.2,872.5663962364197,412.8007789850235,3825,872.5663962364197,412.8007789850235,3930,872.5663962364197,412.8007789850235,4030.3,872.5663962364197,412.8007789850235,4138.4,872.5663962364197,412.8007789850235,4240.8,872.5663962364197,412.8007789850235,4346.4,872.5663962364197,412.8007789850235,4448.4,872.5663962364197,412.8007789850235,4556.1,872.5663962364197,412.8007789850235,4662.3,872.5663962364197,412.8007789850235,4765.6,872.5663962364197,412.8007789850235,4869.3,872.5663962364197,412.8007789850235,4979.5]","[4937.9,4937.9,2482.2,2013.4,442.4,""smooth"",""right"",""right"",""good_move"",8358.7,3419,3000.2,4939.7,418.8,""smooth"",""right"",""right"",""good_move"",17311.5,8951.4,2829.5,14041.6,440.4,""oops"",""down"",""left"",""bad_move"",19744.8,2432.9,1900.5,17311.9,532.4,""oops"",""down"",""left"",""bad_move"",23207.1,3461,3015.2,19746.1,445.8,""smooth"",""right"",""right"",""good_move"",26042.2,2834.2,2399.4,23208.1,434.7,""smooth"",""down"",""down"",""good_move"",31602.3,5556.5,2177.5,28972.8,452,""smooth"",""down"",""down"",""good_move"",34478,2875.1,2443.7,31602.9,431.4,""smooth"",""right"",""right"",""good_move""]"
"2992","","<div style=""width:500px;"">
  <p>What determined the result of this run?</p>
  </div>","66","html-slider-response","69","923081","0.0-7.0-1.11","245","1","2025-08-10 08:49:41","36c45c0696341be0efffe67d72a12abb","71.138.89.249","Mozilla/5.0 (Windows NT 10.0; Win64; x64) AppleWebKit/537.36 (KHTML, like Gecko) Chrome/139.0.0.0 Safari/537.36","WebKit","Chrome","139.0.0.0","Windows","10.0","https://app.prolific.com/","en-US,en;q=0.9","5f0a7dec44c42c19a6c9f6d9","6877649eabb845cf142cd221","68985d209511899d24bcbd46","1","5f0a7dec44c42c19a6c9f6d9","1","2025-08-10T09:05:05.415Z","","","","AttribQ","","","","","","","","","","","50","","","","","","","","","","","","","","","","","","","","","","","","","","",""
"1909","","<div style=""width:500px;"">
  <p>How much control did you have over the ball?</p>
  </div>","54","html-slider-response","70","924992","0.0-7.0-2.11","245","1","2025-08-10 08:49:41","36c45c0696341be0efffe67d72a12abb","71.138.89.249","Mozilla/5.0 (Windows NT 10.0; Win64; x64) AppleWebKit/537.36 (KHTML, like Gecko) Chrome/139.0.0.0 Safari/537.36","WebKit","Chrome","139.0.0.0","Windows","10.0","https://app.prolific.com/","en-US,en;q=0.9","5f0a7dec44c42c19a6c9f6d9","6877649eabb845cf142cd221","68985d209511899d24bcbd46","1","5f0a7dec44c42c19a6c9f6d9","1","2025-08-10T09:05:07.326Z","","","","ControlQ","","","","","","","","","","","50","","","","","","","","","","","","","","","","","","","","","","","","","","",""
"2624","","<div style=""width:500px;"">
  <p>How would you describe your current emotional state?</p>
  </div>","62","html-slider-response","71","927618","0.0-7.0-3.11","245","1","2025-08-10 08:49:41","36c45c0696341be0efffe67d72a12abb","71.138.89.249","Mozilla/5.0 (Windows NT 10.0; Win64; x64) AppleWebKit/537.36 (KHTML, like Gecko) Chrome/139.0.0.0 Safari/537.36","WebKit","Chrome","139.0.0.0","Windows","10.0","https://app.prolific.com/","en-US,en;q=0.9","5f0a7dec44c42c19a6c9f6d9","6877649eabb845cf142cd221","68985d209511899d24bcbd46","1","5f0a7dec44c42c19a6c9f6d9","1","2025-08-10T09:05:09.952Z","","","","StressQ","","","","","","","","","","","50","","","","","","","","","","","","","","","","","","","","","","","","","","",""
"2145","","<div style=""width:500px;"">
  <p>What best describes how you currently feel?</p>
  </div>","71","html-slider-response","72","929765","0.0-7.0-4.11","245","1","2025-08-10 08:49:41","36c45c0696341be0efffe67d72a12abb","71.138.89.249","Mozilla/5.0 (Windows NT 10.0; Win64; x64) AppleWebKit/537.36 (KHTML, like Gecko) Chrome/139.0.0.0 Safari/537.36","WebKit","Chrome","139.0.0.0","Windows","10.0","https://app.prolific.com/","en-US,en;q=0.9","5f0a7dec44c42c19a6c9f6d9","6877649eabb845cf142cd221","68985d209511899d24bcbd46","1","5f0a7dec44c42c19a6c9f6d9","1","2025-08-10T09:05:12.100Z","","","","MotivationQ","","","","","","","","","","","50","","","","","","","","","","","","","","","","","","","","","","","","","","",""
"","","","","ctl-task-cpt","73","957115","0.0-7.0-0.12","245","1","2025-08-10 08:49:41","36c45c0696341be0efffe67d72a12abb","71.138.89.249","Mozilla/5.0 (Windows NT 10.0; Win64; x64) AppleWebKit/537.36 (KHTML, like Gecko) Chrome/139.0.0.0 Safari/537.36","WebKit","Chrome","139.0.0.0","Windows","10.0","https://app.prolific.com/","en-US,en;q=0.9","5f0a7dec44c42c19a6c9f6d9","6877649eabb845cf142cd221","68985d209511899d24bcbd46","1","5f0a7dec44c42c19a6c9f6d9","1","2025-08-10T09:05:39.449Z","","","","","","","","","","","","","","","","win-only","3","g1:SW,g2:NE","0.8","13","0","933339","765.6","5774.5","24321.2","1","4","4","6","2","4","4","12","8","0.09090909090909091","5008.8","3000","2025","[""up"",""right""]","{""num_key_presses"":6,""num_perfect"":4,""num_errors"":0,""num_randdir"":2,""num_randdir_good_moves"":2,""num_whilered"":0,""num_whileblue"":0,""num_blue"":1,""num_good_moves"":6}","[345.9257712364197,342.2539039850235,0.4,345.9257712364197,342.2539039850235,105.3,439.4413962364197,355.3789039850235,207.5,721.6288962364197,327.4882789850235,310,761.0038962364197,324.2070289850235,419.1,761.0038962364197,324.2070289850235,521.8,765.9257712364197,322.5664039850235,630.6,787.2538962364197,317.6445289850235,736.7,793.8163962364197,317.6445289850235,865.8,803.6601462364197,316.0039039850235,976,803.6601462364197,316.0039039850235,1083.9,803.6601462364197,316.0039039850235,1185.2,803.6601462364197,316.0039039850235,1288,803.6601462364197,316.0039039850235,1388.6,803.6601462364197,316.0039039850235,1489.7,803.6601462364197,316.0039039850235,1592.4,803.6601462364197,316.0039039850235,1702,803.6601462364197,316.0039039850235,1805.6,803.6601462364197,316.0039039850235,1920,803.6601462364197,316.0039039850235,2024.2,803.6601462364197,316.0039039850235,2129.4,803.6601462364197,316.0039039850235,2237.8,803.6601462364197,316.0039039850235,2343.7,803.6601462364197,316.0039039850235,2455.6,803.6601462364197,316.0039039850235,2560.5,803.6601462364197,316.0039039850235,2668.6,803.6601462364197,316.0039039850235,2771.7,803.6601462364197,316.0039039850235,2877.2,803.6601462364197,316.0039039850235,2984.5,803.6601462364197,316.0039039850235,3093.6,803.6601462364197,316.0039039850235,3205,803.6601462364197,316.0039039850235,3313.2,803.6601462364197,316.0039039850235,3415.6,803.6601462364197,316.0039039850235,3523.7,803.6601462364197,316.0039039850235,3625.2,803.6601462364197,316.0039039850235,3729.1,803.6601462364197,316.0039039850235,3829.6,803.6601462364197,316.0039039850235,3945.6,803.6601462364197,316.0039039850235,4061.3,803.6601462364197,316.0039039850235,4167.3,803.6601462364197,316.0039039850235,4280.7,803.6601462364197,316.0039039850235,4393.4,803.6601462364197,316.0039039850235,4500.8,803.6601462364197,316.0039039850235,4601.9,803.6601462364197,316.0039039850235,4706.3,803.6601462364197,316.0039039850235,4807.7,803.6601462364197,316.0039039850235,4910.5]","[4456.4,4456.4,1961.1,2004.8,490.5,""oops"",""right"",""right"",""good_move"",6725.8,2267.5,1831.5,4458.4,435.9,""smooth"",""right"",""right"",""good_move"",10077.7,3351.3,2924.6,6726.4,426.7,""smooth"",""right"",""right"",""good_move"",12262.5,2183.9,1724.9,10078.6,459,""smooth"",""up"",""up"",""good_move"",15277.1,3014,2608.2,12263.5,405.8,""oops"",""up"",""up"",""good_move"",18333.8,3055.6,2697.5,15278.2,358.1,""smooth"",""up"",""up"",""good_move""]"
"2858","","<div style=""width:500px;"">
  <p>What determined the result of this run?</p>
  </div>","82","html-slider-response","74","959976","0.0-7.0-1.12","245","1","2025-08-10 08:49:41","36c45c0696341be0efffe67d72a12abb","71.138.89.249","Mozilla/5.0 (Windows NT 10.0; Win64; x64) AppleWebKit/537.36 (KHTML, like Gecko) Chrome/139.0.0.0 Safari/537.36","WebKit","Chrome","139.0.0.0","Windows","10.0","https://app.prolific.com/","en-US,en;q=0.9","5f0a7dec44c42c19a6c9f6d9","6877649eabb845cf142cd221","68985d209511899d24bcbd46","1","5f0a7dec44c42c19a6c9f6d9","1","2025-08-10T09:05:42.311Z","","","","AttribQ","","","","","","","","","","","50","","","","","","","","","","","","","","","","","","","","","","","","","","",""
"1782","","<div style=""width:500px;"">
  <p>How much control did you have over the ball?</p>
  </div>","79","html-slider-response","75","961762","0.0-7.0-2.12","245","1","2025-08-10 08:49:41","36c45c0696341be0efffe67d72a12abb","71.138.89.249","Mozilla/5.0 (Windows NT 10.0; Win64; x64) AppleWebKit/537.36 (KHTML, like Gecko) Chrome/139.0.0.0 Safari/537.36","WebKit","Chrome","139.0.0.0","Windows","10.0","https://app.prolific.com/","en-US,en;q=0.9","5f0a7dec44c42c19a6c9f6d9","6877649eabb845cf142cd221","68985d209511899d24bcbd46","1","5f0a7dec44c42c19a6c9f6d9","1","2025-08-10T09:05:44.097Z","","","","ControlQ","","","","","","","","","","","50","","","","","","","","","","","","","","","","","","","","","","","","","","",""
"2356","","<div style=""width:500px;"">
  <p>How would you describe your current emotional state?</p>
  </div>","33","html-slider-response","76","964125","0.0-7.0-3.12","245","1","2025-08-10 08:49:41","36c45c0696341be0efffe67d72a12abb","71.138.89.249","Mozilla/5.0 (Windows NT 10.0; Win64; x64) AppleWebKit/537.36 (KHTML, like Gecko) Chrome/139.0.0.0 Safari/537.36","WebKit","Chrome","139.0.0.0","Windows","10.0","https://app.prolific.com/","en-US,en;q=0.9","5f0a7dec44c42c19a6c9f6d9","6877649eabb845cf142cd221","68985d209511899d24bcbd46","1","5f0a7dec44c42c19a6c9f6d9","1","2025-08-10T09:05:46.460Z","","","","StressQ","","","","","","","","","","","50","","","","","","","","","","","","","","","","","","","","","","","","","","",""
"2700","","<div style=""width:500px;"">
  <p>What best describes how you currently feel?</p>
