"rt","response_timestamp","stimulus","response","trial_type","trial_index","time_elapsed","internal_node_id","run_id","condition","recorded_at","source_code_version","ip","user_agent","device","browser","browser_version","platform","platform_version","referer","accept_language","PROLIFIC_PID","STUDY_ID","SESSION_ID","BATCH","prolific_id","batch","realtime","success","question_order","question_id","eventType","responses","item_order","radio_event_ids","radio_event_times","key_event_times","mouse_event_times","straightlining","zigzagging","honeypot","view_history","slider_start","which_type","canvas_config","goals_layout","control_level","trial_number","tutorial_trial_number","trial_start_time","phase1_start_time","phase2_start_time","phase3_start_time","goal_1_value","goal_1_distance","goal_2_value","goal_2_distance","goal_selected","outcome","outcome_total","participant_final_score","participant_initial_score","participant_final_score_prop","goal_choice_rt","allocated_time","allocated_time_remaining","goal_direction","counts","mouse_movements","key_presses"
"7173","1753866375025","<p style='font-size:40px;line-height:1.25'><strong>Welcome to the experiment!</strong></p><p style='font-size:1.1em;line-height:1.25'>Thank you for participanting in our experiment again! You will be asked to play the Dysfunctional Ball Game again. We will briefly recap the rules before we start.</p><p style='font-size:1.1em;line-height:1.25'>Press <strong>Next</strong> to continue.</p>","0","custom-html-button-response","0","7174","0.0-0.0","75","1","2025-07-30 09:06:02","36c45c0696341be0efffe67d72a12abb","125.203.3.50","Mozilla/5.0 (Windows NT 10.0; Win64; x64) AppleWebKit/537.36 (KHTML, like Gecko) Chrome/138.0.0.0 Safari/537.36","WebKit","Chrome","138.0.0.0","Windows","10.0","https://app.prolific.com/","en-US,en;q=0.9","5f2448855226b0000a8129e1","687a19d2168e237449fb8af4","6889e07477534edb8ede739f","0","5f2448855226b0000a8129e1","0","2025-07-30T09:06:15.026Z","","","","","","","","","","","","","","","","","","","","","","","","","","","","","","","","","","","","","","","","","",""
"5888","","","","fullscreen","1","14064","0.0-1.0","75","1","2025-07-30 09:06:02","36c45c0696341be0efffe67d72a12abb","125.203.3.50","Mozilla/5.0 (Windows NT 10.0; Win64; x64) AppleWebKit/537.36 (KHTML, like Gecko) Chrome/138.0.0.0 Safari/537.36","WebKit","Chrome","138.0.0.0","Windows","10.0","https://app.prolific.com/","en-US,en;q=0.9","5f2448855226b0000a8129e1","687a19d2168e237449fb8af4","6889e07477534edb8ede739f","0","5f2448855226b0000a8129e1","0","","true","","","","","","","","","","","","","","","","","","","","","","","","","","","","","","","","","","","","","","","","",""
"1614","1753866383529"," <p style='font-size:1.1em;line-height:1.25'>Thank you for closing all other tabs.</p><p style='font-size:1.1em;line-height:1.25'>We will now invite you to fill in some questionnaires, before starting the game.<br>This will take about 5 minutes.<br></p><p style='font-size:1.1em;line-height:1.25'>Press the <strong>Next</strong> button to continue.</p>","0","custom-html-button-response","2","15679","0.0-2.0","75","1","2025-07-30 09:06:02","36c45c0696341be0efffe67d72a12abb","125.203.3.50","Mozilla/5.0 (Windows NT 10.0; Win64; x64) AppleWebKit/537.36 (KHTML, like Gecko) Chrome/138.0.0.0 Safari/537.36","WebKit","Chrome","138.0.0.0","Windows","10.0","https://app.prolific.com/","en-US,en;q=0.9","5f2448855226b0000a8129e1","687a19d2168e237449fb8af4","6889e07477534edb8ede739f","0","5f2448855226b0000a8129e1","0","2025-07-30T09:06:23.530Z","","","","","","","","","","","","","","","","","","","","","","","","","","","","","","","","","","","","","","","","","",""
"2085","","","{""assigned_sex"":""male""}","survey-multi-choice","3","17765","0.0-3.0-0.0","75","1","2025-07-30 09:06:02","36c45c0696341be0efffe67d72a12abb","125.203.3.50","Mozilla/5.0 (Windows NT 10.0; Win64; x64) AppleWebKit/537.36 (KHTML, like Gecko) Chrome/138.0.0.0 Safari/537.36","WebKit","Chrome","138.0.0.0","Windows","10.0","https://app.prolific.com/","en-US,en;q=0.9","5f2448855226b0000a8129e1","687a19d2168e237449fb8af4","6889e07477534edb8ede739f","0","5f2448855226b0000a8129e1","0","","","[0]","0","demographics","","","","","","","","","","","","","","","","","","","","","","","","","","","","","","","","","","","","","",""
"4348","1753866389964","<p style='font-size:1.1em;line-height:1.25'>In the following, we will perform a baseline assessment. This means that we will ask you a few questions relating to your experiences over the past month.<br></p><p style='font-size:1.1em;line-height:1.25'>Press the <strong>Next</strong> button to continue.</p>","0","custom-html-button-response","4","22113","0.0-4.0-0.0","75","1","2025-07-30 09:06:02","36c45c0696341be0efffe67d72a12abb","125.203.3.50","Mozilla/5.0 (Windows NT 10.0; Win64; x64) AppleWebKit/537.36 (KHTML, like Gecko) Chrome/138.0.0.0 Safari/537.36","WebKit","Chrome","138.0.0.0","Windows","10.0","https://app.prolific.com/","en-US,en;q=0.9","5f2448855226b0000a8129e1","687a19d2168e237449fb8af4","6889e07477534edb8ede739f","0","5f2448855226b0000a8129e1","0","2025-07-30T09:06:29.964Z","","","","","","","","","","","","","","","","","","","","","","","","","","","","","","","","","","","","","","","","","",""
"40200","","","","survey-template","5","62315","0.0-4.0-1.0","75","1","2025-07-30 09:06:02","36c45c0696341be0efffe67d72a12abb","125.203.3.50","Mozilla/5.0 (Windows NT 10.0; Win64; x64) AppleWebKit/537.36 (KHTML, like Gecko) Chrome/138.0.0.0 Safari/537.36","WebKit","Chrome","138.0.0.0","Windows","10.0","https://app.prolific.com/","en-US,en;q=0.9","5f2448855226b0000a8129e1","687a19d2168e237449fb8af4","6889e07477534edb8ede739f","0","5f2448855226b0000a8129e1","0","2025-07-30T09:07:10.166Z","","","","pss","{""Q01"":""2"",""Q02"":""1"",""Q03"":""2"",""Q04"":""1"",""Q05"":""1"",""Q06"":""2"",""Q07"":""1"",""Q08"":""1"",""Q09"":""1"",""Q10"":""2""}","[0,1,2,3,4,5,6,7,8,9]","[""Q01"",""Q02"",""Q03"",""Q04"",""Q04"",""Q05"",""Q06"",""Q07"",""Q07"",""Q08"",""Q08"",""Q09"",""Q10""]","[6714.4000000003725,10912.099999999627,12537,16228.400000000373,17672.099999999627,22338.300000000745,27619.200000001118,28578.200000001118,30041,32456.200000001118,33624.40000000037,36449.09999999963,39799.59999999963]","[]","[0.09999999962747097,6714.4000000003725,9182.300000000745,10534.900000000373,10912.099999999627,12537,16228.400000000373,17672.099999999627,22338.300000000745,27619.200000001118,28578.200000001118,30041,32456.200000001118,33624.40000000037,36449.09999999963,38935.40000000037,39799.59999999963,40198.20000000112]","0.4","0.6666666666666666","0","","","","","","","","","","","","","","","","","","","","","","","","","","","","",""
"1868","1753866432034","<p style='font-size:1.1em;line-height:1.25'>Thank you for your answers! Now we will ask you a few more questions relating to your feelings in the last 24 hours.<br></p><p style='font-size:1.1em;line-height:1.25'>Press the <strong>Next</strong> button to continue.</p>","0","custom-html-button-response","6","64184","0.0-4.0-2.0","75","1","2025-07-30 09:06:02","36c45c0696341be0efffe67d72a12abb","125.203.3.50","Mozilla/5.0 (Windows NT 10.0; Win64; x64) AppleWebKit/537.36 (KHTML, like Gecko) Chrome/138.0.0.0 Safari/537.36","WebKit","Chrome","138.0.0.0","Windows","10.0","https://app.prolific.com/","en-US,en;q=0.9","5f2448855226b0000a8129e1","687a19d2168e237449fb8af4","6889e07477534edb8ede739f","0","5f2448855226b0000a8129e1","0","2025-07-30T09:07:12.035Z","","","","","","","","","","","","","","","","","","","","","","","","","","","","","","","","","","","","","","","","","",""
"44807.10000000149","","","","survey-template","7","108993","0.0-4.0-3.0","75","1","2025-07-30 09:06:02","36c45c0696341be0efffe67d72a12abb","125.203.3.50","Mozilla/5.0 (Windows NT 10.0; Win64; x64) AppleWebKit/537.36 (KHTML, like Gecko) Chrome/138.0.0.0 Safari/537.36","WebKit","Chrome","138.0.0.0","Windows","10.0","https://app.prolific.com/","en-US,en;q=0.9","5f2448855226b0000a8129e1","687a19d2168e237449fb8af4","6889e07477534edb8ede739f","0","5f2448855226b0000a8129e1","0","2025-07-30T09:07:56.844Z","","","","drsp","{""Q01"":""1"",""Q02"":""2"",""Q03"":""0"",""Q04"":""1"",""Q05"":""0"",""Q06"":""0"",""Q07"":""2"",""Q08"":""0"",""Q09"":""1"",""Q10"":""3"",""Q11"":""2"",""Q12"":""0"",""Q13"":""5"",""Q14"":""0"",""Q15"":""3"",""Q16"":""3"",""Q17"":""1"",""Q18"":""1"",""Q19"":""0"",""Q20"":""0"",""Q21"":""0"",""Q22"":""0""}","[0,1,2,3,4,5,6,7,8,9,10,11,12,13,14,15,16,17,18,19,20,21]","[""Q01"",""Q02"",""Q03"",""Q04"",""Q05"",""Q06"",""Q07"",""Q08"",""Q09"",""Q10"",""Q10"",""Q11"",""Q12"",""Q13"",""Q14"",""Q15"",""Q16"",""Q17"",""Q17"",""Q18"",""Q19"",""Q20"",""Q21"",""Q22""]","[2483.4000000003725,3834.10000000149,5014.200000001118,6048.800000000745,6984.60000000149,8548.800000000745,11590.700000001118,12776.700000001118,14556.800000000745,17978.700000001118,19125.300000000745,19777.700000001118,20746.10000000149,21994.900000000373,25356.800000000745,26265.60000000149,28235.700000001118,29583.200000001118,31117.10000000149,31999.300000000745,34437.60000000149,39640.70000000112,42932.60000000149,43477.70000000112]","[]","[0.2000000011175871,2483.4000000003725,3834.10000000149,5014.200000001118,6048.800000000745,6984.60000000149,8548.800000000745,11019,11590.700000001118,12776.700000001118,14259.5,14556.800000000745,17978.700000001118,19125.300000000745,19777.700000001118,20746.10000000149,21994.900000000373,24155.800000000745,24686.60000000149,25356.800000000745,26265.60000000149,28235.700000001118,29225.900000000373,29583.200000001118,31117.10000000149,31999.300000000745,33320.20000000112,33838.800000000745,34159.40000000037,34437.60000000149,36943.5,39640.70000000112,42932.60000000149,43477.70000000112,44804.800000000745]","0.45454545454545453","0.38095238095238093","0","","","","","","","","","","","","","","","","","","","","","","","","","","","","",""
"8601.39999999851","","","","survey-template","8","117595","0.0-4.0-4.0","75","1","2025-07-30 09:06:02","36c45c0696341be0efffe67d72a12abb","125.203.3.50","Mozilla/5.0 (Windows NT 10.0; Win64; x64) AppleWebKit/537.36 (KHTML, like Gecko) Chrome/138.0.0.0 Safari/537.36","WebKit","Chrome","138.0.0.0","Windows","10.0","https://app.prolific.com/","en-US,en;q=0.9","5f2448855226b0000a8129e1","687a19d2168e237449fb8af4","6889e07477534edb8ede739f","0","5f2448855226b0000a8129e1","0","2025-07-30T09:08:05.446Z","","","","stress","{""Q01"":""2"",""Q02"":""2"",""Q03"":""0""}","[0,1,2]","[""Q01"",""Q02"",""Q02"",""Q03""]","[3231,5283.5999999996275,5953,8079.799999998882]","[]","[3231,5283.5999999996275,5709.799999998882,5953,8079.799999998882,8600.89999999851]","0.3333333333333333","0.5","0","","","","","","","","","","","","","","","","","","","","","","","","","","","","",""
"31308","","","","instructions","9","148904","0.0-5.0-0.0","75","1","2025-07-30 09:06:02","36c45c0696341be0efffe67d72a12abb","125.203.3.50","Mozilla/5.0 (Windows NT 10.0; Win64; x64) AppleWebKit/537.36 (KHTML, like Gecko) Chrome/138.0.0.0 Safari/537.36","WebKit","Chrome","138.0.0.0","Windows","10.0","https://app.prolific.com/","en-US,en;q=0.9","5f2448855226b0000a8129e1","687a19d2168e237449fb8af4","6889e07477534edb8ede739f","0","5f2448855226b0000a8129e1","0","","","","","","","","","","","","","","","[{""page_index"":0,""viewing_time"":31308}]","","","","","","","","","","","","","","","","","","","","","","","","","","","",""
"10253","","<p>Before you start with this game please answer the following three questions yourself. </p>
  <p>Through this game, we measure several aspects of your cognitive performance, such as reaction times, multi-tasking capabilities </p>
  <p>and the ability to assess the situation you are in.</p>
  <p></p>
  <p><b>How good do you usually are in such tasks?</b></p>","98","html-slider-response","10","159158","0.0-6.0-0.0","75","1","2025-07-30 09:06:02","36c45c0696341be0efffe67d72a12abb","125.203.3.50","Mozilla/5.0 (Windows NT 10.0; Win64; x64) AppleWebKit/537.36 (KHTML, like Gecko) Chrome/138.0.0.0 Safari/537.36","WebKit","Chrome","138.0.0.0","Windows","10.0","https://app.prolific.com/","en-US,en;q=0.9","5f2448855226b0000a8129e1","687a19d2168e237449fb8af4","6889e07477534edb8ede739f","0","5f2448855226b0000a8129e1","0","2025-07-30T09:08:47.009Z","","","","PreSkillQ","","","","","","","","","","","50","","","","","","","","","","","","","","","","","","","","","","","","","","",""
"2677","","<div style=""width:500px;"">
  <p>How well do you think you will perform in this task compared to other participants?</p>
  </div>","93","html-slider-response","11","161836","0.0-6.0-1.0","75","1","2025-07-30 09:06:02","36c45c0696341be0efffe67d72a12abb","125.203.3.50","Mozilla/5.0 (Windows NT 10.0; Win64; x64) AppleWebKit/537.36 (KHTML, like Gecko) Chrome/138.0.0.0 Safari/537.36","WebKit","Chrome","138.0.0.0","Windows","10.0","https://app.prolific.com/","en-US,en;q=0.9","5f2448855226b0000a8129e1","687a19d2168e237449fb8af4","6889e07477534edb8ede739f","0","5f2448855226b0000a8129e1","0","2025-07-30T09:08:49.687Z","","","","PrePerfQ","","","","","","","","","","","50","","","","","","","","","","","","","","","","","","","","","","","","","","",""
"2154","","<div style=""width:500px;"">
  <p>What best describes how you currently feel?</p>
  </div>","86","html-slider-response","12","163991","0.0-6.0-2.0","75","1","2025-07-30 09:06:02","36c45c0696341be0efffe67d72a12abb","125.203.3.50","Mozilla/5.0 (Windows NT 10.0; Win64; x64) AppleWebKit/537.36 (KHTML, like Gecko) Chrome/138.0.0.0 Safari/537.36","WebKit","Chrome","138.0.0.0","Windows","10.0","https://app.prolific.com/","en-US,en;q=0.9","5f2448855226b0000a8129e1","687a19d2168e237449fb8af4","6889e07477534edb8ede739f","0","5f2448855226b0000a8129e1","0","2025-07-30T09:08:51.842Z","","","","PreMotivationQ","","","","","","","","","","","50","","","","","","","","","","","","","","","","","","","","","","","","","","",""
"","","","","ctl-task-cpt","13","190199","0.0-7.0-0.0","75","1","2025-07-30 09:06:02","36c45c0696341be0efffe67d72a12abb","125.203.3.50","Mozilla/5.0 (Windows NT 10.0; Win64; x64) AppleWebKit/537.36 (KHTML, like Gecko) Chrome/138.0.0.0 Safari/537.36","WebKit","Chrome","138.0.0.0","Windows","10.0","https://app.prolific.com/","en-US,en;q=0.9","5f2448855226b0000a8129e1","687a19d2168e237449fb8af4","6889e07477534edb8ede739f","0","5f2448855226b0000a8129e1","0","2025-07-30T09:09:18.050Z","","","","","","","","","","","","","","","","win-only","0","g1:NW,g2:SE","1","1","0","170878.5","2439.8","7441.4","23202.7","1","4","4","6","2","4","4","4","0","0.030303030303030304","2996.9","3000","1145","[""down"",""right""]","{""num_key_presses"":6,""num_perfect"":6,""num_errors"":0,""num_randdir"":0,""num_randdir_good_moves"":0,""num_whilered"":0,""num_whileblue"":0,""num_blue"":0,""num_good_moves"":6}","[416.5714133126395,416.57142761775424,0.2,416.5714133126395,416.57142761775424,102.3,416.5714133126395,416.57142761775424,206.8,416.5714133126395,416.57142761775424,311.8,414.0714133126395,416.57142761775424,415.6,414.0714133126395,416.57142761775424,520.6,414.0714133126395,416.57142761775424,620.8,414.0714133126395,416.57142761775424,721.2,414.0714133126395,416.57142761775424,821.5,414.0714133126395,416.57142761775424,925.6,414.0714133126395,416.57142761775424,1026.9,414.0714133126395,416.57142761775424,1131.3,414.0714133126395,416.57142761775424,1236.6,414.0714133126395,416.57142761775424,1340.5,414.0714133126395,416.57142761775424,1440.7,414.0714133126395,416.57142761775424,1541.1,414.0714133126395,416.57142761775424,1641.3,414.0714133126395,416.57142761775424,1742.2,471.5714133126395,456.57142761775424,1845.6,692.8214133126395,649.0714276177542,1946.4,752.8214133126395,732.8214276177542,2046.9,755.3214133126395,737.8214276177542,2147,755.3214133126395,737.8214276177542,2251.3,755.3214133126395,737.8214276177542,2357.2,755.3214133126395,737.8214276177542,2457.2,755.3214133126395,737.8214276177542,2560.9,755.3214133126395,737.8214276177542,2666.4,755.3214133126395,737.8214276177542,2766.6,755.3214133126395,737.8214276177542,2872.1,755.3214133126395,737.8214276177542,2972.1,755.3214133126395,737.8214276177542,3075.9,755.3214133126395,737.8214276177542,3182.1,896.5714133126395,736.5714276177542,3286.3,1037.8214133126396,724.0714276177542,3392.3,1037.8214133126396,722.8214276177542,3496.8,1037.8214133126396,722.8214276177542,3601.6,1037.8214133126396,722.8214276177542,3702.3,1037.8214133126396,722.8214276177542,3806,1037.8214133126396,722.8214276177542,3906.8,1037.8214133126396,722.8214276177542,4011.1,1037.8214133126396,722.8214276177542,4112.3,1037.8214133126396,722.8214276177542,4212.3,1037.8214133126396,722.8214276177542,4312.3,1037.8214133126396,722.8214276177542,4416.6,1037.8214133126396,722.8214276177542,4522.3,1037.8214133126396,722.8214276177542,4625.9,1037.8214133126396,722.8214276177542,4726.6,1037.8214133126396,722.8214276177542,4831.2,1037.8214133126396,722.8214276177542,4931.4]","[1337.7,1337.7,1000,0,337.7,""smooth"",""right"",""right"",""good_move"",4434.7,3096.8,2751.3,1337.9,345.5,""smooth"",""right"",""right"",""good_move"",7416.2,2981.3,2738.8,4434.9,242.5,""smooth"",""down"",""down"",""good_move"",10427.8,3011.5,2717,7416.4,294.5,""smooth"",""down"",""down"",""good_move"",12841.2,2413,2063.2,10428.2,349.8,""smooth"",""down"",""down"",""good_move"",15659.5,2818.3,2500,12841.3,318.3,""smooth"",""right"",""right"",""good_move""]"
"5424","","<div style=""width:500px;"">
  <p>What determined the result of this run?</p>
  </div>","100","html-slider-response","14","195624","0.0-7.0-1.0","75","1","2025-07-30 09:06:02","36c45c0696341be0efffe67d72a12abb","125.203.3.50","Mozilla/5.0 (Windows NT 10.0; Win64; x64) AppleWebKit/537.36 (KHTML, like Gecko) Chrome/138.0.0.0 Safari/537.36","WebKit","Chrome","138.0.0.0","Windows","10.0","https://app.prolific.com/","en-US,en;q=0.9","5f2448855226b0000a8129e1","687a19d2168e237449fb8af4","6889e07477534edb8ede739f","0","5f2448855226b0000a8129e1","0","2025-07-30T09:09:23.475Z","","","","AttribQ","","","","","","","","","","","50","","","","","","","","","","","","","","","","","","","","","","","","","","",""
"2132","","<div style=""width:500px;"">
  <p>How much control did you have over the ball?</p>
  </div>","100","html-slider-response","15","197757","0.0-7.0-2.0","75","1","2025-07-30 09:06:02","36c45c0696341be0efffe67d72a12abb","125.203.3.50","Mozilla/5.0 (Windows NT 10.0; Win64; x64) AppleWebKit/537.36 (KHTML, like Gecko) Chrome/138.0.0.0 Safari/537.36","WebKit","Chrome","138.0.0.0","Windows","10.0","https://app.prolific.com/","en-US,en;q=0.9","5f2448855226b0000a8129e1","687a19d2168e237449fb8af4","6889e07477534edb8ede739f","0","5f2448855226b0000a8129e1","0","2025-07-30T09:09:25.608Z","","","","ControlQ","","","","","","","","","","","50","","","","","","","","","","","","","","","","","","","","","","","","","","",""
"2425","","<div style=""width:500px;"">
  <p>How would you describe your current emotional state?</p>
  </div>","0","html-slider-response","16","200182","0.0-7.0-3.0","75","1","2025-07-30 09:06:02","36c45c0696341be0efffe67d72a12abb","125.203.3.50","Mozilla/5.0 (Windows NT 10.0; Win64; x64) AppleWebKit/537.36 (KHTML, like Gecko) Chrome/138.0.0.0 Safari/537.36","WebKit","Chrome","138.0.0.0","Windows","10.0","https://app.prolific.com/","en-US,en;q=0.9","5f2448855226b0000a8129e1","687a19d2168e237449fb8af4","6889e07477534edb8ede739f","0","5f2448855226b0000a8129e1","0","2025-07-30T09:09:28.033Z","","","","StressQ","","","","","","","","","","","50","","","","","","","","","","","","","","","","","","","","","","","","","","",""
"2092","","<div style=""width:500px;"">
  <p>What best describes how you currently feel?</p>
  </div>","100","html-slider-response","17","202275","0.0-7.0-4.0","75","1","2025-07-30 09:06:02","36c45c0696341be0efffe67d72a12abb","125.203.3.50","Mozilla/5.0 (Windows NT 10.0; Win64; x64) AppleWebKit/537.36 (KHTML, like Gecko) Chrome/138.0.0.0 Safari/537.36","WebKit","Chrome","138.0.0.0","Windows","10.0","https://app.prolific.com/","en-US,en;q=0.9","5f2448855226b0000a8129e1","687a19d2168e237449fb8af4","6889e07477534edb8ede739f","0","5f2448855226b0000a8129e1","0","2025-07-30T09:09:30.126Z","","","","MotivationQ","","","","","","","","","","","50","","","","","","","","","","","","","","","","","","","","","","","","","","",""
"","","","","ctl-task-cpt","18","237298","0.0-7.0-0.1","75","1","2025-07-30 09:06:02","36c45c0696341be0efffe67d72a12abb","125.203.3.50","Mozilla/5.0 (Windows NT 10.0; Win64; x64) AppleWebKit/537.36 (KHTML, like Gecko) Chrome/138.0.0.0 Safari/537.36","WebKit","Chrome","138.0.0.0","Windows","10.0","https://app.prolific.com/","en-US,en;q=0.9","5f2448855226b0000a8129e1","687a19d2168e237449fb8af4","6889e07477534edb8ede739f","0","5f2448855226b0000a8129e1","0","2025-07-30T09:10:05.149Z","","","","","","","","","","","","","","","","win-only","2","g1:SE,g2:NW","0.9","2","0","209161.8","799.6","5801.9","32005.9","1","4","8","6","2","8","7","11","4","0.08333333333333333","1024.1","3000","340","[""left"",""up""]","{""num_key_presses"":10,""num_perfect"":8,""num_errors"":1,""num_randdir"":1,""num_randdir_good_moves"":0,""num_whilered"":0,""num_whileblue"":1,""num_blue"":1,""num_good_moves"":8}","[422.8214133126395,420.32142761775424,0.1,421.5714133126395,419.07142761775424,101.5,421.5714133126395,419.07142761775424,206.2,421.5714133126395,421.57142761775424,306.4,477.8214133126395,482.82142761775424,407.2,649.0714133126395,671.5714276177542,510.8,691.5714133126395,721.5714276177542,611.8,349.0714133126395,420.32142761775424,717,75.3214133126395,186.57142761775424,821.5,80.3214133126395,131.57142761775424,921.8,84.0714133126395,90.32142761775425,1034.6,91.5714133126395,90.32142761775425,1136.4,471.5714133126395,176.57142761775424,1236.4,916.5714133126395,332.82142761775424,1337,952.8214133126395,346.57142761775424,1437,952.8214133126395,346.57142761775424,1540.6,952.8214133126395,346.57142761775424,1641.5,952.8214133126395,346.57142761775424,1746.1,952.8214133126395,346.57142761775424,1846.4,952.8214133126395,346.57142761775424,1946.5,952.8214133126395,346.57142761775424,2051.7,952.8214133126395,346.57142761775424,2157.5,952.8214133126395,346.57142761775424,2261.7,952.8214133126395,346.57142761775424,2366,952.8214133126395,346.57142761775424,2466.1,952.8214133126395,346.57142761775424,2571.7,952.8214133126395,346.57142761775424,2676.3,952.8214133126395,346.57142761775424,2781.6,952.8214133126395,346.57142761775424,2886.7,952.8214133126395,346.57142761775424,2991.6,952.8214133126395,346.57142761775424,3091.7,952.8214133126395,346.57142761775424,3195.9,952.8214133126395,346.57142761775424,3296.2,952.8214133126395,346.57142761775424,3396.4,952.8214133126395,346.57142761775424,3501.9,952.8214133126395,346.57142761775424,3607.3,952.8214133126395,346.57142761775424,3710.7,952.8214133126395,346.57142761775424,3811.3,952.8214133126395,346.57142761775424,3911.5,952.8214133126395,346.57142761775424,4012.7,952.8214133126395,346.57142761775424,4115.6,952.8214133126395,346.57142761775424,4216.4,952.8214133126395,346.57142761775424,4321.1,952.8214133126395,346.57142761775424,4421.7,952.8214133126395,346.57142761775424,4527.5,952.8214133126395,346.57142761775424,4630.7,952.8214133126395,346.57142761775424,4730.8,952.8214133126395,346.57142761775424,4836.4,952.8214133126395,346.57142761775424,4937.3]","[1348.9,1348.9,1000,0,348.9,""smooth"",""left"",""left"",""good_move"",3833,2483.8,2184.5,1349.2,299.3,""smooth"",""up"",""up"",""good_move"",6053.4,2220.1,1926.3,3833.3,293.8,""oops"",""up"",""down"",""bad_move"",8927.1,2873.5,2576.7,6053.6,296.8,""smooth"",""up"",""up"",""good_move"",11605.1,2677.9,2427.8,8927.2,250.1,""while_blue"",""up"",""right"",""bad_move"",14984.4,3379,3006.5,11605.4,372.5,""smooth"",""up"",""up"",""good_move"",17942.9,2958.4,2687.5,14984.5,270.9,""smooth"",""up"",""up"",""good_move"",20534.7,2591.6,2324.7,17943.1,266.9,""smooth"",""left"",""left"",""good_move"",23469.8,2935.1,2679.4,20534.7,255.7,""smooth"",""left"",""left"",""good_move"",26117.7,2647.8,2324.7,23469.9,323.1,""smooth"",""left"",""left"",""good_move""]"
"2885","","<div style=""width:500px;"">
  <p>What determined the result of this run?</p>
  </div>","97","html-slider-response","19","240185","0.0-7.0-1.1","75","1","2025-07-30 09:06:02","36c45c0696341be0efffe67d72a12abb","125.203.3.50","Mozilla/5.0 (Windows NT 10.0; Win64; x64) AppleWebKit/537.36 (KHTML, like Gecko) Chrome/138.0.0.0 Safari/537.36","WebKit","Chrome","138.0.0.0","Windows","10.0","https://app.prolific.com/","en-US,en;q=0.9","5f2448855226b0000a8129e1","687a19d2168e237449fb8af4","6889e07477534edb8ede739f","0","5f2448855226b0000a8129e1","0","2025-07-30T09:10:08.036Z","","","","AttribQ","","","","","","","","","","","50","","","","","","","","","","","","","","","","","","","","","","","","","","",""
"2034","","<div style=""width:500px;"">
  <p>How much control did you have over the ball?</p>
  </div>","97","html-slider-response","20","242220","0.0-7.0-2.1","75","1","2025-07-30 09:06:02","36c45c0696341be0efffe67d72a12abb","125.203.3.50","Mozilla/5.0 (Windows NT 10.0; Win64; x64) AppleWebKit/537.36 (KHTML, like Gecko) Chrome/138.0.0.0 Safari/537.36","WebKit","Chrome","138.0.0.0","Windows","10.0","https://app.prolific.com/","en-US,en;q=0.9","5f2448855226b0000a8129e1","687a19d2168e237449fb8af4","6889e07477534edb8ede739f","0","5f2448855226b0000a8129e1","0","2025-07-30T09:10:10.071Z","","","","ControlQ","","","","","","","","","","","50","","","","","","","","","","","","","","","","","","","","","","","","","","",""
"1400","","<div style=""width:500px;"">
  <p>How would you describe your current emotional state?</p>
  </div>","1","html-slider-response","21","243621","0.0-7.0-3.1","75","1","2025-07-30 09:06:02","36c45c0696341be0efffe67d72a12abb","125.203.3.50","Mozilla/5.0 (Windows NT 10.0; Win64; x64) AppleWebKit/537.36 (KHTML, like Gecko) Chrome/138.0.0.0 Safari/537.36","WebKit","Chrome","138.0.0.0","Windows","10.0","https://app.prolific.com/","en-US,en;q=0.9","5f2448855226b0000a8129e1","687a19d2168e237449fb8af4","6889e07477534edb8ede739f","0","5f2448855226b0000a8129e1","0","2025-07-30T09:10:11.472Z","","","","StressQ","","","","","","","","","","","50","","","","","","","","","","","","","","","","","","","","","","","","","","",""
"1254","","<div style=""width:500px;"">
  <p>What best describes how you currently feel?</p>
  </div>","95","html-slider-response","22","244876","0.0-7.0-4.1","75","1","2025-07-30 09:06:02","36c45c0696341be0efffe67d72a12abb","125.203.3.50","Mozilla/5.0 (Windows NT 10.0; Win64; x64) AppleWebKit/537.36 (KHTML, like Gecko) Chrome/138.0.0.0 Safari/537.36","WebKit","Chrome","138.0.0.0","Windows","10.0","https://app.prolific.com/","en-US,en;q=0.9","5f2448855226b0000a8129e1","687a19d2168e237449fb8af4","6889e07477534edb8ede739f","0","5f2448855226b0000a8129e1","0","2025-07-30T09:10:12.727Z","","","","MotivationQ","","","","","","","","","","","50","","","","","","","","","","","","","","","","","","","","","","","","","","",""
"","","","","ctl-task-cpt","23","274396","0.0-7.0-0.2","75","1","2025-07-30 09:06:02","36c45c0696341be0efffe67d72a12abb","125.203.3.50","Mozilla/5.0 (Windows NT 10.0; Win64; x64) AppleWebKit/537.36 (KHTML, like Gecko) Chrome/138.0.0.0 Safari/537.36","WebKit","Chrome","138.0.0.0","Windows","10.0","https://app.prolific.com/","en-US,en;q=0.9","5f2448855226b0000a8129e1","687a19d2168e237449fb8af4","6889e07477534edb8ede739f","0","5f2448855226b0000a8129e1","0","2025-07-30T09:10:42.247Z","","","","","","","","","","","","","","","","win-only","0","g1:NW,g2:SE","0.8","3","0","251763.6","824.7","5826.2","26502.8","1","4","4","6","2","4","4","15","11","0.11363636363636363","742.1","3000","630","[""down"",""right""]","{""num_key_presses"":8,""num_perfect"":7,""num_errors"":0,""num_randdir"":1,""num_randdir_good_moves"":0,""num_whilered"":0,""num_whileblue"":0,""num_blue"":0,""num_good_moves"":7}","[414.0714133126395,411.57142761775424,0.3,414.0714133126395,411.57142761775424,101.7,414.0714133126395,411.57142761775424,206.2,414.0714133126395,411.57142761775424,306.3,416.5714133126395,419.07142761775424,406.3,591.5714133126395,555.3214276177542,510.6,749.0714133126395,709.0714276177542,610.8,751.5714133126395,767.8214276177542,711.1,746.5714133126395,776.5714276177542,811.1,857.8214133126395,769.0714276177542,916.8,1091.5714133126396,777.8214276177542,1017.5,1094.0714133126396,779.0714276177542,1121.7,1094.0714133126396,779.0714276177542,1227.1,1094.0714133126396,779.0714276177542,1331,1094.0714133126396,779.0714276177542,1436.3,1094.0714133126396,779.0714276177542,1536.6,1094.0714133126396,779.0714276177542,1641.3,1094.0714133126396,779.0714276177542,1746.2,1094.0714133126396,779.0714276177542,1846.5,1094.0714133126396,779.0714276177542,1946.8,1094.0714133126396,779.0714276177542,2051.1,1094.0714133126396,779.0714276177542,2155.8,1094.0714133126396,779.0714276177542,2257,1094.0714133126396,779.0714276177542,2362.1,1094.0714133126396,779.0714276177542,2462.5,1094.0714133126396,779.0714276177542,2565.9,1094.0714133126396,779.0714276177542,2666.2,1094.0714133126396,779.0714276177542,2771.6,1094.0714133126396,779.0714276177542,2871.6,1094.0714133126396,779.0714276177542,2976.1,1094.0714133126396,779.0714276177542,3081.3,1094.0714133126396,779.0714276177542,3187,1094.0714133126396,779.0714276177542,3290.8,1094.0714133126396,779.0714276177542,3391.1,1094.0714133126396,779.0714276177542,3491.9,1094.0714133126396,779.0714276177542,3596.3,1094.0714133126396,779.0714276177542,3696.7,1094.0714133126396,779.0714276177542,3800.8,1094.0714133126396,779.0714276177542,3900.8,1094.0714133126396,779.0714276177542,4001,1094.0714133126396,779.0714276177542,4101.5,1094.0714133126396,779.0714276177542,4206.5,1094.0714133126396,779.0714276177542,4306.8,1094.0714133126396,779.0714276177542,4411.2,1094.0714133126396,779.0714276177542,4515.8,1094.0714133126396,779.0714276177542,4617.1,1094.0714133126396,779.0714276177542,4721.4,1094.0714133126396,779.0714276177542,4821.8,1094.0714133126396,779.0714276177542,4926.4]","[1293.3,1293.3,1000,0,293.3,""smooth"",""right"",""right"",""good_move"",4688.3,3394.6,3057.7,1293.8,336.8,""smooth"",""right"",""right"",""good_move"",7162.4,2474,2174,4688.4,300,""smooth"",""right"",""right"",""good_move"",10170.8,3008.3,2720.6,7162.5,287.7,""smooth"",""down"",""down"",""good_move"",12236.4,2065.2,1729.9,10171.2,335.3,""smooth"",""down"",""down"",""good_move"",15248.7,3012.1,2696.4,12236.6,315.7,""oops"",""down"",""left"",""bad_move"",17623.6,2374.4,2085.1,15249.2,289.3,""smooth"",""right"",""right"",""good_move"",20589,2965.2,2705.3,17623.8,259.9,""smooth"",""down"",""down"",""good_move""]"
"5972","","<div style=""width:500px;"">
  <p>What determined the result of this run?</p>
  </div>","98","html-slider-response","24","280369","0.0-7.0-1.2","75","1","2025-07-30 09:06:02","36c45c0696341be0efffe67d72a12abb","125.203.3.50","Mozilla/5.0 (Windows NT 10.0; Win64; x64) AppleWebKit/537.36 (KHTML, like Gecko) Chrome/138.0.0.0 Safari/537.36","WebKit","Chrome","138.0.0.0","Windows","10.0","https://app.prolific.com/","en-US,en;q=0.9","5f2448855226b0000a8129e1","687a19d2168e237449fb8af4","6889e07477534edb8ede739f","0","5f2448855226b0000a8129e1","0","2025-07-30T09:10:48.220Z","","","","AttribQ","","","","","","","","","","","50","","","","","","","","","","","","","","","","","","","","","","","","","","",""
"1217","","<div style=""width:500px;"">
  <p>How much control did you have over the ball?</p>
  </div>","91","html-slider-response","25","281587","0.0-7.0-2.2","75","1","2025-07-30 09:06:02","36c45c0696341be0efffe67d72a12abb","125.203.3.50","Mozilla/5.0 (Windows NT 10.0; Win64; x64) AppleWebKit/537.36 (KHTML, like Gecko) Chrome/138.0.0.0 Safari/537.36","WebKit","Chrome","138.0.0.0","Windows","10.0","https://app.prolific.com/","en-US,en;q=0.9","5f2448855226b0000a8129e1","687a19d2168e237449fb8af4","6889e07477534edb8ede739f","0","5f2448855226b0000a8129e1","0","2025-07-30T09:10:49.438Z","","","","ControlQ","","","","","","","","","","","50","","","","","","","","","","","","","","","","","","","","","","","","","","",""
"1621","","<div style=""width:500px;"">
  <p>How would you describe your current emotional state?</p>
  </div>","3","html-slider-response","26","283209","0.0-7.0-3.2","75","1","2025-07-30 09:06:02","36c45c0696341be0efffe67d72a12abb","125.203.3.50","Mozilla/5.0 (Windows NT 10.0; Win64; x64) AppleWebKit/537.36 (KHTML, like Gecko) Chrome/138.0.0.0 Safari/537.36","WebKit","Chrome","138.0.0.0","Windows","10.0","https://app.prolific.com/","en-US,en;q=0.9","5f2448855226b0000a8129e1","687a19d2168e237449fb8af4","6889e07477534edb8ede739f","0","5f2448855226b0000a8129e1","0","2025-07-30T09:10:51.060Z","","","","StressQ","","","","","","","","","","","50","","","","","","","","","","","","","","","","","","","","","","","","","","",""
"1427","","<div style=""width:500px;"">
  <p>What best describes how you currently feel?</p>
  </div>","95","html-slider-response","27","284636","0.0-7.0-4.2","75","1","2025-07-30 09:06:02","36c45c0696341be0efffe67d72a12abb","125.203.3.50","Mozilla/5.0 (Windows NT 10.0; Win64; x64) AppleWebKit/537.36 (KHTML, like Gecko) Chrome/138.0.0.0 Safari/537.36","WebKit","Chrome","138.0.0.0","Windows","10.0","https://app.prolific.com/","en-US,en;q=0.9","5f2448855226b0000a8129e1","687a19d2168e237449fb8af4","6889e07477534edb8ede739f","0","5f2448855226b0000a8129e1","0","2025-07-30T09:10:52.487Z","","","","MotivationQ","","","","","","","","","","","50","","","","","","","","","","","","","","","","","","","","","","","","","","",""
"","","","","ctl-task-cpt","28","314544","0.0-7.0-0.3","75","1","2025-07-30 09:06:02","36c45c0696341be0efffe67d72a12abb","125.203.3.50","Mozilla/5.0 (Windows NT 10.0; Win64; x64) AppleWebKit/537.36 (KHTML, like Gecko) Chrome/138.0.0.0 Safari/537.36","WebKit","Chrome","138.0.0.0","Windows","10.0","https://app.prolific.com/","en-US,en;q=0.9","5f2448855226b0000a8129e1","687a19d2168e237449fb8af4","6889e07477534edb8ede739f","0","5f2448855226b0000a8129e1","0","2025-07-30T09:11:22.395Z","","","","","","","","","","","","","","","","win-only","0","g1:NW,g2:SE","0.7","4","0","291524.1","935.3","5936.2","26890.8","1","4","8","6","2","8","8","23","15","0.17424242424242425","687","3000","1175","[""down"",""right""]","{""num_key_presses"":6,""num_perfect"":4,""num_errors"":0,""num_randdir"":2,""num_randdir_good_moves"":2,""num_whilered"":0,""num_whileblue"":0,""num_blue"":1,""num_good_moves"":6}","[414.0714133126395,410.32142761775424,0.3,414.0714133126395,410.32142761775424,100.1,414.0714133126395,410.32142761775424,200.3,414.0714133126395,410.32142761775424,306.5,415.3214133126395,422.82142761775424,411.4,636.5714133126395,660.3214276177542,512.6,726.5714133126395,765.3214276177542,616.5,726.5714133126395,765.3214276177542,721.4,790.3214133126395,756.5714276177542,825.4,1066.5714133126396,749.0714276177542,930.3,1066.5714133126396,749.0714276177542,1030.8,1066.5714133126396,749.0714276177542,1130.8,1066.5714133126396,749.0714276177542,1231,1066.5714133126396,749.0714276177542,1335.4,1066.5714133126396,749.0714276177542,1436.5,1066.5714133126396,749.0714276177542,1541,1066.5714133126396,749.0714276177542,1646,1066.5714133126396,749.0714276177542,1746.2,1066.5714133126396,749.0714276177542,1850.9,1066.5714133126396,749.0714276177542,1955.8,1066.5714133126396,749.0714276177542,2060.4,1066.5714133126396,749.0714276177542,2160.8,1066.5714133126396,749.0714276177542,2261.6,1066.5714133126396,749.0714276177542,2362,1066.5714133126396,749.0714276177542,2465.7,1066.5714133126396,749.0714276177542,2565.8,1066.5714133126396,749.0714276177542,2665.8,1066.5714133126396,749.0714276177542,2766.1,1066.5714133126396,749.0714276177542,2869.9,1066.5714133126396,749.0714276177542,2970.7,1066.5714133126396,749.0714276177542,3071.2,1066.5714133126396,749.0714276177542,3174.9,1066.5714133126396,749.0714276177542,3276.6,1066.5714133126396,749.0714276177542,3376.6,1066.5714133126396,749.0714276177542,3480.8,1066.5714133126396,749.0714276177542,3581.1,1066.5714133126396,749.0714276177542,3685.1,1066.5714133126396,749.0714276177542,3785.1,1066.5714133126396,749.0714276177542,3885.9,1066.5714133126396,749.0714276177542,3990.1,1066.5714133126396,749.0714276177542,4090.6,1066.5714133126396,749.0714276177542,4190.7,1066.5714133126396,749.0714276177542,4295.1,1066.5714133126396,749.0714276177542,4395.6,1066.5714133126396,749.0714276177542,4500.5,1066.5714133126396,749.0714276177542,4606.2,1066.5714133126396,749.0714276177542,4710.7,1066.5714133126396,749.0714276177542,4810.7,1066.5714133126396,749.0714276177542,4915.6]","[1326,1326,1000,0,326,""oops"",""right"",""down"",""good_move"",4590.4,3264.2,2978.6,1326.2,285.6,""smooth"",""right"",""right"",""good_move"",7285.3,2694.6,2393.5,4590.7,301.1,""smooth"",""right"",""right"",""good_move"",9991.7,2706.2,2406.2,7285.5,300,""smooth"",""right"",""right"",""good_move"",17096.9,7105,3031.1,13754.5,311.3,""smooth"",""down"",""down"",""good_move"",20861.4,3764.3,3436.1,17097.1,328.2,""oops"",""down"",""down"",""good_move""]"
"2178","","<div style=""width:500px;"">
  <p>What determined the result of this run?</p>
  </div>","93","html-slider-response","29","316722","0.0-7.0-1.3","75","1","2025-07-30 09:06:02","36c45c0696341be0efffe67d72a12abb","125.203.3.50","Mozilla/5.0 (Windows NT 10.0; Win64; x64) AppleWebKit/537.36 (KHTML, like Gecko) Chrome/138.0.0.0 Safari/537.36","WebKit","Chrome","138.0.0.0","Windows","10.0","https://app.prolific.com/","en-US,en;q=0.9","5f2448855226b0000a8129e1","687a19d2168e237449fb8af4","6889e07477534edb8ede739f","0","5f2448855226b0000a8129e1","0","2025-07-30T09:11:24.573Z","","","","AttribQ","","","","","","","","","","","50","","","","","","","","","","","","","","","","","","","","","","","","","","",""
"1332","","<div style=""width:500px;"">
  <p>How much control did you have over the ball?</p>
  </div>","91","html-slider-response","30","318055","0.0-7.0-2.3","75","1","2025-07-30 09:06:02","36c45c0696341be0efffe67d72a12abb","125.203.3.50","Mozilla/5.0 (Windows NT 10.0; Win64; x64) AppleWebKit/537.36 (KHTML, like Gecko) Chrome/138.0.0.0 Safari/537.36","WebKit","Chrome","138.0.0.0","Windows","10.0","https://app.prolific.com/","en-US,en;q=0.9","5f2448855226b0000a8129e1","687a19d2168e237449fb8af4","6889e07477534edb8ede739f","0","5f2448855226b0000a8129e1","0","2025-07-30T09:11:25.906Z","","","","ControlQ","","","","","","","","","","","50","","","","","","","","","","","","","","","","","","","","","","","","","","",""
"1600","","<div style=""width:500px;"">
  <p>How would you describe your current emotional state?</p>
  </div>","2","html-slider-response","31","319656","0.0-7.0-3.3","75","1","2025-07-30 09:06:02","36c45c0696341be0efffe67d72a12abb","125.203.3.50","Mozilla/5.0 (Windows NT 10.0; Win64; x64) AppleWebKit/537.36 (KHTML, like Gecko) Chrome/138.0.0.0 Safari/537.36","WebKit","Chrome","138.0.0.0","Windows","10.0","https://app.prolific.com/","en-US,en;q=0.9","5f2448855226b0000a8129e1","687a19d2168e237449fb8af4","6889e07477534edb8ede739f","0","5f2448855226b0000a8129e1","0","2025-07-30T09:11:27.507Z","","","","StressQ","","","","","","","","","","","50","","","","","","","","","","","","","","","","","","","","","","","","","","",""
"1289","","<div style=""width:500px;"">
  <p>What best describes how you currently feel?</p>
  </div>","93","html-slider-response","32","320945","0.0-7.0-4.3","75","1","2025-07-30 09:06:02","36c45c0696341be0efffe67d72a12abb","125.203.3.50","Mozilla/5.0 (Windows NT 10.0; Win64; x64) AppleWebKit/537.36 (KHTML, like Gecko) Chrome/138.0.0.0 Safari/537.36","WebKit","Chrome","138.0.0.0","Windows","10.0","https://app.prolific.com/","en-US,en;q=0.9","5f2448855226b0000a8129e1","687a19d2168e237449fb8af4","6889e07477534edb8ede739f","0","5f2448855226b0000a8129e1","0","2025-07-30T09:11:28.796Z","","","","MotivationQ","","","","","","","","","","","50","","","","","","","","","","","","","","","","","","","","","","","","","","",""
"","","","","ctl-task-cpt","33","351960","0.0-7.0-0.4","75","1","2025-07-30 09:06:02","36c45c0696341be0efffe67d72a12abb","125.203.3.50","Mozilla/5.0 (Windows NT 10.0; Win64; x64) AppleWebKit/537.36 (KHTML, like Gecko) Chrome/138.0.0.0 Safari/537.36","WebKit","Chrome","138.0.0.0","Windows","10.0","https://app.prolific.com/","en-US,en;q=0.9","5f2448855226b0000a8129e1","687a19d2168e237449fb8af4","6889e07477534edb8ede739f","0","5f2448855226b0000a8129e1","0","2025-07-30T09:11:59.811Z","","","","","","","","","","","","","","","","win-only","0","g1:NW,g2:SE","0.6","5","0","327832.8","680.2","5681.4","27995.4","1","4","8","6","2","8","8","31","23","0.23484848484848486","682.7","3000","835","[""down"",""right""]","{""num_key_presses"":6,""num_perfect"":6,""num_errors"":0,""num_randdir"":0,""num_randdir_good_moves"":0,""num_whilered"":0,""num_whileblue"":0,""num_blue"":2,""num_good_moves"":6}","[406.5714133126395,410.32142761775424,0,406.5714133126395,410.32142761775424,101,406.5714133126395,410.32142761775424,201.2,406.5714133126395,412.82142761775424,301.2,430.3214133126395,456.57142761775424,405.4,701.5714133126395,665.3214276177542,511.7,756.5714133126395,714.0714276177542,616.7,796.5714133126395,775.3214276177542,720.8,822.8214133126395,769.0714276177542,825.4,951.5714133126395,735.3214276177542,925.5,1047.8214133126396,712.8214276177542,1027.1,1047.8214133126396,711.5714276177542,1131.4,1047.8214133126396,711.5714276177542,1236.2,1047.8214133126396,711.5714276177542,1341.3,1047.8214133126396,711.5714276177542,1445.1,1047.8214133126396,711.5714276177542,1551,1047.8214133126396,711.5714276177542,1651.2,1047.8214133126396,711.5714276177542,1755.1,1047.8214133126396,711.5714276177542,1860.1,1047.8214133126396,711.5714276177542,1960.7,1047.8214133126396,711.5714276177542,2061.1,1047.8214133126396,711.5714276177542,2165.9,1047.8214133126396,711.5714276177542,2266.2,1047.8214133126396,711.5714276177542,2366.5,1047.8214133126396,711.5714276177542,2470.6,1047.8214133126396,711.5714276177542,2574.9,1047.8214133126396,711.5714276177542,2676,1047.8214133126396,711.5714276177542,2776.3,1047.8214133126396,711.5714276177542,2876.3,1047.8214133126396,711.5714276177542,2976.3,1047.8214133126396,711.5714276177542,3081.5,1047.8214133126396,711.5714276177542,3186.2,1047.8214133126396,711.5714276177542,3291.4,1047.8214133126396,711.5714276177542,3395.8,1047.8214133126396,711.5714276177542,3500.8,1047.8214133126396,711.5714276177542,3601,1047.8214133126396,711.5714276177542,3705.4,1047.8214133126396,711.5714276177542,3806.1,1047.8214133126396,711.5714276177542,3906.1,1047.8214133126396,711.5714276177542,4011.1,1047.8214133126396,711.5714276177542,4116,1047.8214133126396,711.5714276177542,4216.1,1047.8214133126396,711.5714276177542,4320.9,1047.8214133126396,711.5714276177542,4421.1,1047.8214133126396,711.5714276177542,4526.3,1047.8214133126396,711.5714276177542,4630.2,1047.8214133126396,711.5714276177542,4730.2,1047.8214133126396,711.5714276177542,4831.4,1047.8214133126396,711.5714276177542,4935]","[1343.7,1343.7,1000,0,343.7,""smooth"",""right"",""right"",""good_move"",7469.3,6125.2,2578.2,4523.8,367.3,""smooth"",""right"",""right"",""good_move"",10119.1,2649.7,2201.3,7469.5,448.4,""smooth"",""right"",""right"",""good_move"",12885.7,2766.4,2428,10119.3,338.4,""smooth"",""down"",""down"",""good_move"",15818.4,2932.3,2619,12886.1,313.3,""smooth"",""down"",""down"",""good_move"",22229.3,6410.8,2622.6,19209.3,397.4,""smooth"",""down"",""down"",""good_move""]"
"1649","","<div style=""width:500px;"">
  <p>What determined the result of this run?</p>
  </div>","100","html-slider-response","34","353611","0.0-7.0-1.4","75","1","2025-07-30 09:06:02","36c45c0696341be0efffe67d72a12abb","125.203.3.50","Mozilla/5.0 (Windows NT 10.0; Win64; x64) AppleWebKit/537.36 (KHTML, like Gecko) Chrome/138.0.0.0 Safari/537.36","WebKit","Chrome","138.0.0.0","Windows","10.0","https://app.prolific.com/","en-US,en;q=0.9","5f2448855226b0000a8129e1","687a19d2168e237449fb8af4","6889e07477534edb8ede739f","0","5f2448855226b0000a8129e1","0","2025-07-30T09:12:01.462Z","","","","AttribQ","","","","","","","","","","","50","","","","","","","","","","","","","","","","","","","","","","","","","","",""
"1763","","<div style=""width:500px;"">
  <p>How much control did you have over the ball?</p>
  </div>","100","html-slider-response","35","355377","0.0-7.0-2.4","75","1","2025-07-30 09:06:02","36c45c0696341be0efffe67d72a12abb","125.203.3.50","Mozilla/5.0 (Windows NT 10.0; Win64; x64) AppleWebKit/537.36 (KHTML, like Gecko) Chrome/138.0.0.0 Safari/537.36","WebKit","Chrome","138.0.0.0","Windows","10.0","https://app.prolific.com/","en-US,en;q=0.9","5f2448855226b0000a8129e1","687a19d2168e237449fb8af4","6889e07477534edb8ede739f","0","5f2448855226b0000a8129e1","0","2025-07-30T09:12:03.228Z","","","","ControlQ","","","","","","","","","","","50","","","","","","","","","","","","","","","","","","","","","","","","","","",""
"2079","","<div style=""width:500px;"">
  <p>How would you describe your current emotional state?</p>
  </div>","0","html-slider-response","36","357458","0.0-7.0-3.4","75","1","2025-07-30 09:06:02","36c45c0696341be0efffe67d72a12abb","125.203.3.50","Mozilla/5.0 (Windows NT 10.0; Win64; x64) AppleWebKit/537.36 (KHTML, like Gecko) Chrome/138.0.0.0 Safari/537.36","WebKit","Chrome","138.0.0.0","Windows","10.0","https://app.prolific.com/","en-US,en;q=0.9","5f2448855226b0000a8129e1","687a19d2168e237449fb8af4","6889e07477534edb8ede739f","0","5f2448855226b0000a8129e1","0","2025-07-30T09:12:05.309Z","","","","StressQ","","","","","","","","","","","50","","","","","","","","","","","","","","","","","","","","","","","","","","",""
"1234","","<div style=""width:500px;"">
  <p>What best describes how you currently feel?</p>
  </div>","97","html-slider-response","37","358695","0.0-7.0-4.4","75","1","2025-07-30 09:06:02","36c45c0696341be0efffe67d72a12abb","125.203.3.50","Mozilla/5.0 (Windows NT 10.0; Win64; x64) AppleWebKit/537.36 (KHTML, like Gecko) Chrome/138.0.0.0 Safari/537.36","WebKit","Chrome","138.0.0.0","Windows","10.0","https://app.prolific.com/","en-US,en;q=0.9","5f2448855226b0000a8129e1","687a19d2168e237449fb8af4","6889e07477534edb8ede739f","0","5f2448855226b0000a8129e1","0","2025-07-30T09:12:06.546Z","","","","MotivationQ","","","","","","","","","","","50","","","","","","","","","","","","","","","","","","","","","","","","","","",""
"","","","","ctl-task-cpt","38","388410","0.0-7.0-0.5","75","1","2025-07-30 09:06:02","36c45c0696341be0efffe67d72a12abb","125.203.3.50","Mozilla/5.0 (Windows NT 10.0; Win64; x64) AppleWebKit/537.36 (KHTML, like Gecko) Chrome/138.0.0.0 Safari/537.36","WebKit","Chrome","138.0.0.0","Windows","10.0","https://app.prolific.com/","en-US,en;q=0.9","5f2448855226b0000a8129e1","687a19d2168e237449fb8af4","6889e07477534edb8ede739f","0","5f2448855226b0000a8129e1","0","2025-07-30T09:12:36.261Z","","","","","","","","","","","","","","","","win-only","0","g1:NW,g2:SE","0.5","6","0","365583.1","589.1","5590.8","26705.2","1","4","4","6","2","4","4","35","31","0.26515151515151514","765.7","3000","935","[""down"",""right""]","{""num_key_presses"":6,""num_perfect"":3,""num_errors"":0,""num_randdir"":3,""num_randdir_good_moves"":3,""num_whilered"":0,""num_whileblue"":0,""num_blue"":1,""num_good_moves"":6}","[415.3214133126395,414.07142761775424,0.1,415.3214133126395,414.07142761775424,101.4,415.3214133126395,414.07142761775424,203.5,416.5714133126395,416.57142761775424,306.3,441.5714133126395,442.82142761775424,406.7,592.8214133126395,576.5714276177542,515.9,641.5714133126395,650.3214276177542,616.9,737.8214133126395,761.5714276177542,717.6,749.0714133126395,771.5714276177542,822,770.3214133126395,774.0714276177542,929.6,881.5714133126395,754.0714276177542,1033,1056.5714133126396,742.8214276177542,1135.2,1100.3214133126396,741.5714276177542,1236.8,1100.3214133126396,741.5714276177542,1342.2,1100.3214133126396,741.5714276177542,1449.4,1100.3214133126396,741.5714276177542,1549.5,1100.3214133126396,741.5714276177542,1651.8,1100.3214133126396,741.5714276177542,1757.1,1100.3214133126396,741.5714276177542,1857.1,1100.3214133126396,741.5714276177542,1957.3,1100.3214133126396,741.5714276177542,2065.4,1100.3214133126396,741.5714276177542,2165.6,1100.3214133126396,741.5714276177542,2266.8,1100.3214133126396,741.5714276177542,2371.7,1100.3214133126396,741.5714276177542,2481.8,1100.3214133126396,741.5714276177542,2582.1,1100.3214133126396,741.5714276177542,2686,1100.3214133126396,741.5714276177542,2786.2,1100.3214133126396,741.5714276177542,2886.2,1100.3214133126396,741.5714276177542,2987,1100.3214133126396,741.5714276177542,3087.5,1100.3214133126396,741.5714276177542,3192.3,1100.3214133126396,741.5714276177542,3296.9,1100.3214133126396,741.5714276177542,3397.2,1100.3214133126396,741.5714276177542,3502.1,1100.3214133126396,741.5714276177542,3606.2,1100.3214133126396,741.5714276177542,3713.9,1100.3214133126396,741.5714276177542,3814.3,1100.3214133126396,741.5714276177542,3917.2,1100.3214133126396,741.5714276177542,4021.9,1100.3214133126396,741.5714276177542,4122.2,1100.3214133126396,741.5714276177542,4229.1,1100.3214133126396,741.5714276177542,4329.4,1100.3214133126396,741.5714276177542,4429.4,1100.3214133126396,741.5714276177542,4531.8,1100.3214133126396,741.5714276177542,4631.9,1100.3214133126396,741.5714276177542,4736.9,1100.3214133126396,741.5714276177542,4837.5,1100.3214133126396,741.5714276177542,4945.3]","[5172.2,5172.2,2720.7,2009.4,442.1,""smooth"",""right"",""right"",""good_move"",8125.4,2952.9,2576.3,5172.5,376.6,""smooth"",""right"",""right"",""good_move"",11520.6,3395.1,3035.1,8125.5,360,""smooth"",""right"",""right"",""good_move"",14979.1,3458.4,3029.5,11520.7,428.9,""oops"",""down"",""down"",""good_move"",18263.9,3284.5,2916.5,14979.4,368,""oops"",""down"",""down"",""good_move"",21023.7,2759.5,2353.3,18264.2,406.2,""oops"",""down"",""down"",""good_move""]"
"3153","","<div style=""width:500px;"">
  <p>What determined the result of this run?</p>
  </div>","100","html-slider-response","39","391565","0.0-7.0-1.5","75","1","2025-07-30 09:06:02","36c45c0696341be0efffe67d72a12abb","125.203.3.50","Mozilla/5.0 (Windows NT 10.0; Win64; x64) AppleWebKit/537.36 (KHTML, like Gecko) Chrome/138.0.0.0 Safari/537.36","WebKit","Chrome","138.0.0.0","Windows","10.0","https://app.prolific.com/","en-US,en;q=0.9","5f2448855226b0000a8129e1","687a19d2168e237449fb8af4","6889e07477534edb8ede739f","0","5f2448855226b0000a8129e1","0","2025-07-30T09:12:39.416Z","","","","AttribQ","","","","","","","","","","","50","","","","","","","","","","","","","","","","","","","","","","","","","","",""
"1925","","<div style=""width:500px;"">
  <p>How much control did you have over the ball?</p>
  </div>","100","html-slider-response","40","393491","0.0-7.0-2.5","75","1","2025-07-30 09:06:02","36c45c0696341be0efffe67d72a12abb","125.203.3.50","Mozilla/5.0 (Windows NT 10.0; Win64; x64) AppleWebKit/537.36 (KHTML, like Gecko) Chrome/138.0.0.0 Safari/537.36","WebKit","Chrome","138.0.0.0","Windows","10.0","https://app.prolific.com/","en-US,en;q=0.9","5f2448855226b0000a8129e1","687a19d2168e237449fb8af4","6889e07477534edb8ede739f","0","5f2448855226b0000a8129e1","0","2025-07-30T09:12:41.342Z","","","","ControlQ","","","","","","","","","","","50","","","","","","","","","","","","","","","","","","","","","","","","","","",""
"1114","","<div style=""width:500px;"">
  <p>How would you describe your current emotional state?</p>
  </div>","1","html-slider-response","41","394606","0.0-7.0-3.5","75","1","2025-07-30 09:06:02","36c45c0696341be0efffe67d72a12abb","125.203.3.50","Mozilla/5.0 (Windows NT 10.0; Win64; x64) AppleWebKit/537.36 (KHTML, like Gecko) Chrome/138.0.0.0 Safari/537.36","WebKit","Chrome","138.0.0.0","Windows","10.0","https://app.prolific.com/","en-US,en;q=0.9","5f2448855226b0000a8129e1","687a19d2168e237449fb8af4","6889e07477534edb8ede739f","0","5f2448855226b0000a8129e1","0","2025-07-30T09:12:42.457Z","","","","StressQ","","","","","","","","","","","50","","","","","","","","","","","","","","","","","","","","","","","","","","",""
"2279","","<div style=""width:500px;"">
  <p>What best describes how you currently feel?</p>
  </div>","100","html-slider-response","42","396885","0.0-7.0-4.5","75","1","2025-07-30 09:06:02","36c45c0696341be0efffe67d72a12abb","125.203.3.50","Mozilla/5.0 (Windows NT 10.0; Win64; x64) AppleWebKit/537.36 (KHTML, like Gecko) Chrome/138.0.0.0 Safari/537.36","WebKit","Chrome","138.0.0.0","Windows","10.0","https://app.prolific.com/","en-US,en;q=0.9","5f2448855226b0000a8129e1","687a19d2168e237449fb8af4","6889e07477534edb8ede739f","0","5f2448855226b0000a8129e1","0","2025-07-30T09:12:44.737Z","","","","MotivationQ","","","","","","","","","","","50","","","","","","","","","","","","","","","","","","","","","","","","","","",""
"","","","","ctl-task-cpt","43","443728","0.0-7.0-0.6","75","1","2025-07-30 09:06:02","36c45c0696341be0efffe67d72a12abb","125.203.3.50","Mozilla/5.0 (Windows NT 10.0; Win64; x64) AppleWebKit/537.36 (KHTML, like Gecko) Chrome/138.0.0.0 Safari/537.36","WebKit","Chrome","138.0.0.0","Windows","10.0","https://app.prolific.com/","en-US,en;q=0.9","5f2448855226b0000a8129e1","687a19d2168e237449fb8af4","6889e07477534edb8ede739f","0","5f2448855226b0000a8129e1","0","2025-07-30T09:13:31.579Z","","","","","","","","","","","","","","","","win-only","3","g1:SW,g2:NE","0.4","7","0","403773.4","597.8","5601.1","43826.1","1","4","8","6","2","-8","-11","24","35","0.18181818181818182","825.1","3000","-2605","[""up"",""right""]","{""num_key_presses"":13,""num_perfect"":4,""num_errors"":3,""num_randdir"":6,""num_randdir_good_moves"":2,""num_whilered"":0,""num_whileblue"":2,""num_blue"":3,""num_good_moves"":7}","[417.8214133126395,416.57142761775424,0.2,417.8214133126395,416.57142761775424,102.8,417.8214133126395,416.57142761775424,203.3,417.8214133126395,416.57142761775424,303.3,417.8214133126395,419.07142761775424,403.6,417.8214133126395,421.57142761775424,508.3,566.5714133126395,301.57142761775424,616.3,711.5714133126395,130.32142761775424,716.4,761.5714133126395,86.57142761775425,818.5,761.5714133126395,86.57142761775425,918.6,889.0714133126395,115.32142761775425,1022.8,1140.3214133126396,265.32142761775424,1131.3,1151.5714133126396,286.57142761775424,1231.4,1151.5714133126396,286.57142761775424,1331.8,1151.5714133126396,286.57142761775424,1432.3,1151.5714133126396,286.57142761775424,1532.9,1151.5714133126396,286.57142761775424,1637.5,1151.5714133126396,286.57142761775424,1738.1,1151.5714133126396,286.57142761775424,1838.1,1151.5714133126396,286.57142761775424,1948.7,1151.5714133126396,286.57142761775424,2053.2,1151.5714133126396,286.57142761775424,2158.6,1151.5714133126396,286.57142761775424,2258.7,1151.5714133126396,286.57142761775424,2363.7,1151.5714133126396,286.57142761775424,2468.1,1151.5714133126396,286.57142761775424,2572.8,1151.5714133126396,286.57142761775424,2680.6,1151.5714133126396,286.57142761775424,2782.7,1151.5714133126396,286.57142761775424,2883.3,1151.5714133126396,286.57142761775424,2988.2,1151.5714133126396,286.57142761775424,3096.8,1151.5714133126396,286.57142761775424,3197.1,1151.5714133126396,286.57142761775424,3297.4,1151.5714133126396,286.57142761775424,3397.4,1151.5714133126396,286.57142761775424,3498.7,1151.5714133126396,286.57142761775424,3598.7,1151.5714133126396,286.57142761775424,3702.6,1151.5714133126396,286.57142761775424,3803,1151.5714133126396,286.57142761775424,3903.6,1151.5714133126396,286.57142761775424,4012.4,1151.5714133126396,286.57142761775424,4112.9,1151.5714133126396,286.57142761775424,4217.3,1151.5714133126396,286.57142761775424,4318.3,1151.5714133126396,286.57142761775424,4422.4,1151.5714133126396,286.57142761775424,4523.6,1151.5714133126396,286.57142761775424,4623.7,1151.5714133126396,286.57142761775424,4727.8,1151.5714133126396,286.57142761775424,4828.4,1151.5714133126396,286.57142761775424,4928.6]","[1322.9,1322.9,1000,0,322.9,""smooth"",""right"",""right"",""good_move"",3737.1,2413.9,2068.3,1323.2,345.6,""smooth"",""right"",""right"",""good_move"",6519.4,2782.1,2486.6,3737.3,295.5,""oops"",""right"",""left"",""bad_move"",9366.8,2847,2485,6519.8,362,""smooth"",""right"",""right"",""good_move"",15312.3,5945.4,2363.6,12664.3,284.4,""while_blue"",""right"",""right"",""good_move"",18848,3535.4,3230.8,15312.6,304.6,""smooth"",""up"",""up"",""good_move"",21707,2858.8,2574.1,18848.2,284.7,""while_blue"",""up"",""left"",""bad_move"",21860.4,153.1,2052.8,21707.4,-1899.7,""error"",""-"",""-"",""no_move"",25583.6,3723.1,2428.4,22864.1,291.1,""oops"",""up"",""right"",""good_move"",27500.4,1916.5,1577.6,25583.9,338.9,""oops"",""up"",""up"",""good_move"",30348,2847.4,2467.6,27500.6,379.8,""oops"",""up"",""down"",""bad_move"",32603.3,2255.1,1935.1,30348.2,320,""oops"",""up"",""left"",""bad_move"",35008.4,2404.9,2122,32603.5,282.9,""oops"",""up"",""down"",""bad_move""]"
"3315","","<div style=""width:500px;"">
  <p>What determined the result of this run?</p>
  </div>","0","html-slider-response","44","447045","0.0-7.0-1.6","75","1","2025-07-30 09:06:02","36c45c0696341be0efffe67d72a12abb","125.203.3.50","Mozilla/5.0 (Windows NT 10.0; Win64; x64) AppleWebKit/537.36 (KHTML, like Gecko) Chrome/138.0.0.0 Safari/537.36","WebKit","Chrome","138.0.0.0","Windows","10.0","https://app.prolific.com/","en-US,en;q=0.9","5f2448855226b0000a8129e1","687a19d2168e237449fb8af4","6889e07477534edb8ede739f","0","5f2448855226b0000a8129e1","0","2025-07-30T09:13:34.896Z","","","","AttribQ","","","","","","","","","","","50","","","","","","","","","","","","","","","","","","","","","","","","","","",""
"2043","","<div style=""width:500px;"">
  <p>How much control did you have over the ball?</p>
  </div>","0","html-slider-response","45","449092","0.0-7.0-2.6","75","1","2025-07-30 09:06:02","36c45c0696341be0efffe67d72a12abb","125.203.3.50","Mozilla/5.0 (Windows NT 10.0; Win64; x64) AppleWebKit/537.36 (KHTML, like Gecko) Chrome/138.0.0.0 Safari/537.36","WebKit","Chrome","138.0.0.0","Windows","10.0","https://app.prolific.com/","en-US,en;q=0.9","5f2448855226b0000a8129e1","687a19d2168e237449fb8af4","6889e07477534edb8ede739f","0","5f2448855226b0000a8129e1","0","2025-07-30T09:13:36.943Z","","","","ControlQ","","","","","","","","","","","50","","","","","","","","","","","","","","","","","","","","","","","","","","",""
"1866","","<div style=""width:500px;"">
  <p>How would you describe your current emotional state?</p>
  </div>","93","html-slider-response","46","450961","0.0-7.0-3.6","75","1","2025-07-30 09:06:02","36c45c0696341be0efffe67d72a12abb","125.203.3.50","Mozilla/5.0 (Windows NT 10.0; Win64; x64) AppleWebKit/537.36 (KHTML, like Gecko) Chrome/138.0.0.0 Safari/537.36","WebKit","Chrome","138.0.0.0","Windows","10.0","https://app.prolific.com/","en-US,en;q=0.9","5f2448855226b0000a8129e1","687a19d2168e237449fb8af4","6889e07477534edb8ede739f","0","5f2448855226b0000a8129e1","0","2025-07-30T09:13:38.813Z","","","","StressQ","","","","","","","","","","","50","","","","","","","","","","","","","","","","","","","","","","","","","","",""
"2068","","<div style=""width:500px;"">
  <p>What best describes how you currently feel?</p>
  </div>","41","html-slider-response","47","453033","0.0-7.0-4.6","75","1","2025-07-30 09:06:02","36c45c0696341be0efffe67d72a12abb","125.203.3.50","Mozilla/5.0 (Windows NT 10.0; Win64; x64) AppleWebKit/537.36 (KHTML, like Gecko) Chrome/138.0.0.0 Safari/537.36","WebKit","Chrome","138.0.0.0","Windows","10.0","https://app.prolific.com/","en-US,en;q=0.9","5f2448855226b0000a8129e1","687a19d2168e237449fb8af4","6889e07477534edb8ede739f","0","5f2448855226b0000a8129e1","0","2025-07-30T09:13:40.884Z","","","","MotivationQ","","","","","","","","","","","50","","","","","","","","","","","","","","","","","","","","","","","","","","",""
"","","","","ctl-task-cpt","48","487998","0.0-7.0-0.7","75","1","2025-07-30 09:06:02","36c45c0696341be0efffe67d72a12abb","125.203.3.50","Mozilla/5.0 (Windows NT 10.0; Win64; x64) AppleWebKit/537.36 (KHTML, like Gecko) Chrome/138.0.0.0 Safari/537.36","WebKit","Chrome","138.0.0.0","Windows","10.0","https://app.prolific.com/","en-US,en;q=0.9","5f2448855226b0000a8129e1","687a19d2168e237449fb8af4","6889e07477534edb8ede739f","0","5f2448855226b0000a8129e1","0","2025-07-30T09:14:15.849Z","","","","","","","","","","","","","","","","win-only","0","g1:NW,g2:SE","0.3","8","0","459924.9","728.7","5732.2","31943.8","1","4","4","6","2","-4","-5","19","24","0.14393939393939395","607.2","3000","-2955","[""down"",""right""]","{""num_key_presses"":9,""num_perfect"":3,""num_errors"":1,""num_randdir"":5,""num_randdir_good_moves"":2,""num_whilered"":0,""num_whileblue"":1,""num_blue"":1,""num_good_moves"":6}","[416.5714133126395,411.57142761775424,0.2,416.5714133126395,411.57142761775424,102,416.5714133126395,411.57142761775424,202.7,387.8214133126395,412.82142761775424,310.8,381.5714133126395,440.32142761775424,413.1,706.5714133126395,690.3214276177542,514.8,756.5714133126395,751.5714276177542,617.7,761.5714133126395,755.3214276177542,722.3,851.5714133126395,756.5714276177542,822.5,1036.5714133126396,746.5714276177542,927.4,1056.5714133126396,745.3214276177542,1027.7,1056.5714133126396,745.3214276177542,1132.6,1056.5714133126396,745.3214276177542,1236.9,1056.5714133126396,745.3214276177542,1337.3,1056.5714133126396,745.3214276177542,1441.8,1056.5714133126396,745.3214276177542,1546.7,1056.5714133126396,745.3214276177542,1647.5,1056.5714133126396,745.3214276177542,1752.1,1056.5714133126396,745.3214276177542,1856.8,1056.5714133126396,745.3214276177542,1959.8,1056.5714133126396,745.3214276177542,2059.8,1056.5714133126396,745.3214276177542,2160.4,1056.5714133126396,745.3214276177542,2261.9,1056.5714133126396,745.3214276177542,2362.9,1056.5714133126396,745.3214276177542,2467.4,1056.5714133126396,745.3214276177542,2572,1056.5714133126396,745.3214276177542,2673.8,1056.5714133126396,745.3214276177542,2778,1056.5714133126396,745.3214276177542,2882.4,1056.5714133126396,745.3214276177542,2987.4,1056.5714133126396,745.3214276177542,3089.1,1056.5714133126396,745.3214276177542,3196.9,1056.5714133126396,745.3214276177542,3297,1056.5714133126396,745.3214276177542,3397.1,1056.5714133126396,745.3214276177542,3502.3,1056.5714133126396,745.3214276177542,3606.6,1056.5714133126396,745.3214276177542,3712.2,1056.5714133126396,745.3214276177542,3817,1056.5714133126396,745.3214276177542,3922.6,1056.5714133126396,745.3214276177542,4025.6,1056.5714133126396,745.3214276177542,4126.4,1056.5714133126396,745.3214276177542,4226.8,1056.5714133126396,745.3214276177542,4326.9,1056.5714133126396,745.3214276177542,4428,1056.5714133126396,745.3214276177542,4531.6,1056.5714133126396,745.3214276177542,4632.1,1056.5714133126396,745.3214276177542,4732.2,1056.5714133126396,745.3214276177542,4832.4,1056.5714133126396,745.3214276177542,4944.6]","[1300.1,1300.1,1006.4,0,293.7,""while_blue"",""right"",""down"",""good_move"",4849.9,3549.6,3238.4,1300.3,311.2,""oops"",""right"",""down"",""good_move"",7102.7,2252.1,1906.9,4850.6,345.2,""smooth"",""right"",""right"",""good_move"",9853.6,2750.6,2368.1,7103,382.5,""oops"",""right"",""left"",""bad_move"",13098.3,3244.5,2906.2,9853.8,338.3,""oops"",""right"",""up"",""bad_move"",16140.7,3041.5,2706.6,13099.2,334.9,""smooth"",""right"",""right"",""good_move"",18273.9,2132.4,1635.3,16141.5,497.1,""smooth"",""right"",""right"",""good_move"",20175.7,1901.7,1569.9,18274,331.8,""oops"",""right"",""up"",""bad_move"",23721,3545.1,3195.4,20175.9,349.7,""oops"",""right"",""down"",""good_move""]"
"1604","","<div style=""width:500px;"">
  <p>What determined the result of this run?</p>
  </div>","0","html-slider-response","49","489605","0.0-7.0-1.7","75","1","2025-07-30 09:06:02","36c45c0696341be0efffe67d72a12abb","125.203.3.50","Mozilla/5.0 (Windows NT 10.0; Win64; x64) AppleWebKit/537.36 (KHTML, like Gecko) Chrome/138.0.0.0 Safari/537.36","WebKit","Chrome","138.0.0.0","Windows","10.0","https://app.prolific.com/","en-US,en;q=0.9","5f2448855226b0000a8129e1","687a19d2168e237449fb8af4","6889e07477534edb8ede739f","0","5f2448855226b0000a8129e1","0","2025-07-30T09:14:17.456Z","","","","AttribQ","","","","","","","","","","","50","","","","","","","","","","","","","","","","","","","","","","","","","","",""
"2919","","<div style=""width:500px;"">
  <p>How much control did you have over the ball?</p>
  </div>","5","html-slider-response","50","492528","0.0-7.0-2.7","75","1","2025-07-30 09:06:02","36c45c0696341be0efffe67d72a12abb","125.203.3.50","Mozilla/5.0 (Windows NT 10.0; Win64; x64) AppleWebKit/537.36 (KHTML, like Gecko) Chrome/138.0.0.0 Safari/537.36","WebKit","Chrome","138.0.0.0","Windows","10.0","https://app.prolific.com/","en-US,en;q=0.9","5f2448855226b0000a8129e1","687a19d2168e237449fb8af4","6889e07477534edb8ede739f","0","5f2448855226b0000a8129e1","0","2025-07-30T09:14:20.379Z","","","","ControlQ","","","","","","","","","","","50","","","","","","","","","","","","","","","","","","","","","","","","","","",""
"2640","","<div style=""width:500px;"">
  <p>How would you describe your current emotional state?</p>
  </div>","87","html-slider-response","51","495171","0.0-7.0-3.7","75","1","2025-07-30 09:06:02","36c45c0696341be0efffe67d72a12abb","125.203.3.50","Mozilla/5.0 (Windows NT 10.0; Win64; x64) AppleWebKit/537.36 (KHTML, like Gecko) Chrome/138.0.0.0 Safari/537.36","WebKit","Chrome","138.0.0.0","Windows","10.0","https://app.prolific.com/","en-US,en;q=0.9","5f2448855226b0000a8129e1","687a19d2168e237449fb8af4","6889e07477534edb8ede739f","0","5f2448855226b0000a8129e1","0","2025-07-30T09:14:23.023Z","","","","StressQ","","","","","","","","","","","50","","","","","","","","","","","","","","","","","","","","","","","","","","",""
"2221","","<div style=""width:500px;"">
  <p>What best describes how you currently feel?</p>
  </div>","27","html-slider-response","52","497395","0.0-7.0-4.7","75","1","2025-07-30 09:06:02","36c45c0696341be0efffe67d72a12abb","125.203.3.50","Mozilla/5.0 (Windows NT 10.0; Win64; x64) AppleWebKit/537.36 (KHTML, like Gecko) Chrome/138.0.0.0 Safari/537.36","WebKit","Chrome","138.0.0.0","Windows","10.0","https://app.prolific.com/","en-US,en;q=0.9","5f2448855226b0000a8129e1","687a19d2168e237449fb8af4","6889e07477534edb8ede739f","0","5f2448855226b0000a8129e1","0","2025-07-30T09:14:25.247Z","","","","MotivationQ","","","","","","","","","","","50","","","","","","","","","","","","","","","","","","","","","","","","","","",""
"","","","","ctl-task-cpt","53","545382","0.0-7.0-0.8","75","1","2025-07-30 09:06:02","36c45c0696341be0efffe67d72a12abb","125.203.3.50","Mozilla/5.0 (Windows NT 10.0; Win64; x64) AppleWebKit/537.36 (KHTML, like Gecko) Chrome/138.0.0.0 Safari/537.36","WebKit","Chrome","138.0.0.0","Windows","10.0","https://app.prolific.com/","en-US,en;q=0.9","5f2448855226b0000a8129e1","687a19d2168e237449fb8af4","6889e07477534edb8ede739f","0","5f2448855226b0000a8129e1","0","2025-07-30T09:15:13.233Z","","","","","","","","","","","","","","","","win-only","1","g1:NE,g2:SW","0.4","9","0","504283.5","595.7","5596.4","44975.3","1","4","4","6","2","4","2","21","19","0.1590909090909091","712","3000","560","[""down"",""left""]","{""num_key_presses"":10,""num_perfect"":3,""num_errors"":2,""num_randdir"":5,""num_randdir_good_moves"":4,""num_whilered"":0,""num_whileblue"":2,""num_blue"":5,""num_good_moves"":8}","[417.8214133126395,426.57142761775424,0.3,417.8214133126395,426.57142761775424,104.4,417.8214133126395,426.57142761775424,204.5,424.0714133126395,436.57142761775424,305.4,406.5714133126395,420.32142761775424,409.7,187.8214133126395,610.3214276177542,515.1,74.0714133126395,755.3214276177542,620,57.82141331263951,789.0714276177542,727.8,71.5714133126395,785.3214276177542,833.2,345.3214133126395,735.3214276177542,936.1,879.0714133126395,681.5714276177542,1041,980.3214133126395,686.5714276177542,1149.6,980.3214133126395,686.5714276177542,1249.9,980.3214133126395,686.5714276177542,1349.9,980.3214133126395,686.5714276177542,1455.8,980.3214133126395,686.5714276177542,1565.2,980.3214133126395,686.5714276177542,1665.7,980.3214133126395,686.5714276177542,1770,980.3214133126395,686.5714276177542,1871.2,980.3214133126395,686.5714276177542,1976.4,980.3214133126395,686.5714276177542,2081.2,980.3214133126395,686.5714276177542,2185.2,980.3214133126395,686.5714276177542,2298.1,980.3214133126395,686.5714276177542,2398.3,980.3214133126395,686.5714276177542,2499.9,980.3214133126395,686.5714276177542,2601.2,980.3214133126395,686.5714276177542,2714.7,980.3214133126395,686.5714276177542,2814.7,980.3214133126395,686.5714276177542,2915,980.3214133126395,686.5714276177542,3015.1,980.3214133126395,686.5714276177542,3115.3,980.3214133126395,686.5714276177542,3215.9,980.3214133126395,686.5714276177542,3320.2,980.3214133126395,686.5714276177542,3420.7,980.3214133126395,686.5714276177542,3529.2,980.3214133126395,686.5714276177542,3630.5,980.3214133126395,686.5714276177542,3730.7,980.3214133126395,686.5714276177542,3834.9,980.3214133126395,686.5714276177542,3935.7,980.3214133126395,686.5714276177542,4035.8,980.3214133126395,686.5714276177542,4141.5,980.3214133126395,686.5714276177542,4245.5,980.3214133126395,686.5714276177542,4350.5,980.3214133126395,686.5714276177542,4451.8,980.3214133126395,686.5714276177542,4563,980.3214133126395,686.5714276177542,4664.8,980.3214133126395,686.5714276177542,4779.2,980.3214133126395,686.5714276177542,4879.6,980.3214133126395,686.5714276177542,4980.6]","[1273.1,1273.1,1009.2,0,263.9,""while_blue"",""down"",""left"",""good_move"",4272,2998,2700.2,1274,297.8,""while_blue"",""down"",""up"",""bad_move"",10250.5,5978.2,2242.9,7623.7,383.9,""oops"",""down"",""down"",""good_move"",13675.1,3424.3,2996.4,10250.8,427.9,""oops"",""down"",""down"",""good_move"",16798.3,3122.7,2693.6,13675.6,429.1,""oops"",""down"",""left"",""good_move"",20243.9,3445.2,2998,16798.7,447.2,""oops"",""down"",""left"",""good_move"",30172.5,9928.4,2516.6,27239.4,416.5,""smooth"",""down"",""down"",""good_move"",33081.9,2909.2,2556.6,30172.7,352.6,""oops"",""down"",""up"",""bad_move"",35710.2,2628.1,2325.1,33082.1,303,""smooth"",""down"",""down"",""good_move"",39273,3562.7,3214.7,35710.3,348,""smooth"",""down"",""down"",""good_move""]"
"1360","","<div style=""width:500px;"">
  <p>What determined the result of this run?</p>
  </div>","31","html-slider-response","54","546744","0.0-7.0-1.8","75","1","2025-07-30 09:06:02","36c45c0696341be0efffe67d72a12abb","125.203.3.50","Mozilla/5.0 (Windows NT 10.0; Win64; x64) AppleWebKit/537.36 (KHTML, like Gecko) Chrome/138.0.0.0 Safari/537.36","WebKit","Chrome","138.0.0.0","Windows","10.0","https://app.prolific.com/","en-US,en;q=0.9","5f2448855226b0000a8129e1","687a19d2168e237449fb8af4","6889e07477534edb8ede739f","0","5f2448855226b0000a8129e1","0","2025-07-30T09:15:14.595Z","","","","AttribQ","","","","","","","","","","","50","","","","","","","","","","","","","","","","","","","","","","","","","","",""
"2306","","<div style=""width:500px;"">
  <p>How much control did you have over the ball?</p>
  </div>","80","html-slider-response","55","549054","0.0-7.0-2.8","75","1","2025-07-30 09:06:02","36c45c0696341be0efffe67d72a12abb","125.203.3.50","Mozilla/5.0 (Windows NT 10.0; Win64; x64) AppleWebKit/537.36 (KHTML, like Gecko) Chrome/138.0.0.0 Safari/537.36","WebKit","Chrome","138.0.0.0","Windows","10.0","https://app.prolific.com/","en-US,en;q=0.9","5f2448855226b0000a8129e1","687a19d2168e237449fb8af4","6889e07477534edb8ede739f","0","5f2448855226b0000a8129e1","0","2025-07-30T09:15:16.906Z","","","","ControlQ","","","","","","","","","","","50","","","","","","","","","","","","","","","","","","","","","","","","","","",""
"1545","","<div style=""width:500px;"">
  <p>How would you describe your current emotional state?</p>
  </div>","39","html-slider-response","56","550604","0.0-7.0-3.8","75","1","2025-07-30 09:06:02","36c45c0696341be0efffe67d72a12abb","125.203.3.50","Mozilla/5.0 (Windows NT 10.0; Win64; x64) AppleWebKit/537.36 (KHTML, like Gecko) Chrome/138.0.0.0 Safari/537.36","WebKit","Chrome","138.0.0.0","Windows","10.0","https://app.prolific.com/","en-US,en;q=0.9","5f2448855226b0000a8129e1","687a19d2168e237449fb8af4","6889e07477534edb8ede739f","0","5f2448855226b0000a8129e1","0","2025-07-30T09:15:18.455Z","","","","StressQ","","","","","","","","","","","50","","","","","","","","","","","","","","","","","","","","","","","","","","",""
"1379","","<div style=""width:500px;"">
  <p>What best describes how you currently feel?</p>
  </div>","63","html-slider-response","57","551988","0.0-7.0-4.8","75","1","2025-07-30 09:06:02","36c45c0696341be0efffe67d72a12abb","125.203.3.50","Mozilla/5.0 (Windows NT 10.0; Win64; x64) AppleWebKit/537.36 (KHTML, like Gecko) Chrome/138.0.0.0 Safari/537.36","WebKit","Chrome","138.0.0.0","Windows","10.0","https://app.prolific.com/","en-US,en;q=0.9","5f2448855226b0000a8129e1","687a19d2168e237449fb8af4","6889e07477534edb8ede739f","0","5f2448855226b0000a8129e1","0","2025-07-30T09:15:19.839Z","","","","MotivationQ","","","","","","","","","","","50","","","","","","","","","","","","","","","","","","","","","","","","","","",""
"","","","","ctl-task-cpt","58","602541","0.0-7.0-0.9","75","1","2025-07-30 09:06:02","36c45c0696341be0efffe67d72a12abb","125.203.3.50","Mozilla/5.0 (Windows NT 10.0; Win64; x64) AppleWebKit/537.36 (KHTML, like Gecko) Chrome/138.0.0.0 Safari/537.36","WebKit","Chrome","138.0.0.0","Windows","10.0","https://app.prolific.com/","en-US,en;q=0.9","5f2448855226b0000a8129e1","687a19d2168e237449fb8af4","6889e07477534edb8ede739f","0","5f2448855226b0000a8129e1","0","2025-07-30T09:16:10.392Z","","","","","","","","","","","","","","","","win-only","1","g1:NE,g2:SW","0.5","10","0","558879.3","971.1","5976.6","47525.4","1","4","8","6","2","-8","-10","11","21","0.08333333333333333","561.1","3000","-2735","[""down"",""left""]","{""num_key_presses"":13,""num_perfect"":6,""num_errors"":2,""num_randdir"":5,""num_randdir_good_moves"":2,""num_whilered"":0,""num_whileblue"":0,""num_blue"":1,""num_good_moves"":8}","[420.3214133126395,415.32142761775424,0.4,420.3214133126395,415.32142761775424,104.7,416.5714133126395,425.32142761775424,211.9,355.3214133126395,486.57142761775424,315.9,146.5714133126395,671.5714276177542,416.4,71.5714133126395,732.8214276177542,519.4,61.57141331263951,740.3214276177542,621,101.5714133126395,729.0714276177542,722.1,455.3214133126395,672.8214276177542,822.4,826.5714133126395,622.8214276177542,925.8,855.3214133126395,615.3214276177542,1030.1,855.3214133126395,615.3214276177542,1139,855.3214133126395,615.3214276177542,1239.2,855.3214133126395,615.3214276177542,1341.1,855.3214133126395,615.3214276177542,1445.1,855.3214133126395,615.3214276177542,1552.4,855.3214133126395,615.3214276177542,1659.6,855.3214133126395,615.3214276177542,1764.3,855.3214133126395,615.3214276177542,1865.3,855.3214133126395,615.3214276177542,1969.8,855.3214133126395,615.3214276177542,2070.6,855.3214133126395,615.3214276177542,2173.6,855.3214133126395,615.3214276177542,2273.6,855.3214133126395,615.3214276177542,2376,855.3214133126395,615.3214276177542,2479.2,855.3214133126395,615.3214276177542,2580.8,855.3214133126395,615.3214276177542,2687.6,855.3214133126395,615.3214276177542,2790.8,855.3214133126395,615.3214276177542,2895,855.3214133126395,615.3214276177542,3003.3,855.3214133126395,615.3214276177542,3105.1,855.3214133126395,615.3214276177542,3205.5,855.3214133126395,615.3214276177542,3306.6,855.3214133126395,615.3214276177542,3410.3,855.3214133126395,615.3214276177542,3510.5,855.3214133126395,615.3214276177542,3615.3,855.3214133126395,615.3214276177542,3722.5,855.3214133126395,615.3214276177542,3825.3,855.3214133126395,615.3214276177542,3929.8,855.3214133126395,615.3214276177542,4034.2,855.3214133126395,615.3214276177542,4136.6,855.3214133126395,615.3214276177542,4240.7,855.3214133126395,615.3214276177542,4341.4,855.3214133126395,615.3214276177542,4446.3,855.3214133126395,615.3214276177542,4549.3,855.3214133126395,615.3214276177542,4649.4,855.3214133126395,615.3214276177542,4751.6,855.3214133126395,615.3214276177542,4854.8,855.3214133126395,615.3214276177542,4959.8]","[1318.4,1318.4,1000,0,318.4,""oops"",""down"",""up"",""bad_move"",4440.3,3121.7,2812.5,1318.6,309.2,""oops"",""left"",""left"",""good_move"",7361.4,2920.7,2596,4440.7,324.7,""smooth"",""down"",""down"",""good_move"",12686.7,5324.9,1975.1,10423.3,288.3,""smooth"",""down"",""down"",""good_move"",15155.5,2468.7,2120.4,12686.8,348.3,""smooth"",""down"",""down"",""good_move"",18753.5,3597.9,3313.8,15155.6,284.1,""oops"",""left"",""down"",""good_move"",21026,2272.3,1941.4,18753.7,330.9,""smooth"",""left"",""left"",""good_move"",23759.2,2732.4,2463.4,21026.8,269,""oops"",""left"",""right"",""bad_move"",27011.4,3251.4,2974.7,23760,276.7,""smooth"",""left"",""left"",""good_move"",29889.1,2877.4,2538,27011.7,339.4,""oops"",""left"",""right"",""bad_move"",32364.9,2475.2,2265.4,29889.7,209.9,""smooth"",""left"",""left"",""good_move"",34688.9,2323.7,3031.2,32365.2,-707.5,""error"",""-"",""-"",""no_move"",37489.4,2800.4,2880.3,35690.4,-1081.3,""error"",""-"",""-"",""no_move""]"
"1909","","<div style=""width:500px;"">
  <p>What determined the result of this run?</p>
  </div>","0","html-slider-response","59","604453","0.0-7.0-1.9","75","1","2025-07-30 09:06:02","36c45c0696341be0efffe67d72a12abb","125.203.3.50","Mozilla/5.0 (Windows NT 10.0; Win64; x64) AppleWebKit/537.36 (KHTML, like Gecko) Chrome/138.0.0.0 Safari/537.36","WebKit","Chrome","138.0.0.0","Windows","10.0","https://app.prolific.com/","en-US,en;q=0.9","5f2448855226b0000a8129e1","687a19d2168e237449fb8af4","6889e07477534edb8ede739f","0","5f2448855226b0000a8129e1","0","2025-07-30T09:16:12.304Z","","","","AttribQ","","","","","","","","","","","50","","","","","","","","","","","","","","","","","","","","","","","","","","",""
"2136","","<div style=""width:500px;"">
  <p>How much control did you have over the ball?</p>
  </div>","11","html-slider-response","60","606592","0.0-7.0-2.9","75","1","2025-07-30 09:06:02","36c45c0696341be0efffe67d72a12abb","125.203.3.50","Mozilla/5.0 (Windows NT 10.0; Win64; x64) AppleWebKit/537.36 (KHTML, like Gecko) Chrome/138.0.0.0 Safari/537.36","WebKit","Chrome","138.0.0.0","Windows","10.0","https://app.prolific.com/","en-US,en;q=0.9","5f2448855226b0000a8129e1","687a19d2168e237449fb8af4","6889e07477534edb8ede739f","0","5f2448855226b0000a8129e1","0","2025-07-30T09:16:14.443Z","","","","ControlQ","","","","","","","","","","","50","","","","","","","","","","","","","","","","","","","","","","","","","","",""
"2203","","<div style=""width:500px;"">
  <p>How would you describe your current emotional state?</p>
  </div>","99","html-slider-response","61","608799","0.0-7.0-3.9","75","1","2025-07-30 09:06:02","36c45c0696341be0efffe67d72a12abb","125.203.3.50","Mozilla/5.0 (Windows NT 10.0; Win64; x64) AppleWebKit/537.36 (KHTML, like Gecko) Chrome/138.0.0.0 Safari/537.36","WebKit","Chrome","138.0.0.0","Windows","10.0","https://app.prolific.com/","en-US,en;q=0.9","5f2448855226b0000a8129e1","687a19d2168e237449fb8af4","6889e07477534edb8ede739f","0","5f2448855226b0000a8129e1","0","2025-07-30T09:16:16.650Z","","","","StressQ","","","","","","","","","","","50","","","","","","","","","","","","","","","","","","","","","","","","","","",""
"1227","","<div style=""width:500px;"">
  <p>What best describes how you currently feel?</p>
  </div>","0","html-slider-response","62","610030","0.0-7.0-4.9","75","1","2025-07-30 09:06:02","36c45c0696341be0efffe67d72a12abb","125.203.3.50","Mozilla/5.0 (Windows NT 10.0; Win64; x64) AppleWebKit/537.36 (KHTML, like Gecko) Chrome/138.0.0.0 Safari/537.36","WebKit","Chrome","138.0.0.0","Windows","10.0","https://app.prolific.com/","en-US,en;q=0.9","5f2448855226b0000a8129e1","687a19d2168e237449fb8af4","6889e07477534edb8ede739f","0","5f2448855226b0000a8129e1","0","2025-07-30T09:16:17.882Z","","","","MotivationQ","","","","","","","","","","","50","","","","","","","","","","","","","","","","","","","","","","","","","","",""
"","","","","ctl-task-cpt","63","664306","0.0-7.0-0.10","75","1","2025-07-30 09:06:02","36c45c0696341be0efffe67d72a12abb","125.203.3.50","Mozilla/5.0 (Windows NT 10.0; Win64; x64) AppleWebKit/537.36 (KHTML, like Gecko) Chrome/138.0.0.0 Safari/537.36","WebKit","Chrome","138.0.0.0","Windows","10.0","https://app.prolific.com/","en-US,en;q=0.9","5f2448855226b0000a8129e1","687a19d2168e237449fb8af4","6889e07477534edb8ede739f","0","5f2448855226b0000a8129e1","0","2025-07-30T09:17:12.157Z","","","","","","","","","","","","","","","","win-only","2","g1:SE,g2:NW","0.6","11","0","616922.9","716.5","5730.9","51255.3","1","4","8","6","2","-8","-11","0","11","0","987.7","3000","-2290","[""left"",""up""]","{""num_key_presses"":14,""num_perfect"":6,""num_errors"":3,""num_randdir"":5,""num_randdir_good_moves"":2,""num_whilered"":0,""num_whileblue"":3,""num_blue"":5,""num_good_moves"":9}","[410.3214133126395,419.07142761775424,0.3,410.3214133126395,417.82142761775424,100.1,410.3214133126395,417.82142761775424,200.7,451.5714133126395,436.57142761775424,302.3,454.0714133126395,451.57142761775424,405.8,166.5714133126395,284.07142761775424,519.1,-8.428586687360493,104.07142761775425,624.1,-18.428586687360493,75.32142761775425,727,-18.428586687360493,74.07142761775425,829.6,-3.428586687360493,72.82142761775425,933.2,61.57141331263951,71.57142761775425,1034.8,162.8214133126395,86.57142761775425,1135.7,722.8214133126395,201.57142761775424,1238.8,1081.5714133126396,321.57142761775424,1338.8,1104.0714133126396,346.57142761775424,1439,1104.0714133126396,346.57142761775424,1539.3,1104.0714133126396,346.57142761775424,1644.6,1104.0714133126396,346.57142761775424,1745.2,1104.0714133126396,346.57142761775424,1849.8,1104.0714133126396,346.57142761775424,1950.9,1104.0714133126396,346.57142761775424,2054.7,1104.0714133126396,346.57142761775424,2160.5,1104.0714133126396,346.57142761775424,2264.8,1104.0714133126396,346.57142761775424,2365.8,1104.0714133126396,346.57142761775424,2466.1,1104.0714133126396,346.57142761775424,2569.7,1104.0714133126396,346.57142761775424,2682.6,1104.0714133126396,346.57142761775424,2784.2,1104.0714133126396,346.57142761775424,2885.2,1104.0714133126396,346.57142761775424,2999,1104.0714133126396,346.57142761775424,3100.1,1104.0714133126396,346.57142761775424,3204.1,1104.0714133126396,346.57142761775424,3310.8,1104.0714133126396,346.57142761775424,3414.8,1104.0714133126396,346.57142761775424,3516.1,1104.0714133126396,346.57142761775424,3620.3,1104.0714133126396,346.57142761775424,3731.2,1104.0714133126396,346.57142761775424,3834.5,1104.0714133126396,346.57142761775424,3948.3,1104.0714133126396,346.57142761775424,4048.5,1104.0714133126396,346.57142761775424,4148.6,1104.0714133126396,346.57142761775424,4248.6,1104.0714133126396,346.57142761775424,4349.7,1104.0714133126396,346.57142761775424,4450.1,1104.0714133126396,346.57142761775424,4554.2,1104.0714133126396,346.57142761775424,4662.5,1104.0714133126396,346.57142761775424,4764.1,1104.0714133126396,346.57142761775424,4864.6,1104.0714133126396,346.57142761775424,4964.6]","[1332.8,1332.8,1000,0,332.8,""oops"",""up"",""right"",""bad_move"",4027.7,2694.6,2360.2,1333.1,334.4,""oops"",""up"",""left"",""good_move"",6875.1,2847.1,2544.2,4028,302.9,""smooth"",""up"",""up"",""good_move"",9413.8,2537.8,2157.7,6876,380.1,""smooth"",""up"",""up"",""good_move"",11571,2157,1867.1,9414,289.9,""while_blue"",""left"",""right"",""bad_move"",14259.5,2688.2,2347.2,11571.3,341,""smooth"",""left"",""left"",""good_move"",20696.7,6436.9,2648.4,17650,398.3,""oops"",""left"",""up"",""good_move"",23452,2755.1,2427.5,20697,327.6,""while_blue"",""left"",""down"",""bad_move"",26032.3,2579.5,2212.1,23452.8,367.4,""while_blue"",""left"",""left"",""good_move"",29159.2,3126.7,2753.1,26032.5,373.6,""smooth"",""left"",""left"",""good_move"",35934.1,6774.8,2713.7,32936.6,283.8,""smooth"",""left"",""left"",""good_move"",38347,2412.6,2073.6,35934.4,339,""oops"",""up"",""down"",""bad_move"",41880.9,3533.6,3168,38347.3,365.6,""smooth"",""up"",""up"",""good_move"",43476.3,1595.1,1188.1,41881.2,407,""oops"",""up"",""down"",""bad_move""]"
"1722","","<div style=""width:500px;"">
  <p>What determined the result of this run?</p>
  </div>","0","html-slider-response","64","666030","0.0-7.0-1.10","75","1","2025-07-30 09:06:02","36c45c0696341be0efffe67d72a12abb","125.203.3.50","Mozilla/5.0 (Windows NT 10.0; Win64; x64) AppleWebKit/537.36 (KHTML, like Gecko) Chrome/138.0.0.0 Safari/537.36","WebKit","Chrome","138.0.0.0","Windows","10.0","https://app.prolific.com/","en-US,en;q=0.9","5f2448855226b0000a8129e1","687a19d2168e237449fb8af4","6889e07477534edb8ede739f","0","5f2448855226b0000a8129e1","0","2025-07-30T09:17:13.882Z","","","","AttribQ","","","","","","","","","","","50","","","","","","","","","","","","","","","","","","","","","","","","","","",""
"1896","","<div style=""width:500px;"">
  <p>How much control did you have over the ball?</p>
  </div>","0","html-slider-response","65","667930","0.0-7.0-2.10","75","1","2025-07-30 09:06:02","36c45c0696341be0efffe67d72a12abb","125.203.3.50","Mozilla/5.0 (Windows NT 10.0; Win64; x64) AppleWebKit/537.36 (KHTML, like Gecko) Chrome/138.0.0.0 Safari/537.36","WebKit","Chrome","138.0.0.0","Windows","10.0","https://app.prolific.com/","en-US,en;q=0.9","5f2448855226b0000a8129e1","687a19d2168e237449fb8af4","6889e07477534edb8ede739f","0","5f2448855226b0000a8129e1","0","2025-07-30T09:17:15.781Z","","","","ControlQ","","","","","","","","","","","50","","","","","","","","","","","","","","","","","","","","","","","","","","",""
"1645","","<div style=""width:500px;"">
  <p>How would you describe your current emotional state?</p>
  </div>","99","html-slider-response","66","669577","0.0-7.0-3.10","75","1","2025-07-30 09:06:02","36c45c0696341be0efffe67d72a12abb","125.203.3.50","Mozilla/5.0 (Windows NT 10.0; Win64; x64) AppleWebKit/537.36 (KHTML, like Gecko) Chrome/138.0.0.0 Safari/537.36","WebKit","Chrome","138.0.0.0","Windows","10.0","https://app.prolific.com/","en-US,en;q=0.9","5f2448855226b0000a8129e1","687a19d2168e237449fb8af4","6889e07477534edb8ede739f","0","5f2448855226b0000a8129e1","0","2025-07-30T09:17:17.429Z","","","","StressQ","","","","","","","","","","","50","","","","","","","","","","","","","","","","","","","","","","","","","","",""
"1174","","<div style=""width:500px;"">
  <p>What best describes how you currently feel?</p>
  </div>","0","html-slider-response","67","670755","0.0-7.0-4.10","75","1","2025-07-30 09:06:02","36c45c0696341be0efffe67d72a12abb","125.203.3.50","Mozilla/5.0 (Windows NT 10.0; Win64; x64) AppleWebKit/537.36 (KHTML, like Gecko) Chrome/138.0.0.0 Safari/537.36","WebKit","Chrome","138.0.0.0","Windows","10.0","https://app.prolific.com/","en-US,en;q=0.9","5f2448855226b0000a8129e1","687a19d2168e237449fb8af4","6889e07477534edb8ede739f","0","5f2448855226b0000a8129e1","0","2025-07-30T09:17:18.606Z","","","","MotivationQ","","","","","","","","","","","50","","","","","","","","","","","","","","","","","","","","","","","","","","",""
"","","","","ctl-task-cpt","68","715460","0.0-7.0-0.11","75","1","2025-07-30 09:06:02","36c45c0696341be0efffe67d72a12abb","125.203.3.50","Mozilla/5.0 (Windows NT 10.0; Win64; x64) AppleWebKit/537.36 (KHTML, like Gecko) Chrome/138.0.0.0 Safari/537.36","WebKit","Chrome","138.0.0.0","Windows","10.0","https://app.prolific.com/","en-US,en;q=0.9","5f2448855226b0000a8129e1","687a19d2168e237449fb8af4","6889e07477534edb8ede739f","0","5f2448855226b0000a8129e1","0","2025-07-30T09:18:03.311Z","","","","","","","","","","","","","","","","win-only","0","g1:NW,g2:SE","0.7","12","0","677645.6","404.2","5405.5","41687.6","1","4","4","6","2","4","3","3","0","0.022727272727272728","534.3","3000","305","[""down"",""right""]","{""num_key_presses"":12,""num_perfect"":8,""num_errors"":1,""num_randdir"":3,""num_randdir_good_moves"":0,""num_whilered"":0,""num_whileblue"":1,""num_blue"":2,""num_good_moves"":9}","[411.5714133126395,407.82142761775424,0.2,411.5714133126395,407.82142761775424,101.8,411.5714133126395,407.82142761775424,202.1,401.5714133126395,406.57142761775424,302.6,336.5714133126395,384.07142761775424,403.1,681.5714133126395,644.0714276177542,503.6,756.5714133126395,739.0714276177542,606.5,784.0714133126395,755.3214276177542,706.5,951.5714133126395,774.0714276177542,807.2,1081.5714133126396,755.3214276177542,912.5,1081.5714133126396,755.3214276177542,1013.2,1081.5714133126396,755.3214276177542,1117.2,1081.5714133126396,755.3214276177542,1221.3,1081.5714133126396,755.3214276177542,1322,1081.5714133126396,755.3214276177542,1422.1,1081.5714133126396,755.3214276177542,1536.9,1081.5714133126396,755.3214276177542,1636.9,1081.5714133126396,755.3214276177542,1737.2,1081.5714133126396,755.3214276177542,1841.8,1081.5714133126396,755.3214276177542,1941.9,1081.5714133126396,755.3214276177542,2046.2,1081.5714133126396,755.3214276177542,2152.3,1081.5714133126396,755.3214276177542,2252.9,1081.5714133126396,755.3214276177542,2353.1,1081.5714133126396,755.3214276177542,2457.7,1081.5714133126396,755.3214276177542,2564.6,1081.5714133126396,755.3214276177542,2666.7,1081.5714133126396,755.3214276177542,2783.5,1081.5714133126396,755.3214276177542,2886,1081.5714133126396,755.3214276177542,2986.3,1081.5714133126396,755.3214276177542,3087,1081.5714133126396,755.3214276177542,3192,1081.5714133126396,755.3214276177542,3292,1081.5714133126396,755.3214276177542,3392.5,1081.5714133126396,755.3214276177542,3493.3,1081.5714133126396,755.3214276177542,3596.7,1081.5714133126396,755.3214276177542,3697.3,1081.5714133126396,755.3214276177542,3797.3,1081.5714133126396,755.3214276177542,3897.4,1081.5714133126396,755.3214276177542,4001.4,1081.5714133126396,755.3214276177542,4101.4,1081.5714133126396,755.3214276177542,4202.7,1081.5714133126396,755.3214276177542,4307,1081.5714133126396,755.3214276177542,4412.7,1081.5714133126396,755.3214276177542,4513.9,1081.5714133126396,755.3214276177542,4616.5,1081.5714133126396,755.3214276177542,4716.9,1081.5714133126396,755.3214276177542,4832.6,1081.5714133126396,755.3214276177542,4937]","[1420.4,1420.4,1000,0,420.4,""oops"",""right"",""left"",""bad_move"",4798.1,3376.7,3058.8,1421.4,317.9,""smooth"",""right"",""right"",""good_move"",7378.5,2580,2241.7,4798.5,338.3,""oops"",""right"",""up"",""bad_move"",13746.6,6367.8,2642.3,10745.1,359.2,""oops"",""right"",""left"",""bad_move"",16298.8,2552,2213.2,13746.8,338.8,""smooth"",""right"",""right"",""good_move"",19078.2,2779.2,2438.9,16299.2,340.2,""smooth"",""right"",""right"",""good_move"",21809.2,2730.4,2419,19078.8,311.4,""smooth"",""right"",""right"",""good_move"",25063.4,3253.9,2986.6,21809.5,267.3,""while_blue"",""right"",""right"",""good_move"",28203,3139,2764.9,25064,374.1,""smooth"",""down"",""down"",""good_move"",31049.5,2846.1,2474.9,28203.4,371.2,""smooth"",""down"",""down"",""good_move"",33878.9,2829.1,2454,31049.8,375.1,""smooth"",""down"",""down"",""good_move"",36149,2269.5,1925.4,33879.5,344.1,""smooth"",""down"",""down"",""good_move""]"
"2382","","<div style=""width:500px;"">
  <p>What determined the result of this run?</p>
  </div>","58","html-slider-response","69","717843","0.0-7.0-1.11","75","1","2025-07-30 09:06:02","36c45c0696341be0efffe67d72a12abb","125.203.3.50","Mozilla/5.0 (Windows NT 10.0; Win64; x64) AppleWebKit/537.36 (KHTML, like Gecko) Chrome/138.0.0.0 Safari/537.36","WebKit","Chrome","138.0.0.0","Windows","10.0","https://app.prolific.com/","en-US,en;q=0.9","5f2448855226b0000a8129e1","687a19d2168e237449fb8af4","6889e07477534edb8ede739f","0","5f2448855226b0000a8129e1","0","2025-07-30T09:18:05.695Z","","","","AttribQ","","","","","","","","","","","50","","","","","","","","","","","","","","","","","","","","","","","","","","",""
"1991","","<div style=""width:500px;"">
  <p>How much control did you have over the ball?</p>
  </div>","57","html-slider-response","70","719838","0.0-7.0-2.11","75","1","2025-07-30 09:06:02","36c45c0696341be0efffe67d72a12abb","125.203.3.50","Mozilla/5.0 (Windows NT 10.0; Win64; x64) AppleWebKit/537.36 (KHTML, like Gecko) Chrome/138.0.0.0 Safari/537.36","WebKit","Chrome","138.0.0.0","Windows","10.0","https://app.prolific.com/","en-US,en;q=0.9","5f2448855226b0000a8129e1","687a19d2168e237449fb8af4","6889e07477534edb8ede739f","0","5f2448855226b0000a8129e1","0","2025-07-30T09:18:07.690Z","","","","ControlQ","","","","","","","","","","","50","","","","","","","","","","","","","","","","","","","","","","","","","","",""
"2267","","<div style=""width:500px;"">
  <p>How would you describe your current emotional state?</p>
  </div>","97","html-slider-response","71","722107","0.0-7.0-3.11","75","1","2025-07-30 09:06:02","36c45c0696341be0efffe67d72a12abb","125.203.3.50","Mozilla/5.0 (Windows NT 10.0; Win64; x64) AppleWebKit/537.36 (KHTML, like Gecko) Chrome/138.0.0.0 Safari/537.36","WebKit","Chrome","138.0.0.0","Windows","10.0","https://app.prolific.com/","en-US,en;q=0.9","5f2448855226b0000a8129e1","687a19d2168e237449fb8af4","6889e07477534edb8ede739f","0","5f2448855226b0000a8129e1","0","2025-07-30T09:18:09.959Z","","","","StressQ","","","","","","","","","","","50","","","","","","","","","","","","","","","","","","","","","","","","","","",""
"2380","","<div style=""width:500px;"">
  <p>What best describes how you currently feel?</p>
  </div>","0","html-slider-response","72","724492","0.0-7.0-4.11","75","1","2025-07-30 09:06:02","36c45c0696341be0efffe67d72a12abb","125.203.3.50","Mozilla/5.0 (Windows NT 10.0; Win64; x64) AppleWebKit/537.36 (KHTML, like Gecko) Chrome/138.0.0.0 Safari/537.36","WebKit","Chrome","138.0.0.0","Windows","10.0","https://app.prolific.com/","en-US,en;q=0.9","5f2448855226b0000a8129e1","687a19d2168e237449fb8af4","6889e07477534edb8ede739f","0","5f2448855226b0000a8129e1","0","2025-07-30T09:18:12.344Z","","","","MotivationQ","","","","","","","","","","","50","","","","","","","","","","","","","","","","","","","","","","","","","","",""
"","","","","ctl-task-cpt","73","755088","0.0-7.0-0.12","75","1","2025-07-30 09:06:02","36c45c0696341be0efffe67d72a12abb","125.203.3.50","Mozilla/5.0 (Windows NT 10.0; Win64; x64) AppleWebKit/537.36 (KHTML, like Gecko) Chrome/138.0.0.0 Safari/537.36","WebKit","Chrome","138.0.0.0","Windows","10.0","https://app.prolific.com/","en-US,en;q=0.9","5f2448855226b0000a8129e1","687a19d2168e237449fb8af4","6889e07477534edb8ede739f","0","5f2448855226b0000a8129e1","0","2025-07-30T09:18:42.939Z","","","","","","","","","","","","","","","","win-only","1","g1:NE,g2:SW","0.8","13","0","731385.2","754.3","5758","27574.4","1","4","8","6","2","8","8","11","3","0.08333333333333333","779.9","3000","1030","[""down"",""left""]","{""num_key_presses"":8,""num_perfect"":6,""num_errors"":0,""num_randdir"":2,""num_randdir_good_moves"":1,""num_whilered"":0,""num_whileblue"":0,""num_blue"":0,""num_good_moves"":7}","[416.5714133126395,414.07142761775424,0.2,416.5714133126395,415.32142761775424,102,416.5714133126395,415.32142761775424,209,416.5714133126395,416.57142761775424,314.1,377.8214133126395,441.57142761775424,415.4,300.3214133126395,471.57142761775424,517.1,181.5714133126395,601.5714276177542,631.6,106.5714133126395,726.5714276177542,732,82.8214133126395,756.5714276177542,832,94.0714133126395,750.3214276177542,937.5,417.8214133126395,739.0714276177542,1038.3,937.8214133126395,721.5714276177542,1141.5,1040.3214133126396,717.8214276177542,1242.9,1040.3214133126396,717.8214276177542,1343.3,1040.3214133126396,717.8214276177542,1446.4,1040.3214133126396,717.8214276177542,1546.6,1040.3214133126396,717.8214276177542,1647.2,1040.3214133126396,717.8214276177542,1763,1040.3214133126396,717.8214276177542,1864,1040.3214133126396,717.8214276177542,1966.8,1040.3214133126396,717.8214276177542,2066.8,1040.3214133126396,717.8214276177542,2166.9,1040.3214133126396,717.8214276177542,2276.8,1040.3214133126396,717.8214276177542,2379,1040.3214133126396,717.8214276177542,2481.3,1040.3214133126396,717.8214276177542,2596.9,1040.3214133126396,717.8214276177542,2696.9,1040.3214133126396,717.8214276177542,2801.9,1040.3214133126396,717.8214276177542,2903.9,1040.3214133126396,717.8214276177542,3004.6,1040.3214133126396,717.8214276177542,3109.1,1040.3214133126396,717.8214276177542,3211.5,1040.3214133126396,717.8214276177542,3327.6,1040.3214133126396,717.8214276177542,3431.6,1040.3214133126396,717.8214276177542,3538.4,1040.3214133126396,717.8214276177542,3642.6,1040.3214133126396,717.8214276177542,3746.7,1040.3214133126396,717.8214276177542,3847.1,1040.3214133126396,717.8214276177542,3960.9,1040.3214133126396,717.8214276177542,4061.2,1040.3214133126396,717.8214276177542,4166.2,1040.3214133126396,717.8214276177542,4266.9,1040.3214133126396,717.8214276177542,4372.4,1040.3214133126396,717.8214276177542,4473.7,1040.3214133126396,717.8214276177542,4576.2,1040.3214133126396,717.8214276177542,4677,1040.3214133126396,717.8214276177542,4777.5,1040.3214133126396,717.8214276177542,4893.3,1040.3214133126396,717.8214276177542,4994.2]","[1358.3,1358.3,1000,0,358.3,""smooth"",""left"",""left"",""good_move"",3903.3,2544.8,2218.2,1358.5,326.6,""smooth"",""left"",""left"",""good_move"",7882.5,3979.1,3555.8,3903.4,423.3,""smooth"",""left"",""left"",""good_move"",10622.1,2739.5,2390.1,7882.6,349.4,""smooth"",""down"",""down"",""good_move"",13267.8,2645.3,2281.5,10622.5,363.8,""oops"",""down"",""up"",""bad_move"",15606.5,2338,1988.3,13268.5,349.7,""smooth"",""down"",""down"",""good_move"",18362.6,2755.9,2373.4,15606.7,382.5,""oops"",""down"",""down"",""good_move"",21698.6,3335.3,3001.4,18363.3,333.9,""smooth"",""down"",""down"",""good_move""]"
"3592","","<div style=""width:500px;"">
  <p>What determined the result of this run?</p>
  </div>","83","html-slider-response","74","758681","0.0-7.0-1.12","75","1","2025-07-30 09:06:02","36c45c0696341be0efffe67d72a12abb","125.203.3.50","Mozilla/5.0 (Windows NT 10.0; Win64; x64) AppleWebKit/537.36 (KHTML, like Gecko) Chrome/138.0.0.0 Safari/537.36","WebKit","Chrome","138.0.0.0","Windows","10.0","https://app.prolific.com/","en-US,en;q=0.9","5f2448855226b0000a8129e1","687a19d2168e237449fb8af4","6889e07477534edb8ede739f","0","5f2448855226b0000a8129e1","0","2025-07-30T09:18:46.533Z","","","","AttribQ","","","","","","","","","","","50","","","","","","","","","","","","","","","","","","","","","","","","","","",""
"2678","","<div style=""width:500px;"">
  <p>How much control did you have over the ball?</p>
  </div>","85","html-slider-response","75","761363","0.0-7.0-2.12","75","1","2025-07-30 09:06:02","36c45c0696341be0efffe67d72a12abb","125.203.3.50","Mozilla/5.0 (Windows NT 10.0; Win64; x64) AppleWebKit/537.36 (KHTML, like Gecko) Chrome/138.0.0.0 Safari/537.36","WebKit","Chrome","138.0.0.0","Windows","10.0","https://app.prolific.com/","en-US,en;q=0.9","5f2448855226b0000a8129e1","687a19d2168e237449fb8af4","6889e07477534edb8ede739f","0","5f2448855226b0000a8129e1","0","2025-07-30T09:18:49.215Z","","","","ControlQ","","","","","","","","","","","50","","","","","","","","","","","","","","","","","","","","","","","","","","",""
"2047","","<div style=""width:500px;"">
  <p>How would you describe your current emotional state?</p>
  </div>","81","html-slider-response","76","763414","0.0-7.0-3.12","75","1","2025-07-30 09:06:02","36c45c0696341be0efffe67d72a12abb","125.203.3.50","Mozilla/5.0 (Windows NT 10.0; Win64; x64) AppleWebKit/537.36 (KHTML, like Gecko) Chrome/138.0.0.0 Safari/537.36","WebKit","Chrome","138.0.0.0","Windows","10.0","https://app.prolific.com/","en-US,en;q=0.9","5f2448855226b0000a8129e1","687a19d2168e237449fb8af4","6889e07477534edb8ede739f","0","5f2448855226b0000a8129e1","0","2025-07-30T09:18:51.266Z","","","","StressQ","","","","","","","","","","","50","","","","","","","","","","","","","","","","","","","","","","","","","","",""
"1470","","<div style=""width:500px;"">
  <p>What best describes how you currently feel?</p>
