"rt","response_timestamp","stimulus","response","trial_type","trial_index","time_elapsed","internal_node_id","run_id","condition","recorded_at","source_code_version","ip","user_agent","device","browser","browser_version","platform","platform_version","referer","accept_language","PROLIFIC_PID","STUDY_ID","SESSION_ID","BATCH","prolific_id","batch","realtime","success","question_order","question_id","eventType","responses","item_order","radio_event_ids","radio_event_times","key_event_times","mouse_event_times","straightlining","zigzagging","honeypot","view_history","slider_start","which_type","canvas_config","goals_layout","control_level","trial_number","tutorial_trial_number","trial_start_time","phase1_start_time","phase2_start_time","phase3_start_time","goal_1_value","goal_1_distance","goal_2_value","goal_2_distance","goal_selected","outcome","outcome_total","participant_final_score","participant_initial_score","participant_final_score_prop","goal_choice_rt","allocated_time","allocated_time_remaining","goal_direction","counts","mouse_movements","key_presses"
"12354","1753866893149","<p style='font-size:40px;line-height:1.25'><strong>Welcome to the experiment!</strong></p><p style='font-size:1.1em;line-height:1.25'>Thank you for participanting in our experiment again! You will be asked to play the Dysfunctional Ball Game again. We will briefly recap the rules before we start.</p><p style='font-size:1.1em;line-height:1.25'>Press <strong>Next</strong> to continue.</p>","0","custom-html-button-response","0","12364","0.0-0.0","79","1","2025-07-30 09:14:30","36c45c0696341be0efffe67d72a12abb","41.113.3.5","Mozilla/5.0 (Windows NT 10.0; Win64; x64) AppleWebKit/537.36 (KHTML, like Gecko) Chrome/138.0.0.0 Safari/537.36","WebKit","Chrome","138.0.0.0","Windows","10.0","https://app.prolific.com/","en-ZA,en-GB;q=0.9,en-US;q=0.8,en;q=0.7,zu;q=0.6","5f3287b83428cb05746e2214","683dba9a53627eb9ab41b36a","6889e25a283d8db032df61af","0","5f3287b83428cb05746e2214","0","2025-07-30T09:14:53.154Z","","","","","","","","","","","","","","","","","","","","","","","","","","","","","","","","","","","","","","","","","",""
"2061","","","","fullscreen","1","15492","0.0-1.0","79","1","2025-07-30 09:14:30","36c45c0696341be0efffe67d72a12abb","41.113.3.5","Mozilla/5.0 (Windows NT 10.0; Win64; x64) AppleWebKit/537.36 (KHTML, like Gecko) Chrome/138.0.0.0 Safari/537.36","WebKit","Chrome","138.0.0.0","Windows","10.0","https://app.prolific.com/","en-ZA,en-GB;q=0.9,en-US;q=0.8,en;q=0.7,zu;q=0.6","5f3287b83428cb05746e2214","683dba9a53627eb9ab41b36a","6889e25a283d8db032df61af","0","5f3287b83428cb05746e2214","0","","true","","","","","","","","","","","","","","","","","","","","","","","","","","","","","","","","","","","","","","","","",""
"2880","1753866899165"," <p style='font-size:1.1em;line-height:1.25'>Thank you for closing all other tabs.</p><p style='font-size:1.1em;line-height:1.25'>We will now invite you to fill in some questionnaires, before starting the game.<br>This will take about 5 minutes.<br></p><p style='font-size:1.1em;line-height:1.25'>Press the <strong>Next</strong> button to continue.</p>","0","custom-html-button-response","2","18380","0.0-2.0","79","1","2025-07-30 09:14:30","36c45c0696341be0efffe67d72a12abb","41.113.3.5","Mozilla/5.0 (Windows NT 10.0; Win64; x64) AppleWebKit/537.36 (KHTML, like Gecko) Chrome/138.0.0.0 Safari/537.36","WebKit","Chrome","138.0.0.0","Windows","10.0","https://app.prolific.com/","en-ZA,en-GB;q=0.9,en-US;q=0.8,en;q=0.7,zu;q=0.6","5f3287b83428cb05746e2214","683dba9a53627eb9ab41b36a","6889e25a283d8db032df61af","0","5f3287b83428cb05746e2214","0","2025-07-30T09:14:59.169Z","","","","","","","","","","","","","","","","","","","","","","","","","","","","","","","","","","","","","","","","","",""
"3236","","","{""assigned_sex"":""female""}","survey-multi-choice","3","21622","0.0-3.0-0.0","79","1","2025-07-30 09:14:30","36c45c0696341be0efffe67d72a12abb","41.113.3.5","Mozilla/5.0 (Windows NT 10.0; Win64; x64) AppleWebKit/537.36 (KHTML, like Gecko) Chrome/138.0.0.0 Safari/537.36","WebKit","Chrome","138.0.0.0","Windows","10.0","https://app.prolific.com/","en-ZA,en-GB;q=0.9,en-US;q=0.8,en;q=0.7,zu;q=0.6","5f3287b83428cb05746e2214","683dba9a53627eb9ab41b36a","6889e25a283d8db032df61af","0","5f3287b83428cb05746e2214","0","","","[0]","0","demographics","","","","","","","","","","","","","","","","","","","","","","","","","","","","","","","","","","","","","",""
"2004","1753866904420","<p style='font-size:1.1em;line-height:1.25'>In the following, we will perform a baseline assessment. This means that we will ask you a few questions relating to your experiences over the past month.<br></p><p style='font-size:1.1em;line-height:1.25'>Press the <strong>Next</strong> button to continue.</p>","0","custom-html-button-response","4","23633","0.0-4.0-0.0","79","1","2025-07-30 09:14:30","36c45c0696341be0efffe67d72a12abb","41.113.3.5","Mozilla/5.0 (Windows NT 10.0; Win64; x64) AppleWebKit/537.36 (KHTML, like Gecko) Chrome/138.0.0.0 Safari/537.36","WebKit","Chrome","138.0.0.0","Windows","10.0","https://app.prolific.com/","en-ZA,en-GB;q=0.9,en-US;q=0.8,en;q=0.7,zu;q=0.6","5f3287b83428cb05746e2214","683dba9a53627eb9ab41b36a","6889e25a283d8db032df61af","0","5f3287b83428cb05746e2214","0","2025-07-30T09:15:04.422Z","","","","","","","","","","","","","","","","","","","","","","","","","","","","","","","","","","","","","","","","","",""
"41570.5","","","","survey-template","5","65219","0.0-4.0-1.0","79","1","2025-07-30 09:14:30","36c45c0696341be0efffe67d72a12abb","41.113.3.5","Mozilla/5.0 (Windows NT 10.0; Win64; x64) AppleWebKit/537.36 (KHTML, like Gecko) Chrome/138.0.0.0 Safari/537.36","WebKit","Chrome","138.0.0.0","Windows","10.0","https://app.prolific.com/","en-ZA,en-GB;q=0.9,en-US;q=0.8,en;q=0.7,zu;q=0.6","5f3287b83428cb05746e2214","683dba9a53627eb9ab41b36a","6889e25a283d8db032df61af","0","5f3287b83428cb05746e2214","0","2025-07-30T09:15:46.009Z","","","","pss","{""Q01"":""0"",""Q02"":""0"",""Q03"":""0"",""Q04"":""4"",""Q05"":""3"",""Q06"":""0"",""Q07"":""4"",""Q08"":""2"",""Q09"":""0"",""Q10"":""0""}","[0,1,2,3,4,5,6,7,8,9]","[""Q01"",""Q02"",""Q03"",""Q04"",""Q05"",""Q05"",""Q07"",""Q06"",""Q08"",""Q09"",""Q10""]","[7587.699999988079,8724.299999982119,10810.799999982119,13133.199999988079,14107.59999999404,18924,24371.59999999404,25683.5,33676.79999998212,37700.69999998808,39772.40000000596]","[]","[0.7999999821186066,5476.199999988079,6610.9000000059605,7587.699999988079,8724.299999982119,10810.799999982119,13133.199999988079,14107.59999999404,16196,18924,22708.79999998212,24371.59999999404,25683.5,33676.79999998212,37700.69999998808,39772.40000000596,41556.90000000596]","0.8","0.2222222222222222","0","","","","","","","","","","","","","","","","","","","","","","","","","","","","",""
"2414","1753866948429","<p style='font-size:1.1em;line-height:1.25'>Thank you for your answers! Now we will ask you a few more questions relating to your feelings in the last 24 hours.<br></p><p style='font-size:1.1em;line-height:1.25'>Press the <strong>Next</strong> button to continue.</p>","0","custom-html-button-response","6","67643","0.0-4.0-2.0","79","1","2025-07-30 09:14:30","36c45c0696341be0efffe67d72a12abb","41.113.3.5","Mozilla/5.0 (Windows NT 10.0; Win64; x64) AppleWebKit/537.36 (KHTML, like Gecko) Chrome/138.0.0.0 Safari/537.36","WebKit","Chrome","138.0.0.0","Windows","10.0","https://app.prolific.com/","en-ZA,en-GB;q=0.9,en-US;q=0.8,en;q=0.7,zu;q=0.6","5f3287b83428cb05746e2214","683dba9a53627eb9ab41b36a","6889e25a283d8db032df61af","0","5f3287b83428cb05746e2214","0","2025-07-30T09:15:48.432Z","","","","","","","","","","","","","","","","","","","","","","","","","","","","","","","","","","","","","","","","","",""
"65233.09999999404","","","","survey-template","7","132894","0.0-4.0-3.0","79","1","2025-07-30 09:14:30","36c45c0696341be0efffe67d72a12abb","41.113.3.5","Mozilla/5.0 (Windows NT 10.0; Win64; x64) AppleWebKit/537.36 (KHTML, like Gecko) Chrome/138.0.0.0 Safari/537.36","WebKit","Chrome","138.0.0.0","Windows","10.0","https://app.prolific.com/","en-ZA,en-GB;q=0.9,en-US;q=0.8,en;q=0.7,zu;q=0.6","5f3287b83428cb05746e2214","683dba9a53627eb9ab41b36a","6889e25a283d8db032df61af","0","5f3287b83428cb05746e2214","0","2025-07-30T09:16:53.683Z","","","","drsp","{""Q01"":""0"",""Q02"":""0"",""Q03"":""0"",""Q04"":""0"",""Q05"":""0"",""Q06"":""0"",""Q07"":""1"",""Q08"":""0"",""Q09"":""0"",""Q10"":""0"",""Q11"":""0"",""Q12"":""0"",""Q13"":""5"",""Q14"":""0"",""Q15"":""0"",""Q16"":""0"",""Q17"":""0"",""Q18"":""0"",""Q19"":""3"",""Q20"":""0"",""Q21"":""0"",""Q22"":""0""}","[0,1,2,3,4,5,6,7,8,9,10,11,12,13,14,15,16,17,18,19,20,21]","[""Q01"",""Q02"",""Q03"",""Q04"",""Q05"",""Q06"",""Q07"",""Q07"",""Q08"",""Q09"",""Q10"",""Q11"",""Q12"",""Q13"",""Q14"",""Q15"",""Q16"",""Q17"",""Q18"",""Q19"",""Q20"",""Q21"",""Q22""]","[2426,3473.5999999940395,5985.299999982119,8825.40000000596,9905,11425.5,12793.59999999404,16978.40000000596,19041.09999999404,20569.69999998808,21665.40000000596,23036.5,26658.5,29258.40000000596,32577.90000000596,33706.69999998808,36258.19999998808,40034.19999998808,44042.29999998212,48889.5,50459.59999999404,53010.79999998212,57794.29999998212]","[]","[0.699999988079071,2426,3473.5999999940395,4833.799999982119,5985.299999982119,7119.699999988079,8825.40000000596,9905,11425.5,12793.59999999404,16978.40000000596,19041.09999999404,20569.69999998808,21665.40000000596,23036.5,24970,26658.5,29258.40000000596,31226.40000000596,32577.90000000596,33706.69999998808,36258.19999998808,40034.19999998808,44042.29999998212,48889.5,50459.59999999404,53010.79999998212,57794.29999998212,65211.5]","0.8636363636363636","0.19047619047619047","0","","","","","","","","","","","","","","","","","","","","","","","","","","","","",""
"12835.899999976158","","","","survey-template","8","145739","0.0-4.0-4.0","79","1","2025-07-30 09:14:30","36c45c0696341be0efffe67d72a12abb","41.113.3.5","Mozilla/5.0 (Windows NT 10.0; Win64; x64) AppleWebKit/537.36 (KHTML, like Gecko) Chrome/138.0.0.0 Safari/537.36","WebKit","Chrome","138.0.0.0","Windows","10.0","https://app.prolific.com/","en-ZA,en-GB;q=0.9,en-US;q=0.8,en;q=0.7,zu;q=0.6","5f3287b83428cb05746e2214","683dba9a53627eb9ab41b36a","6889e25a283d8db032df61af","0","5f3287b83428cb05746e2214","0","2025-07-30T09:17:06.528Z","","","","stress","{""Q01"":""0"",""Q02"":""2"",""Q03"":""0""}","[0,1,2]","[""Q01"",""Q02"",""Q03""]","[2405.899999976158,7070.199999988079,11485.799999982119]","[]","[2405.899999976158,7070.199999988079,10526.09999999404,11485.799999982119,12831.5]","0.6666666666666666","0","0","","","","","","","","","","","","","","","","","","","","","","","","","","","","",""
"5038","","","","instructions","9","150782","0.0-5.0-0.0","79","1","2025-07-30 09:14:30","36c45c0696341be0efffe67d72a12abb","41.113.3.5","Mozilla/5.0 (Windows NT 10.0; Win64; x64) AppleWebKit/537.36 (KHTML, like Gecko) Chrome/138.0.0.0 Safari/537.36","WebKit","Chrome","138.0.0.0","Windows","10.0","https://app.prolific.com/","en-ZA,en-GB;q=0.9,en-US;q=0.8,en;q=0.7,zu;q=0.6","5f3287b83428cb05746e2214","683dba9a53627eb9ab41b36a","6889e25a283d8db032df61af","0","5f3287b83428cb05746e2214","0","","","","","","","","","","","","","","","[{""page_index"":0,""viewing_time"":5035}]","","","","","","","","","","","","","","","","","","","","","","","","","","","",""
"5904","","<p>Before you start with this game please answer the following three questions yourself. </p>
  <p>Through this game, we measure several aspects of your cognitive performance, such as reaction times, multi-tasking capabilities </p>
  <p>and the ability to assess the situation you are in.</p>
  <p></p>
  <p><b>How good do you usually are in such tasks?</b></p>","76","html-slider-response","10","156692","0.0-6.0-0.0","79","1","2025-07-30 09:14:30","36c45c0696341be0efffe67d72a12abb","41.113.3.5","Mozilla/5.0 (Windows NT 10.0; Win64; x64) AppleWebKit/537.36 (KHTML, like Gecko) Chrome/138.0.0.0 Safari/537.36","WebKit","Chrome","138.0.0.0","Windows","10.0","https://app.prolific.com/","en-ZA,en-GB;q=0.9,en-US;q=0.8,en;q=0.7,zu;q=0.6","5f3287b83428cb05746e2214","683dba9a53627eb9ab41b36a","6889e25a283d8db032df61af","0","5f3287b83428cb05746e2214","0","2025-07-30T09:17:17.482Z","","","","PreSkillQ","","","","","","","","","","","50","","","","","","","","","","","","","","","","","","","","","","","","","","",""
"4773","","<div style=""width:500px;"">
  <p>How well do you think you will perform in this task compared to other participants?</p>
  </div>","81","html-slider-response","11","161470","0.0-6.0-1.0","79","1","2025-07-30 09:14:30","36c45c0696341be0efffe67d72a12abb","41.113.3.5","Mozilla/5.0 (Windows NT 10.0; Win64; x64) AppleWebKit/537.36 (KHTML, like Gecko) Chrome/138.0.0.0 Safari/537.36","WebKit","Chrome","138.0.0.0","Windows","10.0","https://app.prolific.com/","en-ZA,en-GB;q=0.9,en-US;q=0.8,en;q=0.7,zu;q=0.6","5f3287b83428cb05746e2214","683dba9a53627eb9ab41b36a","6889e25a283d8db032df61af","0","5f3287b83428cb05746e2214","0","2025-07-30T09:17:22.259Z","","","","PrePerfQ","","","","","","","","","","","50","","","","","","","","","","","","","","","","","","","","","","","","","","",""
"9129","","<div style=""width:500px;"">
  <p>What best describes how you currently feel?</p>
  </div>","100","html-slider-response","12","170604","0.0-6.0-2.0","79","1","2025-07-30 09:14:30","36c45c0696341be0efffe67d72a12abb","41.113.3.5","Mozilla/5.0 (Windows NT 10.0; Win64; x64) AppleWebKit/537.36 (KHTML, like Gecko) Chrome/138.0.0.0 Safari/537.36","WebKit","Chrome","138.0.0.0","Windows","10.0","https://app.prolific.com/","en-ZA,en-GB;q=0.9,en-US;q=0.8,en;q=0.7,zu;q=0.6","5f3287b83428cb05746e2214","683dba9a53627eb9ab41b36a","6889e25a283d8db032df61af","0","5f3287b83428cb05746e2214","0","2025-07-30T09:17:31.394Z","","","","PreMotivationQ","","","","","","","","","","","50","","","","","","","","","","","","","","","","","","","","","","","","","","",""
"","","","","ctl-task-cpt","13","214793","0.0-7.0-0.0","79","1","2025-07-30 09:14:30","36c45c0696341be0efffe67d72a12abb","41.113.3.5","Mozilla/5.0 (Windows NT 10.0; Win64; x64) AppleWebKit/537.36 (KHTML, like Gecko) Chrome/138.0.0.0 Safari/537.36","WebKit","Chrome","138.0.0.0","Windows","10.0","https://app.prolific.com/","en-ZA,en-GB;q=0.9,en-US;q=0.8,en;q=0.7,zu;q=0.6","5f3287b83428cb05746e2214","683dba9a53627eb9ab41b36a","6889e25a283d8db032df61af","0","5f3287b83428cb05746e2214","0","2025-07-30T09:18:15.582Z","","","","","","","","","","","","","","","","win-only","3","g1:SW,g2:NE","1","1","0","181852.6","2308.9","7320.4","41163.9","1","4","8","6","2","8","8","8","0","0.06060606060606061","1535.8","3000","955","[""up"",""right""]","{""num_key_presses"":6,""num_perfect"":6,""num_errors"":0,""num_randdir"":0,""num_randdir_good_moves"":0,""num_whilered"":0,""num_whileblue"":0,""num_blue"":5,""num_good_moves"":6}","[298.22232142857143,296.12857142857143,1.2,298.22232142857143,296.12857142857143,106.9,298.22232142857143,296.12857142857143,211.2,298.22232142857143,296.12857142857143,323.6,298.22232142857143,292.12857142857143,475.5,214.22232142857143,408.12857142857143,597,318.22232142857143,225.12857142857143,700.7,385.22232142857143,124.12857142857143,806.9,444.22232142857143,34.128571428571426,919.6,489.22232142857143,14.128571428571426,1021,592.2223214285714,11.128571428571426,1131.5,579.2223214285714,28.128571428571426,1235.1,531.2223214285714,46.128571428571426,1336.5,528.2223214285714,49.128571428571426,1444.4,528.2223214285714,49.128571428571426,1559.7,528.2223214285714,49.128571428571426,1663.4,528.2223214285714,49.128571428571426,1764.7,528.2223214285714,49.128571428571426,1871.4,528.2223214285714,51.128571428571426,1975.3,528.2223214285714,54.128571428571426,2080.9,529.2223214285714,91.12857142857143,2181.9,529.2223214285714,158.12857142857143,2284.4,509.22232142857143,233.12857142857143,2399.4,478.22232142857143,295.12857142857143,2507.6,475.22232142857143,307.12857142857143,2612.2,474.22232142857143,313.12857142857143,2712.2,474.22232142857143,315.12857142857143,2812.2,474.22232142857143,318.12857142857143,2913.5,472.22232142857143,323.12857142857143,3030.2,471.22232142857143,324.12857142857143,3140.6,468.22232142857143,326.12857142857143,3243.4,467.22232142857143,328.12857142857143,3351.1,466.22232142857143,329.12857142857143,3452.7,462.22232142857143,332.12857142857143,3562.7,460.22232142857143,332.12857142857143,3671.5,460.22232142857143,332.12857142857143,3776.2,460.22232142857143,332.12857142857143,3879.5,460.22232142857143,332.12857142857143,3981.2,460.22232142857143,332.12857142857143,4095.4,460.22232142857143,332.12857142857143,4197.9,460.22232142857143,332.12857142857143,4302.2,460.22232142857143,332.12857142857143,4410.3,460.22232142857143,332.12857142857143,4513.8,460.22232142857143,332.12857142857143,4626.2,460.22232142857143,332.12857142857143,4729.2,460.22232142857143,332.12857142857143,4829.6,460.22232142857143,332.12857142857143,4929.9]","[9019.8,9019.8,3147.2,5169.3,703.3,""smooth"",""right"",""right"",""good_move"",11620.2,2595.7,2037,9024.5,558.7,""smooth"",""right"",""right"",""good_move"",14460.5,2837,2301,11623.6,536,""smooth"",""right"",""right"",""good_move"",20723.7,6261,3094,17131.5,498.2,""smooth"",""up"",""up"",""good_move"",27352.7,6627.2,2661.9,24151.8,539,""smooth"",""up"",""up"",""good_move"",33712.1,6353.2,2506,30687.9,518.2,""smooth"",""up"",""up"",""good_move""]"
"3321","","<div style=""width:500px;"">
  <p>What determined the result of this run?</p>
  </div>","100","html-slider-response","14","218120","0.0-7.0-1.0","79","1","2025-07-30 09:14:30","36c45c0696341be0efffe67d72a12abb","41.113.3.5","Mozilla/5.0 (Windows NT 10.0; Win64; x64) AppleWebKit/537.36 (KHTML, like Gecko) Chrome/138.0.0.0 Safari/537.36","WebKit","Chrome","138.0.0.0","Windows","10.0","https://app.prolific.com/","en-ZA,en-GB;q=0.9,en-US;q=0.8,en;q=0.7,zu;q=0.6","5f3287b83428cb05746e2214","683dba9a53627eb9ab41b36a","6889e25a283d8db032df61af","0","5f3287b83428cb05746e2214","0","2025-07-30T09:18:18.909Z","","","","AttribQ","","","","","","","","","","","50","","","","","","","","","","","","","","","","","","","","","","","","","","",""
"2776","","<div style=""width:500px;"">
  <p>How much control did you have over the ball?</p>
  </div>","100","html-slider-response","15","220904","0.0-7.0-2.0","79","1","2025-07-30 09:14:30","36c45c0696341be0efffe67d72a12abb","41.113.3.5","Mozilla/5.0 (Windows NT 10.0; Win64; x64) AppleWebKit/537.36 (KHTML, like Gecko) Chrome/138.0.0.0 Safari/537.36","WebKit","Chrome","138.0.0.0","Windows","10.0","https://app.prolific.com/","en-ZA,en-GB;q=0.9,en-US;q=0.8,en;q=0.7,zu;q=0.6","5f3287b83428cb05746e2214","683dba9a53627eb9ab41b36a","6889e25a283d8db032df61af","0","5f3287b83428cb05746e2214","0","2025-07-30T09:18:21.693Z","","","","ControlQ","","","","","","","","","","","50","","","","","","","","","","","","","","","","","","","","","","","","","","",""
"4394","","<div style=""width:500px;"">
  <p>How would you describe your current emotional state?</p>
  </div>","0","html-slider-response","16","225303","0.0-7.0-3.0","79","1","2025-07-30 09:14:30","36c45c0696341be0efffe67d72a12abb","41.113.3.5","Mozilla/5.0 (Windows NT 10.0; Win64; x64) AppleWebKit/537.36 (KHTML, like Gecko) Chrome/138.0.0.0 Safari/537.36","WebKit","Chrome","138.0.0.0","Windows","10.0","https://app.prolific.com/","en-ZA,en-GB;q=0.9,en-US;q=0.8,en;q=0.7,zu;q=0.6","5f3287b83428cb05746e2214","683dba9a53627eb9ab41b36a","6889e25a283d8db032df61af","0","5f3287b83428cb05746e2214","0","2025-07-30T09:18:26.092Z","","","","StressQ","","","","","","","","","","","50","","","","","","","","","","","","","","","","","","","","","","","","","","",""
"5506","","<div style=""width:500px;"">
  <p>What best describes how you currently feel?</p>
  </div>","100","html-slider-response","17","230814","0.0-7.0-4.0","79","1","2025-07-30 09:14:30","36c45c0696341be0efffe67d72a12abb","41.113.3.5","Mozilla/5.0 (Windows NT 10.0; Win64; x64) AppleWebKit/537.36 (KHTML, like Gecko) Chrome/138.0.0.0 Safari/537.36","WebKit","Chrome","138.0.0.0","Windows","10.0","https://app.prolific.com/","en-ZA,en-GB;q=0.9,en-US;q=0.8,en;q=0.7,zu;q=0.6","5f3287b83428cb05746e2214","683dba9a53627eb9ab41b36a","6889e25a283d8db032df61af","0","5f3287b83428cb05746e2214","0","2025-07-30T09:18:31.603Z","","","","MotivationQ","","","","","","","","","","","50","","","","","","","","","","","","","","","","","","","","","","","","","","",""
"","","","","ctl-task-cpt","18","272663","0.0-7.0-0.1","79","1","2025-07-30 09:14:30","36c45c0696341be0efffe67d72a12abb","41.113.3.5","Mozilla/5.0 (Windows NT 10.0; Win64; x64) AppleWebKit/537.36 (KHTML, like Gecko) Chrome/138.0.0.0 Safari/537.36","WebKit","Chrome","138.0.0.0","Windows","10.0","https://app.prolific.com/","en-ZA,en-GB;q=0.9,en-US;q=0.8,en;q=0.7,zu;q=0.6","5f3287b83428cb05746e2214","683dba9a53627eb9ab41b36a","6889e25a283d8db032df61af","0","5f3287b83428cb05746e2214","0","2025-07-30T09:19:13.452Z","","","","","","","","","","","","","","","","win-only","3","g1:SW,g2:NE","0.9","2","0","242053.2","1644.6","6648.8","38833.3","1","4","4","6","2","4","4","12","8","0.09090909090909091","1158.5","3000","965","[""up"",""right""]","{""num_key_presses"":6,""num_perfect"":6,""num_errors"":0,""num_randdir"":0,""num_randdir_good_moves"":0,""num_whilered"":0,""num_whileblue"":0,""num_blue"":4,""num_good_moves"":6}","[296.22232142857143,298.12857142857143,1.1,296.22232142857143,298.12857142857143,109.5,296.22232142857143,298.12857142857143,216.1,296.22232142857143,298.12857142857143,316.4,301.22232142857143,298.12857142857143,419.9,367.22232142857143,245.12857142857143,525,418.22232142857143,196.12857142857143,629.4,480.22232142857143,118.12857142857143,736.3,509.22232142857143,93.12857142857143,838.2,514.2223214285714,88.12857142857143,944,528.2223214285714,80.12857142857143,1046.8,530.2223214285714,79.12857142857143,1154.6,530.2223214285714,79.12857142857143,1261.7,532.2223214285714,79.12857142857143,1362.4,562.2223214285714,91.12857142857143,1464.1,684.2223214285714,189.12857142857143,1570.5,686.2223214285714,194.12857142857143,1676.5,690.2223214285714,198.12857142857143,1777.1,690.2223214285714,198.12857142857143,1888.8,690.2223214285714,198.12857142857143,1992.6,690.2223214285714,198.12857142857143,2105,690.2223214285714,198.12857142857143,2216.7,690.2223214285714,198.12857142857143,2330.3,690.2223214285714,198.12857142857143,2434.6,690.2223214285714,198.12857142857143,2535.5,690.2223214285714,198.12857142857143,2638.1,690.2223214285714,198.12857142857143,2744.4,690.2223214285714,198.12857142857143,2844.6,690.2223214285714,198.12857142857143,2949.1,690.2223214285714,198.12857142857143,3052.9,690.2223214285714,198.12857142857143,3159.8,690.2223214285714,198.12857142857143,3260.2,691.2223214285714,198.12857142857143,3366.3,697.2223214285714,198.12857142857143,3474.9,702.2223214285714,198.12857142857143,3583.5,702.2223214285714,197.12857142857143,3687,702.2223214285714,197.12857142857143,3787.7,702.2223214285714,197.12857142857143,3896,702.2223214285714,197.12857142857143,4003,702.2223214285714,197.12857142857143,4110.7,702.2223214285714,197.12857142857143,4213.3,702.2223214285714,197.12857142857143,4317.5,702.2223214285714,197.12857142857143,4420.6,702.2223214285714,197.12857142857143,4524.8,702.2223214285714,197.12857142857143,4627.9,702.2223214285714,197.12857142857143,4730.4,702.2223214285714,197.12857142857143,4836.2,702.2223214285714,197.12857142857143,4936.9]","[1526.3,1526.4,1000,0,526.4,""smooth"",""right"",""right"",""good_move"",7564.3,6035.5,2395.2,4664.4,504.8,""smooth"",""right"",""right"",""good_move"",13865.7,6300,2986.4,10349.3,530,""smooth"",""right"",""right"",""good_move"",22038.7,8169.7,3672.9,17721.9,643.9,""smooth"",""up"",""up"",""good_move"",28665.2,6625.1,2710.4,25241.8,713,""smooth"",""up"",""up"",""good_move"",32045.9,3379.7,2812.3,28666.4,567.2,""smooth"",""up"",""up"",""good_move""]"
"5486","","<div style=""width:500px;"">
  <p>What determined the result of this run?</p>
  </div>","100","html-slider-response","19","278153","0.0-7.0-1.1","79","1","2025-07-30 09:14:30","36c45c0696341be0efffe67d72a12abb","41.113.3.5","Mozilla/5.0 (Windows NT 10.0; Win64; x64) AppleWebKit/537.36 (KHTML, like Gecko) Chrome/138.0.0.0 Safari/537.36","WebKit","Chrome","138.0.0.0","Windows","10.0","https://app.prolific.com/","en-ZA,en-GB;q=0.9,en-US;q=0.8,en;q=0.7,zu;q=0.6","5f3287b83428cb05746e2214","683dba9a53627eb9ab41b36a","6889e25a283d8db032df61af","0","5f3287b83428cb05746e2214","0","2025-07-30T09:19:18.942Z","","","","AttribQ","","","","","","","","","","","50","","","","","","","","","","","","","","","","","","","","","","","","","","",""
"2454","","<div style=""width:500px;"">
  <p>How much control did you have over the ball?</p>
  </div>","100","html-slider-response","20","280615","0.0-7.0-2.1","79","1","2025-07-30 09:14:30","36c45c0696341be0efffe67d72a12abb","41.113.3.5","Mozilla/5.0 (Windows NT 10.0; Win64; x64) AppleWebKit/537.36 (KHTML, like Gecko) Chrome/138.0.0.0 Safari/537.36","WebKit","Chrome","138.0.0.0","Windows","10.0","https://app.prolific.com/","en-ZA,en-GB;q=0.9,en-US;q=0.8,en;q=0.7,zu;q=0.6","5f3287b83428cb05746e2214","683dba9a53627eb9ab41b36a","6889e25a283d8db032df61af","0","5f3287b83428cb05746e2214","0","2025-07-30T09:19:21.404Z","","","","ControlQ","","","","","","","","","","","50","","","","","","","","","","","","","","","","","","","","","","","","","","",""
"3780","","<div style=""width:500px;"">
  <p>How would you describe your current emotional state?</p>
  </div>","0","html-slider-response","21","284399","0.0-7.0-3.1","79","1","2025-07-30 09:14:30","36c45c0696341be0efffe67d72a12abb","41.113.3.5","Mozilla/5.0 (Windows NT 10.0; Win64; x64) AppleWebKit/537.36 (KHTML, like Gecko) Chrome/138.0.0.0 Safari/537.36","WebKit","Chrome","138.0.0.0","Windows","10.0","https://app.prolific.com/","en-ZA,en-GB;q=0.9,en-US;q=0.8,en;q=0.7,zu;q=0.6","5f3287b83428cb05746e2214","683dba9a53627eb9ab41b36a","6889e25a283d8db032df61af","0","5f3287b83428cb05746e2214","0","2025-07-30T09:19:25.188Z","","","","StressQ","","","","","","","","","","","50","","","","","","","","","","","","","","","","","","","","","","","","","","",""
"3012","","<div style=""width:500px;"">
  <p>What best describes how you currently feel?</p>
  </div>","100","html-slider-response","22","287415","0.0-7.0-4.1","79","1","2025-07-30 09:14:30","36c45c0696341be0efffe67d72a12abb","41.113.3.5","Mozilla/5.0 (Windows NT 10.0; Win64; x64) AppleWebKit/537.36 (KHTML, like Gecko) Chrome/138.0.0.0 Safari/537.36","WebKit","Chrome","138.0.0.0","Windows","10.0","https://app.prolific.com/","en-ZA,en-GB;q=0.9,en-US;q=0.8,en;q=0.7,zu;q=0.6","5f3287b83428cb05746e2214","683dba9a53627eb9ab41b36a","6889e25a283d8db032df61af","0","5f3287b83428cb05746e2214","0","2025-07-30T09:19:28.204Z","","","","MotivationQ","","","","","","","","","","","50","","","","","","","","","","","","","","","","","","","","","","","","","","",""
"","","","","ctl-task-cpt","23","323648","0.0-7.0-0.2","79","1","2025-07-30 09:14:30","36c45c0696341be0efffe67d72a12abb","41.113.3.5","Mozilla/5.0 (Windows NT 10.0; Win64; x64) AppleWebKit/537.36 (KHTML, like Gecko) Chrome/138.0.0.0 Safari/537.36","WebKit","Chrome","138.0.0.0","Windows","10.0","https://app.prolific.com/","en-ZA,en-GB;q=0.9,en-US;q=0.8,en;q=0.7,zu;q=0.6","5f3287b83428cb05746e2214","683dba9a53627eb9ab41b36a","6889e25a283d8db032df61af","0","5f3287b83428cb05746e2214","0","2025-07-30T09:20:04.437Z","","","","","","","","","","","","","","","","win-only","2","g1:SE,g2:NW","0.8","3","0","298659.8","1617.8","6627.6","33209.4","1","4","4","6","2","4","4","16","12","0.12121212121212122","1397.9","3000","270","[""left"",""up""]","{""num_key_presses"":8,""num_perfect"":7,""num_errors"":0,""num_randdir"":1,""num_randdir_good_moves"":0,""num_whilered"":0,""num_whileblue"":0,""num_blue"":1,""num_good_moves"":7}","[297.22232142857143,298.12857142857143,1.1,297.22232142857143,298.12857142857143,100.2,297.22232142857143,298.12857142857143,210.3,296.22232142857143,296.12857142857143,311,314.22232142857143,343.12857142857143,414.3,402.22232142857143,386.12857142857143,517.2,326.22232142857143,312.12857142857143,621.5,169.22232142857143,214.12857142857143,723.4,111.22232142857143,150.12857142857143,831.6,101.22232142857143,141.12857142857143,935.1,95.22232142857143,115.12857142857143,1052.4,77.22232142857143,78.12857142857143,1153,55.222321428571426,59.128571428571426,1253.6,55.222321428571426,59.128571428571426,1366.7,55.222321428571426,59.128571428571426,1470.2,55.222321428571426,59.128571428571426,1571.2,55.222321428571426,59.128571428571426,1674.8,252.22232142857143,127.12857142857143,1788.2,634.2223214285714,250.12857142857143,1904.4,729.2223214285714,276.12857142857143,2008,770.2223214285714,286.12857142857143,2109.7,773.2223214285714,286.12857142857143,2212.5,774.2223214285714,286.12857142857143,2321.4,774.2223214285714,286.12857142857143,2427.5,774.2223214285714,286.12857142857143,2542.4,774.2223214285714,286.12857142857143,2648.8,774.2223214285714,286.12857142857143,2752.6,774.2223214285714,286.12857142857143,2857.3,774.2223214285714,286.12857142857143,2959.8,774.2223214285714,286.12857142857143,3066,774.2223214285714,286.12857142857143,3169.2,774.2223214285714,286.12857142857143,3272.6,774.2223214285714,286.12857142857143,3377.5,774.2223214285714,286.12857142857143,3482.9,774.2223214285714,286.12857142857143,3591.1,774.2223214285714,286.12857142857143,3697.4,774.2223214285714,286.12857142857143,3811,774.2223214285714,286.12857142857143,3919.5,774.2223214285714,286.12857142857143,4034.3,774.2223214285714,286.12857142857143,4152.8,774.2223214285714,286.12857142857143,4262.3,774.2223214285714,286.12857142857143,4369.1,774.2223214285714,286.12857142857143,4471.2,774.2223214285714,286.12857142857143,4575.7,774.2223214285714,286.12857142857143,4677.7,774.2223214285714,286.12857142857143,4778.3,774.2223214285714,286.12857142857143,4887.7,774.2223214285714,286.12857142857143,4988.8]","[1619.2,1619.2,1000,0,619.2,""smooth"",""left"",""left"",""good_move"",4417.8,2795.2,2261.6,1622.6,533.6,""smooth"",""left"",""left"",""good_move"",12789.9,8362.2,3337.8,8730.5,721.6,""smooth"",""left"",""left"",""good_move"",15736.5,2945.4,2301.2,12791.3,644.1,""smooth"",""up"",""up"",""good_move"",18396.8,2656.3,2144.7,15740.5,511.6,""oops"",""up"",""down"",""bad_move"",21429.8,3030.8,2538.3,18399,492.5,""smooth"",""up"",""up"",""good_move"",24113.4,2677.2,2114.9,21436.2,562.3,""smooth"",""up"",""up"",""good_move"",26374.5,2257.3,1775.6,24117.2,481.7,""smooth"",""up"",""up"",""good_move""]"
"4473","","<div style=""width:500px;"">
  <p>What determined the result of this run?</p>
  </div>","98","html-slider-response","24","328131","0.0-7.0-1.2","79","1","2025-07-30 09:14:30","36c45c0696341be0efffe67d72a12abb","41.113.3.5","Mozilla/5.0 (Windows NT 10.0; Win64; x64) AppleWebKit/537.36 (KHTML, like Gecko) Chrome/138.0.0.0 Safari/537.36","WebKit","Chrome","138.0.0.0","Windows","10.0","https://app.prolific.com/","en-ZA,en-GB;q=0.9,en-US;q=0.8,en;q=0.7,zu;q=0.6","5f3287b83428cb05746e2214","683dba9a53627eb9ab41b36a","6889e25a283d8db032df61af","0","5f3287b83428cb05746e2214","0","2025-07-30T09:20:08.920Z","","","","AttribQ","","","","","","","","","","","50","","","","","","","","","","","","","","","","","","","","","","","","","","",""
"2328","","<div style=""width:500px;"">
  <p>How much control did you have over the ball?</p>
  </div>","100","html-slider-response","25","330465","0.0-7.0-2.2","79","1","2025-07-30 09:14:30","36c45c0696341be0efffe67d72a12abb","41.113.3.5","Mozilla/5.0 (Windows NT 10.0; Win64; x64) AppleWebKit/537.36 (KHTML, like Gecko) Chrome/138.0.0.0 Safari/537.36","WebKit","Chrome","138.0.0.0","Windows","10.0","https://app.prolific.com/","en-ZA,en-GB;q=0.9,en-US;q=0.8,en;q=0.7,zu;q=0.6","5f3287b83428cb05746e2214","683dba9a53627eb9ab41b36a","6889e25a283d8db032df61af","0","5f3287b83428cb05746e2214","0","2025-07-30T09:20:11.254Z","","","","ControlQ","","","","","","","","","","","50","","","","","","","","","","","","","","","","","","","","","","","","","","",""
"3827","","<div style=""width:500px;"">
  <p>How would you describe your current emotional state?</p>
  </div>","0","html-slider-response","26","334297","0.0-7.0-3.2","79","1","2025-07-30 09:14:30","36c45c0696341be0efffe67d72a12abb","41.113.3.5","Mozilla/5.0 (Windows NT 10.0; Win64; x64) AppleWebKit/537.36 (KHTML, like Gecko) Chrome/138.0.0.0 Safari/537.36","WebKit","Chrome","138.0.0.0","Windows","10.0","https://app.prolific.com/","en-ZA,en-GB;q=0.9,en-US;q=0.8,en;q=0.7,zu;q=0.6","5f3287b83428cb05746e2214","683dba9a53627eb9ab41b36a","6889e25a283d8db032df61af","0","5f3287b83428cb05746e2214","0","2025-07-30T09:20:15.086Z","","","","StressQ","","","","","","","","","","","50","","","","","","","","","","","","","","","","","","","","","","","","","","",""
"3413","","<div style=""width:500px;"">
  <p>What best describes how you currently feel?</p>
  </div>","100","html-slider-response","27","337715","0.0-7.0-4.2","79","1","2025-07-30 09:14:30","36c45c0696341be0efffe67d72a12abb","41.113.3.5","Mozilla/5.0 (Windows NT 10.0; Win64; x64) AppleWebKit/537.36 (KHTML, like Gecko) Chrome/138.0.0.0 Safari/537.36","WebKit","Chrome","138.0.0.0","Windows","10.0","https://app.prolific.com/","en-ZA,en-GB;q=0.9,en-US;q=0.8,en;q=0.7,zu;q=0.6","5f3287b83428cb05746e2214","683dba9a53627eb9ab41b36a","6889e25a283d8db032df61af","0","5f3287b83428cb05746e2214","0","2025-07-30T09:20:18.504Z","","","","MotivationQ","","","","","","","","","","","50","","","","","","","","","","","","","","","","","","","","","","","","","","",""
"","","","","ctl-task-cpt","28","391325","0.0-7.0-0.3","79","1","2025-07-30 09:14:30","36c45c0696341be0efffe67d72a12abb","41.113.3.5","Mozilla/5.0 (Windows NT 10.0; Win64; x64) AppleWebKit/537.36 (KHTML, like Gecko) Chrome/138.0.0.0 Safari/537.36","WebKit","Chrome","138.0.0.0","Windows","10.0","https://app.prolific.com/","en-ZA,en-GB;q=0.9,en-US;q=0.8,en;q=0.7,zu;q=0.6","5f3287b83428cb05746e2214","683dba9a53627eb9ab41b36a","6889e25a283d8db032df61af","0","5f3287b83428cb05746e2214","0","2025-07-30T09:21:12.114Z","","","","","","","","","","","","","","","","win-only","3","g1:SW,g2:NE","0.7","4","0","348957.9","1273","6280.9","50587.5","1","4","8","6","2","-8","-8","8","16","0.06060606060606061","817.2","3000","-1405","[""up"",""right""]","{""num_key_presses"":12,""num_perfect"":8,""num_errors"":0,""num_randdir"":4,""num_randdir_good_moves"":0,""num_whilered"":0,""num_whileblue"":0,""num_blue"":2,""num_good_moves"":8}","[302.22232142857143,298.12857142857143,6.1,302.22232142857143,298.12857142857143,105.3,302.22232142857143,298.12857142857143,206.1,342.22232142857143,239.12857142857143,308.6,473.22232142857143,123.12857142857143,418.9,527.2223214285714,74.12857142857143,524.6,538.2223214285714,63.128571428571426,645.4,538.2223214285714,63.128571428571426,750.8,538.2223214285714,63.128571428571426,851.8,538.2223214285714,63.128571428571426,952.1,538.2223214285714,63.128571428571426,1057.7,539.2223214285714,66.12857142857143,1160,556.2223214285714,140.12857142857143,1261.3,565.2223214285714,166.12857142857143,1371.7,567.2223214285714,170.12857142857143,1477.6,586.2223214285714,192.12857142857143,1588.2,586.2223214285714,192.12857142857143,1692.8,593.2223214285714,187.12857142857143,1801.6,593.2223214285714,187.12857142857143,1908.1,593.2223214285714,187.12857142857143,2011,593.2223214285714,187.12857142857143,2112,593.2223214285714,187.12857142857143,2215.3,593.2223214285714,187.12857142857143,2328.7,593.2223214285714,187.12857142857143,2431.7,593.2223214285714,187.12857142857143,2539.9,593.2223214285714,187.12857142857143,2640.7,593.2223214285714,187.12857142857143,2748.3,593.2223214285714,187.12857142857143,2848.9,593.2223214285714,187.12857142857143,2954.8,593.2223214285714,187.12857142857143,3056.5,593.2223214285714,187.12857142857143,3160.1,593.2223214285714,187.12857142857143,3269.3,593.2223214285714,187.12857142857143,3376.4,593.2223214285714,187.12857142857143,3478.1,593.2223214285714,187.12857142857143,3586.9,593.2223214285714,187.12857142857143,3688.1,593.2223214285714,187.12857142857143,3792.2,593.2223214285714,187.12857142857143,3899.8,593.2223214285714,187.12857142857143,4000.5,593.2223214285714,187.12857142857143,4107.6,593.2223214285714,187.12857142857143,4211.7,593.2223214285714,187.12857142857143,4318.4,593.2223214285714,187.12857142857143,4426.5,593.2223214285714,187.12857142857143,4531.9,593.2223214285714,187.12857142857143,4638.8,593.2223214285714,187.12857142857143,4739.9,593.2223214285714,187.12857142857143,4845.2,593.2223214285714,187.12857142857143,4951.1]","[1572.9,1572.9,1000,0,572.9,""smooth"",""right"",""right"",""good_move"",4818.1,3243.3,2676.8,1574.8,566.5,""smooth"",""right"",""right"",""good_move"",8380.2,3560.1,2968.5,4820.1,591.6,""oops"",""right"",""down"",""bad_move"",12060.6,3670.6,3021.1,8390,649.5,""smooth"",""right"",""right"",""good_move"",15113.5,3045.9,2540,12067.6,505.9,""smooth"",""up"",""up"",""good_move"",17496.9,2379.4,1444.9,15117.5,934.6,""smooth"",""up"",""up"",""good_move"",20655.1,3156.1,2707.2,17499.1,448.9,""oops"",""up"",""down"",""bad_move"",27683.8,7024.6,2377,24731.8,575.1,""smooth"",""up"",""up"",""good_move"",30485.2,2799.9,2266.1,27685.3,533.8,""oops"",""up"",""down"",""bad_move"",33103.5,2615.7,2075.1,30487.8,540.6,""smooth"",""up"",""up"",""good_move"",36048.3,2942.7,2186.2,33105.7,756.4,""oops"",""up"",""down"",""bad_move"",41973.4,5919.8,1919,39568.1,486.4,""smooth"",""up"",""up"",""good_move""]"
"3673","","<div style=""width:500px;"">
  <p>What determined the result of this run?</p>
  </div>","0","html-slider-response","29","395005","0.0-7.0-1.3","79","1","2025-07-30 09:14:30","36c45c0696341be0efffe67d72a12abb","41.113.3.5","Mozilla/5.0 (Windows NT 10.0; Win64; x64) AppleWebKit/537.36 (KHTML, like Gecko) Chrome/138.0.0.0 Safari/537.36","WebKit","Chrome","138.0.0.0","Windows","10.0","https://app.prolific.com/","en-ZA,en-GB;q=0.9,en-US;q=0.8,en;q=0.7,zu;q=0.6","5f3287b83428cb05746e2214","683dba9a53627eb9ab41b36a","6889e25a283d8db032df61af","0","5f3287b83428cb05746e2214","0","2025-07-30T09:21:15.794Z","","","","AttribQ","","","","","","","","","","","50","","","","","","","","","","","","","","","","","","","","","","","","","","",""
"3126","","<div style=""width:500px;"">
  <p>How much control did you have over the ball?</p>
  </div>","0","html-slider-response","30","398141","0.0-7.0-2.3","79","1","2025-07-30 09:14:30","36c45c0696341be0efffe67d72a12abb","41.113.3.5","Mozilla/5.0 (Windows NT 10.0; Win64; x64) AppleWebKit/537.36 (KHTML, like Gecko) Chrome/138.0.0.0 Safari/537.36","WebKit","Chrome","138.0.0.0","Windows","10.0","https://app.prolific.com/","en-ZA,en-GB;q=0.9,en-US;q=0.8,en;q=0.7,zu;q=0.6","5f3287b83428cb05746e2214","683dba9a53627eb9ab41b36a","6889e25a283d8db032df61af","0","5f3287b83428cb05746e2214","0","2025-07-30T09:21:18.930Z","","","","ControlQ","","","","","","","","","","","50","","","","","","","","","","","","","","","","","","","","","","","","","","",""
"5865","","<div style=""width:500px;"">
  <p>How would you describe your current emotional state?</p>
  </div>","27","html-slider-response","31","404011","0.0-7.0-3.3","79","1","2025-07-30 09:14:30","36c45c0696341be0efffe67d72a12abb","41.113.3.5","Mozilla/5.0 (Windows NT 10.0; Win64; x64) AppleWebKit/537.36 (KHTML, like Gecko) Chrome/138.0.0.0 Safari/537.36","WebKit","Chrome","138.0.0.0","Windows","10.0","https://app.prolific.com/","en-ZA,en-GB;q=0.9,en-US;q=0.8,en;q=0.7,zu;q=0.6","5f3287b83428cb05746e2214","683dba9a53627eb9ab41b36a","6889e25a283d8db032df61af","0","5f3287b83428cb05746e2214","0","2025-07-30T09:21:24.800Z","","","","StressQ","","","","","","","","","","","50","","","","","","","","","","","","","","","","","","","","","","","","","","",""
"3527","","<div style=""width:500px;"">
  <p>What best describes how you currently feel?</p>
  </div>","100","html-slider-response","32","407544","0.0-7.0-4.3","79","1","2025-07-30 09:14:30","36c45c0696341be0efffe67d72a12abb","41.113.3.5","Mozilla/5.0 (Windows NT 10.0; Win64; x64) AppleWebKit/537.36 (KHTML, like Gecko) Chrome/138.0.0.0 Safari/537.36","WebKit","Chrome","138.0.0.0","Windows","10.0","https://app.prolific.com/","en-ZA,en-GB;q=0.9,en-US;q=0.8,en;q=0.7,zu;q=0.6","5f3287b83428cb05746e2214","683dba9a53627eb9ab41b36a","6889e25a283d8db032df61af","0","5f3287b83428cb05746e2214","0","2025-07-30T09:21:28.334Z","","","","MotivationQ","","","","","","","","","","","50","","","","","","","","","","","","","","","","","","","","","","","","","","",""
"","","","","ctl-task-cpt","33","460406","0.0-7.0-0.4","79","1","2025-07-30 09:14:30","36c45c0696341be0efffe67d72a12abb","41.113.3.5","Mozilla/5.0 (Windows NT 10.0; Win64; x64) AppleWebKit/537.36 (KHTML, like Gecko) Chrome/138.0.0.0 Safari/537.36","WebKit","Chrome","138.0.0.0","Windows","10.0","https://app.prolific.com/","en-ZA,en-GB;q=0.9,en-US;q=0.8,en;q=0.7,zu;q=0.6","5f3287b83428cb05746e2214","683dba9a53627eb9ab41b36a","6889e25a283d8db032df61af","0","5f3287b83428cb05746e2214","0","2025-07-30T09:22:21.195Z","","","","","","","","","","","","","","","","win-only","1","g1:NE,g2:SW","0.6","5","0","418789.1","1986.1","6994.6","49822.8","1","4","8","6","2","8","8","16","8","0.12121212121212122","1400","3000","650","[""down"",""left""]","{""num_key_presses"":12,""num_perfect"":8,""num_errors"":0,""num_randdir"":4,""num_randdir_good_moves"":1,""num_whilered"":0,""num_whileblue"":0,""num_blue"":2,""num_good_moves"":9}","[294.22232142857143,291.12857142857143,2.8,294.22232142857143,291.12857142857143,111.9,294.22232142857143,291.12857142857143,221.4,294.22232142857143,291.12857142857143,327.7,313.22232142857143,272.12857142857143,434.2,314.22232142857143,272.12857142857143,545,245.22232142857143,377.12857142857143,646.2,184.22232142857143,458.12857142857143,754.3,146.22232142857143,508.12857142857143,887.5,104.22232142857143,521.1285714285714,998.5,82.22232142857143,528.1285714285714,1113.8,78.22232142857143,530.1285714285714,1216.1,76.22232142857143,531.1285714285714,1327.8,76.22232142857143,531.1285714285714,1434,76.22232142857143,531.1285714285714,1542.2,76.22232142857143,531.1285714285714,1643,76.22232142857143,531.1285714285714,1753.4,76.22232142857143,529.1285714285714,1874,180.22232142857143,529.1285714285714,1982.3,276.22232142857143,532.1285714285714,2084.6,529.2223214285714,540.1285714285714,2200.4,641.2223214285714,534.1285714285714,2310.5,778.2223214285714,533.1285714285714,2410.7,887.2223214285714,546.1285714285714,2515.1,915.2223214285714,544.1285714285714,2616.5,978.2223214285714,571.1285714285714,2727.8,978.2223214285714,570.1285714285714,2830.4,976.2223214285714,570.1285714285714,2944.2,973.2223214285714,563.1285714285714,3048.1,973.2223214285714,563.1285714285714,3160.8,973.2223214285714,563.1285714285714,3270.4,973.2223214285714,563.1285714285714,3384,973.2223214285714,563.1285714285714,3491,973.2223214285714,563.1285714285714,3601,973.2223214285714,563.1285714285714,3715.6,973.2223214285714,563.1285714285714,3815.9,973.2223214285714,563.1285714285714,3918.3,973.2223214285714,563.1285714285714,4023.2,973.2223214285714,563.1285714285714,4132.1,973.2223214285714,563.1285714285714,4232.1,973.2223214285714,563.1285714285714,4337.5,973.2223214285714,563.1285714285714,4444.5,973.2223214285714,563.1285714285714,4561.9,973.2223214285714,563.1285714285714,4671.4,973.2223214285714,563.1285714285714,4780.2,973.2223214285714,563.1285714285714,4885.1,973.2223214285714,563.1285714285714,4994.5]","[1592.2,1592.3,1000,0,592.3,""smooth"",""down"",""down"",""good_move"",3806.2,2212.2,1695.3,1594.1,516.8,""smooth"",""down"",""down"",""good_move"",6113.8,2300.3,1786.5,3813.5,513.8,""smooth"",""down"",""down"",""good_move"",9474.4,3357.3,2855,6117.1,502.3,""smooth"",""left"",""left"",""good_move"",12474.5,2998,2427.3,9476.5,570.7,""oops"",""left"",""right"",""bad_move"",15494.7,3018.4,2499.2,12476.3,519.2,""oops"",""left"",""up"",""bad_move"",22317.8,6811.3,2415.2,19320.8,581.8,""smooth"",""left"",""left"",""good_move"",26437.9,4115.4,3518.3,22322.8,596.9,""oops"",""left"",""left"",""good_move"",29511.7,3068,2262.1,26443.8,805.9,""oops"",""left"",""up"",""bad_move"",32658.6,3145,2697.8,29513.8,447.1,""smooth"",""left"",""left"",""good_move"",40062.6,7390.7,2684.3,36834.2,544.2,""smooth"",""down"",""down"",""good_move"",42531.6,2467.8,1928.6,40064,539,""smooth"",""down"",""down"",""good_move""]"
"4867","","<div style=""width:500px;"">
  <p>What determined the result of this run?</p>
  </div>","36","html-slider-response","34","465278","0.0-7.0-1.4","79","1","2025-07-30 09:14:30","36c45c0696341be0efffe67d72a12abb","41.113.3.5","Mozilla/5.0 (Windows NT 10.0; Win64; x64) AppleWebKit/537.36 (KHTML, like Gecko) Chrome/138.0.0.0 Safari/537.36","WebKit","Chrome","138.0.0.0","Windows","10.0","https://app.prolific.com/","en-ZA,en-GB;q=0.9,en-US;q=0.8,en;q=0.7,zu;q=0.6","5f3287b83428cb05746e2214","683dba9a53627eb9ab41b36a","6889e25a283d8db032df61af","0","5f3287b83428cb05746e2214","0","2025-07-30T09:22:26.068Z","","","","AttribQ","","","","","","","","","","","50","","","","","","","","","","","","","","","","","","","","","","","","","","",""
"3648","","<div style=""width:500px;"">
  <p>How much control did you have over the ball?</p>
  </div>","58","html-slider-response","35","468934","0.0-7.0-2.4","79","1","2025-07-30 09:14:30","36c45c0696341be0efffe67d72a12abb","41.113.3.5","Mozilla/5.0 (Windows NT 10.0; Win64; x64) AppleWebKit/537.36 (KHTML, like Gecko) Chrome/138.0.0.0 Safari/537.36","WebKit","Chrome","138.0.0.0","Windows","10.0","https://app.prolific.com/","en-ZA,en-GB;q=0.9,en-US;q=0.8,en;q=0.7,zu;q=0.6","5f3287b83428cb05746e2214","683dba9a53627eb9ab41b36a","6889e25a283d8db032df61af","0","5f3287b83428cb05746e2214","0","2025-07-30T09:22:29.724Z","","","","ControlQ","","","","","","","","","","","50","","","","","","","","","","","","","","","","","","","","","","","","","","",""
"3907","","<div style=""width:500px;"">
  <p>How would you describe your current emotional state?</p>
  </div>","40","html-slider-response","36","472845","0.0-7.0-3.4","79","1","2025-07-30 09:14:30","36c45c0696341be0efffe67d72a12abb","41.113.3.5","Mozilla/5.0 (Windows NT 10.0; Win64; x64) AppleWebKit/537.36 (KHTML, like Gecko) Chrome/138.0.0.0 Safari/537.36","WebKit","Chrome","138.0.0.0","Windows","10.0","https://app.prolific.com/","en-ZA,en-GB;q=0.9,en-US;q=0.8,en;q=0.7,zu;q=0.6","5f3287b83428cb05746e2214","683dba9a53627eb9ab41b36a","6889e25a283d8db032df61af","0","5f3287b83428cb05746e2214","0","2025-07-30T09:22:33.634Z","","","","StressQ","","","","","","","","","","","50","","","","","","","","","","","","","","","","","","","","","","","","","","",""
"3655","","<div style=""width:500px;"">
  <p>What best describes how you currently feel?</p>
  </div>","73","html-slider-response","37","476505","0.0-7.0-4.4","79","1","2025-07-30 09:14:30","36c45c0696341be0efffe67d72a12abb","41.113.3.5","Mozilla/5.0 (Windows NT 10.0; Win64; x64) AppleWebKit/537.36 (KHTML, like Gecko) Chrome/138.0.0.0 Safari/537.36","WebKit","Chrome","138.0.0.0","Windows","10.0","https://app.prolific.com/","en-ZA,en-GB;q=0.9,en-US;q=0.8,en;q=0.7,zu;q=0.6","5f3287b83428cb05746e2214","683dba9a53627eb9ab41b36a","6889e25a283d8db032df61af","0","5f3287b83428cb05746e2214","0","2025-07-30T09:22:37.294Z","","","","MotivationQ","","","","","","","","","","","50","","","","","","","","","","","","","","","","","","","","","","","","","","",""
"","","","","ctl-task-cpt","38","511711","0.0-7.0-0.5","79","1","2025-07-30 09:14:30","36c45c0696341be0efffe67d72a12abb","41.113.3.5","Mozilla/5.0 (Windows NT 10.0; Win64; x64) AppleWebKit/537.36 (KHTML, like Gecko) Chrome/138.0.0.0 Safari/537.36","WebKit","Chrome","138.0.0.0","Windows","10.0","https://app.prolific.com/","en-ZA,en-GB;q=0.9,en-US;q=0.8,en;q=0.7,zu;q=0.6","5f3287b83428cb05746e2214","683dba9a53627eb9ab41b36a","6889e25a283d8db032df61af","0","5f3287b83428cb05746e2214","0","2025-07-30T09:23:12.500Z","","","","","","","","","","","","","","","","win-only","3","g1:SW,g2:NE","0.5","6","0","487747","1687.1","6707.6","32175.5","1","4","4","6","2","4","4","20","16","0.15151515151515152","1011.4","3000","1785","[""up"",""right""]","{""num_key_presses"":6,""num_perfect"":4,""num_errors"":0,""num_randdir"":2,""num_randdir_good_moves"":2,""num_whilered"":0,""num_whileblue"":0,""num_blue"":2,""num_good_moves"":6}","[299.22232142857143,297.12857142857143,8,299.22232142857143,297.12857142857143,103.8,299.22232142857143,297.12857142857143,209.7,299.22232142857143,297.12857142857143,312,347.22232142857143,230.12857142857143,413.9,412.22232142857143,167.12857142857143,520.7,508.22232142857143,112.12857142857143,636.5,540.2223214285714,90.12857142857143,752.9,541.2223214285714,85.12857142857143,874.4,541.2223214285714,84.12857142857143,977.5,541.2223214285714,84.12857142857143,1086.2,541.2223214285714,84.12857142857143,1200.6,541.2223214285714,84.12857142857143,1317.3,541.2223214285714,84.12857142857143,1435.4,541.2223214285714,87.12857142857143,1548.1,541.2223214285714,87.12857142857143,1670.3,541.2223214285714,87.12857142857143,1772.1,541.2223214285714,87.12857142857143,1886.1,541.2223214285714,87.12857142857143,1996.6,541.2223214285714,87.12857142857143,2109.2,541.2223214285714,87.12857142857143,2228,541.2223214285714,87.12857142857143,2335.5,541.2223214285714,87.12857142857143,2443,541.2223214285714,87.12857142857143,2555.6,541.2223214285714,87.12857142857143,2662.6,541.2223214285714,87.12857142857143,2772.2,541.2223214285714,87.12857142857143,2886.7,541.2223214285714,87.12857142857143,2997.5,541.2223214285714,87.12857142857143,3100.4,541.2223214285714,87.12857142857143,3213.6,541.2223214285714,87.12857142857143,3322.7,541.2223214285714,87.12857142857143,3441.2,541.2223214285714,87.12857142857143,3547.5,541.2223214285714,87.12857142857143,3665.5,541.2223214285714,87.12857142857143,3774,541.2223214285714,87.12857142857143,3885,541.2223214285714,87.12857142857143,3992.4,541.2223214285714,87.12857142857143,4104,541.2223214285714,87.12857142857143,4216.4,541.2223214285714,87.12857142857143,4334.1,541.2223214285714,87.12857142857143,4447.1,541.2223214285714,87.12857142857143,4555.4,541.2223214285714,87.12857142857143,4662.1,541.2223214285714,87.12857142857143,4765.8,541.2223214285714,87.12857142857143,4875.8,541.2223214285714,87.12857142857143,4993.3]","[1591.7,1591.7,1000,0,591.7,""smooth"",""right"",""right"",""good_move"",5366.2,3772.9,3240.1,1593.3,532.8,""smooth"",""right"",""right"",""good_move"",8005.5,2637.3,2091.8,5370.4,543.4,""oops"",""right"",""up"",""good_move"",11217.9,3205.3,2511.7,8012.7,693.5,""oops"",""right"",""right"",""good_move"",17906.8,6686.3,2458.8,14796.4,651.6,""smooth"",""up"",""up"",""good_move"",25209.8,7301.8,2734.4,21911.9,563.5,""smooth"",""up"",""up"",""good_move""]"
"2812","","<div style=""width:500px;"">
  <p>What determined the result of this run?</p>
  </div>","94","html-slider-response","39","514526","0.0-7.0-1.5","79","1","2025-07-30 09:14:30","36c45c0696341be0efffe67d72a12abb","41.113.3.5","Mozilla/5.0 (Windows NT 10.0; Win64; x64) AppleWebKit/537.36 (KHTML, like Gecko) Chrome/138.0.0.0 Safari/537.36","WebKit","Chrome","138.0.0.0","Windows","10.0","https://app.prolific.com/","en-ZA,en-GB;q=0.9,en-US;q=0.8,en;q=0.7,zu;q=0.6","5f3287b83428cb05746e2214","683dba9a53627eb9ab41b36a","6889e25a283d8db032df61af","0","5f3287b83428cb05746e2214","0","2025-07-30T09:23:15.315Z","","","","AttribQ","","","","","","","","","","","50","","","","","","","","","","","","","","","","","","","","","","","","","","",""
"3332","","<div style=""width:500px;"">
  <p>How much control did you have over the ball?</p>
  </div>","92","html-slider-response","40","517863","0.0-7.0-2.5","79","1","2025-07-30 09:14:30","36c45c0696341be0efffe67d72a12abb","41.113.3.5","Mozilla/5.0 (Windows NT 10.0; Win64; x64) AppleWebKit/537.36 (KHTML, like Gecko) Chrome/138.0.0.0 Safari/537.36","WebKit","Chrome","138.0.0.0","Windows","10.0","https://app.prolific.com/","en-ZA,en-GB;q=0.9,en-US;q=0.8,en;q=0.7,zu;q=0.6","5f3287b83428cb05746e2214","683dba9a53627eb9ab41b36a","6889e25a283d8db032df61af","0","5f3287b83428cb05746e2214","0","2025-07-30T09:23:18.652Z","","","","ControlQ","","","","","","","","","","","50","","","","","","","","","","","","","","","","","","","","","","","","","","",""
"4408","","<div style=""width:500px;"">
  <p>How would you describe your current emotional state?</p>
  </div>","9","html-slider-response","41","522275","0.0-7.0-3.5","79","1","2025-07-30 09:14:30","36c45c0696341be0efffe67d72a12abb","41.113.3.5","Mozilla/5.0 (Windows NT 10.0; Win64; x64) AppleWebKit/537.36 (KHTML, like Gecko) Chrome/138.0.0.0 Safari/537.36","WebKit","Chrome","138.0.0.0","Windows","10.0","https://app.prolific.com/","en-ZA,en-GB;q=0.9,en-US;q=0.8,en;q=0.7,zu;q=0.6","5f3287b83428cb05746e2214","683dba9a53627eb9ab41b36a","6889e25a283d8db032df61af","0","5f3287b83428cb05746e2214","0","2025-07-30T09:23:23.064Z","","","","StressQ","","","","","","","","","","","50","","","","","","","","","","","","","","","","","","","","","","","","","","",""
"3839","","<div style=""width:500px;"">
  <p>What best describes how you currently feel?</p>
  </div>","90","html-slider-response","42","526120","0.0-7.0-4.5","79","1","2025-07-30 09:14:30","36c45c0696341be0efffe67d72a12abb","41.113.3.5","Mozilla/5.0 (Windows NT 10.0; Win64; x64) AppleWebKit/537.36 (KHTML, like Gecko) Chrome/138.0.0.0 Safari/537.36","WebKit","Chrome","138.0.0.0","Windows","10.0","https://app.prolific.com/","en-ZA,en-GB;q=0.9,en-US;q=0.8,en;q=0.7,zu;q=0.6","5f3287b83428cb05746e2214","683dba9a53627eb9ab41b36a","6889e25a283d8db032df61af","0","5f3287b83428cb05746e2214","0","2025-07-30T09:23:26.909Z","","","","MotivationQ","","","","","","","","","","","50","","","","","","","","","","","","","","","","","","","","","","","","","","",""
"","","","","ctl-task-cpt","43","612479","0.0-7.0-0.6","79","1","2025-07-30 09:14:30","36c45c0696341be0efffe67d72a12abb","41.113.3.5","Mozilla/5.0 (Windows NT 10.0; Win64; x64) AppleWebKit/537.36 (KHTML, like Gecko) Chrome/138.0.0.0 Safari/537.36","WebKit","Chrome","138.0.0.0","Windows","10.0","https://app.prolific.com/","en-ZA,en-GB;q=0.9,en-US;q=0.8,en;q=0.7,zu;q=0.6","5f3287b83428cb05746e2214","683dba9a53627eb9ab41b36a","6889e25a283d8db032df61af","0","5f3287b83428cb05746e2214","0","2025-07-30T09:24:53.268Z","","","","","","","","","","","","","","","","win-only","3","g1:SW,g2:NE","0.4","7","0","537361.9","1411.2","6418.5","83319.3","1","4","4","6","2","-4","-4","16","20","0.12121212121212122","958.7","3000","-835","[""up"",""right""]","{""num_key_presses"":18,""num_perfect"":6,""num_errors"":0,""num_randdir"":12,""num_randdir_good_moves"":4,""num_whilered"":0,""num_whileblue"":0,""num_blue"":5,""num_good_moves"":10}","[295.22232142857143,297.12857142857143,0.7,295.22232142857143,297.12857142857143,112.6,295.22232142857143,297.12857142857143,222.8,311.22232142857143,279.12857142857143,325.8,372.22232142857143,217.12857142857143,428,458.22232142857143,140.12857142857143,536.4,489.22232142857143,108.12857142857143,636.6,526.2223214285714,74.12857142857143,759,538.2223214285714,62.128571428571426,873.8,538.2223214285714,62.128571428571426,977.6,538.2223214285714,62.128571428571426,1100.2,539.2223214285714,61.128571428571426,1209.8,539.2223214285714,61.128571428571426,1314.6,539.2223214285714,60.128571428571426,1423.5,540.2223214285714,60.128571428571426,1524.6,540.2223214285714,60.128571428571426,1633.1,540.2223214285714,58.128571428571426,1742.6,540.2223214285714,58.128571428571426,1843,540.2223214285714,58.128571428571426,1945.8,540.2223214285714,58.128571428571426,2045.9,540.2223214285714,58.128571428571426,2160.8,540.2223214285714,58.128571428571426,2262.8,540.2223214285714,58.128571428571426,2376.7,540.2223214285714,58.128571428571426,2490.5,540.2223214285714,58.128571428571426,2600.5,540.2223214285714,58.128571428571426,2709.3,540.2223214285714,58.128571428571426,2818.2,540.2223214285714,58.128571428571426,2923.6,540.2223214285714,58.128571428571426,3028.1,540.2223214285714,58.128571428571426,3128.6,540.2223214285714,58.128571428571426,3238.9,540.2223214285714,58.128571428571426,3357.3,540.2223214285714,58.128571428571426,3467.5,540.2223214285714,58.128571428571426,3572.8,540.2223214285714,58.128571428571426,3678.9,540.2223214285714,58.128571428571426,3780.4,540.2223214285714,58.128571428571426,3884,540.2223214285714,58.128571428571426,3988.4,540.2223214285714,58.128571428571426,4092.8,540.2223214285714,58.128571428571426,4219.6,540.2223214285714,58.128571428571426,4336.2,540.2223214285714,58.128571428571426,4446.2,540.2223214285714,58.128571428571426,4550.9,541.2223214285714,58.128571428571426,4696,543.2223214285714,58.128571428571426,4811.3,609.2223214285714,84.12857142857143,4936.3]","[1983.9,1983.9,1000,0,983.9,""smooth"",""right"",""right"",""good_move"",8249.5,6258.8,2022.4,5697.8,529.3,""oops"",""right"",""right"",""good_move"",14834.6,6583.9,2054.2,12229.5,550.9,""oops"",""right"",""down"",""bad_move"",17766.2,2924.5,2286.4,14841.7,638.1,""smooth"",""up"",""up"",""good_move"",21432.5,3652.1,2363.4,17780.4,1288.7,""smooth"",""up"",""up"",""good_move"",25051.3,3617.1,1646.8,21434.3,1970.3,""oops"",""up"",""right"",""good_move"",27657.2,2601.2,2052.5,25056.7,548.1,""smooth"",""up"",""up"",""good_move"",30522.6,2856.2,2397.6,27666.5,458.5,""oops"",""up"",""down"",""bad_move"",33368.4,2843.8,2308.7,30524.7,535,""oops"",""up"",""left"",""bad_move"",36780.9,3409.9,2739.4,33371,670.6,""oops"",""up"",""down"",""bad_move"",39654.9,2872.1,2363.3,36782.9,508.7,""oops"",""right"",""right"",""good_move"",47084.9,7428.4,3149,43336.7,599.2,""smooth"",""up"",""up"",""good_move"",54798.3,7712.1,2558.5,51662,577.8,""oops"",""up"",""down"",""bad_move"",57658.3,2852.6,2222.8,54805.7,629.8,""oops"",""up"",""down"",""bad_move"",60942.1,3278.9,2761.4,57663.3,517.4,""oops"",""up"",""left"",""bad_move"",63952.8,3002.1,2363.3,60950.8,638.8,""smooth"",""up"",""up"",""good_move"",66892.3,2931.1,2318.9,63961.2,612.2,""oops"",""up"",""up"",""good_move"",69931.2,3036.9,2135.7,66894.3,901.2,""oops"",""up"",""down"",""bad_move""]"
"2904","","<div style=""width:500px;"">
  <p>What determined the result of this run?</p>
  </div>","0","html-slider-response","44","615385","0.0-7.0-1.6","79","1","2025-07-30 09:14:30","36c45c0696341be0efffe67d72a12abb","41.113.3.5","Mozilla/5.0 (Windows NT 10.0; Win64; x64) AppleWebKit/537.36 (KHTML, like Gecko) Chrome/138.0.0.0 Safari/537.36","WebKit","Chrome","138.0.0.0","Windows","10.0","https://app.prolific.com/","en-ZA,en-GB;q=0.9,en-US;q=0.8,en;q=0.7,zu;q=0.6","5f3287b83428cb05746e2214","683dba9a53627eb9ab41b36a","6889e25a283d8db032df61af","0","5f3287b83428cb05746e2214","0","2025-07-30T09:24:56.175Z","","","","AttribQ","","","","","","","","","","","50","","","","","","","","","","","","","","","","","","","","","","","","","","",""
"2804","","<div style=""width:500px;"">
  <p>How much control did you have over the ball?</p>
  </div>","0","html-slider-response","45","618193","0.0-7.0-2.6","79","1","2025-07-30 09:14:30","36c45c0696341be0efffe67d72a12abb","41.113.3.5","Mozilla/5.0 (Windows NT 10.0; Win64; x64) AppleWebKit/537.36 (KHTML, like Gecko) Chrome/138.0.0.0 Safari/537.36","WebKit","Chrome","138.0.0.0","Windows","10.0","https://app.prolific.com/","en-ZA,en-GB;q=0.9,en-US;q=0.8,en;q=0.7,zu;q=0.6","5f3287b83428cb05746e2214","683dba9a53627eb9ab41b36a","6889e25a283d8db032df61af","0","5f3287b83428cb05746e2214","0","2025-07-30T09:24:58.983Z","","","","ControlQ","","","","","","","","","","","50","","","","","","","","","","","","","","","","","","","","","","","","","","",""
"4435","","<div style=""width:500px;"">
  <p>How would you describe your current emotional state?</p>
  </div>","80","html-slider-response","46","622633","0.0-7.0-3.6","79","1","2025-07-30 09:14:30","36c45c0696341be0efffe67d72a12abb","41.113.3.5","Mozilla/5.0 (Windows NT 10.0; Win64; x64) AppleWebKit/537.36 (KHTML, like Gecko) Chrome/138.0.0.0 Safari/537.36","WebKit","Chrome","138.0.0.0","Windows","10.0","https://app.prolific.com/","en-ZA,en-GB;q=0.9,en-US;q=0.8,en;q=0.7,zu;q=0.6","5f3287b83428cb05746e2214","683dba9a53627eb9ab41b36a","6889e25a283d8db032df61af","0","5f3287b83428cb05746e2214","0","2025-07-30T09:25:03.422Z","","","","StressQ","","","","","","","","","","","50","","","","","","","","","","","","","","","","","","","","","","","","","","",""
"3013","","<div style=""width:500px;"">
  <p>What best describes how you currently feel?</p>
  </div>","91","html-slider-response","47","625650","0.0-7.0-4.6","79","1","2025-07-30 09:14:30","36c45c0696341be0efffe67d72a12abb","41.113.3.5","Mozilla/5.0 (Windows NT 10.0; Win64; x64) AppleWebKit/537.36 (KHTML, like Gecko) Chrome/138.0.0.0 Safari/537.36","WebKit","Chrome","138.0.0.0","Windows","10.0","https://app.prolific.com/","en-ZA,en-GB;q=0.9,en-US;q=0.8,en;q=0.7,zu;q=0.6","5f3287b83428cb05746e2214","683dba9a53627eb9ab41b36a","6889e25a283d8db032df61af","0","5f3287b83428cb05746e2214","0","2025-07-30T09:25:06.439Z","","","","MotivationQ","","","","","","","","","","","50","","","","","","","","","","","","","","","","","","","","","","","","","","",""
"","","","","ctl-task-cpt","48","723735","0.0-7.0-0.7","79","1","2025-07-30 09:14:30","36c45c0696341be0efffe67d72a12abb","41.113.3.5","Mozilla/5.0 (Windows NT 10.0; Win64; x64) AppleWebKit/537.36 (KHTML, like Gecko) Chrome/138.0.0.0 Safari/537.36","WebKit","Chrome","138.0.0.0","Windows","10.0","https://app.prolific.com/","en-ZA,en-GB;q=0.9,en-US;q=0.8,en;q=0.7,zu;q=0.6","5f3287b83428cb05746e2214","683dba9a53627eb9ab41b36a","6889e25a283d8db032df61af","0","5f3287b83428cb05746e2214","0","2025-07-30T09:26:44.524Z","","","","","","","","","","","","","","","","win-only","1","g1:NE,g2:SW","0.3","8","0","636892.6","1497.7","6528.2","95047.7","1","4","8","6","2","-8","-8","8","16","0.06060606060606061","1244.5","3000","-755","[""down"",""left""]","{""num_key_presses"":21,""num_perfect"":6,""num_errors"":0,""num_randdir"":15,""num_randdir_good_moves"":6,""num_whilered"":0,""num_whileblue"":0,""num_blue"":3,""num_good_moves"":12}","[297.22232142857143,292.12857142857143,1.2,297.22232142857143,292.12857142857143,118.6,297.22232142857143,292.12857142857143,226.6,297.22232142857143,292.12857142857143,328,305.22232142857143,281.12857142857143,441.7,288.22232142857143,293.12857142857143,545.9,197.22232142857143,396.12857142857143,647,158.22232142857143,485.12857142857143,764.5,95.22232142857143,560.1285714285714,870.1,66.22232142857143,572.1285714285714,1001.4,62.222321428571426,573.1285714285714,1112.3,62.222321428571426,574.1285714285714,1215.6,62.222321428571426,574.1285714285714,1329.8,62.222321428571426,574.1285714285714,1443.8,62.222321428571426,574.1285714285714,1546,67.22232142857143,574.1285714285714,1669.4,166.22232142857143,581.1285714285714,1782.5,395.22232142857143,601.1285714285714,1885.9,663.2223214285714,626.1285714285714,1991.3,773.2223214285714,626.1285714285714,2102.5,844.2223214285714,625.1285714285714,2205.8,853.2223214285714,619.1285714285714,2306.1,853.2223214285714,619.1285714285714,2413,853.2223214285714,618.1285714285714,2542.2,853.2223214285714,618.1285714285714,2666,853.2223214285714,618.1285714285714,2780.4,853.2223214285714,618.1285714285714,2880.5,853.2223214285714,618.1285714285714,2991.4,853.2223214285714,618.1285714285714,3113.8,853.2223214285714,618.1285714285714,3221.9,853.2223214285714,618.1285714285714,3341.1,853.2223214285714,618.1285714285714,3446.7,853.2223214285714,618.1285714285714,3550.9,853.2223214285714,618.1285714285714,3663.6,853.2223214285714,618.1285714285714,3776.4,853.2223214285714,618.1285714285714,3901.7,853.2223214285714,618.1285714285714,4013.1,853.2223214285714,618.1285714285714,4127.2,853.2223214285714,618.1285714285714,4242.7,853.2223214285714,618.1285714285714,4351.7,853.2223214285714,618.1285714285714,4464.6,853.2223214285714,618.1285714285714,4574.8,853.2223214285714,618.1285714285714,4684.3,853.2223214285714,618.1285714285714,4812.5,853.2223214285714,618.1285714285714,4923.7]","[1624.4,1624.5,1000,0,624.5,""oops"",""down"",""right"",""bad_move"",4229.7,2603.5,2022.9,1626.2,580.7,""smooth"",""down"",""down"",""good_move"",7411.6,3166.4,2687.4,4245.3,478.9,""oops"",""down"",""down"",""good_move"",10056.2,2640.9,2146.7,7415.3,494.2,""smooth"",""down"",""down"",""good_move"",12346.3,2284.1,1772.4,10062.5,511.4,""smooth"",""left"",""left"",""good_move"",16581.5,4229.4,3338.3,12352.1,891.1,""oops"",""left"",""up"",""bad_move"",24446.1,7862.2,3210,20712.6,523.5,""oops"",""left"",""up"",""bad_move"",28347.2,3899.7,2444.4,24447.5,1455.3,""oops"",""left"",""left"",""good_move"",32249.7,3888.5,3201.7,28361.2,686.8,""oops"",""left"",""right"",""bad_move"",35784.9,3530.4,3062.1,32254.6,468.2,""oops"",""left"",""right"",""bad_move"",39396.1,3609.3,3145.1,35786.9,464.1,""smooth"",""down"",""down"",""good_move"",45707.6,6309.6,2135.8,42981.1,590.8,""oops"",""down"",""down"",""good_move"",48874.2,3159.6,2666.4,45714.6,493.2,""oops"",""left"",""left"",""good_move"",53705.4,4829.4,2196.8,48876,2632.6,""oops"",""left"",""left"",""good_move"",58600.8,4893.4,1455.4,53707.6,3437.8,""oops"",""left"",""right"",""bad_move"",61425.7,2823,2273,58602.7,550,""oops"",""left"",""right"",""bad_move"",68433.4,6998.1,2595.6,65321.7,516.1,""smooth"",""left"",""left"",""good_move"",72592.5,4156,1751.7,68436.5,2404.3,""oops"",""left"",""right"",""bad_move"",75834.9,3239.4,2499.8,72595.5,739.6,""smooth"",""left"",""left"",""good_move"",80859.6,4994.8,3370.5,75865.7,1624.3,""oops"",""left"",""left"",""good_move"",85115.5,4251,2538.3,80864.6,1712.6,""oops"",""left"",""right"",""bad_move""]"
"2671","","<div style=""width:500px;"">
  <p>What determined the result of this run?</p>
  </div>","0","html-slider-response","49","726412","0.0-7.0-1.7","79","1","2025-07-30 09:14:30","36c45c0696341be0efffe67d72a12abb","41.113.3.5","Mozilla/5.0 (Windows NT 10.0; Win64; x64) AppleWebKit/537.36 (KHTML, like Gecko) Chrome/138.0.0.0 Safari/537.36","WebKit","Chrome","138.0.0.0","Windows","10.0","https://app.prolific.com/","en-ZA,en-GB;q=0.9,en-US;q=0.8,en;q=0.7,zu;q=0.6","5f3287b83428cb05746e2214","683dba9a53627eb9ab41b36a","6889e25a283d8db032df61af","0","5f3287b83428cb05746e2214","0","2025-07-30T09:26:47.201Z","","","","AttribQ","","","","","","","","","","","50","","","","","","","","","","","","","","","","","","","","","","","","","","",""
"3043","","<div style=""width:500px;"">
  <p>How much control did you have over the ball?</p>
  </div>","0","html-slider-response","50","729462","0.0-7.0-2.7","79","1","2025-07-30 09:14:30","36c45c0696341be0efffe67d72a12abb","41.113.3.5","Mozilla/5.0 (Windows NT 10.0; Win64; x64) AppleWebKit/537.36 (KHTML, like Gecko) Chrome/138.0.0.0 Safari/537.36","WebKit","Chrome","138.0.0.0","Windows","10.0","https://app.prolific.com/","en-ZA,en-GB;q=0.9,en-US;q=0.8,en;q=0.7,zu;q=0.6","5f3287b83428cb05746e2214","683dba9a53627eb9ab41b36a","6889e25a283d8db032df61af","0","5f3287b83428cb05746e2214","0","2025-07-30T09:26:50.251Z","","","","ControlQ","","","","","","","","","","","50","","","","","","","","","","","","","","","","","","","","","","","","","","",""
"3377","","<div style=""width:500px;"">
  <p>How would you describe your current emotional state?</p>
  </div>","100","html-slider-response","51","732844","0.0-7.0-3.7","79","1","2025-07-30 09:14:30","36c45c0696341be0efffe67d72a12abb","41.113.3.5","Mozilla/5.0 (Windows NT 10.0; Win64; x64) AppleWebKit/537.36 (KHTML, like Gecko) Chrome/138.0.0.0 Safari/537.36","WebKit","Chrome","138.0.0.0","Windows","10.0","https://app.prolific.com/","en-ZA,en-GB;q=0.9,en-US;q=0.8,en;q=0.7,zu;q=0.6","5f3287b83428cb05746e2214","683dba9a53627eb9ab41b36a","6889e25a283d8db032df61af","0","5f3287b83428cb05746e2214","0","2025-07-30T09:26:53.633Z","","","","StressQ","","","","","","","","","","","50","","","","","","","","","","","","","","","","","","","","","","","","","","",""
"5302","","<div style=""width:500px;"">
  <p>What best describes how you currently feel?</p>
  </div>","77","html-slider-response","52","738151","0.0-7.0-4.7","79","1","2025-07-30 09:14:30","36c45c0696341be0efffe67d72a12abb","41.113.3.5","Mozilla/5.0 (Windows NT 10.0; Win64; x64) AppleWebKit/537.36 (KHTML, like Gecko) Chrome/138.0.0.0 Safari/537.36","WebKit","Chrome","138.0.0.0","Windows","10.0","https://app.prolific.com/","en-ZA,en-GB;q=0.9,en-US;q=0.8,en;q=0.7,zu;q=0.6","5f3287b83428cb05746e2214","683dba9a53627eb9ab41b36a","6889e25a283d8db032df61af","0","5f3287b83428cb05746e2214","0","2025-07-30T09:26:58.941Z","","","","MotivationQ","","","","","","","","","","","50","","","","","","","","","","","","","","","","","","","","","","","","","","",""
"","","","","ctl-task-cpt","53","792476","0.0-7.0-0.8","79","1","2025-07-30 09:14:30","36c45c0696341be0efffe67d72a12abb","41.113.3.5","Mozilla/5.0 (Windows NT 10.0; Win64; x64) AppleWebKit/537.36 (KHTML, like Gecko) Chrome/138.0.0.0 Safari/537.36","WebKit","Chrome","138.0.0.0","Windows","10.0","https://app.prolific.com/","en-ZA,en-GB;q=0.9,en-US;q=0.8,en;q=0.7,zu;q=0.6","5f3287b83428cb05746e2214","683dba9a53627eb9ab41b36a","6889e25a283d8db032df61af","0","5f3287b83428cb05746e2214","0","2025-07-30T09:27:53.265Z","","","","","","","","","","","","","","","","win-only","3","g1:SW,g2:NE","0.4","9","0","749395.1","1208.1","6217.6","51299.7","1","4","8","6","2","8","8","16","8","0.12121212121212122","1413.7","3000","1765","[""up"",""right""]","{""num_key_presses"":10,""num_perfect"":4,""num_errors"":0,""num_randdir"":6,""num_randdir_good_moves"":4,""num_whilered"":0,""num_whileblue"":0,""num_blue"":3,""num_good_moves"":8}","[298.22232142857143,302.12857142857143,0.9,298.22232142857143,302.12857142857143,102.5,298.22232142857143,302.12857142857143,222.4,299.22232142857143,301.12857142857143,357.7,241.22232142857143,388.12857142857143,492.1,288.22232142857143,365.12857142857143,604.4,351.22232142857143,296.12857142857143,715.8,463.22232142857143,264.12857142857143,823.7,547.2223214285714,220.12857142857143,933.8,533.2223214285714,82.12857142857143,1062.6,528.2223214285714,80.12857142857143,1162.7,528.2223214285714,80.12857142857143,1274.5,528.2223214285714,79.12857142857143,1391.1,528.2223214285714,79.12857142857143,1500.7,528.2223214285714,79.12857142857143,1602.7,528.2223214285714,68.12857142857143,1707.5,528.2223214285714,67.12857142857143,1808,529.2223214285714,69.12857142857143,1917.6,549.2223214285714,107.12857142857143,2067.9,650.2223214285714,192.12857142857143,2188.8,759.2223214285714,249.12857142857143,2317.2,812.2223214285714,278.12857142857143,2423.5,824.2223214285714,284.12857142857143,2551.1,824.2223214285714,284.12857142857143,2668.7,824.2223214285714,284.12857142857143,2778.3,824.2223214285714,284.12857142857143,2896.2,824.2223214285714,284.12857142857143,3011.2,824.2223214285714,284.12857142857143,3143.5,824.2223214285714,284.12857142857143,3261.1,824.2223214285714,284.12857142857143,3378.3,824.2223214285714,284.12857142857143,3504.6,824.2223214285714,284.12857142857143,3622.6,824.2223214285714,284.12857142857143,3736.4,824.2223214285714,284.12857142857143,3856.1,824.2223214285714,284.12857142857143,3974.7,824.2223214285714,284.12857142857143,4096.7,824.2223214285714,284.12857142857143,4200.7,824.2223214285714,284.12857142857143,4322.1,824.2223214285714,284.12857142857143,4444.8,824.2223214285714,284.12857142857143,4560.3,824.2223214285714,284.12857142857143,4675.7,824.2223214285714,284.12857142857143,4852,824.2223214285714,284.12857142857143,4973]","[1510.3,1510.3,1000,0,510.4,""smooth"",""right"",""right"",""good_move"",4250,2737.9,2259.3,1512.2,478.6,""smooth"",""right"",""right"",""good_move"",7412.6,3160.9,2682.1,4251.8,478.8,""oops"",""up"",""up"",""good_move"",14849.3,7434.4,2222.8,12104.5,522.1,""oops"",""up"",""up"",""good_move"",18909.5,4058.9,2486.8,14850.6,1572.1,""oops"",""right"",""right"",""good_move"",22001.2,3089.9,2542,18911.3,547.9,""oops"",""up"",""down"",""bad_move"",25818.3,3808.6,3315.5,22009.7,493.1,""oops"",""up"",""up"",""good_move"",30043,4217.3,2466.7,25825.7,1750.7,""oops"",""up"",""left"",""bad_move"",34553.7,4508.1,2899.1,30045.6,1609,""smooth"",""up"",""up"",""good_move"",44716.1,10151.8,2085.5,42123.2,507.4,""smooth"",""right"",""right"",""good_move""]"
"3720","","<div style=""width:500px;"">
  <p>What determined the result of this run?</p>
  </div>","24","html-slider-response","54","796201","0.0-7.0-1.8","79","1","2025-07-30 09:14:30","36c45c0696341be0efffe67d72a12abb","41.113.3.5","Mozilla/5.0 (Windows NT 10.0; Win64; x64) AppleWebKit/537.36 (KHTML, like Gecko) Chrome/138.0.0.0 Safari/537.36","WebKit","Chrome","138.0.0.0","Windows","10.0","https://app.prolific.com/","en-ZA,en-GB;q=0.9,en-US;q=0.8,en;q=0.7,zu;q=0.6","5f3287b83428cb05746e2214","683dba9a53627eb9ab41b36a","6889e25a283d8db032df61af","0","5f3287b83428cb05746e2214","0","2025-07-30T09:27:56.990Z","","","","AttribQ","","","","","","","","","","","50","","","","","","","","","","","","","","","","","","","","","","","","","","",""
"2837","","<div style=""width:500px;"">
  <p>How much control did you have over the ball?</p>
  </div>","1","html-slider-response","55","799048","0.0-7.0-2.8","79","1","2025-07-30 09:14:30","36c45c0696341be0efffe67d72a12abb","41.113.3.5","Mozilla/5.0 (Windows NT 10.0; Win64; x64) AppleWebKit/537.36 (KHTML, like Gecko) Chrome/138.0.0.0 Safari/537.36","WebKit","Chrome","138.0.0.0","Windows","10.0","https://app.prolific.com/","en-ZA,en-GB;q=0.9,en-US;q=0.8,en;q=0.7,zu;q=0.6","5f3287b83428cb05746e2214","683dba9a53627eb9ab41b36a","6889e25a283d8db032df61af","0","5f3287b83428cb05746e2214","0","2025-07-30T09:27:59.837Z","","","","ControlQ","","","","","","","","","","","50","","","","","","","","","","","","","","","","","","","","","","","","","","",""
"3973","","<div style=""width:500px;"">
  <p>How would you describe your current emotional state?</p>
  </div>","78","html-slider-response","56","803027","0.0-7.0-3.8","79","1","2025-07-30 09:14:30","36c45c0696341be0efffe67d72a12abb","41.113.3.5","Mozilla/5.0 (Windows NT 10.0; Win64; x64) AppleWebKit/537.36 (KHTML, like Gecko) Chrome/138.0.0.0 Safari/537.36","WebKit","Chrome","138.0.0.0","Windows","10.0","https://app.prolific.com/","en-ZA,en-GB;q=0.9,en-US;q=0.8,en;q=0.7,zu;q=0.6","5f3287b83428cb05746e2214","683dba9a53627eb9ab41b36a","6889e25a283d8db032df61af","0","5f3287b83428cb05746e2214","0","2025-07-30T09:28:03.817Z","","","","StressQ","","","","","","","","","","","50","","","","","","","","","","","","","","","","","","","","","","","","","","",""
"3551","","<div style=""width:500px;"">
  <p>What best describes how you currently feel?</p>
  </div>","57","html-slider-response","57","806586","0.0-7.0-4.8","79","1","2025-07-30 09:14:30","36c45c0696341be0efffe67d72a12abb","41.113.3.5","Mozilla/5.0 (Windows NT 10.0; Win64; x64) AppleWebKit/537.36 (KHTML, like Gecko) Chrome/138.0.0.0 Safari/537.36","WebKit","Chrome","138.0.0.0","Windows","10.0","https://app.prolific.com/","en-ZA,en-GB;q=0.9,en-US;q=0.8,en;q=0.7,zu;q=0.6","5f3287b83428cb05746e2214","683dba9a53627eb9ab41b36a","6889e25a283d8db032df61af","0","5f3287b83428cb05746e2214","0","2025-07-30T09:28:07.375Z","","","","MotivationQ","","","","","","","","","","","50","","","","","","","","","","","","","","","","","","","","","","","","","","",""
"","","","","ctl-task-cpt","58","857742","0.0-7.0-0.9","79","1","2025-07-30 09:14:30","36c45c0696341be0efffe67d72a12abb","41.113.3.5","Mozilla/5.0 (Windows NT 10.0; Win64; x64) AppleWebKit/537.36 (KHTML, like Gecko) Chrome/138.0.0.0 Safari/537.36","WebKit","Chrome","138.0.0.0","Windows","10.0","https://app.prolific.com/","en-ZA,en-GB;q=0.9,en-US;q=0.8,en;q=0.7,zu;q=0.6","5f3287b83428cb05746e2214","683dba9a53627eb9ab41b36a","6889e25a283d8db032df61af","0","5f3287b83428cb05746e2214","0","2025-07-30T09:28:58.531Z","","","","","","","","","","","","","","","","win-only","1","g1:NE,g2:SW","0.5","10","0","817829.9","1755.9","6768.6","48115.4","1","4","4","6","2","4","4","20","16","0.15151515151515152","1258","3000","2010","[""down"",""left""]","{""num_key_presses"":10,""num_perfect"":5,""num_errors"":0,""num_randdir"":5,""num_randdir_good_moves"":3,""num_whilered"":0,""num_whileblue"":0,""num_blue"":0,""num_good_moves"":8}","[302.22232142857143,301.12857142857143,5.2,302.22232142857143,301.12857142857143,126.7,302.22232142857143,301.12857142857143,240.1,302.22232142857143,301.12857142857143,376.9,285.22232142857143,321.12857142857143,503.7,172.22232142857143,433.12857142857143,641,147.22232142857143,479.12857142857143,742.7,126.22232142857143,516.1285714285714,857.9,83.22232142857143,535.1285714285714,979.3,78.22232142857143,538.1285714285714,1079.6,65.22232142857143,540.1285714285714,1206.5,64.22232142857143,540.1285714285714,1309.3,64.22232142857143,540.1285714285714,1428.3,64.22232142857143,540.1285714285714,1531.3,94.22232142857143,538.1285714285714,1684.8,265.22232142857143,544.1285714285714,1801.1,505.22232142857143,564.1285714285714,1941.9,666.2223214285714,584.1285714285714,2107.2,728.2223214285714,586.1285714285714,2208,779.2223214285714,591.1285714285714,2327.9,780.2223214285714,591.1285714285714,2451.1,780.2223214285714,590.1285714285714,2554.2,781.2223214285714,587.1285714285714,2664.8,781.2223214285714,587.1285714285714,2779.9,781.2223214285714,587.1285714285714,2892.1,781.2223214285714,587.1285714285714,3005.4,781.2223214285714,587.1285714285714,3125.9,781.2223214285714,587.1285714285714,3235.1,781.2223214285714,587.1285714285714,3357.9,781.2223214285714,587.1285714285714,3473.1,781.2223214285714,587.1285714285714,3584,781.2223214285714,587.1285714285714,3691.5,781.2223214285714,587.1285714285714,3804.2,781.2223214285714,587.1285714285714,3918.5,781.2223214285714,587.1285714285714,4028.3,781.2223214285714,587.1285714285714,4149.2,781.2223214285714,587.1285714285714,4260.9,781.2223214285714,587.1285714285714,4370.9,781.2223214285714,587.1285714285714,4481.8,781.2223214285714,587.1285714285714,4595,781.2223214285714,587.1285714285714,4700.6,781.2223214285714,587.1285714285714,4837.5,781.2223214285714,587.1285714285714,4942.9]","[1546.7,1546.7,1000,0,546.8,""smooth"",""down"",""down"",""good_move"",5160,3611.1,3118,1548.9,493.1,""smooth"",""down"",""down"",""good_move"",8245.8,3084.1,2597.5,5162,486.4,""smooth"",""down"",""down"",""good_move"",11621.6,3373.9,2766.7,8247.7,607.2,""smooth"",""left"",""left"",""good_move"",17736.9,6111.3,2031.7,11625.7,4079.5,""oops"",""left"",""right"",""bad_move"",20738.5,2999.7,2445.3,17738.8,554.4,""oops"",""left"",""left"",""good_move"",25969,5220.9,2165.6,20748.4,3055,""oops"",""left"",""right"",""bad_move"",29015.9,3044.3,2219.6,25971.7,824.6,""oops"",""left"",""left"",""good_move"",34727.1,5708.5,3272.7,29018.6,2435.8,""smooth"",""left"",""left"",""good_move"",40728.4,6000,2653.8,34728.5,3346.1,""oops"",""left"",""left"",""good_move""]"
"3621","","<div style=""width:500px;"">
  <p>What determined the result of this run?</p>
  </div>","60","html-slider-response","59","861365","0.0-7.0-1.9","79","1","2025-07-30 09:14:30","36c45c0696341be0efffe67d72a12abb","41.113.3.5","Mozilla/5.0 (Windows NT 10.0; Win64; x64) AppleWebKit/537.36 (KHTML, like Gecko) Chrome/138.0.0.0 Safari/537.36","WebKit","Chrome","138.0.0.0","Windows","10.0","https://app.prolific.com/","en-ZA,en-GB;q=0.9,en-US;q=0.8,en;q=0.7,zu;q=0.6","5f3287b83428cb05746e2214","683dba9a53627eb9ab41b36a","6889e25a283d8db032df61af","0","5f3287b83428cb05746e2214","0","2025-07-30T09:29:02.155Z","","","","AttribQ","","","","","","","","","","","50","","","","","","","","","","","","","","","","","","","","","","","","","","",""
"2840","","<div style=""width:500px;"">
  <p>How much control did you have over the ball?</p>
  </div>","35","html-slider-response","60","864211","0.0-7.0-2.9","79","1","2025-07-30 09:14:30","36c45c0696341be0efffe67d72a12abb","41.113.3.5","Mozilla/5.0 (Windows NT 10.0; Win64; x64) AppleWebKit/537.36 (KHTML, like Gecko) Chrome/138.0.0.0 Safari/537.36","WebKit","Chrome","138.0.0.0","Windows","10.0","https://app.prolific.com/","en-ZA,en-GB;q=0.9,en-US;q=0.8,en;q=0.7,zu;q=0.6","5f3287b83428cb05746e2214","683dba9a53627eb9ab41b36a","6889e25a283d8db032df61af","0","5f3287b83428cb05746e2214","0","2025-07-30T09:29:05.000Z","","","","ControlQ","","","","","","","","","","","50","","","","","","","","","","","","","","","","","","","","","","","","","","",""
"4307","","<div style=""width:500px;"">
  <p>How would you describe your current emotional state?</p>
  </div>","81","html-slider-response","61","868522","0.0-7.0-3.9","79","1","2025-07-30 09:14:30","36c45c0696341be0efffe67d72a12abb","41.113.3.5","Mozilla/5.0 (Windows NT 10.0; Win64; x64) AppleWebKit/537.36 (KHTML, like Gecko) Chrome/138.0.0.0 Safari/537.36","WebKit","Chrome","138.0.0.0","Windows","10.0","https://app.prolific.com/","en-ZA,en-GB;q=0.9,en-US;q=0.8,en;q=0.7,zu;q=0.6","5f3287b83428cb05746e2214","683dba9a53627eb9ab41b36a","6889e25a283d8db032df61af","0","5f3287b83428cb05746e2214","0","2025-07-30T09:29:09.312Z","","","","StressQ","","","","","","","","","","","50","","","","","","","","","","","","","","","","","","","","","","","","","","",""
"3804","","<div style=""width:500px;"">
  <p>What best describes how you currently feel?</p>
  </div>","58","html-slider-response","62","872332","0.0-7.0-4.9","79","1","2025-07-30 09:14:30","36c45c0696341be0efffe67d72a12abb","41.113.3.5","Mozilla/5.0 (Windows NT 10.0; Win64; x64) AppleWebKit/537.36 (KHTML, like Gecko) Chrome/138.0.0.0 Safari/537.36","WebKit","Chrome","138.0.0.0","Windows","10.0","https://app.prolific.com/","en-ZA,en-GB;q=0.9,en-US;q=0.8,en;q=0.7,zu;q=0.6","5f3287b83428cb05746e2214","683dba9a53627eb9ab41b36a","6889e25a283d8db032df61af","0","5f3287b83428cb05746e2214","0","2025-07-30T09:29:13.121Z","","","","MotivationQ","","","","","","","","","","","50","","","","","","","","","","","","","","","","","","","","","","","","","","",""
"","","","","ctl-task-cpt","63","965789","0.0-7.0-0.10","79","1","2025-07-30 09:14:30","36c45c0696341be0efffe67d72a12abb","41.113.3.5","Mozilla/5.0 (Windows NT 10.0; Win64; x64) AppleWebKit/537.36 (KHTML, like Gecko) Chrome/138.0.0.0 Safari/537.36","WebKit","Chrome","138.0.0.0","Windows","10.0","https://app.prolific.com/","en-ZA,en-GB;q=0.9,en-US;q=0.8,en;q=0.7,zu;q=0.6","5f3287b83428cb05746e2214","683dba9a53627eb9ab41b36a","6889e25a283d8db032df61af","0","5f3287b83428cb05746e2214","0","2025-07-30T09:30:46.578Z","","","","","","","","","","","","","","","","win-only","2","g1:SE,g2:NW","0.6","11","0","883576.5","1636.4","6656.5","90409.3","1","4","8","6","2","8","8","28","20","0.21212121212121213","1539.3","3000","875","[""left"",""up""]","{""num_key_presses"":18,""num_perfect"":11,""num_errors"":0,""num_randdir"":7,""num_randdir_good_moves"":1,""num_whilered"":0,""num_whileblue"":0,""num_blue"":3,""num_good_moves"":12}","[296.22232142857143,297.12857142857143,2.2,296.22232142857143,297.12857142857143,118.4,296.22232142857143,297.12857142857143,218.5,296.22232142857143,297.12857142857143,324.5,305.22232142857143,301.12857142857143,469.7,305.22232142857143,320.12857142857143,599.6,213.22232142857143,234.12857142857143,720.1,155.22232142857143,168.12857142857143,859.1,155.22232142857143,161.12857142857143,969,-0.7776785714285737,97.12857142857143,1089.1,-0.7776785714285737,94.12857142857143,1206.8,17.222321428571426,83.12857142857143,1334.7,38.222321428571426,74.12857142857143,1468.9,38.222321428571426,74.12857142857143,1597.2,38.222321428571426,74.12857142857143,1732.2,38.222321428571426,74.12857142857143,1832.4,38.222321428571426,74.12857142857143,1942.4,38.222321428571426,74.12857142857143,2084.8,40.222321428571426,75.12857142857143,2199.3,40.222321428571426,76.12857142857143,2304.3,40.222321428571426,78.12857142857143,2417.7,130.22232142857143,127.12857142857143,2519.6,372.22232142857143,199.12857142857143,2665.5,569.2223214285714,232.12857142857143,2795.4,742.2223214285714,267.12857142857143,2898.4,749.2223214285714,267.12857142857143,3014.1,749.2223214285714,267.12857142857143,3133.8,749.2223214285714,267.12857142857143,3246.9,749.2223214285714,267.12857142857143,3349.6,749.2223214285714,267.12857142857143,3469.1,749.2223214285714,267.12857142857143,3572.9,749.2223214285714,267.12857142857143,3677.8,749.2223214285714,267.12857142857143,3798.6,749.2223214285714,267.12857142857143,3913.6,749.2223214285714,267.12857142857143,4037.3,749.2223214285714,267.12857142857143,4153.8,749.2223214285714,267.12857142857143,4253.8,749.2223214285714,267.12857142857143,4354.3,749.2223214285714,267.12857142857143,4464.8,749.2223214285714,267.12857142857143,4583.7,749.2223214285714,267.12857142857143,4694.8,749.2223214285714,267.12857142857143,4807.4,749.2223214285714,267.12857142857143,4924.9]","[1646.9,1646.9,1000,0,646.9,""smooth"",""left"",""left"",""good_move"",10057.1,8407.1,2453.7,7045.5,557.9,""oops"",""left"",""left"",""good_move"",15083,5024.6,1919.8,10058.4,3104.8,""smooth"",""up"",""up"",""good_move"",24704.6,9619.1,3472.9,20720.6,511.1,""oops"",""up"",""right"",""bad_move"",27754.2,3038.5,2321.9,24715.7,716.6,""smooth"",""up"",""up"",""good_move"",32885.3,5126.3,3269.7,27759,1856.6,""oops"",""up"",""right"",""bad_move"",35741.9,2850.7,2085.7,32891.2,765,""smooth"",""left"",""left"",""good_move"",39738.2,3986.4,2672.4,35751.8,1314,""smooth"",""left"",""left"",""good_move"",44335.4,4595.1,2501.1,39740.3,2094,""smooth"",""left"",""left"",""good_move"",49630,5292.5,2259.3,44337.7,3033,""oops"",""up"",""down"",""bad_move"",52341,2709.2,2100.3,49631.8,608.9,""oops"",""up"",""down"",""bad_move"",55206.2,2861.2,2334.4,52345,526.8,""oops"",""up"",""down"",""bad_move"",58149,2929,2420.3,55220,508.8,""smooth"",""up"",""up"",""good_move"",63249.6,5094.1,2834,58155.5,2260.1,""oops"",""up"",""down"",""bad_move"",66131.3,2879.8,2282.9,63251.5,596.9,""smooth"",""up"",""up"",""good_move"",70702.6,4569.7,2466.6,66133.3,2103,""smooth"",""up"",""up"",""good_move"",75086.2,4380.4,3165.4,70705.8,1215,""smooth"",""up"",""up"",""good_move"",83166.9,8078.4,2483.4,80170.6,512.9,""smooth"",""up"",""up"",""good_move""]"
"2355","","<div style=""width:500px;"">
  <p>What determined the result of this run?</p>
  </div>","21","html-slider-response","64","968148","0.0-7.0-1.10","79","1","2025-07-30 09:14:30","36c45c0696341be0efffe67d72a12abb","41.113.3.5","Mozilla/5.0 (Windows NT 10.0; Win64; x64) AppleWebKit/537.36 (KHTML, like Gecko) Chrome/138.0.0.0 Safari/537.36","WebKit","Chrome","138.0.0.0","Windows","10.0","https://app.prolific.com/","en-ZA,en-GB;q=0.9,en-US;q=0.8,en;q=0.7,zu;q=0.6","5f3287b83428cb05746e2214","683dba9a53627eb9ab41b36a","6889e25a283d8db032df61af","0","5f3287b83428cb05746e2214","0","2025-07-30T09:30:48.937Z","","","","AttribQ","","","","","","","","","","","50","","","","","","","","","","","","","","","","","","","","","","","","","","",""
"3085","","<div style=""width:500px;"">
  <p>How much control did you have over the ball?</p>
  </div>","11","html-slider-response","65","971237","0.0-7.0-2.10","79","1","2025-07-30 09:14:30","36c45c0696341be0efffe67d72a12abb","41.113.3.5","Mozilla/5.0 (Windows NT 10.0; Win64; x64) AppleWebKit/537.36 (KHTML, like Gecko) Chrome/138.0.0.0 Safari/537.36","WebKit","Chrome","138.0.0.0","Windows","10.0","https://app.prolific.com/","en-ZA,en-GB;q=0.9,en-US;q=0.8,en;q=0.7,zu;q=0.6","5f3287b83428cb05746e2214","683dba9a53627eb9ab41b36a","6889e25a283d8db032df61af","0","5f3287b83428cb05746e2214","0","2025-07-30T09:30:52.026Z","","","","ControlQ","","","","","","","","","","","50","","","","","","","","","","","","","","","","","","","","","","","","","","",""
"2644","","<div style=""width:500px;"">
  <p>How would you describe your current emotional state?</p>
  </div>","87","html-slider-response","66","973885","0.0-7.0-3.10","79","1","2025-07-30 09:14:30","36c45c0696341be0efffe67d72a12abb","41.113.3.5","Mozilla/5.0 (Windows NT 10.0; Win64; x64) AppleWebKit/537.36 (KHTML, like Gecko) Chrome/138.0.0.0 Safari/537.36","WebKit","Chrome","138.0.0.0","Windows","10.0","https://app.prolific.com/","en-ZA,en-GB;q=0.9,en-US;q=0.8,en;q=0.7,zu;q=0.6","5f3287b83428cb05746e2214","683dba9a53627eb9ab41b36a","6889e25a283d8db032df61af","0","5f3287b83428cb05746e2214","0","2025-07-30T09:30:54.674Z","","","","StressQ","","","","","","","","","","","50","","","","","","","","","","","","","","","","","","","","","","","","","","",""
"3813","","<div style=""width:500px;"">
  <p>What best describes how you currently feel?</p>
  </div>","66","html-slider-response","67","977703","0.0-7.0-4.10","79","1","2025-07-30 09:14:30","36c45c0696341be0efffe67d72a12abb","41.113.3.5","Mozilla/5.0 (Windows NT 10.0; Win64; x64) AppleWebKit/537.36 (KHTML, like Gecko) Chrome/138.0.0.0 Safari/537.36","WebKit","Chrome","138.0.0.0","Windows","10.0","https://app.prolific.com/","en-ZA,en-GB;q=0.9,en-US;q=0.8,en;q=0.7,zu;q=0.6","5f3287b83428cb05746e2214","683dba9a53627eb9ab41b36a","6889e25a283d8db032df61af","0","5f3287b83428cb05746e2214","0","2025-07-30T09:30:58.493Z","","","","MotivationQ","","","","","","","","","","","50","","","","","","","","","","","","","","","","","","","","","","","","","","",""
"","","","","ctl-task-cpt","68","1019054","0.0-7.0-0.11","79","1","2025-07-30 09:14:30","36c45c0696341be0efffe67d72a12abb","41.113.3.5","Mozilla/5.0 (Windows NT 10.0; Win64; x64) AppleWebKit/537.36 (KHTML, like Gecko) Chrome/138.0.0.0 Safari/537.36","WebKit","Chrome","138.0.0.0","Windows","10.0","https://app.prolific.com/","en-ZA,en-GB;q=0.9,en-US;q=0.8,en;q=0.7,zu;q=0.6","5f3287b83428cb05746e2214","683dba9a53627eb9ab41b36a","6889e25a283d8db032df61af","0","5f3287b83428cb05746e2214","0","2025-07-30T09:31:39.843Z","","","","","","","","","","","","","","","","win-only","1","g1:NE,g2:SW","0.7","12","0","988946.9","1705.4","6749.6","38300.9","1","4","4","6","2","4","4","32","28","0.24242424242424243","1248.6","3000","2335","[""down"",""left""]","{""num_key_presses"":6,""num_perfect"":6,""num_errors"":0,""num_randdir"":0,""num_randdir_good_moves"":0,""num_whilered"":0,""num_whileblue"":0,""num_blue"":3,""num_good_moves"":6}","[297.22232142857143,295.12857142857143,6.9,297.22232142857143,295.12857142857143,120.8,297.22232142857143,295.12857142857143,224.4,297.22232142857143,295.12857142857143,346.7,278.22232142857143,291.12857142857143,474.3,193.22232142857143,399.12857142857143,589.9,132.22232142857143,522.1285714285714,717.5,107.22232142857143,560.1285714285714,826.6,87.22232142857143,565.1285714285714,936.2,87.22232142857143,565.1285714285714,1039.4,79.22232142857143,556.1285714285714,1148.5,77.22232142857143,555.1285714285714,1292.3,77.22232142857143,555.1285714285714,1420.6,77.22232142857143,553.1285714285714,1553.3,81.22232142857143,549.1285714285714,1689.2,199.22232142857143,549.1285714285714,1811.9,413.22232142857143,546.1285714285714,1926.1,604.2223214285714,546.1285714285714,2036.9,611.2223214285714,543.1285714285714,2137.8,614.2223214285714,539.1285714285714,2238.5,645.2223214285714,548.1285714285714,2368.7,645.2223214285714,548.1285714285714,2500.6,645.2223214285714,548.1285714285714,2616.6,645.2223214285714,548.1285714285714,2728.2,645.2223214285714,548.1285714285714,2845.1,645.2223214285714,548.1285714285714,2956.5,645.2223214285714,548.1285714285714,3061.7,645.2223214285714,548.1285714285714,3169.9,645.2223214285714,548.1285714285714,3306.2,685.2223214285714,527.1285714285714,3426.3,717.2223214285714,503.12857142857143,3535.6,786.2223214285714,474.12857142857143,3667.9,845.2223214285714,453.12857142857143,3778.1,918.2223214285714,426.12857142857143,3922.2,946.2223214285714,419.12857142857143,4028.8,978.2223214285714,402.12857142857143,4161.7,978.2223214285714,402.12857142857143,4269.4,978.2223214285714,402.12857142857143,4399.4,978.2223214285714,402.12857142857143,4506.5,978.2223214285714,402.12857142857143,4608.5,978.2223214285714,402.12857142857143,4718.1,978.2223214285714,402.12857142857143,4818.5,978.2223214285714,402.12857142857143,4931.1]","[5094.1,5094.1,2460.9,2046.2,587.1,""smooth"",""down"",""down"",""good_move"",7631.1,2534.8,2030.5,5096.3,504.3,""smooth"",""down"",""down"",""good_move"",10656.1,3020.9,2493.6,7635.3,527.3,""smooth"",""down"",""down"",""good_move"",13838.4,3178.9,2643.2,10659.5,535.7,""smooth"",""left"",""left"",""good_move"",26017.5,12155.1,2590.9,22883.3,543.4,""smooth"",""left"",""left"",""good_move"",31039,5013.7,2598.6,26025.3,2415.2,""smooth"",""left"",""left"",""good_move""]"
"4168","","<div style=""width:500px;"">
  <p>What determined the result of this run?</p>
  </div>","100","html-slider-response","69","1023225","0.0-7.0-1.11","79","1","2025-07-30 09:14:30","36c45c0696341be0efffe67d72a12abb","41.113.3.5","Mozilla/5.0 (Windows NT 10.0; Win64; x64) AppleWebKit/537.36 (KHTML, like Gecko) Chrome/138.0.0.0 Safari/537.36","WebKit","Chrome","138.0.0.0","Windows","10.0","https://app.prolific.com/","en-ZA,en-GB;q=0.9,en-US;q=0.8,en;q=0.7,zu;q=0.6","5f3287b83428cb05746e2214","683dba9a53627eb9ab41b36a","6889e25a283d8db032df61af","0","5f3287b83428cb05746e2214","0","2025-07-30T09:31:44.015Z","","","","AttribQ","","","","","","","","","","","50","","","","","","","","","","","","","","","","","","","","","","","","","","",""
"4121","","<div style=""width:500px;"">
  <p>How much control did you have over the ball?</p>
  </div>","100","html-slider-response","70","1027351","0.0-7.0-2.11","79","1","2025-07-30 09:14:30","36c45c0696341be0efffe67d72a12abb","41.113.3.5","Mozilla/5.0 (Windows NT 10.0; Win64; x64) AppleWebKit/537.36 (KHTML, like Gecko) Chrome/138.0.0.0 Safari/537.36","WebKit","Chrome","138.0.0.0","Windows","10.0","https://app.prolific.com/","en-ZA,en-GB;q=0.9,en-US;q=0.8,en;q=0.7,zu;q=0.6","5f3287b83428cb05746e2214","683dba9a53627eb9ab41b36a","6889e25a283d8db032df61af","0","5f3287b83428cb05746e2214","0","2025-07-30T09:31:48.140Z","","","","ControlQ","","","","","","","","","","","50","","","","","","","","","","","","","","","","","","","","","","","","","","",""
"3219","","<div style=""width:500px;"">
  <p>How would you describe your current emotional state?</p>
  </div>","90","html-slider-response","71","1030574","0.0-7.0-3.11","79","1","2025-07-30 09:14:30","36c45c0696341be0efffe67d72a12abb","41.113.3.5","Mozilla/5.0 (Windows NT 10.0; Win64; x64) AppleWebKit/537.36 (KHTML, like Gecko) Chrome/138.0.0.0 Safari/537.36","WebKit","Chrome","138.0.0.0","Windows","10.0","https://app.prolific.com/","en-ZA,en-GB;q=0.9,en-US;q=0.8,en;q=0.7,zu;q=0.6","5f3287b83428cb05746e2214","683dba9a53627eb9ab41b36a","6889e25a283d8db032df61af","0","5f3287b83428cb05746e2214","0","2025-07-30T09:31:51.363Z","","","","StressQ","","","","","","","","","","","50","","","","","","","","","","","","","","","","","","","","","","","","","","",""
"2943","","<div style=""width:500px;"">
  <p>What best describes how you currently feel?</p>
  </div>","84","html-slider-response","72","1033521","0.0-7.0-4.11","79","1","2025-07-30 09:14:30","36c45c0696341be0efffe67d72a12abb","41.113.3.5","Mozilla/5.0 (Windows NT 10.0; Win64; x64) AppleWebKit/537.36 (KHTML, like Gecko) Chrome/138.0.0.0 Safari/537.36","WebKit","Chrome","138.0.0.0","Windows","10.0","https://app.prolific.com/","en-ZA,en-GB;q=0.9,en-US;q=0.8,en;q=0.7,zu;q=0.6","5f3287b83428cb05746e2214","683dba9a53627eb9ab41b36a","6889e25a283d8db032df61af","0","5f3287b83428cb05746e2214","0","2025-07-30T09:31:54.311Z","","","","MotivationQ","","","","","","","","","","","50","","","","","","","","","","","","","","","","","","","","","","","","","","",""
"","","","","ctl-task-cpt","73","1069360","0.0-7.0-0.12","79","1","2025-07-30 09:14:30","36c45c0696341be0efffe67d72a12abb","41.113.3.5","Mozilla/5.0 (Windows NT 10.0; Win64; x64) AppleWebKit/537.36 (KHTML, like Gecko) Chrome/138.0.0.0 Safari/537.36","WebKit","Chrome","138.0.0.0","Windows","10.0","https://app.prolific.com/","en-ZA,en-GB;q=0.9,en-US;q=0.8,en;q=0.7,zu;q=0.6","5f3287b83428cb05746e2214","683dba9a53627eb9ab41b36a","6889e25a283d8db032df61af","0","5f3287b83428cb05746e2214","0","2025-07-30T09:32:30.150Z","","","","","","","","","","","","","","","","win-only","3","g1:SW,g2:NE","0.8","13","0","1044764.5","1656.5","6671.6","32793.6","1","4","8","6","2","8","8","40","32","0.30303030303030304","1215.9","3000","2450","[""up"",""right""]","{""num_key_presses"":6,""num_perfect"":5,""num_errors"":0,""num_randdir"":1,""num_randdir_good_moves"":1,""num_whilered"":0,""num_whileblue"":0,""num_blue"":1,""num_good_moves"":6}","[296.22232142857143,298.12857142857143,1.3,296.22232142857143,298.12857142857143,114.3,296.22232142857143,298.12857142857143,265.4,287.22232142857143,314.12857142857143,394,305.22232142857143,301.12857142857143,500,538.2223214285714,184.12857142857143,603.8,575.2223214285714,111.12857142857143,706.3,575.2223214285714,104.12857142857143,862.2,554.2223214285714,70.12857142857143,980.1,552.2223214285714,64.12857142857143,1126.7,552.2223214285714,64.12857142857143,1234.5,552.2223214285714,64.12857142857143,1371.6,552.2223214285714,64.12857142857143,1493.9,552.2223214285714,64.12857142857143,1631.8,548.2223214285714,89.12857142857143,1751.2,644.2223214285714,150.12857142857143,1871.4,782.2223214285714,211.12857142857143,1981.6,807.2223214285714,217.12857142857143,2091.6,888.2223214285714,247.12857142857143,2208.2,888.2223214285714,248.12857142857143,2341.7,889.2223214285714,248.12857142857143,2474.5,889.2223214285714,248.12857142857143,2604.5,889.2223214285714,248.12857142857143,2724.7,889.2223214285714,248.12857142857143,2829.1,889.2223214285714,248.12857142857143,2973.1,889.2223214285714,248.12857142857143,3095.1,889.2223214285714,248.12857142857143,3219.5,889.2223214285714,248.12857142857143,3358.5,889.2223214285714,248.12857142857143,3486.6,889.2223214285714,248.12857142857143,3608.2,889.2223214285714,248.12857142857143,3726.3,889.2223214285714,248.12857142857143,3869.2,889.2223214285714,248.12857142857143,4007.9,889.2223214285714,248.12857142857143,4125.7,889.2223214285714,248.12857142857143,4250,889.2223214285714,248.12857142857143,4375.4,889.2223214285714,248.12857142857143,4478.4,889.2223214285714,248.12857142857143,4605,889.2223214285714,248.12857142857143,4735.7,889.2223214285714,248.12857142857143,4868.2]","[1809.9,1809.9,1000,0,809.9,""smooth"",""right"",""right"",""good_move"",5509.4,3696.6,3121,1812.8,575.6,""smooth"",""right"",""right"",""good_move"",8810.4,3291.4,2819,5519,472.4,""smooth"",""right"",""right"",""good_move"",11575.5,2752.8,2155.9,8822.8,596.9,""smooth"",""up"",""up"",""good_move"",17438.4,5860.8,2525.2,11577.6,3335.6,""oops"",""up"",""up"",""good_move"",25548.2,8084.8,2367,22576.9,604.3,""smooth"",""up"",""up"",""good_move""]"
"4653","","<div style=""width:500px;"">
  <p>What determined the result of this run?</p>
  </div>","82","html-slider-response","74","1074017","0.0-7.0-1.12","79","1","2025-07-30 09:14:30","36c45c0696341be0efffe67d72a12abb","41.113.3.5","Mozilla/5.0 (Windows NT 10.0; Win64; x64) AppleWebKit/537.36 (KHTML, like Gecko) Chrome/138.0.0.0 Safari/537.36","WebKit","Chrome","138.0.0.0","Windows","10.0","https://app.prolific.com/","en-ZA,en-GB;q=0.9,en-US;q=0.8,en;q=0.7,zu;q=0.6","5f3287b83428cb05746e2214","683dba9a53627eb9ab41b36a","6889e25a283d8db032df61af","0","5f3287b83428cb05746e2214","0","2025-07-30T09:32:34.806Z","","","","AttribQ","","","","","","","","","","","50","","","","","","","","","","","","","","","","","","","","","","","","","","",""
"3339","","<div style=""width:500px;"">
  <p>How much control did you have over the ball?</p>
