"rt","response_timestamp","stimulus","response","trial_type","trial_index","time_elapsed","internal_node_id","run_id","condition","recorded_at","source_code_version","ip","user_agent","device","browser","browser_version","platform","platform_version","referer","accept_language","PROLIFIC_PID","STUDY_ID","SESSION_ID","BATCH","prolific_id","batch","realtime","success","question_order","question_id","eventType","responses","item_order","radio_event_ids","radio_event_times","key_event_times","mouse_event_times","straightlining","zigzagging","honeypot","view_history","slider_start","which_type","canvas_config","goals_layout","control_level","trial_number","tutorial_trial_number","trial_start_time","phase1_start_time","phase2_start_time","phase3_start_time","goal_1_value","goal_1_distance","goal_2_value","goal_2_distance","goal_selected","outcome","outcome_total","participant_final_score","participant_initial_score","participant_final_score_prop","goal_choice_rt","allocated_time","allocated_time_remaining","goal_direction","counts","mouse_movements","key_presses"
"3759","1754494751467","<p style='font-size:40px;line-height:1.25'><strong>Welcome to the experiment!</strong></p><p style='font-size:1.1em;line-height:1.25'>Thank you for participanting in our experiment again! You will be asked to play the Dysfunctional Ball Game again. We will briefly recap the rules before we start.</p><p style='font-size:1.1em;line-height:1.25'>Press <strong>Next</strong> to continue.</p>","0","custom-html-button-response","0","3764","0.0-0.0","210","1","2025-08-06 15:39:05","36c45c0696341be0efffe67d72a12abb","41.13.96.189","Mozilla/5.0 (Windows NT 10.0; Win64; x64) AppleWebKit/537.36 (KHTML, like Gecko) Chrome/138.0.0.0 Safari/537.36","WebKit","Chrome","138.0.0.0","Windows","10.0","https://app.prolific.com/","en-US,en;q=0.9","5f60f6b65bd9c0022dcf9ace","687a1a965b9f5b85a264363e","6893770b1dd522853c83131b","1","5f60f6b65bd9c0022dcf9ace","1","2025-08-06T15:39:11.471Z","","","","","","","","","","","","","","","","","","","","","","","","","","","","","","","","","","","","","","","","","",""
"5975","","","","fullscreen","1","10760","0.0-1.0","210","1","2025-08-06 15:39:05","36c45c0696341be0efffe67d72a12abb","41.13.96.189","Mozilla/5.0 (Windows NT 10.0; Win64; x64) AppleWebKit/537.36 (KHTML, like Gecko) Chrome/138.0.0.0 Safari/537.36","WebKit","Chrome","138.0.0.0","Windows","10.0","https://app.prolific.com/","en-US,en;q=0.9","5f60f6b65bd9c0022dcf9ace","687a1a965b9f5b85a264363e","6893770b1dd522853c83131b","1","5f60f6b65bd9c0022dcf9ace","1","","true","","","","","","","","","","","","","","","","","","","","","","","","","","","","","","","","","","","","","","","","",""
"6368","1754494764835"," <p style='font-size:1.1em;line-height:1.25'>Thank you for closing all other tabs.</p><p style='font-size:1.1em;line-height:1.25'>We will now invite you to fill in some questionnaires, before starting the game.<br>This will take about 5 minutes.<br></p><p style='font-size:1.1em;line-height:1.25'>Press the <strong>Next</strong> button to continue.</p>","0","custom-html-button-response","2","17130","0.0-2.0","210","1","2025-08-06 15:39:05","36c45c0696341be0efffe67d72a12abb","41.13.96.189","Mozilla/5.0 (Windows NT 10.0; Win64; x64) AppleWebKit/537.36 (KHTML, like Gecko) Chrome/138.0.0.0 Safari/537.36","WebKit","Chrome","138.0.0.0","Windows","10.0","https://app.prolific.com/","en-US,en;q=0.9","5f60f6b65bd9c0022dcf9ace","687a1a965b9f5b85a264363e","6893770b1dd522853c83131b","1","5f60f6b65bd9c0022dcf9ace","1","2025-08-06T15:39:24.836Z","","","","","","","","","","","","","","","","","","","","","","","","","","","","","","","","","","","","","","","","","",""
"4276","","","{""assigned_sex"":""female""}","survey-multi-choice","3","21411","0.0-3.0-0.0","210","1","2025-08-06 15:39:05","36c45c0696341be0efffe67d72a12abb","41.13.96.189","Mozilla/5.0 (Windows NT 10.0; Win64; x64) AppleWebKit/537.36 (KHTML, like Gecko) Chrome/138.0.0.0 Safari/537.36","WebKit","Chrome","138.0.0.0","Windows","10.0","https://app.prolific.com/","en-US,en;q=0.9","5f60f6b65bd9c0022dcf9ace","687a1a965b9f5b85a264363e","6893770b1dd522853c83131b","1","5f60f6b65bd9c0022dcf9ace","1","","","[0]","0","demographics","","","","","","","","","","","","","","","","","","","","","","","","","","","","","","","","","","","","","",""
"8625","1754494777743","<p style='font-size:1.1em;line-height:1.25'>In the following, we will perform a baseline assessment. This means that we will ask you a few questions relating to your experiences over the past month.<br></p><p style='font-size:1.1em;line-height:1.25'>Press the <strong>Next</strong> button to continue.</p>","0","custom-html-button-response","4","30037","0.0-4.0-0.0","210","1","2025-08-06 15:39:05","36c45c0696341be0efffe67d72a12abb","41.13.96.189","Mozilla/5.0 (Windows NT 10.0; Win64; x64) AppleWebKit/537.36 (KHTML, like Gecko) Chrome/138.0.0.0 Safari/537.36","WebKit","Chrome","138.0.0.0","Windows","10.0","https://app.prolific.com/","en-US,en;q=0.9","5f60f6b65bd9c0022dcf9ace","687a1a965b9f5b85a264363e","6893770b1dd522853c83131b","1","5f60f6b65bd9c0022dcf9ace","1","2025-08-06T15:39:37.744Z","","","","","","","","","","","","","","","","","","","","","","","","","","","","","","","","","","","","","","","","","",""
"149886.79999995232","","","","survey-template","5","179934","0.0-4.0-1.0","210","1","2025-08-06 15:39:05","36c45c0696341be0efffe67d72a12abb","41.13.96.189","Mozilla/5.0 (Windows NT 10.0; Win64; x64) AppleWebKit/537.36 (KHTML, like Gecko) Chrome/138.0.0.0 Safari/537.36","WebKit","Chrome","138.0.0.0","Windows","10.0","https://app.prolific.com/","en-US,en;q=0.9","5f60f6b65bd9c0022dcf9ace","687a1a965b9f5b85a264363e","6893770b1dd522853c83131b","1","5f60f6b65bd9c0022dcf9ace","1","2025-08-06T15:42:07.640Z","","","","pss","{""Q01"":""2"",""Q02"":""2"",""Q03"":""1"",""Q04"":""0"",""Q05"":""0"",""Q06"":""3"",""Q07"":""1"",""Q08"":""0"",""Q09"":""1"",""Q10"":""1""}","[0,1,2,3,4,5,6,7,8,9]","[""Q01"",""Q02"",""Q03"",""Q04"",""Q05"",""Q06"",""Q07"",""Q08"",""Q09"",""Q09"",""Q10""]","[71736.19999998808,80021.09999996424,87762,98083.89999997616,104069.29999995232,113180.69999998808,120711.19999998808,126785.29999995232,136096.89999997616,139412.59999996424,147781.89999997616]","[]","[0.3999999761581421,71736.19999998808,80021.09999996424,86302.89999997616,87762,96413.39999997616,98083.89999997616,104069.29999995232,113180.69999998808,120711.19999998808,126785.29999995232,136096.89999997616,139412.59999996424,147781.89999997616,149877.59999996424]","0.3","0.3333333333333333","0","","","","","","","","","","","","","","","","","","","","","","","","","","","","",""
"7050","1754494934691","<p style='font-size:1.1em;line-height:1.25'>Thank you for your answers! Now we will ask you a few more questions relating to your feelings in the last 24 hours.<br></p><p style='font-size:1.1em;line-height:1.25'>Press the <strong>Next</strong> button to continue.</p>","0","custom-html-button-response","6","186986","0.0-4.0-2.0","210","1","2025-08-06 15:39:05","36c45c0696341be0efffe67d72a12abb","41.13.96.189","Mozilla/5.0 (Windows NT 10.0; Win64; x64) AppleWebKit/537.36 (KHTML, like Gecko) Chrome/138.0.0.0 Safari/537.36","WebKit","Chrome","138.0.0.0","Windows","10.0","https://app.prolific.com/","en-US,en;q=0.9","5f60f6b65bd9c0022dcf9ace","687a1a965b9f5b85a264363e","6893770b1dd522853c83131b","1","5f60f6b65bd9c0022dcf9ace","1","2025-08-06T15:42:14.692Z","","","","","","","","","","","","","","","","","","","","","","","","","","","","","","","","","","","","","","","","","",""
"91413.40000003576","","","","survey-template","7","278410","0.0-4.0-3.0","210","1","2025-08-06 15:39:05","36c45c0696341be0efffe67d72a12abb","41.13.96.189","Mozilla/5.0 (Windows NT 10.0; Win64; x64) AppleWebKit/537.36 (KHTML, like Gecko) Chrome/138.0.0.0 Safari/537.36","WebKit","Chrome","138.0.0.0","Windows","10.0","https://app.prolific.com/","en-US,en;q=0.9","5f60f6b65bd9c0022dcf9ace","687a1a965b9f5b85a264363e","6893770b1dd522853c83131b","1","5f60f6b65bd9c0022dcf9ace","1","2025-08-06T15:43:46.116Z","","","","drsp","{""Q01"":""0"",""Q02"":""0"",""Q03"":""0"",""Q04"":""1"",""Q05"":""0"",""Q06"":""0"",""Q07"":""0"",""Q08"":""1"",""Q09"":""1"",""Q10"":""0"",""Q11"":""2"",""Q12"":""3"",""Q13"":""5"",""Q14"":""4"",""Q15"":""1"",""Q16"":""1"",""Q17"":""0"",""Q18"":""0"",""Q19"":""0"",""Q20"":""0"",""Q21"":""1"",""Q22"":""1""}","[0,1,2,3,4,5,6,7,8,9,10,11,12,13,14,15,16,17,18,19,20,21]","[""Q01"",""Q02"",""Q03"",""Q04"",""Q05"",""Q06"",""Q07"",""Q08"",""Q09"",""Q10"",""Q11"",""Q12"",""Q13"",""Q14"",""Q15"",""Q16"",""Q17"",""Q18"",""Q19"",""Q20"",""Q21"",""Q22""]","[5312.600000023842,7684.5,9228.700000047684,13404.900000035763,15014,19043.80000001192,22969.100000023842,25884.80000001192,29347.80000001192,31599.200000047684,35135.80000001192,40084.30000001192,44344,49927.90000003576,55103,59668,61559.60000002384,63965.200000047684,69335,78768.40000003576,84316.70000004768,88769.40000003576]","[]","[0.10000002384185791,5312.600000023842,7684.5,9228.700000047684,13404.900000035763,15014,19043.80000001192,22969.100000023842,25884.80000001192,29347.80000001192,31599.200000047684,35135.80000001192,40084.30000001192,44344,48517.700000047684,49927.90000003576,55103,59668,61559.60000002384,63965.200000047684,69335,78768.40000003576,84316.70000004768,87343.70000004768,88769.40000003576,91401.20000004768]","0.5","0.38095238095238093","0","","","","","","","","","","","","","","","","","","","","","","","","","","","","",""
"22580.900000035763","","","","survey-template","8","300995","0.0-4.0-4.0","210","1","2025-08-06 15:39:05","36c45c0696341be0efffe67d72a12abb","41.13.96.189","Mozilla/5.0 (Windows NT 10.0; Win64; x64) AppleWebKit/537.36 (KHTML, like Gecko) Chrome/138.0.0.0 Safari/537.36","WebKit","Chrome","138.0.0.0","Windows","10.0","https://app.prolific.com/","en-US,en;q=0.9","5f60f6b65bd9c0022dcf9ace","687a1a965b9f5b85a264363e","6893770b1dd522853c83131b","1","5f60f6b65bd9c0022dcf9ace","1","2025-08-06T15:44:08.701Z","","","","stress","{""Q01"":""0"",""Q02"":""1"",""Q03"":""0""}","[0,1,2]","[""Q01"",""Q02"",""Q03""]","[6199.900000035763,10879.100000023842,20058.400000035763]","[]","[6199.900000035763,10879.100000023842,20058.400000035763,22578.30000001192]","0.6666666666666666","0","0","","","","","","","","","","","","","","","","","","","","","","","","","","","","",""
"133397","","","","instructions","9","434395","0.0-5.0-0.0","210","1","2025-08-06 15:39:05","36c45c0696341be0efffe67d72a12abb","41.13.96.189","Mozilla/5.0 (Windows NT 10.0; Win64; x64) AppleWebKit/537.36 (KHTML, like Gecko) Chrome/138.0.0.0 Safari/537.36","WebKit","Chrome","138.0.0.0","Windows","10.0","https://app.prolific.com/","en-US,en;q=0.9","5f60f6b65bd9c0022dcf9ace","687a1a965b9f5b85a264363e","6893770b1dd522853c83131b","1","5f60f6b65bd9c0022dcf9ace","1","","","","","","","","","","","","","","","[{""page_index"":0,""viewing_time"":133397}]","","","","","","","","","","","","","","","","","","","","","","","","","","","",""
"7796","","<p>Before you start with this game please answer the following three questions yourself. </p>
  <p>Through this game, we measure several aspects of your cognitive performance, such as reaction times, multi-tasking capabilities </p>
  <p>and the ability to assess the situation you are in.</p>
  <p></p>
  <p><b>How good do you usually are in such tasks?</b></p>","91","html-slider-response","10","442196","0.0-6.0-0.0","210","1","2025-08-06 15:39:05","36c45c0696341be0efffe67d72a12abb","41.13.96.189","Mozilla/5.0 (Windows NT 10.0; Win64; x64) AppleWebKit/537.36 (KHTML, like Gecko) Chrome/138.0.0.0 Safari/537.36","WebKit","Chrome","138.0.0.0","Windows","10.0","https://app.prolific.com/","en-US,en;q=0.9","5f60f6b65bd9c0022dcf9ace","687a1a965b9f5b85a264363e","6893770b1dd522853c83131b","1","5f60f6b65bd9c0022dcf9ace","1","2025-08-06T15:46:29.902Z","","","","PreSkillQ","","","","","","","","","","","50","","","","","","","","","","","","","","","","","","","","","","","","","","",""
"7148","","<div style=""width:500px;"">
  <p>How well do you think you will perform in this task compared to other participants?</p>
  </div>","88","html-slider-response","11","449347","0.0-6.0-1.0","210","1","2025-08-06 15:39:05","36c45c0696341be0efffe67d72a12abb","41.13.96.189","Mozilla/5.0 (Windows NT 10.0; Win64; x64) AppleWebKit/537.36 (KHTML, like Gecko) Chrome/138.0.0.0 Safari/537.36","WebKit","Chrome","138.0.0.0","Windows","10.0","https://app.prolific.com/","en-US,en;q=0.9","5f60f6b65bd9c0022dcf9ace","687a1a965b9f5b85a264363e","6893770b1dd522853c83131b","1","5f60f6b65bd9c0022dcf9ace","1","2025-08-06T15:46:37.053Z","","","","PrePerfQ","","","","","","","","","","","50","","","","","","","","","","","","","","","","","","","","","","","","","","",""
"5689","","<div style=""width:500px;"">
  <p>What best describes how you currently feel?</p>
  </div>","86","html-slider-response","12","455039","0.0-6.0-2.0","210","1","2025-08-06 15:39:05","36c45c0696341be0efffe67d72a12abb","41.13.96.189","Mozilla/5.0 (Windows NT 10.0; Win64; x64) AppleWebKit/537.36 (KHTML, like Gecko) Chrome/138.0.0.0 Safari/537.36","WebKit","Chrome","138.0.0.0","Windows","10.0","https://app.prolific.com/","en-US,en;q=0.9","5f60f6b65bd9c0022dcf9ace","687a1a965b9f5b85a264363e","6893770b1dd522853c83131b","1","5f60f6b65bd9c0022dcf9ace","1","2025-08-06T15:46:42.745Z","","","","PreMotivationQ","","","","","","","","","","","50","","","","","","","","","","","","","","","","","","","","","","","","","","",""
"","","","","ctl-task-cpt","13","490983","0.0-7.0-0.0","210","1","2025-08-06 15:39:05","36c45c0696341be0efffe67d72a12abb","41.13.96.189","Mozilla/5.0 (Windows NT 10.0; Win64; x64) AppleWebKit/537.36 (KHTML, like Gecko) Chrome/138.0.0.0 Safari/537.36","WebKit","Chrome","138.0.0.0","Windows","10.0","https://app.prolific.com/","en-US,en;q=0.9","5f60f6b65bd9c0022dcf9ace","687a1a965b9f5b85a264363e","6893770b1dd522853c83131b","1","5f60f6b65bd9c0022dcf9ace","1","2025-08-06T15:47:18.690Z","","","","","","","","","","","","","","","","win-only","3","g1:SW,g2:NE","1","1","0","458268.9","7619.2","12626.1","32934","1","4","4","6","2","4","4","4","0","0.030303030303030304","5006.8","3000","1030","[""up"",""right""]","{""num_key_presses"":6,""num_perfect"":6,""num_errors"":0,""num_randdir"":0,""num_randdir_good_moves"":0,""num_whilered"":0,""num_whileblue"":0,""num_blue"":1,""num_good_moves"":6}","[416.5714133126395,417.82142761775424,0.7,416.5714133126395,417.82142761775424,107.6,416.5714133126395,417.82142761775424,217.5,416.5714133126395,417.82142761775424,317.6,416.5714133126395,417.82142761775424,418.6,416.5714133126395,417.82142761775424,524.9,416.5714133126395,417.82142761775424,628.4,416.5714133126395,417.82142761775424,735.1,416.5714133126395,417.82142761775424,838.5,416.5714133126395,417.82142761775424,948.9,416.5714133126395,417.82142761775424,1064,416.5714133126395,417.82142761775424,1178.6,416.5714133126395,417.82142761775424,1287.9,416.5714133126395,417.82142761775424,1388.7,416.5714133126395,417.82142761775424,1511.8,416.5714133126395,417.82142761775424,1612.6,416.5714133126395,417.82142761775424,1715.7,416.5714133126395,417.82142761775424,1817.9,416.5714133126395,417.82142761775424,1918.7,416.5714133126395,417.82142761775424,2028.3,416.5714133126395,417.82142761775424,2128.6,416.5714133126395,417.82142761775424,2233.7,416.5714133126395,417.82142761775424,2334.9,416.5714133126395,417.82142761775424,2436.1,416.5714133126395,417.82142761775424,2543.8,416.5714133126395,417.82142761775424,2644.9,416.5714133126395,417.82142761775424,2745,416.5714133126395,417.82142761775424,2863.6,416.5714133126395,417.82142761775424,2972.2,416.5714133126395,417.82142761775424,3077.2,416.5714133126395,417.82142761775424,3179.6,416.5714133126395,417.82142761775424,3287.3,416.5714133126395,417.82142761775424,3389.7,416.5714133126395,417.82142761775424,3494.4,416.5714133126395,417.82142761775424,3596.8,416.5714133126395,417.82142761775424,3704.1,416.5714133126395,417.82142761775424,3809.7,416.5714133126395,417.82142761775424,3914.2,416.5714133126395,417.82142761775424,4016.9,416.5714133126395,417.82142761775424,4118.5,416.5714133126395,417.82142761775424,4224.9,416.5714133126395,417.82142761775424,4327.6,416.5714133126395,417.82142761775424,4430.8,416.5714133126395,417.82142761775424,4531.5,416.5714133126395,417.82142761775424,4631.7,416.5714133126395,417.82142761775424,4735.1,416.5714133126395,417.82142761775424,4843,416.5714133126395,417.82142761775424,4944.4]","[1635.1,1635.2,1000,0,635.2,""smooth"",""right"",""right"",""good_move"",4430.5,2793.7,2365.6,1637,427.9,""smooth"",""right"",""right"",""good_move"",8489.6,4058.2,3554.9,4431.8,503,""smooth"",""right"",""right"",""good_move"",11764.9,3273,2825.9,8491.9,447.1,""smooth"",""up"",""up"",""good_move"",17708.3,5942.8,2383.6,14857.3,467.4,""smooth"",""up"",""up"",""good_move"",20157.1,2448.5,1966.1,17708.6,482.4,""smooth"",""up"",""up"",""good_move""]"
"5473","","<div style=""width:500px;"">
  <p>What determined the result of this run?</p>
  </div>","94","html-slider-response","14","496458","0.0-7.0-1.0","210","1","2025-08-06 15:39:05","36c45c0696341be0efffe67d72a12abb","41.13.96.189","Mozilla/5.0 (Windows NT 10.0; Win64; x64) AppleWebKit/537.36 (KHTML, like Gecko) Chrome/138.0.0.0 Safari/537.36","WebKit","Chrome","138.0.0.0","Windows","10.0","https://app.prolific.com/","en-US,en;q=0.9","5f60f6b65bd9c0022dcf9ace","687a1a965b9f5b85a264363e","6893770b1dd522853c83131b","1","5f60f6b65bd9c0022dcf9ace","1","2025-08-06T15:47:24.165Z","","","","AttribQ","","","","","","","","","","","50","","","","","","","","","","","","","","","","","","","","","","","","","","",""
"3369","","<div style=""width:500px;"">
  <p>How much control did you have over the ball?</p>
  </div>","92","html-slider-response","15","499830","0.0-7.0-2.0","210","1","2025-08-06 15:39:05","36c45c0696341be0efffe67d72a12abb","41.13.96.189","Mozilla/5.0 (Windows NT 10.0; Win64; x64) AppleWebKit/537.36 (KHTML, like Gecko) Chrome/138.0.0.0 Safari/537.36","WebKit","Chrome","138.0.0.0","Windows","10.0","https://app.prolific.com/","en-US,en;q=0.9","5f60f6b65bd9c0022dcf9ace","687a1a965b9f5b85a264363e","6893770b1dd522853c83131b","1","5f60f6b65bd9c0022dcf9ace","1","2025-08-06T15:47:27.537Z","","","","ControlQ","","","","","","","","","","","50","","","","","","","","","","","","","","","","","","","","","","","","","","",""
"6884","","<div style=""width:500px;"">
  <p>How would you describe your current emotional state?</p>
  </div>","10","html-slider-response","16","506717","0.0-7.0-3.0","210","1","2025-08-06 15:39:05","36c45c0696341be0efffe67d72a12abb","41.13.96.189","Mozilla/5.0 (Windows NT 10.0; Win64; x64) AppleWebKit/537.36 (KHTML, like Gecko) Chrome/138.0.0.0 Safari/537.36","WebKit","Chrome","138.0.0.0","Windows","10.0","https://app.prolific.com/","en-US,en;q=0.9","5f60f6b65bd9c0022dcf9ace","687a1a965b9f5b85a264363e","6893770b1dd522853c83131b","1","5f60f6b65bd9c0022dcf9ace","1","2025-08-06T15:47:34.424Z","","","","StressQ","","","","","","","","","","","50","","","","","","","","","","","","","","","","","","","","","","","","","","",""
"4666","","<div style=""width:500px;"">
  <p>What best describes how you currently feel?</p>
  </div>","89","html-slider-response","17","511387","0.0-7.0-4.0","210","1","2025-08-06 15:39:05","36c45c0696341be0efffe67d72a12abb","41.13.96.189","Mozilla/5.0 (Windows NT 10.0; Win64; x64) AppleWebKit/537.36 (KHTML, like Gecko) Chrome/138.0.0.0 Safari/537.36","WebKit","Chrome","138.0.0.0","Windows","10.0","https://app.prolific.com/","en-US,en;q=0.9","5f60f6b65bd9c0022dcf9ace","687a1a965b9f5b85a264363e","6893770b1dd522853c83131b","1","5f60f6b65bd9c0022dcf9ace","1","2025-08-06T15:47:39.093Z","","","","MotivationQ","","","","","","","","","","","50","","","","","","","","","","","","","","","","","","","","","","","","","","",""
"","","","","ctl-task-cpt","18","545651","0.0-7.0-0.1","210","1","2025-08-06 15:39:05","36c45c0696341be0efffe67d72a12abb","41.13.96.189","Mozilla/5.0 (Windows NT 10.0; Win64; x64) AppleWebKit/537.36 (KHTML, like Gecko) Chrome/138.0.0.0 Safari/537.36","WebKit","Chrome","138.0.0.0","Windows","10.0","https://app.prolific.com/","en-US,en;q=0.9","5f60f6b65bd9c0022dcf9ace","687a1a965b9f5b85a264363e","6893770b1dd522853c83131b","1","5f60f6b65bd9c0022dcf9ace","1","2025-08-06T15:48:13.357Z","","","","","","","","","","","","","","","","win-only","0","g1:NW,g2:SE","0.9","2","0","514616.5","1821.3","6825.3","31237","1","4","8","6","2","8","8","12","4","0.09090909090909091","5003.9","3000","675","[""down"",""right""]","{""num_key_presses"":6,""num_perfect"":6,""num_errors"":0,""num_randdir"":0,""num_randdir_good_moves"":0,""num_whilered"":0,""num_whileblue"":0,""num_blue"":2,""num_good_moves"":6}","[415.3214133126395,415.32142761775424,0.7,415.3214133126395,415.32142761775424,100.4,415.3214133126395,415.32142761775424,204.7,415.3214133126395,415.32142761775424,310.4,415.3214133126395,415.32142761775424,419.8,415.3214133126395,415.32142761775424,521.7,415.3214133126395,415.32142761775424,635,415.3214133126395,415.32142761775424,738.2,415.3214133126395,415.32142761775424,845.5,415.3214133126395,415.32142761775424,945.9,415.3214133126395,415.32142761775424,1050.4,415.3214133126395,415.32142761775424,1155.9,415.3214133126395,415.32142761775424,1261.5,415.3214133126395,415.32142761775424,1370.6,415.3214133126395,415.32142761775424,1474,415.3214133126395,415.32142761775424,1577.7,415.3214133126395,415.32142761775424,1678.1,415.3214133126395,415.32142761775424,1784.3,415.3214133126395,415.32142761775424,1884.4,415.3214133126395,415.32142761775424,1986.7,415.3214133126395,415.32142761775424,2093.5,415.3214133126395,415.32142761775424,2194.4,415.3214133126395,415.32142761775424,2294.6,415.3214133126395,415.32142761775424,2402,415.3214133126395,415.32142761775424,2510.4,415.3214133126395,415.32142761775424,2611.4,415.3214133126395,415.32142761775424,2721.6,415.3214133126395,415.32142761775424,2828.2,415.3214133126395,415.32142761775424,2928.5,415.3214133126395,415.32142761775424,3040,415.3214133126395,415.32142761775424,3142.6,415.3214133126395,415.32142761775424,3244,415.3214133126395,415.32142761775424,3344.7,415.3214133126395,415.32142761775424,3444.8,415.3214133126395,415.32142761775424,3547.2,415.3214133126395,415.32142761775424,3651.6,415.3214133126395,415.32142761775424,3756.4,415.3214133126395,415.32142761775424,3857.5,415.3214133126395,415.32142761775424,3959.3,415.3214133126395,415.32142761775424,4060.1,415.3214133126395,415.32142761775424,4169.6,415.3214133126395,415.32142761775424,4275.9,415.3214133126395,415.32142761775424,4379.9,415.3214133126395,415.32142761775424,4480.1,415.3214133126395,415.32142761775424,4580.2,415.3214133126395,415.32142761775424,4686.8,415.3214133126395,415.32142761775424,4787,415.3214133126395,415.32142761775424,4887.8,415.3214133126395,415.32142761775424,4989.5]","[5011,5011,2554.5,2009.5,447,""smooth"",""right"",""right"",""good_move"",7566.4,2553.1,2059.2,5013.5,493.7,""smooth"",""right"",""right"",""good_move"",10221.6,2654.7,2236.4,7566.9,418.3,""smooth"",""right"",""right"",""good_move"",13761.3,3537.6,3091.7,10223.7,445.9,""smooth"",""down"",""down"",""good_move"",17294.4,3530.7,2491.4,13763.7,1039.3,""smooth"",""down"",""down"",""good_move"",24291.7,6995.9,2522.9,21324.4,444.4,""smooth"",""down"",""down"",""good_move""]"
"5493","","<div style=""width:500px;"">
  <p>What determined the result of this run?</p>
  </div>","91","html-slider-response","19","551147","0.0-7.0-1.1","210","1","2025-08-06 15:39:05","36c45c0696341be0efffe67d72a12abb","41.13.96.189","Mozilla/5.0 (Windows NT 10.0; Win64; x64) AppleWebKit/537.36 (KHTML, like Gecko) Chrome/138.0.0.0 Safari/537.36","WebKit","Chrome","138.0.0.0","Windows","10.0","https://app.prolific.com/","en-US,en;q=0.9","5f60f6b65bd9c0022dcf9ace","687a1a965b9f5b85a264363e","6893770b1dd522853c83131b","1","5f60f6b65bd9c0022dcf9ace","1","2025-08-06T15:48:18.853Z","","","","AttribQ","","","","","","","","","","","50","","","","","","","","","","","","","","","","","","","","","","","","","","",""
"3785","","<div style=""width:500px;"">
  <p>How much control did you have over the ball?</p>
  </div>","92","html-slider-response","20","554935","0.0-7.0-2.1","210","1","2025-08-06 15:39:05","36c45c0696341be0efffe67d72a12abb","41.13.96.189","Mozilla/5.0 (Windows NT 10.0; Win64; x64) AppleWebKit/537.36 (KHTML, like Gecko) Chrome/138.0.0.0 Safari/537.36","WebKit","Chrome","138.0.0.0","Windows","10.0","https://app.prolific.com/","en-US,en;q=0.9","5f60f6b65bd9c0022dcf9ace","687a1a965b9f5b85a264363e","6893770b1dd522853c83131b","1","5f60f6b65bd9c0022dcf9ace","1","2025-08-06T15:48:22.642Z","","","","ControlQ","","","","","","","","","","","50","","","","","","","","","","","","","","","","","","","","","","","","","","",""
"7067","","<div style=""width:500px;"">
  <p>How would you describe your current emotional state?</p>
  </div>","6","html-slider-response","21","562007","0.0-7.0-3.1","210","1","2025-08-06 15:39:05","36c45c0696341be0efffe67d72a12abb","41.13.96.189","Mozilla/5.0 (Windows NT 10.0; Win64; x64) AppleWebKit/537.36 (KHTML, like Gecko) Chrome/138.0.0.0 Safari/537.36","WebKit","Chrome","138.0.0.0","Windows","10.0","https://app.prolific.com/","en-US,en;q=0.9","5f60f6b65bd9c0022dcf9ace","687a1a965b9f5b85a264363e","6893770b1dd522853c83131b","1","5f60f6b65bd9c0022dcf9ace","1","2025-08-06T15:48:29.715Z","","","","StressQ","","","","","","","","","","","50","","","","","","","","","","","","","","","","","","","","","","","","","","",""
"7160","","<div style=""width:500px;"">
  <p>What best describes how you currently feel?</p>
  </div>","90","html-slider-response","22","569179","0.0-7.0-4.1","210","1","2025-08-06 15:39:05","36c45c0696341be0efffe67d72a12abb","41.13.96.189","Mozilla/5.0 (Windows NT 10.0; Win64; x64) AppleWebKit/537.36 (KHTML, like Gecko) Chrome/138.0.0.0 Safari/537.36","WebKit","Chrome","138.0.0.0","Windows","10.0","https://app.prolific.com/","en-US,en;q=0.9","5f60f6b65bd9c0022dcf9ace","687a1a965b9f5b85a264363e","6893770b1dd522853c83131b","1","5f60f6b65bd9c0022dcf9ace","1","2025-08-06T15:48:36.885Z","","","","MotivationQ","","","","","","","","","","","50","","","","","","","","","","","","","","","","","","","","","","","","","","",""
"","","","","ctl-task-cpt","23","631046","0.0-7.0-0.2","210","1","2025-08-06 15:39:05","36c45c0696341be0efffe67d72a12abb","41.13.96.189","Mozilla/5.0 (Windows NT 10.0; Win64; x64) AppleWebKit/537.36 (KHTML, like Gecko) Chrome/138.0.0.0 Safari/537.36","WebKit","Chrome","138.0.0.0","Windows","10.0","https://app.prolific.com/","en-US,en;q=0.9","5f60f6b65bd9c0022dcf9ace","687a1a965b9f5b85a264363e","6893770b1dd522853c83131b","1","5f60f6b65bd9c0022dcf9ace","1","2025-08-06T15:49:38.752Z","","","","","","","","","","","","","","","","win-only","1","g1:NE,g2:SW","0.8","3","0","572408.6","1670.2","6675.3","58851.5","1","4","8","6","1","-1","-2","10","12","0.07575757575757576","5005.1","3000","-2035","[""up"",""right""]","{""num_key_presses"":8,""num_perfect"":6,""num_errors"":1,""num_randdir"":1,""num_randdir_good_moves"":1,""num_whilered"":0,""num_whileblue"":1,""num_blue"":9,""num_good_moves"":2}","[402.8214133126395,415.32142761775424,0.3,402.8214133126395,415.32142761775424,104.7,402.8214133126395,415.32142761775424,206.2,402.8214133126395,415.32142761775424,310.4,402.8214133126395,415.32142761775424,411.6,402.8214133126395,415.32142761775424,513.3,402.8214133126395,415.32142761775424,616.1,402.8214133126395,415.32142761775424,726,402.8214133126395,415.32142761775424,830.1,402.8214133126395,415.32142761775424,930.6,402.8214133126395,415.32142761775424,1032.6,402.8214133126395,415.32142761775424,1134.4,402.8214133126395,415.32142761775424,1236.9,402.8214133126395,415.32142761775424,1337.2,402.8214133126395,415.32142761775424,1446.4,402.8214133126395,415.32142761775424,1546.4,402.8214133126395,415.32142761775424,1647.6,402.8214133126395,415.32142761775424,1751.1,402.8214133126395,415.32142761775424,1852.9,424.0714133126395,397.82142761775424,1956,482.8214133126395,366.57142761775424,2058,492.8214133126395,360.32142761775424,2167,492.8214133126395,360.32142761775424,2271.2,492.8214133126395,360.32142761775424,2378.8,492.8214133126395,360.32142761775424,2481.9,492.8214133126395,360.32142761775424,2596.3,492.8214133126395,360.32142761775424,2696.6,492.8214133126395,360.32142761775424,2813.7,492.8214133126395,360.32142761775424,2913.9,492.8214133126395,360.32142761775424,3019.6,492.8214133126395,360.32142761775424,3130,492.8214133126395,360.32142761775424,3237.1,492.8214133126395,360.32142761775424,3337.2,492.8214133126395,360.32142761775424,3444.9,492.8214133126395,360.32142761775424,3549.2,492.8214133126395,360.32142761775424,3655.1,492.8214133126395,360.32142761775424,3770.1,492.8214133126395,360.32142761775424,3870.1,492.8214133126395,360.32142761775424,3970.1,492.8214133126395,360.32142761775424,4088.4,492.8214133126395,360.32142761775424,4198.2,492.8214133126395,360.32142761775424,4303.4,492.8214133126395,360.32142761775424,4406.5,492.8214133126395,360.32142761775424,4512.2,492.8214133126395,360.32142761775424,4614.6,492.8214133126395,360.32142761775424,4720.1,492.8214133126395,360.32142761775424,4820.5,492.8214133126395,360.32142761775424,4921.7]","[8504.1,8504.1,2024.8,6073.8,405.5,""smooth"",""left"",""left"",""bad_move"",11459.8,2952.8,2472.5,8507.1,480.2,""smooth"",""left"",""left"",""bad_move"",20713.1,9252.5,1559.1,18691.4,462.6,""smooth"",""left"",""left"",""bad_move"",23873.6,3160,2572.9,20713.6,587.1,""smooth"",""down"",""down"",""bad_move"",26129.3,2254.6,1550.3,23874.7,704.3,""while_blue"",""down"",""right"",""good_move"",29725.3,3595.3,2481.6,26130,1113.8,""smooth"",""down"",""down"",""bad_move"",32208.7,2482.7,1943.8,29726.1,538.8,""oops"",""down"",""up"",""good_move"",39395.5,7185.7,3187.5,35768,440,""smooth"",""down"",""down"",""bad_move""]"
"6503","","<div style=""width:500px;"">
  <p>What determined the result of this run?</p>
  </div>","69","html-slider-response","24","637552","0.0-7.0-1.2","210","1","2025-08-06 15:39:05","36c45c0696341be0efffe67d72a12abb","41.13.96.189","Mozilla/5.0 (Windows NT 10.0; Win64; x64) AppleWebKit/537.36 (KHTML, like Gecko) Chrome/138.0.0.0 Safari/537.36","WebKit","Chrome","138.0.0.0","Windows","10.0","https://app.prolific.com/","en-US,en;q=0.9","5f60f6b65bd9c0022dcf9ace","687a1a965b9f5b85a264363e","6893770b1dd522853c83131b","1","5f60f6b65bd9c0022dcf9ace","1","2025-08-06T15:49:45.258Z","","","","AttribQ","","","","","","","","","","","50","","","","","","","","","","","","","","","","","","","","","","","","","","",""
"5132","","<div style=""width:500px;"">
  <p>How much control did you have over the ball?</p>
  </div>","79","html-slider-response","25","642686","0.0-7.0-2.2","210","1","2025-08-06 15:39:05","36c45c0696341be0efffe67d72a12abb","41.13.96.189","Mozilla/5.0 (Windows NT 10.0; Win64; x64) AppleWebKit/537.36 (KHTML, like Gecko) Chrome/138.0.0.0 Safari/537.36","WebKit","Chrome","138.0.0.0","Windows","10.0","https://app.prolific.com/","en-US,en;q=0.9","5f60f6b65bd9c0022dcf9ace","687a1a965b9f5b85a264363e","6893770b1dd522853c83131b","1","5f60f6b65bd9c0022dcf9ace","1","2025-08-06T15:49:50.392Z","","","","ControlQ","","","","","","","","","","","50","","","","","","","","","","","","","","","","","","","","","","","","","","",""
"4071","","<div style=""width:500px;"">
  <p>How would you describe your current emotional state?</p>
  </div>","10","html-slider-response","26","646761","0.0-7.0-3.2","210","1","2025-08-06 15:39:05","36c45c0696341be0efffe67d72a12abb","41.13.96.189","Mozilla/5.0 (Windows NT 10.0; Win64; x64) AppleWebKit/537.36 (KHTML, like Gecko) Chrome/138.0.0.0 Safari/537.36","WebKit","Chrome","138.0.0.0","Windows","10.0","https://app.prolific.com/","en-US,en;q=0.9","5f60f6b65bd9c0022dcf9ace","687a1a965b9f5b85a264363e","6893770b1dd522853c83131b","1","5f60f6b65bd9c0022dcf9ace","1","2025-08-06T15:49:54.467Z","","","","StressQ","","","","","","","","","","","50","","","","","","","","","","","","","","","","","","","","","","","","","","",""
"9289","","<div style=""width:500px;"">
  <p>What best describes how you currently feel?</p>
  </div>","89","html-slider-response","27","656053","0.0-7.0-4.2","210","1","2025-08-06 15:39:05","36c45c0696341be0efffe67d72a12abb","41.13.96.189","Mozilla/5.0 (Windows NT 10.0; Win64; x64) AppleWebKit/537.36 (KHTML, like Gecko) Chrome/138.0.0.0 Safari/537.36","WebKit","Chrome","138.0.0.0","Windows","10.0","https://app.prolific.com/","en-US,en;q=0.9","5f60f6b65bd9c0022dcf9ace","687a1a965b9f5b85a264363e","6893770b1dd522853c83131b","1","5f60f6b65bd9c0022dcf9ace","1","2025-08-06T15:50:03.759Z","","","","MotivationQ","","","","","","","","","","","50","","","","","","","","","","","","","","","","","","","","","","","","","","",""
"","","","","ctl-task-cpt","28","713004","0.0-7.0-0.3","210","1","2025-08-06 15:39:05","36c45c0696341be0efffe67d72a12abb","41.13.96.189","Mozilla/5.0 (Windows NT 10.0; Win64; x64) AppleWebKit/537.36 (KHTML, like Gecko) Chrome/138.0.0.0 Safari/537.36","WebKit","Chrome","138.0.0.0","Windows","10.0","https://app.prolific.com/","en-US,en;q=0.9","5f60f6b65bd9c0022dcf9ace","687a1a965b9f5b85a264363e","6893770b1dd522853c83131b","1","5f60f6b65bd9c0022dcf9ace","1","2025-08-06T15:51:00.710Z","","","","","","","","","","","","","","","","win-only","3","g1:SW,g2:NE","0.7","4","0","659283.3","1882.5","6885.2","53932.5","1","4","4","6","1","-1","-1","9","10","0.06818181818181818","5002.7","3000","-2000","[""down"",""left""]","{""num_key_presses"":10,""num_perfect"":7,""num_errors"":0,""num_randdir"":3,""num_randdir_good_moves"":2,""num_whilered"":0,""num_whileblue"":0,""num_blue"":5,""num_good_moves"":2}","[415.3214133126395,419.07142761775424,0.6,415.3214133126395,419.07142761775424,103.3,415.3214133126395,419.07142761775424,209,415.3214133126395,419.07142761775424,309.6,415.3214133126395,419.07142761775424,412.7,415.3214133126395,419.07142761775424,514.7,415.3214133126395,419.07142761775424,616.5,415.3214133126395,419.07142761775424,731,415.3214133126395,419.07142761775424,849.2,415.3214133126395,419.07142761775424,962,415.3214133126395,419.07142761775424,1068.5,415.3214133126395,419.07142761775424,1169.9,415.3214133126395,419.07142761775424,1284.1,415.3214133126395,419.07142761775424,1384.7,415.3214133126395,419.07142761775424,1493.5,415.3214133126395,419.07142761775424,1596.6,415.3214133126395,419.07142761775424,1702.6,415.3214133126395,419.07142761775424,1808,415.3214133126395,419.07142761775424,1908.3,415.3214133126395,419.07142761775424,2009.8,415.3214133126395,419.07142761775424,2110.1,415.3214133126395,419.07142761775424,2219.7,415.3214133126395,419.07142761775424,2335,415.3214133126395,419.07142761775424,2436.5,415.3214133126395,419.07142761775424,2554.4,415.3214133126395,419.07142761775424,2659.8,415.3214133126395,419.07142761775424,2760.6,415.3214133126395,419.07142761775424,2862.3,415.3214133126395,419.07142761775424,2977.3,415.3214133126395,419.07142761775424,3078.8,415.3214133126395,419.07142761775424,3181.6,415.3214133126395,419.07142761775424,3284,415.3214133126395,419.07142761775424,3387.5,415.3214133126395,419.07142761775424,3492.3,415.3214133126395,419.07142761775424,3593.3,415.3214133126395,419.07142761775424,3693.8,415.3214133126395,419.07142761775424,3794.8,415.3214133126395,419.07142761775424,3894.8,415.3214133126395,419.07142761775424,3998.6,415.3214133126395,419.07142761775424,4110.7,415.3214133126395,419.07142761775424,4213.4,415.3214133126395,419.07142761775424,4313.7,415.3214133126395,419.07142761775424,4419,415.3214133126395,419.07142761775424,4520.1,415.3214133126395,419.07142761775424,4627.2,415.3214133126395,419.07142761775424,4733.6,415.3214133126395,419.07142761775424,4845.9,415.3214133126395,419.07142761775424,4961.5]","[8503.2,8503.2,2362,5630.8,510.4,""smooth"",""right"",""right"",""bad_move"",11719.7,3212.4,2755.4,8507.3,457,""smooth"",""right"",""right"",""bad_move"",24855.8,13134.7,2307.6,22081.4,466.9,""smooth"",""right"",""right"",""bad_move"",26888,2030.6,1510.1,24857.4,520.5,""smooth"",""up"",""up"",""bad_move"",29791.4,2898.2,2399.4,26893.2,498.8,""smooth"",""up"",""up"",""bad_move"",32992.6,3196,2778.3,29796.7,417.6,""oops"",""up"",""down"",""good_move"",34836.4,1840.6,1214.3,32995.8,626.3,""smooth"",""up"",""up"",""bad_move"",37985.8,3148.6,2738.2,34837.3,410.4,""oops"",""up"",""down"",""good_move"",40828.2,2838.1,2436.7,37990.2,401.3,""smooth"",""up"",""up"",""bad_move"",44082,3253.2,2914.1,40828.9,339,""oops"",""up"",""up"",""bad_move""]"
"7320","","<div style=""width:500px;"">
  <p>What determined the result of this run?</p>
  </div>","88","html-slider-response","29","720329","0.0-7.0-1.3","210","1","2025-08-06 15:39:05","36c45c0696341be0efffe67d72a12abb","41.13.96.189","Mozilla/5.0 (Windows NT 10.0; Win64; x64) AppleWebKit/537.36 (KHTML, like Gecko) Chrome/138.0.0.0 Safari/537.36","WebKit","Chrome","138.0.0.0","Windows","10.0","https://app.prolific.com/","en-US,en;q=0.9","5f60f6b65bd9c0022dcf9ace","687a1a965b9f5b85a264363e","6893770b1dd522853c83131b","1","5f60f6b65bd9c0022dcf9ace","1","2025-08-06T15:51:08.038Z","","","","AttribQ","","","","","","","","","","","50","","","","","","","","","","","","","","","","","","","","","","","","","","",""
"5153","","<div style=""width:500px;"">
  <p>How much control did you have over the ball?</p>
  </div>","87","html-slider-response","30","725492","0.0-7.0-2.3","210","1","2025-08-06 15:39:05","36c45c0696341be0efffe67d72a12abb","41.13.96.189","Mozilla/5.0 (Windows NT 10.0; Win64; x64) AppleWebKit/537.36 (KHTML, like Gecko) Chrome/138.0.0.0 Safari/537.36","WebKit","Chrome","138.0.0.0","Windows","10.0","https://app.prolific.com/","en-US,en;q=0.9","5f60f6b65bd9c0022dcf9ace","687a1a965b9f5b85a264363e","6893770b1dd522853c83131b","1","5f60f6b65bd9c0022dcf9ace","1","2025-08-06T15:51:13.198Z","","","","ControlQ","","","","","","","","","","","50","","","","","","","","","","","","","","","","","","","","","","","","","","",""
"5769","","<div style=""width:500px;"">
  <p>How would you describe your current emotional state?</p>
  </div>","15","html-slider-response","31","731264","0.0-7.0-3.3","210","1","2025-08-06 15:39:05","36c45c0696341be0efffe67d72a12abb","41.13.96.189","Mozilla/5.0 (Windows NT 10.0; Win64; x64) AppleWebKit/537.36 (KHTML, like Gecko) Chrome/138.0.0.0 Safari/537.36","WebKit","Chrome","138.0.0.0","Windows","10.0","https://app.prolific.com/","en-US,en;q=0.9","5f60f6b65bd9c0022dcf9ace","687a1a965b9f5b85a264363e","6893770b1dd522853c83131b","1","5f60f6b65bd9c0022dcf9ace","1","2025-08-06T15:51:18.971Z","","","","StressQ","","","","","","","","","","","50","","","","","","","","","","","","","","","","","","","","","","","","","","",""
"37106","","<div style=""width:500px;"">
  <p>What best describes how you currently feel?</p>
  </div>","80","html-slider-response","32","768376","0.0-7.0-4.3","210","1","2025-08-06 15:39:05","36c45c0696341be0efffe67d72a12abb","41.13.96.189","Mozilla/5.0 (Windows NT 10.0; Win64; x64) AppleWebKit/537.36 (KHTML, like Gecko) Chrome/138.0.0.0 Safari/537.36","WebKit","Chrome","138.0.0.0","Windows","10.0","https://app.prolific.com/","en-US,en;q=0.9","5f60f6b65bd9c0022dcf9ace","687a1a965b9f5b85a264363e","6893770b1dd522853c83131b","1","5f60f6b65bd9c0022dcf9ace","1","2025-08-06T15:51:56.082Z","","","","MotivationQ","","","","","","","","","","","50","","","","","","","","","","","","","","","","","","","","","","","","","","",""
"","","","","ctl-task-cpt","33","778290","0.0-7.0-0.4","210","1","2025-08-06 15:39:05","36c45c0696341be0efffe67d72a12abb","41.13.96.189","Mozilla/5.0 (Windows NT 10.0; Win64; x64) AppleWebKit/537.36 (KHTML, like Gecko) Chrome/138.0.0.0 Safari/537.36","WebKit","Chrome","138.0.0.0","Windows","10.0","https://app.prolific.com/","en-US,en;q=0.9","5f60f6b65bd9c0022dcf9ace","687a1a965b9f5b85a264363e","6893770b1dd522853c83131b","1","5f60f6b65bd9c0022dcf9ace","1","2025-08-06T15:52:05.996Z","","","","","","","","","","","","","","","","win-only","3","g1:SW,g2:NE","0.6","5","0","771608.1","1865.9","-9999","6886.9","1","4","4","6","-9999","-4","-4","5","9","0.03787878787878788","-9999","3000","3000","[]","{""num_key_presses"":0,""num_perfect"":0,""num_errors"":0,""num_randdir"":0,""num_randdir_good_moves"":0,""num_whilered"":0,""num_whileblue"":0,""num_blue"":0,""num_good_moves"":0}","[351.9642857142857,355.96428666796004,0.4,351.9642857142857,355.96428666796004,101.8,351.9642857142857,355.96428666796004,202.1,351.9642857142857,355.96428666796004,306.9,351.9642857142857,355.96428666796004,411.9,351.9642857142857,355.96428666796004,513.4,351.9642857142857,355.96428666796004,614.1,351.9642857142857,355.96428666796004,716.2,351.9642857142857,355.96428666796004,821.1,351.9642857142857,355.96428666796004,927.1,351.9642857142857,355.96428666796004,1028.8,351.9642857142857,355.96428666796004,1132.5,351.9642857142857,355.96428666796004,1237.3,351.9642857142857,355.96428666796004,1340.2,351.9642857142857,355.96428666796004,1454.4,351.9642857142857,355.96428666796004,1555.9,351.9642857142857,355.96428666796004,1670,351.9642857142857,355.96428666796004,1772.3,351.9642857142857,355.96428666796004,1876.1,351.9642857142857,355.96428666796004,1977.8,351.9642857142857,355.96428666796004,2081.3,351.9642857142857,355.96428666796004,2185.4,351.9642857142857,355.96428666796004,2289.5,351.9642857142857,355.96428666796004,2392.5,351.9642857142857,355.96428666796004,2509.3,351.9642857142857,355.96428666796004,2630.3,351.9642857142857,355.96428666796004,2737.4,351.9642857142857,355.96428666796004,2856.7,351.9642857142857,355.96428666796004,2958.6,351.9642857142857,355.96428666796004,3059.2,351.9642857142857,355.96428666796004,3174.9,351.9642857142857,355.96428666796004,3289.6,351.9642857142857,355.96428666796004,3392.4,351.9642857142857,355.96428666796004,3515,351.9642857142857,355.96428666796004,3618.1,351.9642857142857,355.96428666796004,3724.9,351.9642857142857,355.96428666796004,3825.6,351.9642857142857,355.96428666796004,3931.2,351.9642857142857,355.96428666796004,4036.4,351.9642857142857,355.96428666796004,4136.5,351.9642857142857,355.96428666796004,4238.6,351.9642857142857,355.96428666796004,4359.4,351.9642857142857,355.96428666796004,4473,351.9642857142857,355.96428666796004,4577.7,351.9642857142857,355.96428666796004,4692.7,351.9642857142857,355.96428666796004,4808.3,351.9642857142857,355.96428666796004,4909.8]","[]"
"13443","","<div style=""width:500px;"">
  <p>What determined the result of this run?</p>
  </div>","69","html-slider-response","34","791736","0.0-7.0-1.4","210","1","2025-08-06 15:39:05","36c45c0696341be0efffe67d72a12abb","41.13.96.189","Mozilla/5.0 (Windows NT 10.0; Win64; x64) AppleWebKit/537.36 (KHTML, like Gecko) Chrome/138.0.0.0 Safari/537.36","WebKit","Chrome","138.0.0.0","Windows","10.0","https://app.prolific.com/","en-US,en;q=0.9","5f60f6b65bd9c0022dcf9ace","687a1a965b9f5b85a264363e","6893770b1dd522853c83131b","1","5f60f6b65bd9c0022dcf9ace","1","2025-08-06T15:52:19.443Z","","","","AttribQ","","","","","","","","","","","50","","","","","","","","","","","","","","","","","","","","","","","","","","",""
"8788","","<div style=""width:500px;"">
  <p>How much control did you have over the ball?</p>
  </div>","1","html-slider-response","35","800537","0.0-7.0-2.4","210","1","2025-08-06 15:39:05","36c45c0696341be0efffe67d72a12abb","41.13.96.189","Mozilla/5.0 (Windows NT 10.0; Win64; x64) AppleWebKit/537.36 (KHTML, like Gecko) Chrome/138.0.0.0 Safari/537.36","WebKit","Chrome","138.0.0.0","Windows","10.0","https://app.prolific.com/","en-US,en;q=0.9","5f60f6b65bd9c0022dcf9ace","687a1a965b9f5b85a264363e","6893770b1dd522853c83131b","1","5f60f6b65bd9c0022dcf9ace","1","2025-08-06T15:52:28.243Z","","","","ControlQ","","","","","","","","","","","50","","","","","","","","","","","","","","","","","","","","","","","","","","",""
"11058","","<div style=""width:500px;"">
  <p>How would you describe your current emotional state?</p>
  </div>","10","html-slider-response","36","811598","0.0-7.0-3.4","210","1","2025-08-06 15:39:05","36c45c0696341be0efffe67d72a12abb","41.13.96.189","Mozilla/5.0 (Windows NT 10.0; Win64; x64) AppleWebKit/537.36 (KHTML, like Gecko) Chrome/138.0.0.0 Safari/537.36","WebKit","Chrome","138.0.0.0","Windows","10.0","https://app.prolific.com/","en-US,en;q=0.9","5f60f6b65bd9c0022dcf9ace","687a1a965b9f5b85a264363e","6893770b1dd522853c83131b","1","5f60f6b65bd9c0022dcf9ace","1","2025-08-06T15:52:39.304Z","","","","StressQ","","","","","","","","","","","50","","","","","","","","","","","","","","","","","","","","","","","","","","",""
"9949","","<div style=""width:500px;"">
  <p>What best describes how you currently feel?</p>
  </div>","86","html-slider-response","37","821557","0.0-7.0-4.4","210","1","2025-08-06 15:39:05","36c45c0696341be0efffe67d72a12abb","41.13.96.189","Mozilla/5.0 (Windows NT 10.0; Win64; x64) AppleWebKit/537.36 (KHTML, like Gecko) Chrome/138.0.0.0 Safari/537.36","WebKit","Chrome","138.0.0.0","Windows","10.0","https://app.prolific.com/","en-US,en;q=0.9","5f60f6b65bd9c0022dcf9ace","687a1a965b9f5b85a264363e","6893770b1dd522853c83131b","1","5f60f6b65bd9c0022dcf9ace","1","2025-08-06T15:52:49.263Z","","","","MotivationQ","","","","","","","","","","","50","","","","","","","","","","","","","","","","","","","","","","","","","","",""
"","","","","ctl-task-cpt","38","883687","0.0-7.0-0.5","210","1","2025-08-06 15:39:05","36c45c0696341be0efffe67d72a12abb","41.13.96.189","Mozilla/5.0 (Windows NT 10.0; Win64; x64) AppleWebKit/537.36 (KHTML, like Gecko) Chrome/138.0.0.0 Safari/537.36","WebKit","Chrome","138.0.0.0","Windows","10.0","https://app.prolific.com/","en-US,en;q=0.9","5f60f6b65bd9c0022dcf9ace","687a1a965b9f5b85a264363e","6893770b1dd522853c83131b","1","5f60f6b65bd9c0022dcf9ace","1","2025-08-06T15:53:51.393Z","","","","","","","","","","","","","","","","win-only","3","g1:SW,g2:NE","0.5","6","0","824784.5","3051.5","8064.8","59108","1","4","8","6","1","-1","-3","2","5","0.015151515151515152","5013.3","3000","-1320","[""down"",""left""]","{""num_key_presses"":12,""num_perfect"":5,""num_errors"":2,""num_randdir"":5,""num_randdir_good_moves"":3,""num_whilered"":0,""num_whileblue"":1,""num_blue"":4,""num_good_moves"":3}","[349.4642857142857,340.96428666796004,1,349.4642857142857,340.96428666796004,104.5,349.4642857142857,340.96428666796004,222.7,349.4642857142857,340.96428666796004,324.3,349.4642857142857,340.96428666796004,429.8,349.4642857142857,340.96428666796004,533.2,349.4642857142857,340.96428666796004,641.2,349.4642857142857,340.96428666796004,746.4,349.4642857142857,340.96428666796004,846.4,349.4642857142857,340.96428666796004,958.1,349.4642857142857,340.96428666796004,1063,349.4642857142857,340.96428666796004,1163.8,349.4642857142857,340.96428666796004,1267.8,349.4642857142857,340.96428666796004,1377.2,349.4642857142857,340.96428666796004,1477.2,349.4642857142857,340.96428666796004,1584.4,349.4642857142857,340.96428666796004,1686.6,349.4642857142857,340.96428666796004,1786.9,349.4642857142857,340.96428666796004,1889.7,349.4642857142857,340.96428666796004,1992.7,349.4642857142857,340.96428666796004,2094.2,349.4642857142857,340.96428666796004,2203.2,349.4642857142857,340.96428666796004,2311.3,349.4642857142857,340.96428666796004,2423,349.4642857142857,340.96428666796004,2523.6,349.4642857142857,340.96428666796004,2631,349.4642857142857,340.96428666796004,2735.6,349.4642857142857,340.96428666796004,2840,349.4642857142857,340.96428666796004,2944.6,349.4642857142857,340.96428666796004,3051.4,349.4642857142857,340.96428666796004,3157,349.4642857142857,340.96428666796004,3270.5,349.4642857142857,340.96428666796004,3377,349.4642857142857,340.96428666796004,3484.9,349.4642857142857,340.96428666796004,3585.4,349.4642857142857,340.96428666796004,3686.6,349.4642857142857,340.96428666796004,3795.5,349.4642857142857,340.96428666796004,3899.2,349.4642857142857,340.96428666796004,4002.9,349.4642857142857,340.96428666796004,4109.5,349.4642857142857,340.96428666796004,4217.9,349.4642857142857,340.96428666796004,4325.8,349.4642857142857,340.96428666796004,4429.8,349.4642857142857,340.96428666796004,4532.4,349.4642857142857,340.96428666796004,4636.9,349.4642857142857,340.96428666796004,4748.4,349.4642857142857,340.96428666796004,4852.9,349.4642857142857,340.96428666796004,4953.1]","[389.4,389.4,1000,0,-610.6,""error"",""-"",""-"",""no_move"",4071.9,3682,2195.7,1390.2,486,""smooth"",""right"",""right"",""bad_move"",7258.5,3186,2473.7,4072.5,712.3,""smooth"",""right"",""right"",""bad_move"",9785.8,2525.4,1816.3,7260.5,709.1,""smooth"",""right"",""right"",""bad_move"",15946.3,6158.3,2417.7,13131.3,397.3,""oops"",""up"",""left"",""good_move"",19995.4,4048.5,3490.3,15946.9,558.2,""oops"",""right"",""down"",""good_move"",23347.2,3348.6,2556.6,19998.6,792,""oops"",""right"",""right"",""bad_move"",26677.8,3330.2,2850.3,23347.7,479.9,""oops"",""up"",""down"",""good_move"",33704.3,7026,2777.6,30287.9,638.9,""oops"",""up"",""up"",""bad_move"",37115.2,3408.9,2842.2,33706.3,566.7,""while_blue"",""up"",""up"",""bad_move"",40490.7,3371.5,2274.2,37119.2,1097.4,""smooth"",""up"",""up"",""bad_move"",47748.8,7257.2,3033.4,44172.8,542.7,""smooth"",""up"",""up"",""bad_move""]"
"4672","","<div style=""width:500px;"">
  <p>What determined the result of this run?</p>
  </div>","75","html-slider-response","39","888360","0.0-7.0-1.5","210","1","2025-08-06 15:39:05","36c45c0696341be0efffe67d72a12abb","41.13.96.189","Mozilla/5.0 (Windows NT 10.0; Win64; x64) AppleWebKit/537.36 (KHTML, like Gecko) Chrome/138.0.0.0 Safari/537.36","WebKit","Chrome","138.0.0.0","Windows","10.0","https://app.prolific.com/","en-US,en;q=0.9","5f60f6b65bd9c0022dcf9ace","687a1a965b9f5b85a264363e","6893770b1dd522853c83131b","1","5f60f6b65bd9c0022dcf9ace","1","2025-08-06T15:53:56.066Z","","","","AttribQ","","","","","","","","","","","50","","","","","","","","","","","","","","","","","","","","","","","","","","",""
"3933","","<div style=""width:500px;"">
  <p>How much control did you have over the ball?</p>
  </div>","28","html-slider-response","40","892295","0.0-7.0-2.5","210","1","2025-08-06 15:39:05","36c45c0696341be0efffe67d72a12abb","41.13.96.189","Mozilla/5.0 (Windows NT 10.0; Win64; x64) AppleWebKit/537.36 (KHTML, like Gecko) Chrome/138.0.0.0 Safari/537.36","WebKit","Chrome","138.0.0.0","Windows","10.0","https://app.prolific.com/","en-US,en;q=0.9","5f60f6b65bd9c0022dcf9ace","687a1a965b9f5b85a264363e","6893770b1dd522853c83131b","1","5f60f6b65bd9c0022dcf9ace","1","2025-08-06T15:54:00.001Z","","","","ControlQ","","","","","","","","","","","50","","","","","","","","","","","","","","","","","","","","","","","","","","",""
"4909","","<div style=""width:500px;"">
  <p>How would you describe your current emotional state?</p>
  </div>","11","html-slider-response","41","897206","0.0-7.0-3.5","210","1","2025-08-06 15:39:05","36c45c0696341be0efffe67d72a12abb","41.13.96.189","Mozilla/5.0 (Windows NT 10.0; Win64; x64) AppleWebKit/537.36 (KHTML, like Gecko) Chrome/138.0.0.0 Safari/537.36","WebKit","Chrome","138.0.0.0","Windows","10.0","https://app.prolific.com/","en-US,en;q=0.9","5f60f6b65bd9c0022dcf9ace","687a1a965b9f5b85a264363e","6893770b1dd522853c83131b","1","5f60f6b65bd9c0022dcf9ace","1","2025-08-06T15:54:04.912Z","","","","StressQ","","","","","","","","","","","50","","","","","","","","","","","","","","","","","","","","","","","","","","",""
"4469","","<div style=""width:500px;"">
  <p>What best describes how you currently feel?</p>
  </div>","83","html-slider-response","42","901677","0.0-7.0-4.5","210","1","2025-08-06 15:39:05","36c45c0696341be0efffe67d72a12abb","41.13.96.189","Mozilla/5.0 (Windows NT 10.0; Win64; x64) AppleWebKit/537.36 (KHTML, like Gecko) Chrome/138.0.0.0 Safari/537.36","WebKit","Chrome","138.0.0.0","Windows","10.0","https://app.prolific.com/","en-US,en;q=0.9","5f60f6b65bd9c0022dcf9ace","687a1a965b9f5b85a264363e","6893770b1dd522853c83131b","1","5f60f6b65bd9c0022dcf9ace","1","2025-08-06T15:54:09.383Z","","","","MotivationQ","","","","","","","","","","","50","","","","","","","","","","","","","","","","","","","","","","","","","","",""
"","","","","ctl-task-cpt","43","993307","0.0-7.0-0.6","210","1","2025-08-06 15:39:05","36c45c0696341be0efffe67d72a12abb","41.13.96.189","Mozilla/5.0 (Windows NT 10.0; Win64; x64) AppleWebKit/537.36 (KHTML, like Gecko) Chrome/138.0.0.0 Safari/537.36","WebKit","Chrome","138.0.0.0","Windows","10.0","https://app.prolific.com/","en-US,en;q=0.9","5f60f6b65bd9c0022dcf9ace","687a1a965b9f5b85a264363e","6893770b1dd522853c83131b","1","5f60f6b65bd9c0022dcf9ace","1","2025-08-06T15:55:41.013Z","","","","","","","","","","","","","","","","win-only","3","g1:SW,g2:NE","0.4","7","0","904904.1","1904.6","6916.5","88593.8","1","4","8","6","2","-8","-8","0","2","0","5011.9","3000","-1030","[""up"",""right""]","{""num_key_presses"":16,""num_perfect"":8,""num_errors"":0,""num_randdir"":8,""num_randdir_good_moves"":2,""num_whilered"":0,""num_whileblue"":0,""num_blue"":8,""num_good_moves"":10}","[354.4642857142857,352.21428666796004,0.2,354.4642857142857,352.21428666796004,100.3,354.4642857142857,352.21428666796004,210.3,354.4642857142857,352.21428666796004,316,354.4642857142857,352.21428666796004,422.2,354.4642857142857,352.21428666796004,536.9,354.4642857142857,352.21428666796004,647.4,354.4642857142857,352.21428666796004,754.7,354.4642857142857,352.21428666796004,875.2,354.4642857142857,352.21428666796004,977.6,354.4642857142857,352.21428666796004,1089.6,354.4642857142857,352.21428666796004,1197.8,354.4642857142857,352.21428666796004,1303.5,354.4642857142857,352.21428666796004,1412.3,354.4642857142857,352.21428666796004,1517,354.4642857142857,352.21428666796004,1628.7,354.4642857142857,352.21428666796004,1734.9,354.4642857142857,352.21428666796004,1846.8,354.4642857142857,352.21428666796004,1951.9,354.4642857142857,352.21428666796004,2067.3,354.4642857142857,352.21428666796004,2174.7,354.4642857142857,352.21428666796004,2285.1,354.4642857142857,352.21428666796004,2399.1,354.4642857142857,352.21428666796004,2511.8,354.4642857142857,352.21428666796004,2613.8,354.4642857142857,352.21428666796004,2716.2,354.4642857142857,352.21428666796004,2828.8,354.4642857142857,352.21428666796004,2938.4,354.4642857142857,352.21428666796004,3042.3,354.4642857142857,352.21428666796004,3147.9,354.4642857142857,352.21428666796004,3250,354.4642857142857,352.21428666796004,3364.3,354.4642857142857,352.21428666796004,3468.1,354.4642857142857,352.21428666796004,3568.5,354.4642857142857,352.21428666796004,3679.7,354.4642857142857,352.21428666796004,3782.4,354.4642857142857,352.21428666796004,3882.4,354.4642857142857,352.21428666796004,3989.7,354.4642857142857,352.21428666796004,4098.8,354.4642857142857,352.21428666796004,4206.1,354.4642857142857,352.21428666796004,4315,354.4642857142857,352.21428666796004,4415.4,354.4642857142857,352.21428666796004,4528,354.4642857142857,352.21428666796004,4629.9,354.4642857142857,352.21428666796004,4736.9,354.4642857142857,352.21428666796004,4837.1,354.4642857142857,352.21428666796004,4942.3]","[1705,1705,1000,0,705,""oops"",""right"",""left"",""bad_move"",5069.1,3362.9,2729.5,1706.2,633.4,""smooth"",""up"",""up"",""good_move"",8253.8,3182.9,2762.4,5071,420.4,""oops"",""up"",""up"",""good_move"",11458.3,3200.6,2654.6,8257.7,546,""oops"",""up"",""down"",""bad_move"",23755.4,12294.7,1963.2,21312.9,479.3,""smooth"",""right"",""right"",""good_move"",26854.7,3098.9,2476.3,23755.8,622.6,""smooth"",""right"",""right"",""good_move"",37489.9,10632.1,2640.2,34342.8,506.9,""smooth"",""right"",""right"",""good_move"",40284.5,2792.6,2221.1,37491.9,571.5,""oops"",""right"",""down"",""bad_move"",43277.1,2989.9,2189.5,40287.2,800.4,""oops"",""right"",""down"",""bad_move"",46121.6,2844,2090.5,43277.6,753.5,""oops"",""right"",""right"",""good_move"",52118.7,5996.6,1785.7,49854.8,478.2,""oops"",""up"",""left"",""bad_move"",56355.2,4236,2624.9,52119.3,1611.1,""smooth"",""right"",""right"",""good_move"",62745.1,6389.4,2546.8,59641.6,556.7,""smooth"",""up"",""up"",""good_move"",67353.9,4608.2,2160.5,62745.8,2447.7,""oops"",""up"",""down"",""bad_move"",73921.6,6564.9,2481.6,70933,507,""smooth"",""up"",""up"",""good_move"",77285.5,3363,2631.4,73922.5,731.6,""smooth"",""up"",""up"",""good_move""]"
"57933","","<div style=""width:500px;"">
  <p>What determined the result of this run?</p>
  </div>","72","html-slider-response","44","1051242","0.0-7.0-1.6","210","1","2025-08-06 15:39:05","36c45c0696341be0efffe67d72a12abb","41.13.96.189","Mozilla/5.0 (Windows NT 10.0; Win64; x64) AppleWebKit/537.36 (KHTML, like Gecko) Chrome/138.0.0.0 Safari/537.36","WebKit","Chrome","138.0.0.0","Windows","10.0","https://app.prolific.com/","en-US,en;q=0.9","5f60f6b65bd9c0022dcf9ace","687a1a965b9f5b85a264363e","6893770b1dd522853c83131b","1","5f60f6b65bd9c0022dcf9ace","1","2025-08-06T15:56:38.948Z","","","","AttribQ","","","","","","","","","","","50","","","","","","","","","","","","","","","","","","","","","","","","","","",""
"4193","","<div style=""width:500px;"">
  <p>How much control did you have over the ball?</p>
  </div>","76","html-slider-response","45","1055438","0.0-7.0-2.6","210","1","2025-08-06 15:39:05","36c45c0696341be0efffe67d72a12abb","41.13.96.189","Mozilla/5.0 (Windows NT 10.0; Win64; x64) AppleWebKit/537.36 (KHTML, like Gecko) Chrome/138.0.0.0 Safari/537.36","WebKit","Chrome","138.0.0.0","Windows","10.0","https://app.prolific.com/","en-US,en;q=0.9","5f60f6b65bd9c0022dcf9ace","687a1a965b9f5b85a264363e","6893770b1dd522853c83131b","1","5f60f6b65bd9c0022dcf9ace","1","2025-08-06T15:56:43.144Z","","","","ControlQ","","","","","","","","","","","50","","","","","","","","","","","","","","","","","","","","","","","","","","",""
"4522","","<div style=""width:500px;"">
  <p>How would you describe your current emotional state?</p>
  </div>","25","html-slider-response","46","1059964","0.0-7.0-3.6","210","1","2025-08-06 15:39:05","36c45c0696341be0efffe67d72a12abb","41.13.96.189","Mozilla/5.0 (Windows NT 10.0; Win64; x64) AppleWebKit/537.36 (KHTML, like Gecko) Chrome/138.0.0.0 Safari/537.36","WebKit","Chrome","138.0.0.0","Windows","10.0","https://app.prolific.com/","en-US,en;q=0.9","5f60f6b65bd9c0022dcf9ace","687a1a965b9f5b85a264363e","6893770b1dd522853c83131b","1","5f60f6b65bd9c0022dcf9ace","1","2025-08-06T15:56:47.670Z","","","","StressQ","","","","","","","","","","","50","","","","","","","","","","","","","","","","","","","","","","","","","","",""
"4047","","<div style=""width:500px;"">
  <p>What best describes how you currently feel?</p>
  </div>","78","html-slider-response","47","1064013","0.0-7.0-4.6","210","1","2025-08-06 15:39:05","36c45c0696341be0efffe67d72a12abb","41.13.96.189","Mozilla/5.0 (Windows NT 10.0; Win64; x64) AppleWebKit/537.36 (KHTML, like Gecko) Chrome/138.0.0.0 Safari/537.36","WebKit","Chrome","138.0.0.0","Windows","10.0","https://app.prolific.com/","en-US,en;q=0.9","5f60f6b65bd9c0022dcf9ace","687a1a965b9f5b85a264363e","6893770b1dd522853c83131b","1","5f60f6b65bd9c0022dcf9ace","1","2025-08-06T15:56:51.719Z","","","","MotivationQ","","","","","","","","","","","50","","","","","","","","","","","","","","","","","","","","","","","","","","",""
"","","","","ctl-task-cpt","48","1099097","0.0-7.0-0.7","210","1","2025-08-06 15:39:05","36c45c0696341be0efffe67d72a12abb","41.13.96.189","Mozilla/5.0 (Windows NT 10.0; Win64; x64) AppleWebKit/537.36 (KHTML, like Gecko) Chrome/138.0.0.0 Safari/537.36","WebKit","Chrome","138.0.0.0","Windows","10.0","https://app.prolific.com/","en-US,en;q=0.9","5f60f6b65bd9c0022dcf9ace","687a1a965b9f5b85a264363e","6893770b1dd522853c83131b","1","5f60f6b65bd9c0022dcf9ace","1","2025-08-06T15:57:26.804Z","","","","","","","","","","","","","","","","win-only","1","g1:NE,g2:SW","0.3","8","0","1067242.2","1527.6","6537.3","32052.9","1","4","4","6","2","4","4","4","0","0.030303030303030304","5009.7","3000","1425","[""down"",""left""]","{""num_key_presses"":6,""num_perfect"":1,""num_errors"":0,""num_randdir"":5,""num_randdir_good_moves"":5,""num_whilered"":0,""num_whileblue"":0,""num_blue"":2,""num_good_moves"":6}","[343.2142857142857,352.21428666796004,1.5,343.2142857142857,352.21428666796004,103.9,343.2142857142857,352.21428666796004,209.3,343.2142857142857,352.21428666796004,321.3,343.2142857142857,352.21428666796004,433.5,343.2142857142857,352.21428666796004,534.7,343.2142857142857,352.21428666796004,638.2,343.2142857142857,352.21428666796004,755.4,343.2142857142857,352.21428666796004,855.4,343.2142857142857,352.21428666796004,958.6,343.2142857142857,352.21428666796004,1062.5,343.2142857142857,352.21428666796004,1163.8,343.2142857142857,352.21428666796004,1279.8,376.9642857142857,352.21428666796004,1395.1,415.7142857142857,344.71428666796004,1510.9,413.2142857142857,327.21428666796004,1613.8,406.9642857142857,315.96428666796004,1715,401.9642857142857,307.21428666796004,1828.4,400.7142857142857,308.46428666796004,1938,400.7142857142857,308.46428666796004,2052.1,400.7142857142857,308.46428666796004,2153.9,400.7142857142857,308.46428666796004,2256.1,400.7142857142857,308.46428666796004,2364.4,400.7142857142857,308.46428666796004,2466.1,400.7142857142857,308.46428666796004,2579.8,400.7142857142857,308.46428666796004,2694.2,400.7142857142857,308.46428666796004,2796.6,400.7142857142857,308.46428666796004,2900.6,400.7142857142857,308.46428666796004,3005.7,400.7142857142857,308.46428666796004,3119.2,400.7142857142857,308.46428666796004,3219.6,400.7142857142857,308.46428666796004,3327.9,400.7142857142857,308.46428666796004,3434,400.7142857142857,308.46428666796004,3544.3,400.7142857142857,308.46428666796004,3656.4,400.7142857142857,308.46428666796004,3759.1,400.7142857142857,308.46428666796004,3862,400.7142857142857,308.46428666796004,3969.2,400.7142857142857,308.46428666796004,4079.8,400.7142857142857,308.46428666796004,4187.5,400.7142857142857,308.46428666796004,4298.9,400.7142857142857,308.46428666796004,4405.3,400.7142857142857,308.46428666796004,4520.4,400.7142857142857,308.46428666796004,4626.3,400.7142857142857,308.46428666796004,4728.7,400.7142857142857,308.46428666796004,4836.4,400.7142857142857,308.46428666796004,4941.2]","[1878,1878,1000,0.1,877.9,""oops"",""down"",""left"",""good_move"",5361.1,3482.1,2681.6,1879.1,800.4,""smooth"",""left"",""left"",""good_move"",15212.6,9848.4,2600.7,12111.4,500.5,""oops"",""left"",""left"",""good_move"",18863.6,3649.5,2143.5,15214.1,1506,""oops"",""down"",""down"",""good_move"",22595.4,3731.2,3034.7,18864.2,696.6,""oops"",""down"",""down"",""good_move"",25282,2685.6,1996.9,22596.5,688.7,""oops"",""down"",""down"",""good_move""]"
"440059","","<div style=""width:500px;"">
  <p>What determined the result of this run?</p>
  </div>","75","html-slider-response","49","1539158","0.0-7.0-1.7","210","1","2025-08-06 15:39:05","36c45c0696341be0efffe67d72a12abb","41.13.96.189","Mozilla/5.0 (Windows NT 10.0; Win64; x64) AppleWebKit/537.36 (KHTML, like Gecko) Chrome/138.0.0.0 Safari/537.36","WebKit","Chrome","138.0.0.0","Windows","10.0","https://app.prolific.com/","en-US,en;q=0.9","5f60f6b65bd9c0022dcf9ace","687a1a965b9f5b85a264363e","6893770b1dd522853c83131b","1","5f60f6b65bd9c0022dcf9ace","1","2025-08-06T16:04:46.864Z","","","","AttribQ","","","","","","","","","","","50","","","","","","","","","","","","","","","","","","","","","","","","","","",""
"3411","","<div style=""width:500px;"">
  <p>How much control did you have over the ball?</p>
  </div>","31","html-slider-response","50","1542608","0.0-7.0-2.7","210","1","2025-08-06 15:39:05","36c45c0696341be0efffe67d72a12abb","41.13.96.189","Mozilla/5.0 (Windows NT 10.0; Win64; x64) AppleWebKit/537.36 (KHTML, like Gecko) Chrome/138.0.0.0 Safari/537.36","WebKit","Chrome","138.0.0.0","Windows","10.0","https://app.prolific.com/","en-US,en;q=0.9","5f60f6b65bd9c0022dcf9ace","687a1a965b9f5b85a264363e","6893770b1dd522853c83131b","1","5f60f6b65bd9c0022dcf9ace","1","2025-08-06T16:04:50.314Z","","","","ControlQ","","","","","","","","","","","50","","","","","","","","","","","","","","","","","","","","","","","","","","",""
"7481","","<div style=""width:500px;"">
  <p>How would you describe your current emotional state?</p>
  </div>","28","html-slider-response","51","1550091","0.0-7.0-3.7","210","1","2025-08-06 15:39:05","36c45c0696341be0efffe67d72a12abb","41.13.96.189","Mozilla/5.0 (Windows NT 10.0; Win64; x64) AppleWebKit/537.36 (KHTML, like Gecko) Chrome/138.0.0.0 Safari/537.36","WebKit","Chrome","138.0.0.0","Windows","10.0","https://app.prolific.com/","en-US,en;q=0.9","5f60f6b65bd9c0022dcf9ace","687a1a965b9f5b85a264363e","6893770b1dd522853c83131b","1","5f60f6b65bd9c0022dcf9ace","1","2025-08-06T16:04:57.797Z","","","","StressQ","","","","","","","","","","","50","","","","","","","","","","","","","","","","","","","","","","","","","","",""
"6779","","<div style=""width:500px;"">
  <p>What best describes how you currently feel?</p>
  </div>","86","html-slider-response","52","1556873","0.0-7.0-4.7","210","1","2025-08-06 15:39:05","36c45c0696341be0efffe67d72a12abb","41.13.96.189","Mozilla/5.0 (Windows NT 10.0; Win64; x64) AppleWebKit/537.36 (KHTML, like Gecko) Chrome/138.0.0.0 Safari/537.36","WebKit","Chrome","138.0.0.0","Windows","10.0","https://app.prolific.com/","en-US,en;q=0.9","5f60f6b65bd9c0022dcf9ace","687a1a965b9f5b85a264363e","6893770b1dd522853c83131b","1","5f60f6b65bd9c0022dcf9ace","1","2025-08-06T16:05:04.579Z","","","","MotivationQ","","","","","","","","","","","50","","","","","","","","","","","","","","","","","","","","","","","","","","",""
"","","","","ctl-task-cpt","53","1625582","0.0-7.0-0.8","210","1","2025-08-06 15:39:05","36c45c0696341be0efffe67d72a12abb","41.13.96.189","Mozilla/5.0 (Windows NT 10.0; Win64; x64) AppleWebKit/537.36 (KHTML, like Gecko) Chrome/138.0.0.0 Safari/537.36","WebKit","Chrome","138.0.0.0","Windows","10.0","https://app.prolific.com/","en-US,en;q=0.9","5f60f6b65bd9c0022dcf9ace","687a1a965b9f5b85a264363e","6893770b1dd522853c83131b","1","5f60f6b65bd9c0022dcf9ace","1","2025-08-06T16:06:13.288Z","","","","","","","","","","","","","","","","win-only","0","g1:NW,g2:SE","0.4","9","0","1560138.4","2117.5","7122","65632.8","1","4","4","6","2","4","2","6","4","0.045454545454545456","5004.5","3000","335","[""down"",""right""]","{""num_key_presses"":17,""num_perfect"":7,""num_errors"":2,""num_randdir"":8,""num_randdir_good_moves"":4,""num_whilered"":0,""num_whileblue"":1,""num_blue"":2,""num_good_moves"":11}","[344.4642857142857,352.21428666796004,0.6,344.4642857142857,352.21428666796004,100,344.4642857142857,352.21428666796004,215.5,344.4642857142857,352.21428666796004,319.9,344.4642857142857,352.21428666796004,430.9,344.4642857142857,352.21428666796004,551.7,344.4642857142857,352.21428666796004,662.6,344.4642857142857,352.21428666796004,772.7,344.4642857142857,352.21428666796004,886.5,344.4642857142857,352.21428666796004,1000.1,344.4642857142857,352.21428666796004,1104.5,344.4642857142857,352.21428666796004,1212.9,344.4642857142857,352.21428666796004,1318.9,344.4642857142857,352.21428666796004,1419.5,344.4642857142857,352.21428666796004,1526.1,344.4642857142857,352.21428666796004,1633.6,344.4642857142857,352.21428666796004,1742.1,344.4642857142857,352.21428666796004,1853.8,344.4642857142857,352.21428666796004,1958,344.4642857142857,352.21428666796004,2069.4,344.4642857142857,352.21428666796004,2175.2,344.4642857142857,352.21428666796004,2279.9,344.4642857142857,352.21428666796004,2391.3,344.4642857142857,352.21428666796004,2503.7,344.4642857142857,352.21428666796004,2617.9,344.4642857142857,352.21428666796004,2719,344.4642857142857,352.21428666796004,2826.9,344.4642857142857,352.21428666796004,2938.9,344.4642857142857,352.21428666796004,3048.1,344.4642857142857,352.21428666796004,3149.5,344.4642857142857,352.21428666796004,3254,344.4642857142857,352.21428666796004,3368.1,344.4642857142857,352.21428666796004,3483.1,344.4642857142857,352.21428666796004,3584.9,344.4642857142857,352.21428666796004,3687,344.4642857142857,352.21428666796004,3789,344.4642857142857,352.21428666796004,3902.2,344.4642857142857,352.21428666796004,4005.9,344.4642857142857,352.21428666796004,4111.5,344.4642857142857,352.21428666796004,4223,344.4642857142857,352.21428666796004,4332.6,344.4642857142857,352.21428666796004,4435.9,344.4642857142857,352.21428666796004,4538.6,344.4642857142857,352.21428666796004,4652,344.4642857142857,352.21428666796004,4767.3,344.4642857142857,352.21428666796004,4877,344.4642857142857,352.21428666796004,4989.1]","[554,554,1000,0,-446,""error"",""-"",""-"",""no_move"",5242.9,4688.6,3084.5,1559.4,599,""oops"",""right"",""up"",""bad_move"",8831.2,3587.3,2979.9,5243.9,607.4,""oops"",""right"",""up"",""bad_move"",15775.1,6942.2,2725.4,12528.6,521.1,""oops"",""right"",""down"",""good_move"",18994.7,3218.9,2704.7,15775.8,514.2,""oops"",""right"",""up"",""bad_move"",22489.3,3493.3,2972,18996,521.3,""smooth"",""right"",""right"",""good_move"",26250.5,3760.4,2682.6,22490.2,1077.7,""smooth"",""right"",""right"",""good_move"",29730.5,3479.2,2760.5,26251.3,718.7,""oops"",""right"",""left"",""bad_move"",33148.7,3414.7,2819.9,29734,594.8,""smooth"",""right"",""right"",""good_move"",36055,2904.7,2508.6,33150.3,396.1,""while_blue"",""right"",""left"",""bad_move"",39813.5,3757.1,3080,36056.4,677.1,""smooth"",""right"",""right"",""good_move"",42996.4,3181.8,2168.2,39814.7,1013.5,""oops"",""right"",""right"",""good_move"",45851.3,2854,2390.5,42997.3,463.5,""smooth"",""down"",""down"",""good_move"",48570.4,2717.4,2270.4,45853,447,""smooth"",""down"",""down"",""good_move"",51095.4,2524.4,2133.6,48571,390.9,""oops"",""down"",""down"",""good_move"",55056.5,3958.8,3485.5,51097.7,473.3,""smooth"",""down"",""down"",""good_move"",58155.7,3098.7,2588,55057,510.7,""oops"",""down"",""down"",""good_move""]"
"6459","","<div style=""width:500px;"">
  <p>What determined the result of this run?</p>
  </div>","84","html-slider-response","54","1632043","0.0-7.0-1.8","210","1","2025-08-06 15:39:05","36c45c0696341be0efffe67d72a12abb","41.13.96.189","Mozilla/5.0 (Windows NT 10.0; Win64; x64) AppleWebKit/537.36 (KHTML, like Gecko) Chrome/138.0.0.0 Safari/537.36","WebKit","Chrome","138.0.0.0","Windows","10.0","https://app.prolific.com/","en-US,en;q=0.9","5f60f6b65bd9c0022dcf9ace","687a1a965b9f5b85a264363e","6893770b1dd522853c83131b","1","5f60f6b65bd9c0022dcf9ace","1","2025-08-06T16:06:19.749Z","","","","AttribQ","","","","","","","","","","","50","","","","","","","","","","","","","","","","","","","","","","","","","","",""
"7437","","<div style=""width:500px;"">
  <p>How much control did you have over the ball?</p>
  </div>","19","html-slider-response","55","1639482","0.0-7.0-2.8","210","1","2025-08-06 15:39:05","36c45c0696341be0efffe67d72a12abb","41.13.96.189","Mozilla/5.0 (Windows NT 10.0; Win64; x64) AppleWebKit/537.36 (KHTML, like Gecko) Chrome/138.0.0.0 Safari/537.36","WebKit","Chrome","138.0.0.0","Windows","10.0","https://app.prolific.com/","en-US,en;q=0.9","5f60f6b65bd9c0022dcf9ace","687a1a965b9f5b85a264363e","6893770b1dd522853c83131b","1","5f60f6b65bd9c0022dcf9ace","1","2025-08-06T16:06:27.188Z","","","","ControlQ","","","","","","","","","","","50","","","","","","","","","","","","","","","","","","","","","","","","","","",""
"6959","","<div style=""width:500px;"">
  <p>How would you describe your current emotional state?</p>
  </div>","9","html-slider-response","56","1646444","0.0-7.0-3.8","210","1","2025-08-06 15:39:05","36c45c0696341be0efffe67d72a12abb","41.13.96.189","Mozilla/5.0 (Windows NT 10.0; Win64; x64) AppleWebKit/537.36 (KHTML, like Gecko) Chrome/138.0.0.0 Safari/537.36","WebKit","Chrome","138.0.0.0","Windows","10.0","https://app.prolific.com/","en-US,en;q=0.9","5f60f6b65bd9c0022dcf9ace","687a1a965b9f5b85a264363e","6893770b1dd522853c83131b","1","5f60f6b65bd9c0022dcf9ace","1","2025-08-06T16:06:34.150Z","","","","StressQ","","","","","","","","","","","50","","","","","","","","","","","","","","","","","","","","","","","","","","",""
"11648","","<div style=""width:500px;"">
  <p>What best describes how you currently feel?</p>
  </div>","86","html-slider-response","57","1658097","0.0-7.0-4.8","210","1","2025-08-06 15:39:05","36c45c0696341be0efffe67d72a12abb","41.13.96.189","Mozilla/5.0 (Windows NT 10.0; Win64; x64) AppleWebKit/537.36 (KHTML, like Gecko) Chrome/138.0.0.0 Safari/537.36","WebKit","Chrome","138.0.0.0","Windows","10.0","https://app.prolific.com/","en-US,en;q=0.9","5f60f6b65bd9c0022dcf9ace","687a1a965b9f5b85a264363e","6893770b1dd522853c83131b","1","5f60f6b65bd9c0022dcf9ace","1","2025-08-06T16:06:45.803Z","","","","MotivationQ","","","","","","","","","","","50","","","","","","","","","","","","","","","","","","","","","","","","","","",""
"","","","","ctl-task-cpt","58","1716521","0.0-7.0-0.9","210","1","2025-08-06 15:39:05","36c45c0696341be0efffe67d72a12abb","41.13.96.189","Mozilla/5.0 (Windows NT 10.0; Win64; x64) AppleWebKit/537.36 (KHTML, like Gecko) Chrome/138.0.0.0 Safari/537.36","WebKit","Chrome","138.0.0.0","Windows","10.0","https://app.prolific.com/","en-US,en;q=0.9","5f60f6b65bd9c0022dcf9ace","687a1a965b9f5b85a264363e","6893770b1dd522853c83131b","1","5f60f6b65bd9c0022dcf9ace","1","2025-08-06T16:07:44.227Z","","","","","","","","","","","","","","","","win-only","1","g1:NE,g2:SW","0.5","10","0","1661325","1764.9","6769.1","55392.5","1","4","8","6","1","-1","-1","5","6","0.03787878787878788","5004.1","3000","-785","[""up"",""right""]","{""num_key_presses"":10,""num_perfect"":5,""num_errors"":0,""num_randdir"":5,""num_randdir_good_moves"":2,""num_whilered"":0,""num_whileblue"":0,""num_blue"":2,""num_good_moves"":2}","[350.7142857142857,352.21428666796004,0.4,350.7142857142857,352.21428666796004,109.5,350.7142857142857,352.21428666796004,210.9,350.7142857142857,352.21428666796004,317.5,350.7142857142857,352.21428666796004,428.7,350.7142857142857,352.21428666796004,530.5,350.7142857142857,352.21428666796004,648.3,350.7142857142857,352.21428666796004,756.8,350.7142857142857,352.21428666796004,858.4,350.7142857142857,352.21428666796004,972.4,350.7142857142857,352.21428666796004,1074.7,350.7142857142857,352.21428666796004,1181,350.7142857142857,344.71428666796004,1299.5,348.2142857142857,327.21428666796004,1411,346.9642857142857,319.71428666796004,1525.9,349.4642857142857,318.46428666796004,1627.5,349.4642857142857,318.46428666796004,1734.2,349.4642857142857,318.46428666796004,1843.4,349.4642857142857,318.46428666796004,1959.3,349.4642857142857,318.46428666796004,2061.3,349.4642857142857,318.46428666796004,2176.1,349.4642857142857,318.46428666796004,2292.6,349.4642857142857,318.46428666796004,2397.6,349.4642857142857,318.46428666796004,2504.7,349.4642857142857,318.46428666796004,2613.6,349.4642857142857,318.46428666796004,2725.8,349.4642857142857,318.46428666796004,2830.3,349.4642857142857,318.46428666796004,2932.7,349.4642857142857,318.46428666796004,3036.3,349.4642857142857,318.46428666796004,3146.9,349.4642857142857,318.46428666796004,3251.7,349.4642857142857,318.46428666796004,3358.2,349.4642857142857,318.46428666796004,3462.6,349.4642857142857,318.46428666796004,3563.3,349.4642857142857,318.46428666796004,3672.2,349.4642857142857,318.46428666796004,3780.2,349.4642857142857,318.46428666796004,3886.6,349.4642857142857,318.46428666796004,3989.8,349.4642857142857,318.46428666796004,4094.9,349.4642857142857,318.46428666796004,4198.2,349.4642857142857,318.46428666796004,4305,349.4642857142857,318.46428666796004,4410.9,349.4642857142857,318.46428666796004,4512.2,349.4642857142857,318.46428666796004,4619.3,349.4642857142857,318.46428666796004,4732.6,349.4642857142857,318.46428666796004,4838.2,349.4642857142857,318.46428666796004,4952.5]","[1481.9,1481.9,1000,0,481.9,""smooth"",""left"",""left"",""bad_move"",5594.9,4110.5,2351.7,1484.4,1758.8,""smooth"",""left"",""left"",""bad_move"",9601.5,4006,2334.2,5595.5,1671.8,""oops"",""left"",""right"",""good_move"",14498.5,4893.1,2928.5,9605.4,1964.6,""oops"",""left"",""down"",""bad_move"",17942.4,3443.5,2960.1,14499,483.4,""oops"",""left"",""right"",""good_move"",20947.6,3002.4,2521.9,17945.2,480.5,""smooth"",""left"",""left"",""bad_move"",24518,3568.1,3101.8,20950,466.2,""smooth"",""left"",""left"",""bad_move"",32119.8,7598.8,2250.1,28921.6,948.1,""oops"",""left"",""left"",""bad_move"",39215.6,7093.5,2569.2,36154.6,491.8,""smooth"",""down"",""down"",""bad_move"",42083.1,2866.7,2385.7,39216.4,481,""oops"",""down"",""down"",""bad_move""]"