"rt","response_timestamp","stimulus","response","trial_type","trial_index","time_elapsed","internal_node_id","run_id","condition","recorded_at","source_code_version","ip","user_agent","device","browser","browser_version","platform","platform_version","referer","accept_language","PROLIFIC_PID","STUDY_ID","SESSION_ID","BATCH","prolific_id","batch","realtime","success","question_order","question_id","eventType","responses","item_order","radio_event_ids","radio_event_times","key_event_times","mouse_event_times","straightlining","zigzagging","honeypot","view_history","slider_start","which_type","canvas_config","goals_layout","control_level","trial_number","tutorial_trial_number","trial_start_time","phase1_start_time","phase2_start_time","phase3_start_time","goal_1_value","goal_1_distance","goal_2_value","goal_2_distance","goal_selected","outcome","outcome_total","participant_final_score","participant_initial_score","participant_final_score_prop","goal_choice_rt","allocated_time","allocated_time_remaining","goal_direction","counts","mouse_movements","key_presses"
"2366","1753865487783","<p style='font-size:40px;line-height:1.25'><strong>Welcome to the experiment!</strong></p><p style='font-size:1.1em;line-height:1.25'>Thank you for participanting in our experiment again! You will be asked to play the Dysfunctional Ball Game again. We will briefly recap the rules before we start.</p><p style='font-size:1.1em;line-height:1.25'>Press <strong>Next</strong> to continue.</p>","0","custom-html-button-response","0","2368","0.0-0.0","62","1","2025-07-30 08:51:24","36c45c0696341be0efffe67d72a12abb","81.110.85.100","Mozilla/5.0 (Macintosh; Intel Mac OS X 10_15_7) AppleWebKit/537.36 (KHTML, like Gecko) Chrome/138.0.0.0 Safari/537.36","Macintosh","Chrome","138.0.0.0","OS X","10_15_7","https://app.prolific.com/","en-GB,en-US;q=0.9,en;q=0.8","5fe0b183d8918b2030aa99a0","687a360dabe5252b5ada7185","6889dd00696d82325ec93baf","0","5fe0b183d8918b2030aa99a0","0","2025-07-30T08:51:27.785Z","","","","","","","","","","","","","","","","","","","","","","","","","","","","","","","","","","","","","","","","","",""
"6280","","","","fullscreen","1","9653","0.0-1.0","62","1","2025-07-30 08:51:24","36c45c0696341be0efffe67d72a12abb","81.110.85.100","Mozilla/5.0 (Macintosh; Intel Mac OS X 10_15_7) AppleWebKit/537.36 (KHTML, like Gecko) Chrome/138.0.0.0 Safari/537.36","Macintosh","Chrome","138.0.0.0","OS X","10_15_7","https://app.prolific.com/","en-GB,en-US;q=0.9,en;q=0.8","5fe0b183d8918b2030aa99a0","687a360dabe5252b5ada7185","6889dd00696d82325ec93baf","0","5fe0b183d8918b2030aa99a0","0","","true","","","","","","","","","","","","","","","","","","","","","","","","","","","","","","","","","","","","","","","","",""
"1969","1753865497039"," <p style='font-size:1.1em;line-height:1.25'>Thank you for closing all other tabs.</p><p style='font-size:1.1em;line-height:1.25'>We will now invite you to fill in some questionnaires, before starting the game.<br>This will take about 5 minutes.<br></p><p style='font-size:1.1em;line-height:1.25'>Press the <strong>Next</strong> button to continue.</p>","0","custom-html-button-response","2","11624","0.0-2.0","62","1","2025-07-30 08:51:24","36c45c0696341be0efffe67d72a12abb","81.110.85.100","Mozilla/5.0 (Macintosh; Intel Mac OS X 10_15_7) AppleWebKit/537.36 (KHTML, like Gecko) Chrome/138.0.0.0 Safari/537.36","Macintosh","Chrome","138.0.0.0","OS X","10_15_7","https://app.prolific.com/","en-GB,en-US;q=0.9,en;q=0.8","5fe0b183d8918b2030aa99a0","687a360dabe5252b5ada7185","6889dd00696d82325ec93baf","0","5fe0b183d8918b2030aa99a0","0","2025-07-30T08:51:37.040Z","","","","","","","","","","","","","","","","","","","","","","","","","","","","","","","","","","","","","","","","","",""
"2794","","","{""assigned_sex"":""female""}","survey-multi-choice","3","14421","0.0-3.0-0.0","62","1","2025-07-30 08:51:24","36c45c0696341be0efffe67d72a12abb","81.110.85.100","Mozilla/5.0 (Macintosh; Intel Mac OS X 10_15_7) AppleWebKit/537.36 (KHTML, like Gecko) Chrome/138.0.0.0 Safari/537.36","Macintosh","Chrome","138.0.0.0","OS X","10_15_7","https://app.prolific.com/","en-GB,en-US;q=0.9,en;q=0.8","5fe0b183d8918b2030aa99a0","687a360dabe5252b5ada7185","6889dd00696d82325ec93baf","0","5fe0b183d8918b2030aa99a0","0","","","[0]","0","demographics","","","","","","","","","","","","","","","","","","","","","","","","","","","","","","","","","","","","","",""
"2901","1753865502739","<p style='font-size:1.1em;line-height:1.25'>In the following, we will perform a baseline assessment. This means that we will ask you a few questions relating to your experiences over the past month.<br></p><p style='font-size:1.1em;line-height:1.25'>Press the <strong>Next</strong> button to continue.</p>","0","custom-html-button-response","4","17324","0.0-4.0-0.0","62","1","2025-07-30 08:51:24","36c45c0696341be0efffe67d72a12abb","81.110.85.100","Mozilla/5.0 (Macintosh; Intel Mac OS X 10_15_7) AppleWebKit/537.36 (KHTML, like Gecko) Chrome/138.0.0.0 Safari/537.36","Macintosh","Chrome","138.0.0.0","OS X","10_15_7","https://app.prolific.com/","en-GB,en-US;q=0.9,en;q=0.8","5fe0b183d8918b2030aa99a0","687a360dabe5252b5ada7185","6889dd00696d82325ec93baf","0","5fe0b183d8918b2030aa99a0","0","2025-07-30T08:51:42.740Z","","","","","","","","","","","","","","","","","","","","","","","","","","","","","","","","","","","","","","","","","",""
"38937.09999990463","","","","survey-template","5","56265","0.0-4.0-1.0","62","1","2025-07-30 08:51:24","36c45c0696341be0efffe67d72a12abb","81.110.85.100","Mozilla/5.0 (Macintosh; Intel Mac OS X 10_15_7) AppleWebKit/537.36 (KHTML, like Gecko) Chrome/138.0.0.0 Safari/537.36","Macintosh","Chrome","138.0.0.0","OS X","10_15_7","https://app.prolific.com/","en-GB,en-US;q=0.9,en;q=0.8","5fe0b183d8918b2030aa99a0","687a360dabe5252b5ada7185","6889dd00696d82325ec93baf","0","5fe0b183d8918b2030aa99a0","0","2025-07-30T08:52:21.681Z","","","","pss","{""Q01"":""1"",""Q02"":""2"",""Q03"":""2"",""Q04"":""1"",""Q05"":""2"",""Q06"":""2"",""Q07"":""1"",""Q08"":""2"",""Q09"":""1"",""Q10"":""2""}","[0,1,2,3,4,5,6,7,8,9]","[""Q01"",""Q01"",""Q02"",""Q03"",""Q03"",""Q03"",""Q04"",""Q04"",""Q05"",""Q06"",""Q07"",""Q08"",""Q08"",""Q09"",""Q10""]","[6718.900000095367,8803.599999904633,10421.599999904633,12212.099999904633,14093.699999809265,15702.5,17305,19694.199999809265,22330.5,25073.199999809265,27757.900000095367,29569.599999904633,32108.099999904633,34725.09999990463,38226.5]","[]","[6.699999809265137,6718.900000095367,7918.900000095367,8803.599999904633,9655.5,10421.599999904633,11395.5,12212.099999904633,13711.099999904633,14093.699999809265,15134.099999904633,15702.5,17305,19694.199999809265,22330.5,24307.400000095367,25073.199999809265,27757.900000095367,29569.599999904633,32108.099999904633,34725.09999990463,38226.5,38933.90000009537]","0.6","0.7777777777777778","0","","","","","","","","","","","","","","","","","","","","","","","","","","","","",""
"1577","1753865543260","<p style='font-size:1.1em;line-height:1.25'>Thank you for your answers! Now we will ask you a few more questions relating to your feelings in the last 24 hours.<br></p><p style='font-size:1.1em;line-height:1.25'>Press the <strong>Next</strong> button to continue.</p>","0","custom-html-button-response","6","57845","0.0-4.0-2.0","62","1","2025-07-30 08:51:24","36c45c0696341be0efffe67d72a12abb","81.110.85.100","Mozilla/5.0 (Macintosh; Intel Mac OS X 10_15_7) AppleWebKit/537.36 (KHTML, like Gecko) Chrome/138.0.0.0 Safari/537.36","Macintosh","Chrome","138.0.0.0","OS X","10_15_7","https://app.prolific.com/","en-GB,en-US;q=0.9,en;q=0.8","5fe0b183d8918b2030aa99a0","687a360dabe5252b5ada7185","6889dd00696d82325ec93baf","0","5fe0b183d8918b2030aa99a0","0","2025-07-30T08:52:23.261Z","","","","","","","","","","","","","","","","","","","","","","","","","","","","","","","","","","","","","","","","","",""
"52489.09999990463","","","","survey-template","7","110340","0.0-4.0-3.0","62","1","2025-07-30 08:51:24","36c45c0696341be0efffe67d72a12abb","81.110.85.100","Mozilla/5.0 (Macintosh; Intel Mac OS X 10_15_7) AppleWebKit/537.36 (KHTML, like Gecko) Chrome/138.0.0.0 Safari/537.36","Macintosh","Chrome","138.0.0.0","OS X","10_15_7","https://app.prolific.com/","en-GB,en-US;q=0.9,en;q=0.8","5fe0b183d8918b2030aa99a0","687a360dabe5252b5ada7185","6889dd00696d82325ec93baf","0","5fe0b183d8918b2030aa99a0","0","2025-07-30T08:53:15.757Z","","","","drsp","{""Q01"":""1"",""Q02"":""0"",""Q03"":""0"",""Q04"":""3"",""Q05"":""2"",""Q06"":""1"",""Q07"":""0"",""Q08"":""0"",""Q09"":""0"",""Q10"":""3"",""Q11"":""4"",""Q12"":""1"",""Q13"":""5"",""Q14"":""2"",""Q15"":""4"",""Q16"":""4"",""Q17"":""2"",""Q18"":""2"",""Q19"":""4"",""Q20"":""3"",""Q21"":""2"",""Q22"":""1""}","[0,1,2,3,4,5,6,7,8,9,10,11,12,13,14,15,16,17,18,19,20,21]","[""Q01"",""Q02"",""Q03"",""Q04"",""Q05"",""Q06"",""Q07"",""Q08"",""Q09"",""Q10"",""Q11"",""Q11"",""Q12"",""Q13"",""Q14"",""Q15"",""Q16"",""Q17"",""Q18"",""Q19"",""Q20"",""Q20"",""Q21"",""Q22""]","[4426.5,5515.199999809265,6281.599999904633,7986.699999809265,11041.299999713898,13597.699999809265,14801.299999713898,16839.400000095367,18062.199999809265,19213.599999904633,20953.299999713898,21782.299999713898,23445.900000095367,26486.5,29356.099999904633,31979.599999904633,34013.40000009537,36441.2999997139,37982.40000009537,41195.7999997139,44134.699999809265,46728.5,47290.59999990463,50169.5]","[]","[7.299999713897705,4426.5,5515.199999809265,6281.599999904633,7986.699999809265,10236,11041.299999713898,13597.699999809265,14801.299999713898,15651.900000095367,16839.400000095367,17457.299999713898,18062.199999809265,18764.5,19213.599999904633,20953.299999713898,21439.099999904633,21782.299999713898,23445.900000095367,25325.599999904633,25932.099999904633,26486.5,29356.099999904633,31291.099999904633,31979.599999904633,33414.09999990463,34013.40000009537,35756.09999990463,36441.2999997139,37209.59999990463,37660.90000009537,37982.40000009537,41195.7999997139,44134.699999809265,46728.5,47290.59999990463,49486.199999809265,50169.5,52484.2999997139]","0.22727272727272727","0.38095238095238093","0","","","","","","","","","","","","","","","","","","","","","","","","","","","","",""
"10242.599999904633","","","","survey-template","8","120586","0.0-4.0-4.0","62","1","2025-07-30 08:51:24","36c45c0696341be0efffe67d72a12abb","81.110.85.100","Mozilla/5.0 (Macintosh; Intel Mac OS X 10_15_7) AppleWebKit/537.36 (KHTML, like Gecko) Chrome/138.0.0.0 Safari/537.36","Macintosh","Chrome","138.0.0.0","OS X","10_15_7","https://app.prolific.com/","en-GB,en-US;q=0.9,en;q=0.8","5fe0b183d8918b2030aa99a0","687a360dabe5252b5ada7185","6889dd00696d82325ec93baf","0","5fe0b183d8918b2030aa99a0","0","2025-07-30T08:53:26.002Z","","","","stress","{""Q01"":""3"",""Q02"":""2"",""Q03"":""3""}","[0,1,2]","[""Q01"",""Q02"",""Q03""]","[4392.099999904633,6876.5,9420.699999809265]","[]","[4392.099999904633,6876.5,8892.199999809265,9420.699999809265,10241.39999961853]","1","0","0","","","","","","","","","","","","","","","","","","","","","","","","","","","","",""
"20688","","","","instructions","9","141283","0.0-5.0-0.0","62","1","2025-07-30 08:51:24","36c45c0696341be0efffe67d72a12abb","81.110.85.100","Mozilla/5.0 (Macintosh; Intel Mac OS X 10_15_7) AppleWebKit/537.36 (KHTML, like Gecko) Chrome/138.0.0.0 Safari/537.36","Macintosh","Chrome","138.0.0.0","OS X","10_15_7","https://app.prolific.com/","en-GB,en-US;q=0.9,en;q=0.8","5fe0b183d8918b2030aa99a0","687a360dabe5252b5ada7185","6889dd00696d82325ec93baf","0","5fe0b183d8918b2030aa99a0","0","","","","","","","","","","","","","","","[{""page_index"":0,""viewing_time"":20687}]","","","","","","","","","","","","","","","","","","","","","","","","","","","",""
"3286","","<p>Before you start with this game please answer the following three questions yourself. </p>
  <p>Through this game, we measure several aspects of your cognitive performance, such as reaction times, multi-tasking capabilities </p>
  <p>and the ability to assess the situation you are in.</p>
  <p></p>
  <p><b>How good do you usually are in such tasks?</b></p>","50","html-slider-response","10","144575","0.0-6.0-0.0","62","1","2025-07-30 08:51:24","36c45c0696341be0efffe67d72a12abb","81.110.85.100","Mozilla/5.0 (Macintosh; Intel Mac OS X 10_15_7) AppleWebKit/537.36 (KHTML, like Gecko) Chrome/138.0.0.0 Safari/537.36","Macintosh","Chrome","138.0.0.0","OS X","10_15_7","https://app.prolific.com/","en-GB,en-US;q=0.9,en;q=0.8","5fe0b183d8918b2030aa99a0","687a360dabe5252b5ada7185","6889dd00696d82325ec93baf","0","5fe0b183d8918b2030aa99a0","0","2025-07-30T08:53:49.991Z","","","","PreSkillQ","","","","","","","","","","","50","","","","","","","","","","","","","","","","","","","","","","","","","","",""
"3282","","<div style=""width:500px;"">
  <p>How well do you think you will perform in this task compared to other participants?</p>
  </div>","47","html-slider-response","11","147860","0.0-6.0-1.0","62","1","2025-07-30 08:51:24","36c45c0696341be0efffe67d72a12abb","81.110.85.100","Mozilla/5.0 (Macintosh; Intel Mac OS X 10_15_7) AppleWebKit/537.36 (KHTML, like Gecko) Chrome/138.0.0.0 Safari/537.36","Macintosh","Chrome","138.0.0.0","OS X","10_15_7","https://app.prolific.com/","en-GB,en-US;q=0.9,en;q=0.8","5fe0b183d8918b2030aa99a0","687a360dabe5252b5ada7185","6889dd00696d82325ec93baf","0","5fe0b183d8918b2030aa99a0","0","2025-07-30T08:53:53.276Z","","","","PrePerfQ","","","","","","","","","","","50","","","","","","","","","","","","","","","","","","","","","","","","","","",""
"2848","","<div style=""width:500px;"">
  <p>What best describes how you currently feel?</p>
  </div>","73","html-slider-response","12","150710","0.0-6.0-2.0","62","1","2025-07-30 08:51:24","36c45c0696341be0efffe67d72a12abb","81.110.85.100","Mozilla/5.0 (Macintosh; Intel Mac OS X 10_15_7) AppleWebKit/537.36 (KHTML, like Gecko) Chrome/138.0.0.0 Safari/537.36","Macintosh","Chrome","138.0.0.0","OS X","10_15_7","https://app.prolific.com/","en-GB,en-US;q=0.9,en;q=0.8","5fe0b183d8918b2030aa99a0","687a360dabe5252b5ada7185","6889dd00696d82325ec93baf","0","5fe0b183d8918b2030aa99a0","0","2025-07-30T08:53:56.127Z","","","","PreMotivationQ","","","","","","","","","","","50","","","","","","","","","","","","","","","","","","","","","","","","","","",""
"","","","","ctl-task-cpt","13","188588","0.0-7.0-0.0","62","1","2025-07-30 08:51:24","36c45c0696341be0efffe67d72a12abb","81.110.85.100","Mozilla/5.0 (Macintosh; Intel Mac OS X 10_15_7) AppleWebKit/537.36 (KHTML, like Gecko) Chrome/138.0.0.0 Safari/537.36","Macintosh","Chrome","138.0.0.0","OS X","10_15_7","https://app.prolific.com/","en-GB,en-US;q=0.9,en;q=0.8","5fe0b183d8918b2030aa99a0","687a360dabe5252b5ada7185","6889dd00696d82325ec93baf","0","5fe0b183d8918b2030aa99a0","0","2025-07-30T08:54:34.004Z","","","","","","","","","","","","","","","","win-only","2","g1:SE,g2:NW","1","1","0","151885.1","1285.6","6287.4","34863.6","1","4","8","6","2","8","7","7","0","0.05303030303030303","2798.9","3000","905","[""left"",""up""]","{""num_key_presses"":7,""num_perfect"":6,""num_errors"":1,""num_randdir"":0,""num_randdir_good_moves"":0,""num_whilered"":0,""num_whileblue"":0,""num_blue"":3,""num_good_moves"":6}","[719.7142857142857,703.5111607142857,0.4,719.7142857142857,703.5111607142857,100.6,719.7142857142857,703.5111607142857,201.3,719.7142857142857,703.5111607142857,305,719.7142857142857,703.5111607142857,406,719.7142857142857,703.5111607142857,510.5,719.7142857142857,703.5111607142857,610.6,719.7142857142857,703.5111607142857,710.7,719.7142857142857,703.5111607142857,816.1,719.7142857142857,703.5111607142857,916.1,719.7142857142857,703.5111607142857,1016.1,719.7142857142857,703.5111607142857,1116.2,719.7142857142857,703.5111607142857,1220.6,719.7142857142857,703.5111607142857,1325.9,719.7142857142857,703.5111607142857,1430.7,719.7142857142857,703.5111607142857,1530.8,719.7142857142857,703.5111607142857,1631.2,719.7142857142857,703.5111607142857,1735.7,719.7142857142857,703.5111607142857,1836.2,719.7142857142857,703.5111607142857,1940,719.7142857142857,703.5111607142857,2040.3,827.7142857142857,625.5111607142857,2145.2,1373.7142857142858,293.5111607142857,2245.4,1119.7142857142858,235.51116071428572,2350.7,525.7142857142857,307.5111607142857,2451,259.7142857142857,265.5111607142857,2555.6,235.71428571428572,213.51116071428572,2656.2,159.71428571428572,145.51116071428572,2759.9,151.71428571428572,139.51116071428572,2861.5,151.71428571428572,139.51116071428572,2965.9,151.71428571428572,139.51116071428572,3066.2,151.71428571428572,139.51116071428572,3171.2,151.71428571428572,139.51116071428572,3275.7,151.71428571428572,139.51116071428572,3380.4,151.71428571428572,139.51116071428572,3480.8,151.71428571428572,139.51116071428572,3585.8,151.71428571428572,139.51116071428572,3690.1,151.71428571428572,139.51116071428572,3790.4,151.71428571428572,139.51116071428572,3896.3,151.71428571428572,139.51116071428572,4001,151.71428571428572,139.51116071428572,4105.2,151.71428571428572,139.51116071428572,4205.4,151.71428571428572,139.51116071428572,4305.8,151.71428571428572,139.51116071428572,4410.6,151.71428571428572,139.51116071428572,4516.2,151.71428571428572,139.51116071428572,4621.5,151.71428571428572,139.51116071428572,4724.9,151.71428571428572,139.51116071428572,4825.7,151.71428571428572,139.51116071428572,4925.9]","[292.7,292.6,1000,0.1,-707.4,""error"",""-"",""-"",""no_move"",6991.7,6698.9,2083.5,4153.9,754.4,""smooth"",""up"",""up"",""good_move"",17578.1,10585.8,2835,14364.2,378.9,""smooth"",""up"",""up"",""good_move"",20875.2,3296.7,2880,17578.5,416.7,""smooth"",""up"",""up"",""good_move"",22884.1,2008.6,1663.2,20875.5,345.4,""smooth"",""left"",""left"",""good_move"",25643.9,2759.4,2419.3,22884.5,340.1,""smooth"",""left"",""left"",""good_move"",28489.2,2845,2535.2,25644.2,309.8,""smooth"",""left"",""left"",""good_move""]"
"5124","","<div style=""width:500px;"">
  <p>What determined the result of this run?</p>
  </div>","65","html-slider-response","14","193715","0.0-7.0-1.0","62","1","2025-07-30 08:51:24","36c45c0696341be0efffe67d72a12abb","81.110.85.100","Mozilla/5.0 (Macintosh; Intel Mac OS X 10_15_7) AppleWebKit/537.36 (KHTML, like Gecko) Chrome/138.0.0.0 Safari/537.36","Macintosh","Chrome","138.0.0.0","OS X","10_15_7","https://app.prolific.com/","en-GB,en-US;q=0.9,en;q=0.8","5fe0b183d8918b2030aa99a0","687a360dabe5252b5ada7185","6889dd00696d82325ec93baf","0","5fe0b183d8918b2030aa99a0","0","2025-07-30T08:54:39.131Z","","","","AttribQ","","","","","","","","","","","50","","","","","","","","","","","","","","","","","","","","","","","","","","",""
"2529","","<div style=""width:500px;"">
  <p>How much control did you have over the ball?</p>
  </div>","100","html-slider-response","15","196245","0.0-7.0-2.0","62","1","2025-07-30 08:51:24","36c45c0696341be0efffe67d72a12abb","81.110.85.100","Mozilla/5.0 (Macintosh; Intel Mac OS X 10_15_7) AppleWebKit/537.36 (KHTML, like Gecko) Chrome/138.0.0.0 Safari/537.36","Macintosh","Chrome","138.0.0.0","OS X","10_15_7","https://app.prolific.com/","en-GB,en-US;q=0.9,en;q=0.8","5fe0b183d8918b2030aa99a0","687a360dabe5252b5ada7185","6889dd00696d82325ec93baf","0","5fe0b183d8918b2030aa99a0","0","2025-07-30T08:54:41.662Z","","","","ControlQ","","","","","","","","","","","50","","","","","","","","","","","","","","","","","","","","","","","","","","",""
"3456","","<div style=""width:500px;"">
  <p>How would you describe your current emotional state?</p>
  </div>","56","html-slider-response","16","199703","0.0-7.0-3.0","62","1","2025-07-30 08:51:24","36c45c0696341be0efffe67d72a12abb","81.110.85.100","Mozilla/5.0 (Macintosh; Intel Mac OS X 10_15_7) AppleWebKit/537.36 (KHTML, like Gecko) Chrome/138.0.0.0 Safari/537.36","Macintosh","Chrome","138.0.0.0","OS X","10_15_7","https://app.prolific.com/","en-GB,en-US;q=0.9,en;q=0.8","5fe0b183d8918b2030aa99a0","687a360dabe5252b5ada7185","6889dd00696d82325ec93baf","0","5fe0b183d8918b2030aa99a0","0","2025-07-30T08:54:45.119Z","","","","StressQ","","","","","","","","","","","50","","","","","","","","","","","","","","","","","","","","","","","","","","",""
"2999","","<div style=""width:500px;"">
  <p>What best describes how you currently feel?</p>
  </div>","99","html-slider-response","17","202705","0.0-7.0-4.0","62","1","2025-07-30 08:51:24","36c45c0696341be0efffe67d72a12abb","81.110.85.100","Mozilla/5.0 (Macintosh; Intel Mac OS X 10_15_7) AppleWebKit/537.36 (KHTML, like Gecko) Chrome/138.0.0.0 Safari/537.36","Macintosh","Chrome","138.0.0.0","OS X","10_15_7","https://app.prolific.com/","en-GB,en-US;q=0.9,en;q=0.8","5fe0b183d8918b2030aa99a0","687a360dabe5252b5ada7185","6889dd00696d82325ec93baf","0","5fe0b183d8918b2030aa99a0","0","2025-07-30T08:54:48.121Z","","","","MotivationQ","","","","","","","","","","","50","","","","","","","","","","","","","","","","","","","","","","","","","","",""
"","","","","ctl-task-cpt","18","229502","0.0-7.0-0.1","62","1","2025-07-30 08:51:24","36c45c0696341be0efffe67d72a12abb","81.110.85.100","Mozilla/5.0 (Macintosh; Intel Mac OS X 10_15_7) AppleWebKit/537.36 (KHTML, like Gecko) Chrome/138.0.0.0 Safari/537.36","Macintosh","Chrome","138.0.0.0","OS X","10_15_7","https://app.prolific.com/","en-GB,en-US;q=0.9,en;q=0.8","5fe0b183d8918b2030aa99a0","687a360dabe5252b5ada7185","6889dd00696d82325ec93baf","0","5fe0b183d8918b2030aa99a0","0","2025-07-30T08:55:14.918Z","","","","","","","","","","","","","","","","win-only","1","g1:NE,g2:SW","0.9","2","0","203871","837.2","5840.6","23791.6","1","4","4","6","2","4","3","10","7","0.07575757575757576","2001.7","3000","1270","[""down"",""left""]","{""num_key_presses"":6,""num_perfect"":5,""num_errors"":1,""num_randdir"":0,""num_randdir_good_moves"":0,""num_whilered"":0,""num_whileblue"":1,""num_blue"":1,""num_good_moves"":6}","[711.7142857142857,693.5111607142857,0.1,711.7142857142857,693.5111607142857,104.1,711.7142857142857,697.5111607142857,208.4,709.7142857142857,699.5111607142857,308.4,709.7142857142857,701.5111607142857,413.2,661.7142857142857,837.5111607142857,513.5,619.7142857142857,923.5111607142857,613.8,605.7142857142857,939.5111607142857,715,465.7142857142857,1125.5111607142858,819.2,281.7142857142857,1243.5111607142858,924,171.71428571428572,1261.5111607142858,1028.7,155.71428571428572,1263.5111607142858,1129,155.71428571428572,1263.5111607142858,1229.2,155.71428571428572,1263.5111607142858,1329.3,155.71428571428572,1263.5111607142858,1433.2,155.71428571428572,1263.5111607142858,1534.2,155.71428571428572,1263.5111607142858,1638.5,155.71428571428572,1263.5111607142858,1743.6,155.71428571428572,1263.5111607142858,1848.5,155.71428571428572,1263.5111607142858,1953.4,155.71428571428572,1263.5111607142858,2058.8,155.71428571428572,1263.5111607142858,2163.2,155.71428571428572,1263.5111607142858,2264.1,155.71428571428572,1263.5111607142858,2364.9,155.71428571428572,1263.5111607142858,2468.2,155.71428571428572,1263.5111607142858,2568.5,155.71428571428572,1263.5111607142858,2669.1,155.71428571428572,1263.5111607142858,2773.9,155.71428571428572,1263.5111607142858,2878.2,155.71428571428572,1263.5111607142858,2979,155.71428571428572,1263.5111607142858,3084.2,155.71428571428572,1263.5111607142858,3188.8,155.71428571428572,1263.5111607142858,3291.8,155.71428571428572,1263.5111607142858,3393.5,155.71428571428572,1263.5111607142858,3494.7,155.71428571428572,1263.5111607142858,3599.5,155.71428571428572,1263.5111607142858,3703.9,155.71428571428572,1263.5111607142858,3808.2,155.71428571428572,1263.5111607142858,3908.7,155.71428571428572,1263.5111607142858,4014.1,155.71428571428572,1263.5111607142858,4118.3,155.71428571428572,1263.5111607142858,4218.9,155.71428571428572,1263.5111607142858,4319.1,155.71428571428572,1263.5111607142858,4424.2,155.71428571428572,1263.5111607142858,4529.1,155.71428571428572,1263.5111607142858,4634.7,155.71428571428572,1263.5111607142858,4736.3,155.71428571428572,1263.5111607142858,4838.1,155.71428571428572,1263.5111607142858,4939]","[1374,1374,1000,0,374,""smooth"",""down"",""down"",""good_move"",5078.9,3704.7,3384.2,1374.2,320.5,""smooth"",""down"",""down"",""good_move"",8561.8,3482.7,3176.8,5079.1,305.9,""smooth"",""down"",""down"",""good_move"",11667.7,3105.7,2752.4,8562.1,353.2,""while_blue"",""left"",""left"",""good_move"",15039.5,3371.3,3012.9,11668.2,358.4,""smooth"",""left"",""left"",""good_move"",17861.7,2822.1,2401.8,15039.6,420.3,""smooth"",""left"",""left"",""good_move""]"
"1973","","<div style=""width:500px;"">
  <p>What determined the result of this run?</p>
  </div>","56","html-slider-response","19","231477","0.0-7.0-1.1","62","1","2025-07-30 08:51:24","36c45c0696341be0efffe67d72a12abb","81.110.85.100","Mozilla/5.0 (Macintosh; Intel Mac OS X 10_15_7) AppleWebKit/537.36 (KHTML, like Gecko) Chrome/138.0.0.0 Safari/537.36","Macintosh","Chrome","138.0.0.0","OS X","10_15_7","https://app.prolific.com/","en-GB,en-US;q=0.9,en;q=0.8","5fe0b183d8918b2030aa99a0","687a360dabe5252b5ada7185","6889dd00696d82325ec93baf","0","5fe0b183d8918b2030aa99a0","0","2025-07-30T08:55:16.893Z","","","","AttribQ","","","","","","","","","","","50","","","","","","","","","","","","","","","","","","","","","","","","","","",""
"2780","","<div style=""width:500px;"">
  <p>How much control did you have over the ball?</p>
  </div>","100","html-slider-response","20","234259","0.0-7.0-2.1","62","1","2025-07-30 08:51:24","36c45c0696341be0efffe67d72a12abb","81.110.85.100","Mozilla/5.0 (Macintosh; Intel Mac OS X 10_15_7) AppleWebKit/537.36 (KHTML, like Gecko) Chrome/138.0.0.0 Safari/537.36","Macintosh","Chrome","138.0.0.0","OS X","10_15_7","https://app.prolific.com/","en-GB,en-US;q=0.9,en;q=0.8","5fe0b183d8918b2030aa99a0","687a360dabe5252b5ada7185","6889dd00696d82325ec93baf","0","5fe0b183d8918b2030aa99a0","0","2025-07-30T08:55:19.675Z","","","","ControlQ","","","","","","","","","","","50","","","","","","","","","","","","","","","","","","","","","","","","","","",""
"2632","","<div style=""width:500px;"">
  <p>How would you describe your current emotional state?</p>
  </div>","55","html-slider-response","21","236892","0.0-7.0-3.1","62","1","2025-07-30 08:51:24","36c45c0696341be0efffe67d72a12abb","81.110.85.100","Mozilla/5.0 (Macintosh; Intel Mac OS X 10_15_7) AppleWebKit/537.36 (KHTML, like Gecko) Chrome/138.0.0.0 Safari/537.36","Macintosh","Chrome","138.0.0.0","OS X","10_15_7","https://app.prolific.com/","en-GB,en-US;q=0.9,en;q=0.8","5fe0b183d8918b2030aa99a0","687a360dabe5252b5ada7185","6889dd00696d82325ec93baf","0","5fe0b183d8918b2030aa99a0","0","2025-07-30T08:55:22.309Z","","","","StressQ","","","","","","","","","","","50","","","","","","","","","","","","","","","","","","","","","","","","","","",""
"2490","","<div style=""width:500px;"">
  <p>What best describes how you currently feel?</p>
  </div>","99","html-slider-response","22","239384","0.0-7.0-4.1","62","1","2025-07-30 08:51:24","36c45c0696341be0efffe67d72a12abb","81.110.85.100","Mozilla/5.0 (Macintosh; Intel Mac OS X 10_15_7) AppleWebKit/537.36 (KHTML, like Gecko) Chrome/138.0.0.0 Safari/537.36","Macintosh","Chrome","138.0.0.0","OS X","10_15_7","https://app.prolific.com/","en-GB,en-US;q=0.9,en;q=0.8","5fe0b183d8918b2030aa99a0","687a360dabe5252b5ada7185","6889dd00696d82325ec93baf","0","5fe0b183d8918b2030aa99a0","0","2025-07-30T08:55:24.801Z","","","","MotivationQ","","","","","","","","","","","50","","","","","","","","","","","","","","","","","","","","","","","","","","",""
"","","","","ctl-task-cpt","23","272363","0.0-7.0-0.2","62","1","2025-07-30 08:51:24","36c45c0696341be0efffe67d72a12abb","81.110.85.100","Mozilla/5.0 (Macintosh; Intel Mac OS X 10_15_7) AppleWebKit/537.36 (KHTML, like Gecko) Chrome/138.0.0.0 Safari/537.36","Macintosh","Chrome","138.0.0.0","OS X","10_15_7","https://app.prolific.com/","en-GB,en-US;q=0.9,en;q=0.8","5fe0b183d8918b2030aa99a0","687a360dabe5252b5ada7185","6889dd00696d82325ec93baf","0","5fe0b183d8918b2030aa99a0","0","2025-07-30T08:55:57.779Z","","","","","","","","","","","","","","","","win-only","2","g1:SE,g2:NW","0.8","3","0","240553.1","824","5826.3","29965.4","1","4","4","6","2","4","3","13","10","0.09848484848484848","1580.4","3000","485","[""left"",""up""]","{""num_key_presses"":8,""num_perfect"":6,""num_errors"":1,""num_randdir"":1,""num_randdir_good_moves"":1,""num_whilered"":0,""num_whileblue"":1,""num_blue"":2,""num_good_moves"":7}","[705.7142857142857,707.5111607142857,0.1,705.7142857142857,707.5111607142857,101.6,701.7142857142857,713.5111607142857,202.1,701.7142857142857,713.5111607142857,307,701.7142857142857,713.5111607142857,411.4,731.7142857142857,717.5111607142857,511.4,767.7142857142857,715.5111607142857,611.9,521.7142857142857,463.5111607142857,716.5,645.7142857142857,583.5111607142857,821.6,827.7142857142857,753.5111607142857,926.9,501.7142857142857,475.5111607142857,1027.3,377.7142857142857,339.5111607142857,1131.5,331.7142857142857,281.5111607142857,1236.8,307.7142857142857,275.5111607142857,1342,215.71428571428572,155.51116071428572,1447.6,211.71428571428572,141.51116071428572,1551.5,211.71428571428572,141.51116071428572,1651.9,211.71428571428572,141.51116071428572,1752.4,211.71428571428572,141.51116071428572,1853.3,211.71428571428572,141.51116071428572,1956.3,211.71428571428572,141.51116071428572,2056.7,211.71428571428572,141.51116071428572,2157.1,211.71428571428572,141.51116071428572,2257.2,211.71428571428572,141.51116071428572,2362.4,211.71428571428572,141.51116071428572,2466.7,211.71428571428572,141.51116071428572,2567.3,211.71428571428572,141.51116071428572,2671.4,211.71428571428572,141.51116071428572,2772.3,211.71428571428572,141.51116071428572,2872.3,211.71428571428572,141.51116071428572,2977,211.71428571428572,141.51116071428572,3082.4,211.71428571428572,141.51116071428572,3186.5,211.71428571428572,141.51116071428572,3286.6,211.71428571428572,141.51116071428572,3387.2,211.71428571428572,141.51116071428572,3492.1,211.71428571428572,141.51116071428572,3596.8,211.71428571428572,141.51116071428572,3701.5,211.71428571428572,141.51116071428572,3801.8,211.71428571428572,141.51116071428572,3901.8,211.71428571428572,141.51116071428572,4001.9,211.71428571428572,141.51116071428572,4106.8,211.71428571428572,141.51116071428572,4207.1,211.71428571428572,141.51116071428572,4312,211.71428571428572,141.51116071428572,4417.1,211.71428571428572,141.51116071428572,4521.7,211.71428571428572,141.51116071428572,4622,211.71428571428572,141.51116071428572,4722.3,211.71428571428572,141.51116071428572,4826.8,211.71428571428572,141.51116071428572,4926.8]","[1401.2,1401.2,1000,0,401.2,""smooth"",""left"",""left"",""good_move"",7936.6,6534.9,2758.3,4769.8,408.5,""smooth"",""left"",""left"",""good_move"",10866.2,2929.4,2529.4,7936.8,400,""oops"",""up"",""left"",""good_move"",13574.6,2708.3,2417.3,10866.3,291,""smooth"",""up"",""up"",""good_move"",16170.2,2595.3,2238.5,13574.9,356.8,""smooth"",""up"",""up"",""good_move"",18516.2,2345.7,2069.2,16170.5,276.5,""while_blue"",""up"",""down"",""bad_move"",20887.3,2370.7,1965.6,18516.6,405.1,""smooth"",""up"",""up"",""good_move"",24051.9,3164.4,2848.7,20887.5,315.7,""smooth"",""up"",""up"",""good_move""]"
"2650","","<div style=""width:500px;"">
  <p>What determined the result of this run?</p>
  </div>","40","html-slider-response","24","275014","0.0-7.0-1.2","62","1","2025-07-30 08:51:24","36c45c0696341be0efffe67d72a12abb","81.110.85.100","Mozilla/5.0 (Macintosh; Intel Mac OS X 10_15_7) AppleWebKit/537.36 (KHTML, like Gecko) Chrome/138.0.0.0 Safari/537.36","Macintosh","Chrome","138.0.0.0","OS X","10_15_7","https://app.prolific.com/","en-GB,en-US;q=0.9,en;q=0.8","5fe0b183d8918b2030aa99a0","687a360dabe5252b5ada7185","6889dd00696d82325ec93baf","0","5fe0b183d8918b2030aa99a0","0","2025-07-30T08:56:00.430Z","","","","AttribQ","","","","","","","","","","","50","","","","","","","","","","","","","","","","","","","","","","","","","","",""
"2871","","<div style=""width:500px;"">
  <p>How much control did you have over the ball?</p>
  </div>","89","html-slider-response","25","277886","0.0-7.0-2.2","62","1","2025-07-30 08:51:24","36c45c0696341be0efffe67d72a12abb","81.110.85.100","Mozilla/5.0 (Macintosh; Intel Mac OS X 10_15_7) AppleWebKit/537.36 (KHTML, like Gecko) Chrome/138.0.0.0 Safari/537.36","Macintosh","Chrome","138.0.0.0","OS X","10_15_7","https://app.prolific.com/","en-GB,en-US;q=0.9,en;q=0.8","5fe0b183d8918b2030aa99a0","687a360dabe5252b5ada7185","6889dd00696d82325ec93baf","0","5fe0b183d8918b2030aa99a0","0","2025-07-30T08:56:03.302Z","","","","ControlQ","","","","","","","","","","","50","","","","","","","","","","","","","","","","","","","","","","","","","","",""
"1896","","<div style=""width:500px;"">
  <p>How would you describe your current emotional state?</p>
  </div>","62","html-slider-response","26","279783","0.0-7.0-3.2","62","1","2025-07-30 08:51:24","36c45c0696341be0efffe67d72a12abb","81.110.85.100","Mozilla/5.0 (Macintosh; Intel Mac OS X 10_15_7) AppleWebKit/537.36 (KHTML, like Gecko) Chrome/138.0.0.0 Safari/537.36","Macintosh","Chrome","138.0.0.0","OS X","10_15_7","https://app.prolific.com/","en-GB,en-US;q=0.9,en;q=0.8","5fe0b183d8918b2030aa99a0","687a360dabe5252b5ada7185","6889dd00696d82325ec93baf","0","5fe0b183d8918b2030aa99a0","0","2025-07-30T08:56:05.199Z","","","","StressQ","","","","","","","","","","","50","","","","","","","","","","","","","","","","","","","","","","","","","","",""
"2559","","<div style=""width:500px;"">
  <p>What best describes how you currently feel?</p>
  </div>","99","html-slider-response","27","282343","0.0-7.0-4.2","62","1","2025-07-30 08:51:24","36c45c0696341be0efffe67d72a12abb","81.110.85.100","Mozilla/5.0 (Macintosh; Intel Mac OS X 10_15_7) AppleWebKit/537.36 (KHTML, like Gecko) Chrome/138.0.0.0 Safari/537.36","Macintosh","Chrome","138.0.0.0","OS X","10_15_7","https://app.prolific.com/","en-GB,en-US;q=0.9,en;q=0.8","5fe0b183d8918b2030aa99a0","687a360dabe5252b5ada7185","6889dd00696d82325ec93baf","0","5fe0b183d8918b2030aa99a0","0","2025-07-30T08:56:07.759Z","","","","MotivationQ","","","","","","","","","","","50","","","","","","","","","","","","","","","","","","","","","","","","","","",""
"","","","","ctl-task-cpt","28","322740","0.0-7.0-0.3","62","1","2025-07-30 08:51:24","36c45c0696341be0efffe67d72a12abb","81.110.85.100","Mozilla/5.0 (Macintosh; Intel Mac OS X 10_15_7) AppleWebKit/537.36 (KHTML, like Gecko) Chrome/138.0.0.0 Safari/537.36","Macintosh","Chrome","138.0.0.0","OS X","10_15_7","https://app.prolific.com/","en-GB,en-US;q=0.9,en;q=0.8","5fe0b183d8918b2030aa99a0","687a360dabe5252b5ada7185","6889dd00696d82325ec93baf","0","5fe0b183d8918b2030aa99a0","0","2025-07-30T08:56:48.156Z","","","","","","","","","","","","","","","","win-only","0","g1:NW,g2:SE","0.7","4","0","283510.3","1116.6","6117.7","37386","1","4","8","6","2","-8","-10","3","13","0.022727272727272728","1132.9","3000","-3000","[""down"",""right""]","{""num_key_presses"":12,""num_perfect"":7,""num_errors"":2,""num_randdir"":2,""num_randdir_good_moves"":0,""num_whilered"":1,""num_whileblue"":0,""num_blue"":0,""num_good_moves"":7}","[715.7142857142857,715.5111607142857,0.2,715.7142857142857,717.5111607142857,100.3,717.7142857142857,717.5111607142857,204.2,717.7142857142857,715.5111607142857,309.6,705.7142857142857,705.5111607142857,414,863.7142857142857,873.5111607142857,515,1065.7142857142858,1231.5111607142858,619,1131.7142857142858,1235.5111607142858,719.7,1139.7142857142858,1237.5111607142858,819.8,1203.7142857142858,1247.5111607142858,924,1221.7142857142858,1249.5111607142858,1024.7,1247.7142857142858,1259.5111607142858,1129.5,1247.7142857142858,1259.5111607142858,1234.3,1249.7142857142858,1259.5111607142858,1339.4,1249.7142857142858,1259.5111607142858,1439.6,1249.7142857142858,1259.5111607142858,1544.9,1249.7142857142858,1259.5111607142858,1649.5,1249.7142857142858,1259.5111607142858,1754,1249.7142857142858,1259.5111607142858,1856.2,1249.7142857142858,1259.5111607142858,1959.4,1249.7142857142858,1259.5111607142858,2064.6,1249.7142857142858,1259.5111607142858,2169.6,1249.7142857142858,1259.5111607142858,2273.9,1249.7142857142858,1259.5111607142858,2374.3,1249.7142857142858,1259.5111607142858,2479.6,1249.7142857142858,1259.5111607142858,2584,1249.7142857142858,1259.5111607142858,2684.4,1249.7142857142858,1259.5111607142858,2789.9,1249.7142857142858,1259.5111607142858,2894.7,1249.7142857142858,1259.5111607142858,2999.2,1249.7142857142858,1259.5111607142858,3099.8,1249.7142857142858,1259.5111607142858,3201,1249.7142857142858,1259.5111607142858,3304.6,1249.7142857142858,1259.5111607142858,3409.2,1249.7142857142858,1259.5111607142858,3514.2,1249.7142857142858,1259.5111607142858,3614.5,1249.7142857142858,1259.5111607142858,3719.1,1249.7142857142858,1259.5111607142858,3819.3,1249.7142857142858,1259.5111607142858,3919.7,1249.7142857142858,1259.5111607142858,4024.6,1249.7142857142858,1259.5111607142858,4131.6,1249.7142857142858,1259.5111607142858,4233.7,1249.7142857142858,1259.5111607142858,4333.7,1249.7142857142858,1259.5111607142858,4434.5,1249.7142857142858,1259.5111607142858,4540,1249.7142857142858,1259.5111607142858,4644.6,1249.7142857142858,1259.5111607142858,4750,1249.7142857142858,1259.5111607142858,4850.1,1249.7142857142858,1259.5111607142858,4954.1]","[1408.9,1408.9,1000,0,408.9,""smooth"",""right"",""right"",""good_move"",4933.3,3524,3181.3,1409.3,342.7,""smooth"",""right"",""right"",""good_move"",8007.8,3074.3,2719,4933.5,355.3,""smooth"",""right"",""right"",""good_move"",10317.8,2309.9,1939.4,8007.9,370.5,""oops"",""down"",""up"",""bad_move"",13137.4,2819.3,2548.4,10318.2,270.8,""smooth"",""down"",""down"",""good_move"",15671.8,2534,2264.2,13137.8,269.8,""smooth"",""down"",""down"",""good_move"",18371.8,2699.8,2399.2,15672.1,300.5,""smooth"",""down"",""down"",""good_move"",21332.8,2960.8,2626.6,18372,334.2,""oops"",""down"",""left"",""bad_move"",23594.3,2261.1,1968.7,21333.2,292.4,""smooth"",""down"",""down"",""good_move"",25618.3,2023.7,2959.2,23594.6,-935.5,""error"",""-"",""-"",""no_move"",26257.9,639.4,2959.2,23594.6,-295.9,""while_red"",""-"",""-"",""no_move"",26984.8,1366.3,2443.5,26618.7,-2077.4,""error"",""-"",""-"",""no_move""]"
"3623","","<div style=""width:500px;"">
  <p>What determined the result of this run?</p>
  </div>","96","html-slider-response","29","326365","0.0-7.0-1.3","62","1","2025-07-30 08:51:24","36c45c0696341be0efffe67d72a12abb","81.110.85.100","Mozilla/5.0 (Macintosh; Intel Mac OS X 10_15_7) AppleWebKit/537.36 (KHTML, like Gecko) Chrome/138.0.0.0 Safari/537.36","Macintosh","Chrome","138.0.0.0","OS X","10_15_7","https://app.prolific.com/","en-GB,en-US;q=0.9,en;q=0.8","5fe0b183d8918b2030aa99a0","687a360dabe5252b5ada7185","6889dd00696d82325ec93baf","0","5fe0b183d8918b2030aa99a0","0","2025-07-30T08:56:51.781Z","","","","AttribQ","","","","","","","","","","","50","","","","","","","","","","","","","","","","","","","","","","","","","","",""
"2768","","<div style=""width:500px;"">
  <p>How much control did you have over the ball?</p>
  </div>","43","html-slider-response","30","329134","0.0-7.0-2.3","62","1","2025-07-30 08:51:24","36c45c0696341be0efffe67d72a12abb","81.110.85.100","Mozilla/5.0 (Macintosh; Intel Mac OS X 10_15_7) AppleWebKit/537.36 (KHTML, like Gecko) Chrome/138.0.0.0 Safari/537.36","Macintosh","Chrome","138.0.0.0","OS X","10_15_7","https://app.prolific.com/","en-GB,en-US;q=0.9,en;q=0.8","5fe0b183d8918b2030aa99a0","687a360dabe5252b5ada7185","6889dd00696d82325ec93baf","0","5fe0b183d8918b2030aa99a0","0","2025-07-30T08:56:54.550Z","","","","ControlQ","","","","","","","","","","","50","","","","","","","","","","","","","","","","","","","","","","","","","","",""
"2549","","<div style=""width:500px;"">
  <p>How would you describe your current emotional state?</p>
  </div>","87","html-slider-response","31","331684","0.0-7.0-3.3","62","1","2025-07-30 08:51:24","36c45c0696341be0efffe67d72a12abb","81.110.85.100","Mozilla/5.0 (Macintosh; Intel Mac OS X 10_15_7) AppleWebKit/537.36 (KHTML, like Gecko) Chrome/138.0.0.0 Safari/537.36","Macintosh","Chrome","138.0.0.0","OS X","10_15_7","https://app.prolific.com/","en-GB,en-US;q=0.9,en;q=0.8","5fe0b183d8918b2030aa99a0","687a360dabe5252b5ada7185","6889dd00696d82325ec93baf","0","5fe0b183d8918b2030aa99a0","0","2025-07-30T08:56:57.100Z","","","","StressQ","","","","","","","","","","","50","","","","","","","","","","","","","","","","","","","","","","","","","","",""
"2068","","<div style=""width:500px;"">
  <p>What best describes how you currently feel?</p>
  </div>","97","html-slider-response","32","333753","0.0-7.0-4.3","62","1","2025-07-30 08:51:24","36c45c0696341be0efffe67d72a12abb","81.110.85.100","Mozilla/5.0 (Macintosh; Intel Mac OS X 10_15_7) AppleWebKit/537.36 (KHTML, like Gecko) Chrome/138.0.0.0 Safari/537.36","Macintosh","Chrome","138.0.0.0","OS X","10_15_7","https://app.prolific.com/","en-GB,en-US;q=0.9,en;q=0.8","5fe0b183d8918b2030aa99a0","687a360dabe5252b5ada7185","6889dd00696d82325ec93baf","0","5fe0b183d8918b2030aa99a0","0","2025-07-30T08:56:59.169Z","","","","MotivationQ","","","","","","","","","","","50","","","","","","","","","","","","","","","","","","","","","","","","","","",""
"","","","","ctl-task-cpt","33","365505","0.0-7.0-0.4","62","1","2025-07-30 08:51:24","36c45c0696341be0efffe67d72a12abb","81.110.85.100","Mozilla/5.0 (Macintosh; Intel Mac OS X 10_15_7) AppleWebKit/537.36 (KHTML, like Gecko) Chrome/138.0.0.0 Safari/537.36","Macintosh","Chrome","138.0.0.0","OS X","10_15_7","https://app.prolific.com/","en-GB,en-US;q=0.9,en;q=0.8","5fe0b183d8918b2030aa99a0","687a360dabe5252b5ada7185","6889dd00696d82325ec93baf","0","5fe0b183d8918b2030aa99a0","0","2025-07-30T08:57:30.921Z","","","","","","","","","","","","","","","","win-only","2","g1:SE,g2:NW","0.6","5","0","334919.7","760.8","5761.5","28740.6","1","4","8","6","2","8","7","10","3","0.07575757575757576","827.3","3000","1400","[""left"",""up""]","{""num_key_presses"":6,""num_perfect"":5,""num_errors"":1,""num_randdir"":0,""num_randdir_good_moves"":0,""num_whilered"":0,""num_whileblue"":1,""num_blue"":3,""num_good_moves"":6}","[703.7142857142857,713.5111607142857,0.1,705.7142857142857,713.5111607142857,100,705.7142857142857,713.5111607142857,200.7,705.7142857142857,713.5111607142857,304.9,705.7142857142857,713.5111607142857,409.3,255.71428571428572,341.5111607142857,509.9,179.71428571428572,221.51116071428572,610.1,111.71428571428571,133.51116071428572,710.2,111.71428571428571,133.51116071428572,810.4,111.71428571428571,133.51116071428572,910.6,111.71428571428571,133.51116071428572,1011.8,111.71428571428571,133.51116071428572,1114.6,111.71428571428571,133.51116071428572,1214.9,111.71428571428571,133.51116071428572,1319.8,111.71428571428571,133.51116071428572,1420.3,111.71428571428571,133.51116071428572,1525,111.71428571428571,133.51116071428572,1625,111.71428571428571,133.51116071428572,1729.8,111.71428571428571,133.51116071428572,1829.8,111.71428571428571,133.51116071428572,1929.9,111.71428571428571,133.51116071428572,2034.5,111.71428571428571,133.51116071428572,2135.2,111.71428571428571,133.51116071428572,2235.3,111.71428571428571,133.51116071428572,2339.5,111.71428571428571,133.51116071428572,2440.1,111.71428571428571,133.51116071428572,2545,111.71428571428571,133.51116071428572,2648.2,111.71428571428571,133.51116071428572,2750.4,111.71428571428571,133.51116071428572,2854.7,111.71428571428571,133.51116071428572,2959.7,111.71428571428571,133.51116071428572,3059.8,111.71428571428571,133.51116071428572,3164.5,111.71428571428571,133.51116071428572,3270.3,111.71428571428571,133.51116071428572,3375.1,111.71428571428571,133.51116071428572,3479.7,111.71428571428571,133.51116071428572,3585.5,111.71428571428571,133.51116071428572,3690.3,111.71428571428571,133.51116071428572,3795.3,111.71428571428571,133.51116071428572,3901,111.71428571428571,133.51116071428572,4001.2,111.71428571428571,133.51116071428572,4101.2,111.71428571428571,133.51116071428572,4205.5,111.71428571428571,133.51116071428572,4309.7,111.71428571428571,133.51116071428572,4410,111.71428571428571,133.51116071428572,4514.3,111.71428571428571,133.51116071428572,4615.5,111.71428571428571,133.51116071428572,4720.5,111.71428571428571,133.51116071428572,4824.7,111.71428571428571,133.51116071428572,4929.8]","[1417.1,1417.1,1000,0,417.1,""smooth"",""up"",""up"",""good_move"",4219,2801.7,2475.6,1417.3,326.1,""smooth"",""up"",""up"",""good_move"",7147.3,2928.2,2574.6,4219.1,353.6,""while_blue"",""up"",""up"",""good_move"",17104.3,9956.8,2661.1,14094.7,348.5,""smooth"",""left"",""left"",""good_move"",20150.8,3046.2,2784.7,17104.6,261.5,""smooth"",""left"",""left"",""good_move"",22895.9,2744.9,2458.2,20151,286.7,""smooth"",""left"",""left"",""good_move""]"
"2749","","<div style=""width:500px;"">
  <p>What determined the result of this run?</p>
  </div>","58","html-slider-response","34","368255","0.0-7.0-1.4","62","1","2025-07-30 08:51:24","36c45c0696341be0efffe67d72a12abb","81.110.85.100","Mozilla/5.0 (Macintosh; Intel Mac OS X 10_15_7) AppleWebKit/537.36 (KHTML, like Gecko) Chrome/138.0.0.0 Safari/537.36","Macintosh","Chrome","138.0.0.0","OS X","10_15_7","https://app.prolific.com/","en-GB,en-US;q=0.9,en;q=0.8","5fe0b183d8918b2030aa99a0","687a360dabe5252b5ada7185","6889dd00696d82325ec93baf","0","5fe0b183d8918b2030aa99a0","0","2025-07-30T08:57:33.671Z","","","","AttribQ","","","","","","","","","","","50","","","","","","","","","","","","","","","","","","","","","","","","","","",""
"1889","","<div style=""width:500px;"">
  <p>How much control did you have over the ball?</p>
  </div>","100","html-slider-response","35","370145","0.0-7.0-2.4","62","1","2025-07-30 08:51:24","36c45c0696341be0efffe67d72a12abb","81.110.85.100","Mozilla/5.0 (Macintosh; Intel Mac OS X 10_15_7) AppleWebKit/537.36 (KHTML, like Gecko) Chrome/138.0.0.0 Safari/537.36","Macintosh","Chrome","138.0.0.0","OS X","10_15_7","https://app.prolific.com/","en-GB,en-US;q=0.9,en;q=0.8","5fe0b183d8918b2030aa99a0","687a360dabe5252b5ada7185","6889dd00696d82325ec93baf","0","5fe0b183d8918b2030aa99a0","0","2025-07-30T08:57:35.561Z","","","","ControlQ","","","","","","","","","","","50","","","","","","","","","","","","","","","","","","","","","","","","","","",""
"1898","","<div style=""width:500px;"">
  <p>How would you describe your current emotional state?</p>
  </div>","65","html-slider-response","36","372044","0.0-7.0-3.4","62","1","2025-07-30 08:51:24","36c45c0696341be0efffe67d72a12abb","81.110.85.100","Mozilla/5.0 (Macintosh; Intel Mac OS X 10_15_7) AppleWebKit/537.36 (KHTML, like Gecko) Chrome/138.0.0.0 Safari/537.36","Macintosh","Chrome","138.0.0.0","OS X","10_15_7","https://app.prolific.com/","en-GB,en-US;q=0.9,en;q=0.8","5fe0b183d8918b2030aa99a0","687a360dabe5252b5ada7185","6889dd00696d82325ec93baf","0","5fe0b183d8918b2030aa99a0","0","2025-07-30T08:57:37.460Z","","","","StressQ","","","","","","","","","","","50","","","","","","","","","","","","","","","","","","","","","","","","","","",""
"2410","","<div style=""width:500px;"">
  <p>What best describes how you currently feel?</p>
  </div>","100","html-slider-response","37","374455","0.0-7.0-4.4","62","1","2025-07-30 08:51:24","36c45c0696341be0efffe67d72a12abb","81.110.85.100","Mozilla/5.0 (Macintosh; Intel Mac OS X 10_15_7) AppleWebKit/537.36 (KHTML, like Gecko) Chrome/138.0.0.0 Safari/537.36","Macintosh","Chrome","138.0.0.0","OS X","10_15_7","https://app.prolific.com/","en-GB,en-US;q=0.9,en;q=0.8","5fe0b183d8918b2030aa99a0","687a360dabe5252b5ada7185","6889dd00696d82325ec93baf","0","5fe0b183d8918b2030aa99a0","0","2025-07-30T08:57:39.871Z","","","","MotivationQ","","","","","","","","","","","50","","","","","","","","","","","","","","","","","","","","","","","","","","",""
"","","","","ctl-task-cpt","38","410141","0.0-7.0-0.5","62","1","2025-07-30 08:51:24","36c45c0696341be0efffe67d72a12abb","81.110.85.100","Mozilla/5.0 (Macintosh; Intel Mac OS X 10_15_7) AppleWebKit/537.36 (KHTML, like Gecko) Chrome/138.0.0.0 Safari/537.36","Macintosh","Chrome","138.0.0.0","OS X","10_15_7","https://app.prolific.com/","en-GB,en-US;q=0.9,en;q=0.8","5fe0b183d8918b2030aa99a0","687a360dabe5252b5ada7185","6889dd00696d82325ec93baf","0","5fe0b183d8918b2030aa99a0","0","2025-07-30T08:58:15.557Z","","","","","","","","","","","","","","","","win-only","3","g1:SW,g2:NE","0.5","6","0","375621.1","1039.9","6041","32675.7","1","4","4","6","1","1","0","10","10","0.07575757575757576","1317.7","3000","840","[""down"",""left""]","{""num_key_presses"":8,""num_perfect"":4,""num_errors"":1,""num_randdir"":3,""num_randdir_good_moves"":1,""num_whilered"":0,""num_whileblue"":1,""num_blue"":2,""num_good_moves"":6}","[695.7142857142857,707.5111607142857,0,695.7142857142857,707.5111607142857,101.1,695.7142857142857,707.5111607142857,201.6,695.7142857142857,707.5111607142857,301.9,695.7142857142857,709.5111607142857,402.4,593.7142857142857,849.5111607142857,505.8,919.7142857142857,631.5111607142857,610.2,921.7142857142857,643.5111607142857,710.8,549.7142857142857,1007.5111607142857,815.5,281.7142857142857,1265.5111607142858,920.9,281.7142857142857,1261.5111607142858,1022.8,273.7142857142857,1261.5111607142858,1125.2,187.71428571428572,1301.5111607142858,1225.6,187.71428571428572,1301.5111607142858,1333.9,187.71428571428572,1301.5111607142858,1435.4,187.71428571428572,1301.5111607142858,1535.4,187.71428571428572,1301.5111607142858,1641.3,187.71428571428572,1301.5111607142858,1741.5,187.71428571428572,1301.5111607142858,1846,187.71428571428572,1301.5111607142858,1950.5,187.71428571428572,1301.5111607142858,2050.9,187.71428571428572,1301.5111607142858,2155.3,187.71428571428572,1301.5111607142858,2256.2,187.71428571428572,1301.5111607142858,2360.3,187.71428571428572,1301.5111607142858,2460.6,187.71428571428572,1301.5111607142858,2565.8,187.71428571428572,1301.5111607142858,2666,187.71428571428572,1301.5111607142858,2770.2,187.71428571428572,1301.5111607142858,2870.9,187.71428571428572,1301.5111607142858,2971,187.71428571428572,1301.5111607142858,3075.9,187.71428571428572,1301.5111607142858,3180.6,187.71428571428572,1301.5111607142858,3286.5,187.71428571428572,1301.5111607142858,3387.6,187.71428571428572,1301.5111607142858,3490.7,187.71428571428572,1301.5111607142858,3590.8,187.71428571428572,1301.5111607142858,3698.8,187.71428571428572,1301.5111607142858,3801,187.71428571428572,1301.5111607142858,3905.8,187.71428571428572,1301.5111607142858,4010.7,187.71428571428572,1301.5111607142858,4115.2,187.71428571428572,1301.5111607142858,4217.9,187.71428571428572,1301.5111607142858,4320.8,187.71428571428572,1301.5111607142858,4421.5,187.71428571428572,1301.5111607142858,4525.7,187.71428571428572,1301.5111607142858,4625.9,187.71428571428572,1301.5111607142858,4730.8,187.71428571428572,1301.5111607142858,4833.4,187.71428571428572,1301.5111607142858,4934.6]","[5167.3,5167.3,2750.7,2005,411.6,""oops"",""down"",""up"",""bad_move"",7699.2,2531.5,2167.7,5167.7,363.8,""oops"",""down"",""up"",""bad_move"",11136.3,3437.1,3155.5,7699.3,281.6,""oops"",""left"",""left"",""good_move"",14123.9,2987.3,2708.6,11136.6,278.7,""smooth"",""down"",""down"",""good_move"",17538.3,3414.2,3125.6,14124.1,288.6,""smooth"",""down"",""down"",""good_move"",20388.3,2849.8,2527.6,17538.5,322.2,""smooth"",""down"",""down"",""good_move"",23118.1,2729.6,2440.8,20388.5,288.8,""smooth"",""down"",""down"",""good_move"",26539.3,3421,3115.8,23118.3,305.2,""while_blue"",""left"",""left"",""good_move""]"
"2205","","<div style=""width:500px;"">
  <p>What determined the result of this run?</p>
  </div>","80","html-slider-response","39","412347","0.0-7.0-1.5","62","1","2025-07-30 08:51:24","36c45c0696341be0efffe67d72a12abb","81.110.85.100","Mozilla/5.0 (Macintosh; Intel Mac OS X 10_15_7) AppleWebKit/537.36 (KHTML, like Gecko) Chrome/138.0.0.0 Safari/537.36","Macintosh","Chrome","138.0.0.0","OS X","10_15_7","https://app.prolific.com/","en-GB,en-US;q=0.9,en;q=0.8","5fe0b183d8918b2030aa99a0","687a360dabe5252b5ada7185","6889dd00696d82325ec93baf","0","5fe0b183d8918b2030aa99a0","0","2025-07-30T08:58:17.763Z","","","","AttribQ","","","","","","","","","","","50","","","","","","","","","","","","","","","","","","","","","","","","","","",""
"4810","","<div style=""width:500px;"">
  <p>How much control did you have over the ball?</p>
  </div>","49","html-slider-response","40","417158","0.0-7.0-2.5","62","1","2025-07-30 08:51:24","36c45c0696341be0efffe67d72a12abb","81.110.85.100","Mozilla/5.0 (Macintosh; Intel Mac OS X 10_15_7) AppleWebKit/537.36 (KHTML, like Gecko) Chrome/138.0.0.0 Safari/537.36","Macintosh","Chrome","138.0.0.0","OS X","10_15_7","https://app.prolific.com/","en-GB,en-US;q=0.9,en;q=0.8","5fe0b183d8918b2030aa99a0","687a360dabe5252b5ada7185","6889dd00696d82325ec93baf","0","5fe0b183d8918b2030aa99a0","0","2025-07-30T08:58:22.574Z","","","","ControlQ","","","","","","","","","","","50","","","","","","","","","","","","","","","","","","","","","","","","","","",""
"1976","","<div style=""width:500px;"">
  <p>How would you describe your current emotional state?</p>
  </div>","67","html-slider-response","41","419134","0.0-7.0-3.5","62","1","2025-07-30 08:51:24","36c45c0696341be0efffe67d72a12abb","81.110.85.100","Mozilla/5.0 (Macintosh; Intel Mac OS X 10_15_7) AppleWebKit/537.36 (KHTML, like Gecko) Chrome/138.0.0.0 Safari/537.36","Macintosh","Chrome","138.0.0.0","OS X","10_15_7","https://app.prolific.com/","en-GB,en-US;q=0.9,en;q=0.8","5fe0b183d8918b2030aa99a0","687a360dabe5252b5ada7185","6889dd00696d82325ec93baf","0","5fe0b183d8918b2030aa99a0","0","2025-07-30T08:58:24.551Z","","","","StressQ","","","","","","","","","","","50","","","","","","","","","","","","","","","","","","","","","","","","","","",""
"2339","","<div style=""width:500px;"">
  <p>What best describes how you currently feel?</p>
  </div>","100","html-slider-response","42","421474","0.0-7.0-4.5","62","1","2025-07-30 08:51:24","36c45c0696341be0efffe67d72a12abb","81.110.85.100","Mozilla/5.0 (Macintosh; Intel Mac OS X 10_15_7) AppleWebKit/537.36 (KHTML, like Gecko) Chrome/138.0.0.0 Safari/537.36","Macintosh","Chrome","138.0.0.0","OS X","10_15_7","https://app.prolific.com/","en-GB,en-US;q=0.9,en;q=0.8","5fe0b183d8918b2030aa99a0","687a360dabe5252b5ada7185","6889dd00696d82325ec93baf","0","5fe0b183d8918b2030aa99a0","0","2025-07-30T08:58:26.890Z","","","","MotivationQ","","","","","","","","","","","50","","","","","","","","","","","","","","","","","","","","","","","","","","",""
"","","","","ctl-task-cpt","43","448405","0.0-7.0-0.6","62","1","2025-07-30 08:51:24","36c45c0696341be0efffe67d72a12abb","81.110.85.100","Mozilla/5.0 (Macintosh; Intel Mac OS X 10_15_7) AppleWebKit/537.36 (KHTML, like Gecko) Chrome/138.0.0.0 Safari/537.36","Macintosh","Chrome","138.0.0.0","OS X","10_15_7","https://app.prolific.com/","en-GB,en-US;q=0.9,en;q=0.8","5fe0b183d8918b2030aa99a0","687a360dabe5252b5ada7185","6889dd00696d82325ec93baf","0","5fe0b183d8918b2030aa99a0","0","2025-07-30T08:58:53.821Z","","","","","","","","","","","","","","","","win-only","2","g1:SE,g2:NW","0.4","7","0","422640","952.1","5955.1","23920.6","1","4","8","6","2","8","8","18","10","0.13636363636363635","875.7","3000","1075","[""left"",""up""]","{""num_key_presses"":6,""num_perfect"":3,""num_errors"":0,""num_randdir"":3,""num_randdir_good_moves"":3,""num_whilered"":0,""num_whileblue"":0,""num_blue"":1,""num_good_moves"":6}","[717.7142857142857,699.5111607142857,0,717.7142857142857,699.5111607142857,107.9,717.7142857142857,699.5111607142857,208.1,717.7142857142857,699.5111607142857,308.1,717.7142857142857,699.5111607142857,408.1,601.7142857142857,659.5111607142857,509.1,285.7142857142857,165.51116071428572,613.3,269.7142857142857,155.51116071428572,713.3,223.71428571428572,155.51116071428572,813.7,219.71428571428572,153.51116071428572,913.8,219.71428571428572,153.51116071428572,1014,263.7142857142857,257.5111607142857,1119.1,263.7142857142857,257.5111607142857,1219.5,263.7142857142857,257.5111607142857,1323.9,263.7142857142857,257.5111607142857,1429.1,263.7142857142857,257.5111607142857,1534.1,263.7142857142857,257.5111607142857,1634.9,263.7142857142857,257.5111607142857,1735.6,225.71428571428572,557.5111607142857,1840.4,225.71428571428572,557.5111607142857,1943.7,205.71428571428572,551.5111607142857,2043.9,201.71428571428572,549.5111607142857,2148.3,201.71428571428572,549.5111607142857,2253.4,201.71428571428572,549.5111607142857,2354.5,201.71428571428572,549.5111607142857,2458.4,201.71428571428572,549.5111607142857,2563.7,201.71428571428572,549.5111607142857,2668.2,201.71428571428572,549.5111607142857,2768.3,201.71428571428572,549.5111607142857,2873.9,201.71428571428572,549.5111607142857,2974.3,201.71428571428572,549.5111607142857,3078.5,201.71428571428572,549.5111607142857,3178.8,201.71428571428572,549.5111607142857,3279.4,201.71428571428572,549.5111607142857,3384,201.71428571428572,549.5111607142857,3484,201.71428571428572,549.5111607142857,3586.1,201.71428571428572,549.5111607142857,3689.6,201.71428571428572,549.5111607142857,3790,201.71428571428572,549.5111607142857,3893.8,201.71428571428572,549.5111607142857,3993.9,201.71428571428572,549.5111607142857,4098.7,201.71428571428572,549.5111607142857,4199.1,201.71428571428572,549.5111607142857,4300,201.71428571428572,549.5111607142857,4400.3,201.71428571428572,549.5111607142857,4503.2,201.71428571428572,549.5111607142857,4603.6,201.71428571428572,549.5111607142857,4705.2,201.71428571428572,549.5111607142857,4808.7,201.71428571428572,549.5111607142857,4913.5]","[1370.2,1370.2,1000,0,370.2,""smooth"",""left"",""left"",""good_move"",3484.7,2114.3,1791.4,1370.4,322.9,""oops"",""left"",""up"",""good_move"",6682.3,3197.3,2835.9,3485,361.4,""smooth"",""left"",""left"",""good_move"",12754.3,6071.9,2066.2,10387.9,300.2,""oops"",""up"",""left"",""good_move"",15218.1,2463.7,2127,12754.4,336.7,""oops"",""up"",""up"",""good_move"",17871.4,2653,2369.2,15218.4,283.8,""smooth"",""up"",""up"",""good_move""]"
"1603","","<div style=""width:500px;"">
  <p>What determined the result of this run?</p>
  </div>","37","html-slider-response","44","450009","0.0-7.0-1.6","62","1","2025-07-30 08:51:24","36c45c0696341be0efffe67d72a12abb","81.110.85.100","Mozilla/5.0 (Macintosh; Intel Mac OS X 10_15_7) AppleWebKit/537.36 (KHTML, like Gecko) Chrome/138.0.0.0 Safari/537.36","Macintosh","Chrome","138.0.0.0","OS X","10_15_7","https://app.prolific.com/","en-GB,en-US;q=0.9,en;q=0.8","5fe0b183d8918b2030aa99a0","687a360dabe5252b5ada7185","6889dd00696d82325ec93baf","0","5fe0b183d8918b2030aa99a0","0","2025-07-30T08:58:55.425Z","","","","AttribQ","","","","","","","","","","","50","","","","","","","","","","","","","","","","","","","","","","","","","","",""
"2684","","<div style=""width:500px;"">
  <p>How much control did you have over the ball?</p>
  </div>","53","html-slider-response","45","452694","0.0-7.0-2.6","62","1","2025-07-30 08:51:24","36c45c0696341be0efffe67d72a12abb","81.110.85.100","Mozilla/5.0 (Macintosh; Intel Mac OS X 10_15_7) AppleWebKit/537.36 (KHTML, like Gecko) Chrome/138.0.0.0 Safari/537.36","Macintosh","Chrome","138.0.0.0","OS X","10_15_7","https://app.prolific.com/","en-GB,en-US;q=0.9,en;q=0.8","5fe0b183d8918b2030aa99a0","687a360dabe5252b5ada7185","6889dd00696d82325ec93baf","0","5fe0b183d8918b2030aa99a0","0","2025-07-30T08:58:58.110Z","","","","ControlQ","","","","","","","","","","","50","","","","","","","","","","","","","","","","","","","","","","","","","","",""
"1801","","<div style=""width:500px;"">
  <p>How would you describe your current emotional state?</p>
  </div>","65","html-slider-response","46","454496","0.0-7.0-3.6","62","1","2025-07-30 08:51:24","36c45c0696341be0efffe67d72a12abb","81.110.85.100","Mozilla/5.0 (Macintosh; Intel Mac OS X 10_15_7) AppleWebKit/537.36 (KHTML, like Gecko) Chrome/138.0.0.0 Safari/537.36","Macintosh","Chrome","138.0.0.0","OS X","10_15_7","https://app.prolific.com/","en-GB,en-US;q=0.9,en;q=0.8","5fe0b183d8918b2030aa99a0","687a360dabe5252b5ada7185","6889dd00696d82325ec93baf","0","5fe0b183d8918b2030aa99a0","0","2025-07-30T08:58:59.912Z","","","","StressQ","","","","","","","","","","","50","","","","","","","","","","","","","","","","","","","","","","","","","","",""
"2341","","<div style=""width:500px;"">
  <p>What best describes how you currently feel?</p>
  </div>","100","html-slider-response","47","456838","0.0-7.0-4.6","62","1","2025-07-30 08:51:24","36c45c0696341be0efffe67d72a12abb","81.110.85.100","Mozilla/5.0 (Macintosh; Intel Mac OS X 10_15_7) AppleWebKit/537.36 (KHTML, like Gecko) Chrome/138.0.0.0 Safari/537.36","Macintosh","Chrome","138.0.0.0","OS X","10_15_7","https://app.prolific.com/","en-GB,en-US;q=0.9,en;q=0.8","5fe0b183d8918b2030aa99a0","687a360dabe5252b5ada7185","6889dd00696d82325ec93baf","0","5fe0b183d8918b2030aa99a0","0","2025-07-30T08:59:02.255Z","","","","MotivationQ","","","","","","","","","","","50","","","","","","","","","","","","","","","","","","","","","","","","","","",""
"","","","","ctl-task-cpt","48","486174","0.0-7.0-0.7","62","1","2025-07-30 08:51:24","36c45c0696341be0efffe67d72a12abb","81.110.85.100","Mozilla/5.0 (Macintosh; Intel Mac OS X 10_15_7) AppleWebKit/537.36 (KHTML, like Gecko) Chrome/138.0.0.0 Safari/537.36","Macintosh","Chrome","138.0.0.0","OS X","10_15_7","https://app.prolific.com/","en-GB,en-US;q=0.9,en;q=0.8","5fe0b183d8918b2030aa99a0","687a360dabe5252b5ada7185","6889dd00696d82325ec93baf","0","5fe0b183d8918b2030aa99a0","0","2025-07-30T08:59:31.590Z","","","","","","","","","","","","","","","","win-only","2","g1:SE,g2:NW","0.3","8","0","458003.9","2014.1","7015.5","26325.8","1","4","4","6","1","1","0","18","18","0.13636363636363635","1680","3000","1235","[""down"",""right""]","{""num_key_presses"":6,""num_perfect"":1,""num_errors"":1,""num_randdir"":4,""num_randdir_good_moves"":3,""num_whilered"":0,""num_whileblue"":1,""num_blue"":2,""num_good_moves"":5}","[711.7142857142857,727.5111607142857,0.4,711.7142857142857,727.5111607142857,101,711.7142857142857,727.5111607142857,201.9,711.7142857142857,727.5111607142857,307,747.7142857142857,765.5111607142857,412,737.7142857142857,715.5111607142857,516.9,243.71428571428572,269.5111607142857,621.2,201.71428571428572,191.51116071428572,726.4,201.71428571428572,191.51116071428572,831.2,201.71428571428572,191.51116071428572,936.2,511.7142857142857,519.5111607142857,1036.6,897.7142857142857,959.5111607142857,1137,959.7142857142857,1039.5111607142858,1242,1105.7142857142858,1195.5111607142858,1347.1,1147.7142857142858,1237.5111607142858,1447.2,1233.7142857142858,1269.5111607142858,1551.2,1281.7142857142858,1285.5111607142858,1651.3,1281.7142857142858,1285.5111607142858,1751.3,1281.7142857142858,1285.5111607142858,1851.7,1281.7142857142858,1285.5111607142858,1956.3,1281.7142857142858,1285.5111607142858,2061.5,1281.7142857142858,1285.5111607142858,2166.1,1281.7142857142858,1285.5111607142858,2266.2,1281.7142857142858,1285.5111607142858,2366.9,1281.7142857142858,1285.5111607142858,2471.9,1281.7142857142858,1285.5111607142858,2577.4,1281.7142857142858,1285.5111607142858,2681.7,1281.7142857142858,1285.5111607142858,2781.7,1281.7142857142858,1285.5111607142858,2887.1,1281.7142857142858,1285.5111607142858,2991.8,1281.7142857142858,1285.5111607142858,3093,1281.7142857142858,1285.5111607142858,3196.2,1281.7142857142858,1285.5111607142858,3296.2,1281.7142857142858,1285.5111607142858,3397.1,1281.7142857142858,1285.5111607142858,3502.1,1281.7142857142858,1285.5111607142858,3606.7,1281.7142857142858,1285.5111607142858,3711.1,1281.7142857142858,1285.5111607142858,3813.1,1281.7142857142858,1285.5111607142858,3917.1,1281.7142857142858,1285.5111607142858,4017.1,1281.7142857142858,1285.5111607142858,4121.3,1281.7142857142858,1285.5111607142858,4223.5,1281.7142857142858,1285.5111607142858,4326.8,1281.7142857142858,1285.5111607142858,4431.4,1281.7142857142858,1285.5111607142858,4531.5,1281.7142857142858,1285.5111607142858,4637,1281.7142857142858,1285.5111607142858,4741.6,1281.7142857142858,1285.5111607142858,4842,1281.7142857142858,1285.5111607142858,4946.5]","[1504.4,1504.4,1000,0,504.4,""oops"",""right"",""right"",""good_move"",7502.7,5998,2367.2,4799.8,335.7,""oops"",""right"",""left"",""bad_move"",10229.1,2726.1,2415.4,7503,310.7,""oops"",""down"",""right"",""good_move"",12855.8,2626.6,2304.4,10229.3,322.1,""oops"",""down"",""down"",""good_move"",16396.4,3540.3,3200.2,12856.1,340.1,""smooth"",""down"",""down"",""good_move"",19217,2820.5,2508.9,16396.5,311.6,""while_blue"",""right"",""right"",""good_move""]"
"2071","","<div style=""width:500px;"">
  <p>What determined the result of this run?</p>
  </div>","86","html-slider-response","49","488246","0.0-7.0-1.7","62","1","2025-07-30 08:51:24","36c45c0696341be0efffe67d72a12abb","81.110.85.100","Mozilla/5.0 (Macintosh; Intel Mac OS X 10_15_7) AppleWebKit/537.36 (KHTML, like Gecko) Chrome/138.0.0.0 Safari/537.36","Macintosh","Chrome","138.0.0.0","OS X","10_15_7","https://app.prolific.com/","en-GB,en-US;q=0.9,en;q=0.8","5fe0b183d8918b2030aa99a0","687a360dabe5252b5ada7185","6889dd00696d82325ec93baf","0","5fe0b183d8918b2030aa99a0","0","2025-07-30T08:59:33.662Z","","","","AttribQ","","","","","","","","","","","50","","","","","","","","","","","","","","","","","","","","","","","","","","",""
"3189","","<div style=""width:500px;"">
  <p>How much control did you have over the ball?</p>
  </div>","45","html-slider-response","50","491435","0.0-7.0-2.7","62","1","2025-07-30 08:51:24","36c45c0696341be0efffe67d72a12abb","81.110.85.100","Mozilla/5.0 (Macintosh; Intel Mac OS X 10_15_7) AppleWebKit/537.36 (KHTML, like Gecko) Chrome/138.0.0.0 Safari/537.36","Macintosh","Chrome","138.0.0.0","OS X","10_15_7","https://app.prolific.com/","en-GB,en-US;q=0.9,en;q=0.8","5fe0b183d8918b2030aa99a0","687a360dabe5252b5ada7185","6889dd00696d82325ec93baf","0","5fe0b183d8918b2030aa99a0","0","2025-07-30T08:59:36.851Z","","","","ControlQ","","","","","","","","","","","50","","","","","","","","","","","","","","","","","","","","","","","","","","",""
"2220","","<div style=""width:500px;"">
  <p>How would you describe your current emotional state?</p>
  </div>","60","html-slider-response","51","493657","0.0-7.0-3.7","62","1","2025-07-30 08:51:24","36c45c0696341be0efffe67d72a12abb","81.110.85.100","Mozilla/5.0 (Macintosh; Intel Mac OS X 10_15_7) AppleWebKit/537.36 (KHTML, like Gecko) Chrome/138.0.0.0 Safari/537.36","Macintosh","Chrome","138.0.0.0","OS X","10_15_7","https://app.prolific.com/","en-GB,en-US;q=0.9,en;q=0.8","5fe0b183d8918b2030aa99a0","687a360dabe5252b5ada7185","6889dd00696d82325ec93baf","0","5fe0b183d8918b2030aa99a0","0","2025-07-30T08:59:39.073Z","","","","StressQ","","","","","","","","","","","50","","","","","","","","","","","","","","","","","","","","","","","","","","",""
"1937","","<div style=""width:500px;"">
  <p>What best describes how you currently feel?</p>
  </div>","100","html-slider-response","52","495595","0.0-7.0-4.7","62","1","2025-07-30 08:51:24","36c45c0696341be0efffe67d72a12abb","81.110.85.100","Mozilla/5.0 (Macintosh; Intel Mac OS X 10_15_7) AppleWebKit/537.36 (KHTML, like Gecko) Chrome/138.0.0.0 Safari/537.36","Macintosh","Chrome","138.0.0.0","OS X","10_15_7","https://app.prolific.com/","en-GB,en-US;q=0.9,en;q=0.8","5fe0b183d8918b2030aa99a0","687a360dabe5252b5ada7185","6889dd00696d82325ec93baf","0","5fe0b183d8918b2030aa99a0","0","2025-07-30T08:59:41.011Z","","","","MotivationQ","","","","","","","","","","","50","","","","","","","","","","","","","","","","","","","","","","","","","","",""
"","","","","ctl-task-cpt","53","538876","0.0-7.0-0.8","62","1","2025-07-30 08:51:24","36c45c0696341be0efffe67d72a12abb","81.110.85.100","Mozilla/5.0 (Macintosh; Intel Mac OS X 10_15_7) AppleWebKit/537.36 (KHTML, like Gecko) Chrome/138.0.0.0 Safari/537.36","Macintosh","Chrome","138.0.0.0","OS X","10_15_7","https://app.prolific.com/","en-GB,en-US;q=0.9,en;q=0.8","5fe0b183d8918b2030aa99a0","687a360dabe5252b5ada7185","6889dd00696d82325ec93baf","0","5fe0b183d8918b2030aa99a0","0","2025-07-30T09:00:24.292Z","","","","","","","","","","","","","","","","win-only","1","g1:NE,g2:SW","0.4","9","0","496760.1","987.5","5990.8","40271.5","1","4","4","6","2","-4","-6","12","18","0.09090909090909091","2251.7","3000","-3000","[""down"",""left""]","{""num_key_presses"":11,""num_perfect"":4,""num_errors"":2,""num_randdir"":5,""num_randdir_good_moves"":2,""num_whilered"":0,""num_whileblue"":0,""num_blue"":1,""num_good_moves"":6}","[713.7142857142857,721.5111607142857,0.2,713.7142857142857,721.5111607142857,103.2,713.7142857142857,721.5111607142857,203.8,713.7142857142857,721.5111607142857,308.6,877.7142857142857,699.5111607142857,413,957.7142857142857,603.5111607142857,513.3,663.7142857142857,797.5111607142857,613.3,541.7142857142857,1021.5111607142857,718.6,483.7142857142857,1183.5111607142858,822.8,405.7142857142857,1357.5111607142858,923.3,359.7142857142857,1397.5111607142858,1023.7,259.7142857142857,1311.5111607142858,1129.9,217.71428571428572,1317.5111607142858,1231.2,207.71428571428572,1321.5111607142858,1333,207.71428571428572,1321.5111607142858,1433.9,207.71428571428572,1321.5111607142858,1538.1,207.71428571428572,1321.5111607142858,1641,207.71428571428572,1321.5111607142858,1743.3,207.71428571428572,1321.5111607142858,1850,207.71428571428572,1321.5111607142858,1951.1,207.71428571428572,1321.5111607142858,2053.2,207.71428571428572,1321.5111607142858,2158.3,207.71428571428572,1321.5111607142858,2263.3,207.71428571428572,1321.5111607142858,2363.4,207.71428571428572,1321.5111607142858,2463.8,207.71428571428572,1321.5111607142858,2568.5,207.71428571428572,1321.5111607142858,2673.5,207.71428571428572,1321.5111607142858,2778.7,207.71428571428572,1321.5111607142858,2883.2,207.71428571428572,1321.5111607142858,2983.3,207.71428571428572,1321.5111607142858,3083.7,207.71428571428572,1321.5111607142858,3188.2,207.71428571428572,1321.5111607142858,3288.5,207.71428571428572,1321.5111607142858,3388.5,207.71428571428572,1321.5111607142858,3488.8,207.71428571428572,1321.5111607142858,3593.3,207.71428571428572,1321.5111607142858,3697.7,207.71428571428572,1321.5111607142858,3798.1,207.71428571428572,1321.5111607142858,3898.3,207.71428571428572,1321.5111607142858,3998.3,207.71428571428572,1321.5111607142858,4098.7,207.71428571428572,1321.5111607142858,4203.2,207.71428571428572,1321.5111607142858,4308.4,207.71428571428572,1321.5111607142858,4412.9,207.71428571428572,1321.5111607142858,4514.3,207.71428571428572,1321.5111607142858,4617.9,207.71428571428572,1321.5111607142858,4723.1,207.71428571428572,1321.5111607142858,4823.2,207.71428571428572,1321.5111607142858,4928.5]","[1511.4,1511.4,1000,0,511.4,""smooth"",""down"",""down"",""good_move"",3429.4,1917.8,1589,1511.6,328.8,""oops"",""down"",""left"",""good_move"",6924.3,3494.5,3173.7,3429.8,320.8,""oops"",""down"",""down"",""good_move"",12699,5774.5,2133.1,10240,325.9,""smooth"",""left"",""left"",""good_move"",16013.9,3314.7,2943.6,12699.2,371.1,""smooth"",""down"",""down"",""good_move"",18790.5,2776.3,2455.7,16014.2,320.6,""oops"",""left"",""right"",""bad_move"",21806.8,3016.1,2742.4,18790.7,273.7,""smooth"",""left"",""left"",""good_move"",24893.5,3086.6,2812,21806.9,274.6,""oops"",""left"",""right"",""bad_move"",27324.3,2430.5,2134.9,24893.8,295.6,""oops"",""left"",""up"",""bad_move"",29602.7,2278.2,2474.4,27324.5,-196.2,""error"",""-"",""-"",""no_move"",30908.7,1306,2272.8,30605,-1969.1,""error"",""-"",""-"",""no_move""]"
"2380","","<div style=""width:500px;"">
  <p>What determined the result of this run?</p>
  </div>","100","html-slider-response","54","541257","0.0-7.0-1.8","62","1","2025-07-30 08:51:24","36c45c0696341be0efffe67d72a12abb","81.110.85.100","Mozilla/5.0 (Macintosh; Intel Mac OS X 10_15_7) AppleWebKit/537.36 (KHTML, like Gecko) Chrome/138.0.0.0 Safari/537.36","Macintosh","Chrome","138.0.0.0","OS X","10_15_7","https://app.prolific.com/","en-GB,en-US;q=0.9,en;q=0.8","5fe0b183d8918b2030aa99a0","687a360dabe5252b5ada7185","6889dd00696d82325ec93baf","0","5fe0b183d8918b2030aa99a0","0","2025-07-30T09:00:26.673Z","","","","AttribQ","","","","","","","","","","","50","","","","","","","","","","","","","","","","","","","","","","","","","","",""
"3926","","<div style=""width:500px;"">
  <p>How much control did you have over the ball?</p>
  </div>","49","html-slider-response","55","545184","0.0-7.0-2.8","62","1","2025-07-30 08:51:24","36c45c0696341be0efffe67d72a12abb","81.110.85.100","Mozilla/5.0 (Macintosh; Intel Mac OS X 10_15_7) AppleWebKit/537.36 (KHTML, like Gecko) Chrome/138.0.0.0 Safari/537.36","Macintosh","Chrome","138.0.0.0","OS X","10_15_7","https://app.prolific.com/","en-GB,en-US;q=0.9,en;q=0.8","5fe0b183d8918b2030aa99a0","687a360dabe5252b5ada7185","6889dd00696d82325ec93baf","0","5fe0b183d8918b2030aa99a0","0","2025-07-30T09:00:30.600Z","","","","ControlQ","","","","","","","","","","","50","","","","","","","","","","","","","","","","","","","","","","","","","","",""
"1979","","<div style=""width:500px;"">
  <p>How would you describe your current emotional state?</p>
  </div>","89","html-slider-response","56","547164","0.0-7.0-3.8","62","1","2025-07-30 08:51:24","36c45c0696341be0efffe67d72a12abb","81.110.85.100","Mozilla/5.0 (Macintosh; Intel Mac OS X 10_15_7) AppleWebKit/537.36 (KHTML, like Gecko) Chrome/138.0.0.0 Safari/537.36","Macintosh","Chrome","138.0.0.0","OS X","10_15_7","https://app.prolific.com/","en-GB,en-US;q=0.9,en;q=0.8","5fe0b183d8918b2030aa99a0","687a360dabe5252b5ada7185","6889dd00696d82325ec93baf","0","5fe0b183d8918b2030aa99a0","0","2025-07-30T09:00:32.581Z","","","","StressQ","","","","","","","","","","","50","","","","","","","","","","","","","","","","","","","","","","","","","","",""
"1791","","<div style=""width:500px;"">
  <p>What best describes how you currently feel?</p>
  </div>","100","html-slider-response","57","548957","0.0-7.0-4.8","62","1","2025-07-30 08:51:24","36c45c0696341be0efffe67d72a12abb","81.110.85.100","Mozilla/5.0 (Macintosh; Intel Mac OS X 10_15_7) AppleWebKit/537.36 (KHTML, like Gecko) Chrome/138.0.0.0 Safari/537.36","Macintosh","Chrome","138.0.0.0","OS X","10_15_7","https://app.prolific.com/","en-GB,en-US;q=0.9,en;q=0.8","5fe0b183d8918b2030aa99a0","687a360dabe5252b5ada7185","6889dd00696d82325ec93baf","0","5fe0b183d8918b2030aa99a0","0","2025-07-30T09:00:34.373Z","","","","MotivationQ","","","","","","","","","","","50","","","","","","","","","","","","","","","","","","","","","","","","","","",""
"","","","","ctl-task-cpt","58","594517","0.0-7.0-0.9","62","1","2025-07-30 08:51:24","36c45c0696341be0efffe67d72a12abb","81.110.85.100","Mozilla/5.0 (Macintosh; Intel Mac OS X 10_15_7) AppleWebKit/537.36 (KHTML, like Gecko) Chrome/138.0.0.0 Safari/537.36","Macintosh","Chrome","138.0.0.0","OS X","10_15_7","https://app.prolific.com/","en-GB,en-US;q=0.9,en;q=0.8","5fe0b183d8918b2030aa99a0","687a360dabe5252b5ada7185","6889dd00696d82325ec93baf","0","5fe0b183d8918b2030aa99a0","0","2025-07-30T09:01:19.933Z","","","","","","","","","","","","","","","","win-only","1","g1:NE,g2:SW","0.5","10","0","550121.9","647.1","5651.2","42555.3","1","4","8","6","2","-8","-9","3","12","0.022727272727272728","757.6","3000","-2955","[""down"",""left""]","{""num_key_presses"":10,""num_perfect"":4,""num_errors"":1,""num_randdir"":5,""num_randdir_good_moves"":1,""num_whilered"":0,""num_whileblue"":1,""num_blue"":4,""num_good_moves"":6}","[717.7142857142857,717.5111607142857,0.1,717.7142857142857,717.5111607142857,102.9,717.7142857142857,717.5111607142857,203.8,717.7142857142857,717.5111607142857,304,627.7142857142857,877.5111607142857,410.5,285.7142857142857,1201.5111607142858,510.9,199.71428571428572,1285.5111607142858,610.9,193.71428571428572,1287.5111607142858,714.1,193.71428571428572,1287.5111607142858,818.8,191.71428571428572,1287.5111607142858,923.8,191.71428571428572,1287.5111607142858,1028.6,191.71428571428572,1287.5111607142858,1133.7,191.71428571428572,1287.5111607142858,1233.7,191.71428571428572,1287.5111607142858,1341.9,191.71428571428572,1287.5111607142858,1443.8,191.71428571428572,1287.5111607142858,1544.6,191.71428571428572,1287.5111607142858,1648.4,191.71428571428572,1287.5111607142858,1753.4,191.71428571428572,1287.5111607142858,1859,191.71428571428572,1287.5111607142858,1963.3,191.71428571428572,1287.5111607142858,2063.3,191.71428571428572,1287.5111607142858,2168.4,191.71428571428572,1287.5111607142858,2273.3,191.71428571428572,1287.5111607142858,2379.9,191.71428571428572,1287.5111607142858,2483.7,191.71428571428572,1287.5111607142858,2584.5,191.71428571428572,1287.5111607142858,2688.3,191.71428571428572,1287.5111607142858,2788.3,191.71428571428572,1287.5111607142858,2888.9,191.71428571428572,1287.5111607142858,2993.8,191.71428571428572,1287.5111607142858,3098.6,191.71428571428572,1287.5111607142858,3203.6,191.71428571428572,1287.5111607142858,3303.6,191.71428571428572,1287.5111607142858,3403.9,191.71428571428572,1287.5111607142858,3508,191.71428571428572,1287.5111607142858,3608.4,191.71428571428572,1287.5111607142858,3709,191.71428571428572,1287.5111607142858,3813.7,191.71428571428572,1287.5111607142858,3918.6,191.71428571428572,1287.5111607142858,4025.4,191.71428571428572,1287.5111607142858,4127,191.71428571428572,1287.5111607142858,4228.1,191.71428571428572,1287.5111607142858,4328.6,191.71428571428572,1287.5111607142858,4430.5,191.71428571428572,1287.5111607142858,4531.6,191.71428571428572,1287.5111607142858,4633.4,191.71428571428572,1287.5111607142858,4738.9,191.71428571428572,1287.5111607142858,4844,191.71428571428572,1287.5111607142858,4950.4]","[1427.1,1427.1,1000,0,427.1,""smooth"",""down"",""down"",""good_move"",7526.8,6099.5,2557.8,4664.7,304.3,""smooth"",""down"",""down"",""good_move"",10017.7,2490.6,2143.8,7527.1,346.8,""oops"",""down"",""up"",""bad_move"",13338.4,3320.4,3005.7,10018,314.7,""oops"",""left"",""right"",""bad_move"",15748.1,2409.5,2119.9,13338.6,289.6,""smooth"",""left"",""left"",""good_move"",18481.2,2732.8,2405.2,15748.4,327.6,""smooth"",""left"",""left"",""good_move"",20774.5,2293.1,2018.6,18481.4,274.5,""oops"",""left"",""up"",""bad_move"",23457.9,2683.2,2443,20774.7,240.2,""oops"",""down"",""down"",""good_move"",26142,2683.9,2396.1,23458.1,287.8,""while_blue"",""down"",""down"",""good_move"",34645.7,8503.5,2342.7,32005,298,""oops"",""down"",""up"",""bad_move""]"
"3787","","<div style=""width:500px;"">
  <p>What determined the result of this run?</p>
  </div>","26","html-slider-response","59","598305","0.0-7.0-1.9","62","1","2025-07-30 08:51:24","36c45c0696341be0efffe67d72a12abb","81.110.85.100","Mozilla/5.0 (Macintosh; Intel Mac OS X 10_15_7) AppleWebKit/537.36 (KHTML, like Gecko) Chrome/138.0.0.0 Safari/537.36","Macintosh","Chrome","138.0.0.0","OS X","10_15_7","https://app.prolific.com/","en-GB,en-US;q=0.9,en;q=0.8","5fe0b183d8918b2030aa99a0","687a360dabe5252b5ada7185","6889dd00696d82325ec93baf","0","5fe0b183d8918b2030aa99a0","0","2025-07-30T09:01:23.721Z","","","","AttribQ","","","","","","","","","","","50","","","","","","","","","","","","","","","","","","","","","","","","","","",""
"3908","","<div style=""width:500px;"">
  <p>How much control did you have over the ball?</p>
  </div>","40","html-slider-response","60","602214","0.0-7.0-2.9","62","1","2025-07-30 08:51:24","36c45c0696341be0efffe67d72a12abb","81.110.85.100","Mozilla/5.0 (Macintosh; Intel Mac OS X 10_15_7) AppleWebKit/537.36 (KHTML, like Gecko) Chrome/138.0.0.0 Safari/537.36","Macintosh","Chrome","138.0.0.0","OS X","10_15_7","https://app.prolific.com/","en-GB,en-US;q=0.9,en;q=0.8","5fe0b183d8918b2030aa99a0","687a360dabe5252b5ada7185","6889dd00696d82325ec93baf","0","5fe0b183d8918b2030aa99a0","0","2025-07-30T09:01:27.630Z","","","","ControlQ","","","","","","","","","","","50","","","","","","","","","","","","","","","","","","","","","","","","","","",""
"1873","","<div style=""width:500px;"">
  <p>How would you describe your current emotional state?</p>
  </div>","100","html-slider-response","61","604087","0.0-7.0-3.9","62","1","2025-07-30 08:51:24","36c45c0696341be0efffe67d72a12abb","81.110.85.100","Mozilla/5.0 (Macintosh; Intel Mac OS X 10_15_7) AppleWebKit/537.36 (KHTML, like Gecko) Chrome/138.0.0.0 Safari/537.36","Macintosh","Chrome","138.0.0.0","OS X","10_15_7","https://app.prolific.com/","en-GB,en-US;q=0.9,en;q=0.8","5fe0b183d8918b2030aa99a0","687a360dabe5252b5ada7185","6889dd00696d82325ec93baf","0","5fe0b183d8918b2030aa99a0","0","2025-07-30T09:01:29.504Z","","","","StressQ","","","","","","","","","","","50","","","","","","","","","","","","","","","","","","","","","","","","","","",""
"2327","","<div style=""width:500px;"">
  <p>What best describes how you currently feel?</p>
  </div>","76","html-slider-response","62","606415","0.0-7.0-4.9","62","1","2025-07-30 08:51:24","36c45c0696341be0efffe67d72a12abb","81.110.85.100","Mozilla/5.0 (Macintosh; Intel Mac OS X 10_15_7) AppleWebKit/537.36 (KHTML, like Gecko) Chrome/138.0.0.0 Safari/537.36","Macintosh","Chrome","138.0.0.0","OS X","10_15_7","https://app.prolific.com/","en-GB,en-US;q=0.9,en;q=0.8","5fe0b183d8918b2030aa99a0","687a360dabe5252b5ada7185","6889dd00696d82325ec93baf","0","5fe0b183d8918b2030aa99a0","0","2025-07-30T09:01:31.831Z","","","","MotivationQ","","","","","","","","","","","50","","","","","","","","","","","","","","","","","","","","","","","","","","",""
"","","","","ctl-task-cpt","63","650226","0.0-7.0-0.10","62","1","2025-07-30 08:51:24","36c45c0696341be0efffe67d72a12abb","81.110.85.100","Mozilla/5.0 (Macintosh; Intel Mac OS X 10_15_7) AppleWebKit/537.36 (KHTML, like Gecko) Chrome/138.0.0.0 Safari/537.36","Macintosh","Chrome","138.0.0.0","OS X","10_15_7","https://app.prolific.com/","en-GB,en-US;q=0.9,en;q=0.8","5fe0b183d8918b2030aa99a0","687a360dabe5252b5ada7185","6889dd00696d82325ec93baf","0","5fe0b183d8918b2030aa99a0","0","2025-07-30T09:02:15.642Z","","","","","","","","","","","","","","","","win-only","1","g1:NE,g2:SW","0.6","11","0","607579.8","780.7","5781.2","40801.1","1","4","8","6","2","-8","-8","0","3","0","1418","3000","-3000","[""down"",""left""]","{""num_key_presses"":8,""num_perfect"":4,""num_errors"":0,""num_randdir"":4,""num_randdir_good_moves"":2,""num_whilered"":0,""num_whileblue"":0,""num_blue"":3,""num_good_moves"":6}","[713.7142857142857,709.5111607142857,0.1,713.7142857142857,709.5111607142857,100.3,713.7142857142857,709.5111607142857,205,719.7142857142857,715.5111607142857,310.3,659.7142857142857,849.5111607142857,410.5,305.7142857142857,1159.5111607142858,514.9,159.71428571428572,1263.5111607142858,621.1,141.71428571428572,1287.5111607142858,724.6,141.71428571428572,1287.5111607142858,825.6,141.71428571428572,1287.5111607142858,930.3,141.71428571428572,1287.5111607142858,1035.4,141.71428571428572,1287.5111607142858,1135.4,141.71428571428572,1287.5111607142858,1235.5,141.71428571428572,1287.5111607142858,1339.9,141.71428571428572,1287.5111607142858,1440.3,141.71428571428572,1287.5111607142858,1545.3,141.71428571428572,1287.5111607142858,1650.6,141.71428571428572,1287.5111607142858,1755.5,141.71428571428572,1287.5111607142858,1860,141.71428571428572,1287.5111607142858,1960.3,141.71428571428572,1287.5111607142858,2064.4,141.71428571428572,1287.5111607142858,2165.4,141.71428571428572,1287.5111607142858,2270.2,141.71428571428572,1287.5111607142858,2374.6,141.71428571428572,1287.5111607142858,2475.4,141.71428571428572,1287.5111607142858,2579.5,141.71428571428572,1287.5111607142858,2680.1,141.71428571428572,1287.5111607142858,2780.4,141.71428571428572,1287.5111607142858,2885.4,141.71428571428572,1287.5111607142858,2985.4,141.71428571428572,1287.5111607142858,3089.8,141.71428571428572,1287.5111607142858,3195.2,141.71428571428572,1287.5111607142858,3299.7,141.71428571428572,1287.5111607142858,3400.4,141.71428571428572,1287.5111607142858,3500.5,141.71428571428572,1287.5111607142858,3604.8,141.71428571428572,1287.5111607142858,3705.5,141.71428571428572,1287.5111607142858,3810,141.71428571428572,1287.5111607142858,3910.1,141.71428571428572,1287.5111607142858,4015.5,141.71428571428572,1287.5111607142858,4120.4,141.71428571428572,1287.5111607142858,4225.5,141.71428571428572,1287.5111607142858,4330.4,141.71428571428572,1287.5111607142858,4434.8,141.71428571428572,1287.5111607142858,4535.3,141.71428571428572,1287.5111607142858,4635.4,141.71428571428572,1287.5111607142858,4735.4,141.71428571428572,1287.5111607142858,4840.1,141.71428571428572,1287.5111607142858,4944.4]","[1421.8,1421.8,1000,0,421.8,""smooth"",""left"",""left"",""good_move"",5051.1,3629,3289.4,1422.1,339.6,""oops"",""left"",""up"",""bad_move"",7088.7,2037.4,1641.4,5051.3,396,""oops"",""left"",""left"",""good_move"",12668.3,5579.4,1987.6,10335.3,345.4,""oops"",""left"",""down"",""good_move"",22255.6,9587.1,2187.6,19701,367,""smooth"",""left"",""left"",""good_move"",25403.8,3148.1,2812.2,22255.8,335.9,""smooth"",""down"",""down"",""good_move"",28237.4,2833.4,2504.4,25404,329,""smooth"",""down"",""down"",""good_move"",31754.5,3517.1,3239.9,28237.5,277.2,""oops"",""down"",""right"",""bad_move""]"
"5220","","<div style=""width:500px;"">
  <p>What determined the result of this run?</p>
  </div>","47","html-slider-response","64","655447","0.0-7.0-1.10","62","1","2025-07-30 08:51:24","36c45c0696341be0efffe67d72a12abb","81.110.85.100","Mozilla/5.0 (Macintosh; Intel Mac OS X 10_15_7) AppleWebKit/537.36 (KHTML, like Gecko) Chrome/138.0.0.0 Safari/537.36","Macintosh","Chrome","138.0.0.0","OS X","10_15_7","https://app.prolific.com/","en-GB,en-US;q=0.9,en;q=0.8","5fe0b183d8918b2030aa99a0","687a360dabe5252b5ada7185","6889dd00696d82325ec93baf","0","5fe0b183d8918b2030aa99a0","0","2025-07-30T09:02:20.863Z","","","","AttribQ","","","","","","","","","","","50","","","","","","","","","","","","","","","","","","","","","","","","","","",""
"2087","","<div style=""width:500px;"">
  <p>How much control did you have over the ball?</p>
  </div>","33","html-slider-response","65","657535","0.0-7.0-2.10","62","1","2025-07-30 08:51:24","36c45c0696341be0efffe67d72a12abb","81.110.85.100","Mozilla/5.0 (Macintosh; Intel Mac OS X 10_15_7) AppleWebKit/537.36 (KHTML, like Gecko) Chrome/138.0.0.0 Safari/537.36","Macintosh","Chrome","138.0.0.0","OS X","10_15_7","https://app.prolific.com/","en-GB,en-US;q=0.9,en;q=0.8","5fe0b183d8918b2030aa99a0","687a360dabe5252b5ada7185","6889dd00696d82325ec93baf","0","5fe0b183d8918b2030aa99a0","0","2025-07-30T09:02:22.951Z","","","","ControlQ","","","","","","","","","","","50","","","","","","","","","","","","","","","","","","","","","","","","","","",""
"2229","","<div style=""width:500px;"">
  <p>How would you describe your current emotional state?</p>
  </div>","87","html-slider-response","66","659765","0.0-7.0-3.10","62","1","2025-07-30 08:51:24","36c45c0696341be0efffe67d72a12abb","81.110.85.100","Mozilla/5.0 (Macintosh; Intel Mac OS X 10_15_7) AppleWebKit/537.36 (KHTML, like Gecko) Chrome/138.0.0.0 Safari/537.36","Macintosh","Chrome","138.0.0.0","OS X","10_15_7","https://app.prolific.com/","en-GB,en-US;q=0.9,en;q=0.8","5fe0b183d8918b2030aa99a0","687a360dabe5252b5ada7185","6889dd00696d82325ec93baf","0","5fe0b183d8918b2030aa99a0","0","2025-07-30T09:02:25.181Z","","","","StressQ","","","","","","","","","","","50","","","","","","","","","","","","","","","","","","","","","","","","","","",""
"2242","","<div style=""width:500px;"">
  <p>What best describes how you currently feel?</p>
  </div>","74","html-slider-response","67","662007","0.0-7.0-4.10","62","1","2025-07-30 08:51:24","36c45c0696341be0efffe67d72a12abb","81.110.85.100","Mozilla/5.0 (Macintosh; Intel Mac OS X 10_15_7) AppleWebKit/537.36 (KHTML, like Gecko) Chrome/138.0.0.0 Safari/537.36","Macintosh","Chrome","138.0.0.0","OS X","10_15_7","https://app.prolific.com/","en-GB,en-US;q=0.9,en;q=0.8","5fe0b183d8918b2030aa99a0","687a360dabe5252b5ada7185","6889dd00696d82325ec93baf","0","5fe0b183d8918b2030aa99a0","0","2025-07-30T09:02:27.423Z","","","","MotivationQ","","","","","","","","","","","50","","","","","","","","","","","","","","","","","","","","","","","","","","",""
"","","","","ctl-task-cpt","68","695383","0.0-7.0-0.11","62","1","2025-07-30 08:51:24","36c45c0696341be0efffe67d72a12abb","81.110.85.100","Mozilla/5.0 (Macintosh; Intel Mac OS X 10_15_7) AppleWebKit/537.36 (KHTML, like Gecko) Chrome/138.0.0.0 Safari/537.36","Macintosh","Chrome","138.0.0.0","OS X","10_15_7","https://app.prolific.com/","en-GB,en-US;q=0.9,en;q=0.8","5fe0b183d8918b2030aa99a0","687a360dabe5252b5ada7185","6889dd00696d82325ec93baf","0","5fe0b183d8918b2030aa99a0","0","2025-07-30T09:03:00.799Z","","","","","","","","","","","","","","","","win-only","3","g1:SW,g2:NE","0.7","12","0","663171.3","646.6","5650.5","30359.1","1","4","4","6","1","1","0","0","0","0","1533.2","3000","485","[""down"",""left""]","{""num_key_presses"":8,""num_perfect"":5,""num_errors"":1,""num_randdir"":2,""num_randdir_good_moves"":1,""num_whilered"":0,""num_whileblue"":1,""num_blue"":2,""num_good_moves"":6}","[721.7142857142857,695.5111607142857,0.1,721.7142857142857,695.5111607142857,100.3,721.7142857142857,695.5111607142857,203.9,721.7142857142857,695.5111607142857,311.2,711.7142857142857,709.5111607142857,414.1,687.7142857142857,759.5111607142857,514.6,747.7142857142857,761.5111607142857,618.8,749.7142857142857,769.5111607142857,718.9,507.7142857142857,999.5111607142857,819.6,275.7142857142857,1209.5111607142858,924.1,273.7142857142857,1205.5111607142858,1029.8,283.7142857142857,1227.5111607142858,1134.6,283.7142857142857,1227.5111607142858,1238.9,211.71428571428572,1201.5111607142858,1339.8,75.71428571428571,1237.5111607142858,1447.1,75.71428571428571,1237.5111607142858,1549.1,77.71428571428571,1237.5111607142858,1649.5,201.71428571428572,1245.5111607142858,1749.6,209.71428571428572,1245.5111607142858,1854.5,209.71428571428572,1239.5111607142858,1962,1005.7142857142857,1281.5111607142858,2064.2,1841.7142857142858,1279.5111607142858,2164.8,1877.7142857142858,1285.5111607142858,2269.3,1877.7142857142858,1285.5111607142858,2369.5,1877.7142857142858,1285.5111607142858,2474.1,1877.7142857142858,1285.5111607142858,2576.2,1877.7142857142858,1285.5111607142858,2679.4,1877.7142857142858,1285.5111607142858,2779.6,1877.7142857142858,1285.5111607142858,2883.9,1877.7142857142858,1285.5111607142858,2984,1877.7142857142858,1285.5111607142858,3084.4,1877.7142857142858,1285.5111607142858,3189.4,1877.7142857142858,1285.5111607142858,3294.4,1877.7142857142858,1285.5111607142858,3399.4,1877.7142857142858,1285.5111607142858,3499.6,1877.7142857142858,1285.5111607142858,3604,1877.7142857142858,1285.5111607142858,3704.8,1877.7142857142858,1285.5111607142858,3808.6,1877.7142857142858,1285.5111607142858,3908.9,1877.7142857142858,1285.5111607142858,4012.4,1877.7142857142858,1285.5111607142858,4114.2,1877.7142857142858,1285.5111607142858,4214.4,1877.7142857142858,1285.5111607142858,4318.7,1877.7142857142858,1285.5111607142858,4423.8,1877.7142857142858,1285.5111607142858,4523.9,1877.7142857142858,1285.5111607142858,4624.8,1877.7142857142858,1285.5111607142858,4729.2,1877.7142857142858,1285.5111607142858,4829.8,1877.7142857142858,1285.5111607142858,4934.8]","[1519.5,1519.5,1000,0,519.5,""smooth"",""down"",""down"",""good_move"",8449.2,6929.5,2647.3,5425.3,376.6,""smooth"",""down"",""down"",""good_move"",10819,2369.5,1988.3,8449.5,381.2,""oops"",""left"",""right"",""bad_move"",13507.9,2688.8,2371.3,10819.1,317.5,""smooth"",""left"",""left"",""good_move"",16523.2,3015.1,2678.5,13508.1,336.6,""oops"",""left"",""left"",""good_move"",19086.8,2563.5,2306.7,16523.4,256.7,""while_blue"",""left"",""right"",""bad_move"",22375.2,3288,2929.2,19087.2,358.9,""smooth"",""left"",""left"",""good_move"",24620,2244.4,1862.1,22375.6,382.3,""smooth"",""left"",""left"",""good_move""]"
"1900","","<div style=""width:500px;"">
  <p>What determined the result of this run?</p>
  </div>","75","html-slider-response","69","697287","0.0-7.0-1.11","62","1","2025-07-30 08:51:24","36c45c0696341be0efffe67d72a12abb","81.110.85.100","Mozilla/5.0 (Macintosh; Intel Mac OS X 10_15_7) AppleWebKit/537.36 (KHTML, like Gecko) Chrome/138.0.0.0 Safari/537.36","Macintosh","Chrome","138.0.0.0","OS X","10_15_7","https://app.prolific.com/","en-GB,en-US;q=0.9,en;q=0.8","5fe0b183d8918b2030aa99a0","687a360dabe5252b5ada7185","6889dd00696d82325ec93baf","0","5fe0b183d8918b2030aa99a0","0","2025-07-30T09:03:02.703Z","","","","AttribQ","","","","","","","","","","","50","","","","","","","","","","","","","","","","","","","","","","","","","","",""
"2308","","<div style=""width:500px;"">
  <p>How much control did you have over the ball?</p>
  </div>","53","html-slider-response","70","699596","0.0-7.0-2.11","62","1","2025-07-30 08:51:24","36c45c0696341be0efffe67d72a12abb","81.110.85.100","Mozilla/5.0 (Macintosh; Intel Mac OS X 10_15_7) AppleWebKit/537.36 (KHTML, like Gecko) Chrome/138.0.0.0 Safari/537.36","Macintosh","Chrome","138.0.0.0","OS X","10_15_7","https://app.prolific.com/","en-GB,en-US;q=0.9,en;q=0.8","5fe0b183d8918b2030aa99a0","687a360dabe5252b5ada7185","6889dd00696d82325ec93baf","0","5fe0b183d8918b2030aa99a0","0","2025-07-30T09:03:05.012Z","","","","ControlQ","","","","","","","","","","","50","","","","","","","","","","","","","","","","","","","","","","","","","","",""
"1989","","<div style=""width:500px;"">
  <p>How would you describe your current emotional state?</p>
  </div>","79","html-slider-response","71","701586","0.0-7.0-3.11","62","1","2025-07-30 08:51:24","36c45c0696341be0efffe67d72a12abb","81.110.85.100","Mozilla/5.0 (Macintosh; Intel Mac OS X 10_15_7) AppleWebKit/537.36 (KHTML, like Gecko) Chrome/138.0.0.0 Safari/537.36","Macintosh","Chrome","138.0.0.0","OS X","10_15_7","https://app.prolific.com/","en-GB,en-US;q=0.9,en;q=0.8","5fe0b183d8918b2030aa99a0","687a360dabe5252b5ada7185","6889dd00696d82325ec93baf","0","5fe0b183d8918b2030aa99a0","0","2025-07-30T09:03:07.002Z","","","","StressQ","","","","","","","","","","","50","","","","","","","","","","","","","","","","","","","","","","","","","","",""
"2291","","<div style=""width:500px;"">
  <p>What best describes how you currently feel?</p>
  </div>","76","html-slider-response","72","703878","0.0-7.0-4.11","62","1","2025-07-30 08:51:24","36c45c0696341be0efffe67d72a12abb","81.110.85.100","Mozilla/5.0 (Macintosh; Intel Mac OS X 10_15_7) AppleWebKit/537.36 (KHTML, like Gecko) Chrome/138.0.0.0 Safari/537.36","Macintosh","Chrome","138.0.0.0","OS X","10_15_7","https://app.prolific.com/","en-GB,en-US;q=0.9,en;q=0.8","5fe0b183d8918b2030aa99a0","687a360dabe5252b5ada7185","6889dd00696d82325ec93baf","0","5fe0b183d8918b2030aa99a0","0","2025-07-30T09:03:09.294Z","","","","MotivationQ","","","","","","","","","","","50","","","","","","","","","","","","","","","","","","","","","","","","","","",""
"","","","","ctl-task-cpt","73","729061","0.0-7.0-0.12","62","1","2025-07-30 08:51:24","36c45c0696341be0efffe67d72a12abb","81.110.85.100","Mozilla/5.0 (Macintosh; Intel Mac OS X 10_15_7) AppleWebKit/537.36 (KHTML, like Gecko) Chrome/138.0.0.0 Safari/537.36","Macintosh","Chrome","138.0.0.0","OS X","10_15_7","https://app.prolific.com/","en-GB,en-US;q=0.9,en;q=0.8","5fe0b183d8918b2030aa99a0","687a360dabe5252b5ada7185","6889dd00696d82325ec93baf","0","5fe0b183d8918b2030aa99a0","0","2025-07-30T09:03:34.477Z","","","","","","","","","","","","","","","","win-only","2","g1:SE,g2:NW","0.8","13","0","705042.3","1366.4","6371","22170.6","1","4","8","6","2","8","8","8","0","0.06060606060606061","1305.7","3000","990","[""left"",""up""]","{""num_key_presses"":6,""num_perfect"":5,""num_errors"":0,""num_randdir"":1,""num_randdir_good_moves"":1,""num_whilered"":0,""num_whileblue"":0,""num_blue"":0,""num_good_moves"":6}","[721.7142857142857,707.5111607142857,0.2,721.7142857142857,707.5111607142857,124.5,721.7142857142857,707.5111607142857,233.1,721.7142857142857,707.5111607142857,335.2,719.7142857142857,703.5111607142857,440.2,577.7142857142857,465.5111607142857,541.1,569.7142857142857,445.5111607142857,642.1,361.7142857142857,333.5111607142857,742.8,223.71428571428572,275.5111607142857,842.8,161.71428571428572,265.5111607142857,947.8,143.71428571428572,241.51116071428572,1058.6,143.71428571428572,199.51116071428572,1162,149.71428571428572,183.51116071428572,1267.6,149.71428571428572,181.51116071428572,1377.6,149.71428571428572,181.51116071428572,1477.6,149.71428571428572,181.51116071428572,1579.9,149.71428571428572,181.51116071428572,1683.8,149.71428571428572,181.51116071428572,1784.5,149.71428571428572,181.51116071428572,1884.5,149.71428571428572,181.51116071428572,1989.7,149.71428571428572,181.51116071428572,2089.7,149.71428571428572,181.51116071428572,2194.4,149.71428571428572,181.51116071428572,2299.2,149.71428571428572,181.51116071428572,2404.4,149.71428571428572,181.51116071428572,2509.2,149.71428571428572,181.51116071428572,2609.7,149.71428571428572,181.51116071428572,2713.9,149.71428571428572,181.51116071428572,2814.4,149.71428571428572,181.51116071428572,2914.5,149.71428571428572,181.51116071428572,3018.7,149.71428571428572,181.51116071428572,3119,149.71428571428572,181.51116071428572,3219.6,149.71428571428572,181.51116071428572,3324.6,149.71428571428572,181.51116071428572,3424.6,149.71428571428572,181.51116071428572,3525,149.71428571428572,181.51116071428572,3629.6,149.71428571428572,181.51116071428572,3735.2,149.71428571428572,181.51116071428572,3840.1,149.71428571428572,181.51116071428572,3944.3,149.71428571428572,181.51116071428572,4047.1,149.71428571428572,181.51116071428572,4150.6,149.71428571428572,181.51116071428572,4254.1,149.71428571428572,181.51116071428572,4355.6,149.71428571428572,181.51116071428572,4459.8,149.71428571428572,181.51116071428572,4564.6,149.71428571428572,181.51116071428572,4670,149.71428571428572,181.51116071428572,4774.2,149.71428571428572,181.51116071428572,4882.9,149.71428571428572,181.51116071428572,4989.1]","[1408,1408,1000,0,408,""smooth"",""left"",""left"",""good_move"",4714,3305.6,2928.4,1408.4,377.2,""smooth"",""left"",""left"",""good_move"",7156,2441.7,2083,4714.3,358.7,""smooth"",""up"",""up"",""good_move"",10198.9,3042.6,2699.8,7156.3,342.8,""oops"",""up"",""up"",""good_move"",12868.7,2669.6,2312.6,10199.1,357,""smooth"",""left"",""left"",""good_move"",15716.9,2848,2549.5,12868.9,298.5,""smooth"",""up"",""up"",""good_move""]"
"3388","","<div style=""width:500px;"">
  <p>What determined the result of this run?</p>
  </div>","14","html-slider-response","74","732450","0.0-7.0-1.12","62","1","2025-07-30 08:51:24","36c45c0696341be0efffe67d72a12abb","81.110.85.100","Mozilla/5.0 (Macintosh; Intel Mac OS X 10_15_7) AppleWebKit/537.36 (KHTML, like Gecko) Chrome/138.0.0.0 Safari/537.36","Macintosh","Chrome","138.0.0.0","OS X","10_15_7","https://app.prolific.com/","en-GB,en-US;q=0.9,en;q=0.8","5fe0b183d8918b2030aa99a0","687a360dabe5252b5ada7185","6889dd00696d82325ec93baf","0","5fe0b183d8918b2030aa99a0","0","2025-07-30T09:03:37.866Z","","","","AttribQ","","","","","","","","","","","50","","","","","","","","","","","","","","","","","","","","","","","","","","",""
"2627","","<div style=""width:500px;"">
  <p>How much control did you have over the ball?</p>
  </div>","94","html-slider-response","75","735078","0.0-7.0-2.12","62","1","2025-07-30 08:51:24","36c45c0696341be0efffe67d72a12abb","81.110.85.100","Mozilla/5.0 (Macintosh; Intel Mac OS X 10_15_7) AppleWebKit/537.36 (KHTML, like Gecko) Chrome/138.0.0.0 Safari/537.36","Macintosh","Chrome","138.0.0.0","OS X","10_15_7","https://app.prolific.com/","en-GB,en-US;q=0.9,en;q=0.8","5fe0b183d8918b2030aa99a0","687a360dabe5252b5ada7185","6889dd00696d82325ec93baf","0","5fe0b183d8918b2030aa99a0","0","2025-07-30T09:03:40.494Z","","","","ControlQ","","","","","","","","","","","50","","","","","","","","","","","","","","","","","","","","","","","","","","",""
"1956","","<div style=""width:500px;"">
  <p>How would you describe your current emotional state?</p>
