"rt","response_timestamp","stimulus","response","trial_type","trial_index","time_elapsed","internal_node_id","run_id","condition","recorded_at","source_code_version","ip","user_agent","device","browser","browser_version","platform","platform_version","referer","accept_language","PROLIFIC_PID","STUDY_ID","SESSION_ID","BATCH","prolific_id","batch","realtime","success","question_order","question_id","eventType","responses","item_order","radio_event_ids","radio_event_times","key_event_times","mouse_event_times","straightlining","zigzagging","honeypot","view_history","slider_start","which_type","canvas_config","goals_layout","control_level","trial_number","tutorial_trial_number","trial_start_time","phase1_start_time","phase2_start_time","phase3_start_time","goal_1_value","goal_1_distance","goal_2_value","goal_2_distance","goal_selected","outcome","outcome_total","participant_final_score","participant_initial_score","participant_final_score_prop","goal_choice_rt","allocated_time","allocated_time_remaining","goal_direction","counts","mouse_movements","key_presses"
"2021","1754726239602","<p style='font-size:40px;line-height:1.25'><strong>Welcome to the experiment!</strong></p><p style='font-size:1.1em;line-height:1.25'>Thank you for participanting in our experiment again! You will be asked to play the Dysfunctional Ball Game again. We will briefly recap the rules before we start.</p><p style='font-size:1.1em;line-height:1.25'>Press <strong>Next</strong> to continue.</p>","0","custom-html-button-response","0","2025","0.0-0.0","242","1","2025-08-09 07:57:15","36c45c0696341be0efffe67d72a12abb","95.146.241.52","Mozilla/5.0 (Windows NT 10.0; Win64; x64) AppleWebKit/537.36 (KHTML, like Gecko) Chrome/138.0.0.0 Safari/537.36","WebKit","Chrome","138.0.0.0","Windows","10.0","https://app.prolific.com/","en-US,en;q=0.9","60056657125e50465c15533e","6877649eabb845cf142cd221","6896ff4d9a1dbd952c16a930","1","60056657125e50465c15533e","1","2025-08-09T07:57:19.604Z","","","","","","","","","","","","","","","","","","","","","","","","","","","","","","","","","","","","","","","","","",""
"2081","","","","fullscreen","1","5133","0.0-1.0","242","1","2025-08-09 07:57:15","36c45c0696341be0efffe67d72a12abb","95.146.241.52","Mozilla/5.0 (Windows NT 10.0; Win64; x64) AppleWebKit/537.36 (KHTML, like Gecko) Chrome/138.0.0.0 Safari/537.36","WebKit","Chrome","138.0.0.0","Windows","10.0","https://app.prolific.com/","en-US,en;q=0.9","60056657125e50465c15533e","6877649eabb845cf142cd221","6896ff4d9a1dbd952c16a930","1","60056657125e50465c15533e","1","","true","","","","","","","","","","","","","","","","","","","","","","","","","","","","","","","","","","","","","","","","",""
"1232","1754726243945"," <p style='font-size:1.1em;line-height:1.25'>Thank you for closing all other tabs.</p><p style='font-size:1.1em;line-height:1.25'>We will now invite you to fill in some questionnaires, before starting the game.<br>This will take about 5 minutes.<br></p><p style='font-size:1.1em;line-height:1.25'>Press the <strong>Next</strong> button to continue.</p>","0","custom-html-button-response","2","6366","0.0-2.0","242","1","2025-08-09 07:57:15","36c45c0696341be0efffe67d72a12abb","95.146.241.52","Mozilla/5.0 (Windows NT 10.0; Win64; x64) AppleWebKit/537.36 (KHTML, like Gecko) Chrome/138.0.0.0 Safari/537.36","WebKit","Chrome","138.0.0.0","Windows","10.0","https://app.prolific.com/","en-US,en;q=0.9","60056657125e50465c15533e","6877649eabb845cf142cd221","6896ff4d9a1dbd952c16a930","1","60056657125e50465c15533e","1","2025-08-09T07:57:23.945Z","","","","","","","","","","","","","","","","","","","","","","","","","","","","","","","","","","","","","","","","","",""
"3074","","","{""assigned_sex"":""female""}","survey-multi-choice","3","9443","0.0-3.0-0.0","242","1","2025-08-09 07:57:15","36c45c0696341be0efffe67d72a12abb","95.146.241.52","Mozilla/5.0 (Windows NT 10.0; Win64; x64) AppleWebKit/537.36 (KHTML, like Gecko) Chrome/138.0.0.0 Safari/537.36","WebKit","Chrome","138.0.0.0","Windows","10.0","https://app.prolific.com/","en-US,en;q=0.9","60056657125e50465c15533e","6877649eabb845cf142cd221","6896ff4d9a1dbd952c16a930","1","60056657125e50465c15533e","1","","","[0]","0","demographics","","","","","","","","","","","","","","","","","","","","","","","","","","","","","","","","","","","","","",""
"1733","1754726248756","<p style='font-size:1.1em;line-height:1.25'>In the following, we will perform a baseline assessment. This means that we will ask you a few questions relating to your experiences over the past month.<br></p><p style='font-size:1.1em;line-height:1.25'>Press the <strong>Next</strong> button to continue.</p>","0","custom-html-button-response","4","11178","0.0-4.0-0.0","242","1","2025-08-09 07:57:15","36c45c0696341be0efffe67d72a12abb","95.146.241.52","Mozilla/5.0 (Windows NT 10.0; Win64; x64) AppleWebKit/537.36 (KHTML, like Gecko) Chrome/138.0.0.0 Safari/537.36","WebKit","Chrome","138.0.0.0","Windows","10.0","https://app.prolific.com/","en-US,en;q=0.9","60056657125e50465c15533e","6877649eabb845cf142cd221","6896ff4d9a1dbd952c16a930","1","60056657125e50465c15533e","1","2025-08-09T07:57:28.757Z","","","","","","","","","","","","","","","","","","","","","","","","","","","","","","","","","","","","","","","","","",""
"39761.5","","","","survey-template","5","50971","0.0-4.0-1.0","242","1","2025-08-09 07:57:15","36c45c0696341be0efffe67d72a12abb","95.146.241.52","Mozilla/5.0 (Windows NT 10.0; Win64; x64) AppleWebKit/537.36 (KHTML, like Gecko) Chrome/138.0.0.0 Safari/537.36","WebKit","Chrome","138.0.0.0","Windows","10.0","https://app.prolific.com/","en-US,en;q=0.9","60056657125e50465c15533e","6877649eabb845cf142cd221","6896ff4d9a1dbd952c16a930","1","60056657125e50465c15533e","1","2025-08-09T07:58:08.551Z","","","","pss","{""Q01"":""3"",""Q02"":""3"",""Q03"":""4"",""Q04"":""2"",""Q05"":""3"",""Q06"":""3"",""Q07"":""1"",""Q08"":""3"",""Q09"":""3"",""Q10"":""3""}","[0,1,2,3,4,5,6,7,8,9]","[""Q01"",""Q02"",""Q03"",""Q04"",""Q05"",""Q06"",""Q07"",""Q08"",""Q09"",""Q10""]","[3218.2000000476837,7072.200000047684,8512.700000047684,11470.599999904633,13554.799999952316,17535.099999904633,30219.5,32119.799999952316,36083.200000047684,38835.5]","[]","[23.700000047683716,3218.2000000476837,4664.700000047684,6047.200000047684,7072.200000047684,8512.700000047684,11470.599999904633,13554.799999952316,17535.099999904633,30219.5,32119.799999952316,36083.200000047684,37831.200000047684,38835.5,39752]","0.6","0.2222222222222222","0","","","","","","","","","","","","","","","","","","","","","","","","","","","","",""
"1351","1754726289922","<p style='font-size:1.1em;line-height:1.25'>Thank you for your answers! Now we will ask you a few more questions relating to your feelings in the last 24 hours.<br></p><p style='font-size:1.1em;line-height:1.25'>Press the <strong>Next</strong> button to continue.</p>","0","custom-html-button-response","6","52344","0.0-4.0-2.0","242","1","2025-08-09 07:57:15","36c45c0696341be0efffe67d72a12abb","95.146.241.52","Mozilla/5.0 (Windows NT 10.0; Win64; x64) AppleWebKit/537.36 (KHTML, like Gecko) Chrome/138.0.0.0 Safari/537.36","WebKit","Chrome","138.0.0.0","Windows","10.0","https://app.prolific.com/","en-US,en;q=0.9","60056657125e50465c15533e","6877649eabb845cf142cd221","6896ff4d9a1dbd952c16a930","1","60056657125e50465c15533e","1","2025-08-09T07:58:09.924Z","","","","","","","","","","","","","","","","","","","","","","","","","","","","","","","","","","","","","","","","","",""
"57001","","","","survey-template","7","109377","0.0-4.0-3.0","242","1","2025-08-09 07:57:15","36c45c0696341be0efffe67d72a12abb","95.146.241.52","Mozilla/5.0 (Windows NT 10.0; Win64; x64) AppleWebKit/537.36 (KHTML, like Gecko) Chrome/138.0.0.0 Safari/537.36","WebKit","Chrome","138.0.0.0","Windows","10.0","https://app.prolific.com/","en-US,en;q=0.9","60056657125e50465c15533e","6877649eabb845cf142cd221","6896ff4d9a1dbd952c16a930","1","60056657125e50465c15533e","1","2025-08-09T07:59:06.959Z","","","","drsp","{""Q01"":""3"",""Q02"":""3"",""Q03"":""4"",""Q04"":""4"",""Q05"":""2"",""Q06"":""4"",""Q07"":""4"",""Q08"":""1"",""Q09"":""4"",""Q10"":""5"",""Q11"":""5"",""Q12"":""0"",""Q13"":""5"",""Q14"":""1"",""Q15"":""3"",""Q16"":""5"",""Q17"":""5"",""Q18"":""1"",""Q19"":""4"",""Q20"":""3"",""Q21"":""3"",""Q22"":""2""}","[0,1,2,3,4,5,6,7,8,9,10,11,12,13,14,15,16,17,18,19,20,21]","[""Q01"",""Q02"",""Q04"",""Q03"",""Q05"",""Q06"",""Q07"",""Q08"",""Q09"",""Q10"",""Q11"",""Q12"",""Q13"",""Q14"",""Q15"",""Q16"",""Q17"",""Q18"",""Q19"",""Q20"",""Q20"",""Q21"",""Q22""]","[2528.2000000476837,4177.900000095367,7579.900000095367,8744,11623.5,12877.200000047684,13936.299999952316,15205.400000095367,19166.400000095367,23037.099999904633,23983.799999952316,26014.799999952316,27396.799999952316,29064.700000047684,31744.599999904633,34326.5,35452.59999990463,40865.299999952316,42248.09999990463,43745.5,45574.40000009537,47593.40000009537,55969.5]","[]","[20.299999952316284,2528.2000000476837,4177.900000095367,6566.200000047684,7579.900000095367,8744,11623.5,12877.200000047684,13936.299999952316,15205.400000095367,19166.400000095367,21071.700000047684,22196.700000047684,23037.099999904633,23983.799999952316,26014.799999952316,27396.799999952316,29064.700000047684,31744.599999904633,34326.5,35452.59999990463,39504.09999990463,40865.299999952316,42248.09999990463,43745.5,45574.40000009537,47593.40000009537,55969.5,56985.90000009537]","0.2727272727272727","0.2857142857142857","0","","","","","","","","","","","","","","","","","","","","","","","","","","","","",""
"9631.599999904633","","","","survey-template","8","119044","0.0-4.0-4.0","242","1","2025-08-09 07:57:15","36c45c0696341be0efffe67d72a12abb","95.146.241.52","Mozilla/5.0 (Windows NT 10.0; Win64; x64) AppleWebKit/537.36 (KHTML, like Gecko) Chrome/138.0.0.0 Safari/537.36","WebKit","Chrome","138.0.0.0","Windows","10.0","https://app.prolific.com/","en-US,en;q=0.9","60056657125e50465c15533e","6877649eabb845cf142cd221","6896ff4d9a1dbd952c16a930","1","60056657125e50465c15533e","1","2025-08-09T07:59:16.623Z","","","","stress","{""Q01"":""4"",""Q02"":""1"",""Q03"":""4""}","[0,1,2]","[""Q01"",""Q02"",""Q03""]","[2198.5,7356,8913.5]","[]","[2198.5,7356,8913.5,9630.299999952316]","1","0","0","","","","","","","","","","","","","","","","","","","","","","","","","","","","",""
"4231","","","","instructions","9","123281","0.0-5.0-0.0","242","1","2025-08-09 07:57:15","36c45c0696341be0efffe67d72a12abb","95.146.241.52","Mozilla/5.0 (Windows NT 10.0; Win64; x64) AppleWebKit/537.36 (KHTML, like Gecko) Chrome/138.0.0.0 Safari/537.36","WebKit","Chrome","138.0.0.0","Windows","10.0","https://app.prolific.com/","en-US,en;q=0.9","60056657125e50465c15533e","6877649eabb845cf142cd221","6896ff4d9a1dbd952c16a930","1","60056657125e50465c15533e","1","","","","","","","","","","","","","","","[{""page_index"":0,""viewing_time"":4230}]","","","","","","","","","","","","","","","","","","","","","","","","","","","",""
"2966","","<p>Before you start with this game please answer the following three questions yourself. </p>
  <p>Through this game, we measure several aspects of your cognitive performance, such as reaction times, multi-tasking capabilities </p>
  <p>and the ability to assess the situation you are in.</p>
  <p></p>
  <p><b>How good do you usually are in such tasks?</b></p>","62","html-slider-response","10","126257","0.0-6.0-0.0","242","1","2025-08-09 07:57:15","36c45c0696341be0efffe67d72a12abb","95.146.241.52","Mozilla/5.0 (Windows NT 10.0; Win64; x64) AppleWebKit/537.36 (KHTML, like Gecko) Chrome/138.0.0.0 Safari/537.36","WebKit","Chrome","138.0.0.0","Windows","10.0","https://app.prolific.com/","en-US,en;q=0.9","60056657125e50465c15533e","6877649eabb845cf142cd221","6896ff4d9a1dbd952c16a930","1","60056657125e50465c15533e","1","2025-08-09T07:59:23.836Z","","","","PreSkillQ","","","","","","","","","","","50","","","","","","","","","","","","","","","","","","","","","","","","","","",""
"3005","","<div style=""width:500px;"">
  <p>How well do you think you will perform in this task compared to other participants?</p>
  </div>","27","html-slider-response","11","129264","0.0-6.0-1.0","242","1","2025-08-09 07:57:15","36c45c0696341be0efffe67d72a12abb","95.146.241.52","Mozilla/5.0 (Windows NT 10.0; Win64; x64) AppleWebKit/537.36 (KHTML, like Gecko) Chrome/138.0.0.0 Safari/537.36","WebKit","Chrome","138.0.0.0","Windows","10.0","https://app.prolific.com/","en-US,en;q=0.9","60056657125e50465c15533e","6877649eabb845cf142cd221","6896ff4d9a1dbd952c16a930","1","60056657125e50465c15533e","1","2025-08-09T07:59:26.843Z","","","","PrePerfQ","","","","","","","","","","","50","","","","","","","","","","","","","","","","","","","","","","","","","","",""
"4946","","<div style=""width:500px;"">
  <p>What best describes how you currently feel?</p>
  </div>","50","html-slider-response","12","134211","0.0-6.0-2.0","242","1","2025-08-09 07:57:15","36c45c0696341be0efffe67d72a12abb","95.146.241.52","Mozilla/5.0 (Windows NT 10.0; Win64; x64) AppleWebKit/537.36 (KHTML, like Gecko) Chrome/138.0.0.0 Safari/537.36","WebKit","Chrome","138.0.0.0","Windows","10.0","https://app.prolific.com/","en-US,en;q=0.9","60056657125e50465c15533e","6877649eabb845cf142cd221","6896ff4d9a1dbd952c16a930","1","60056657125e50465c15533e","1","2025-08-09T07:59:31.791Z","","","","PreMotivationQ","","","","","","","","","","","50","","","","","","","","","","","","","","","","","","","","","","","","","","",""
"","","","","ctl-task-cpt","13","164098","0.0-7.0-0.0","242","1","2025-08-09 07:57:15","36c45c0696341be0efffe67d72a12abb","95.146.241.52","Mozilla/5.0 (Windows NT 10.0; Win64; x64) AppleWebKit/537.36 (KHTML, like Gecko) Chrome/138.0.0.0 Safari/537.36","WebKit","Chrome","138.0.0.0","Windows","10.0","https://app.prolific.com/","en-US,en;q=0.9","60056657125e50465c15533e","6877649eabb845cf142cd221","6896ff4d9a1dbd952c16a930","1","60056657125e50465c15533e","1","2025-08-09T08:00:01.677Z","","","","","","","","","","","","","","","","win-only","0","g1:NW,g2:SE","1","1","0","135865.2","2052.5","7053.1","26851.5","1","4","4","6","2","4","4","4","0","0.030303030303030304","1126.4","3000","1460","[""down"",""right""]","{""num_key_presses"":6,""num_perfect"":6,""num_errors"":0,""num_randdir"":0,""num_randdir_good_moves"":0,""num_whilered"":0,""num_whileblue"":0,""num_blue"":1,""num_good_moves"":6}","[416.57142857142856,416.1808016640799,0.7,416.57142857142856,416.1808016640799,101.2,416.57142857142856,416.1808016640799,202.3,416.57142857142856,416.1808016640799,302.9,416.57142857142856,416.1808016640799,415.1,542.5714285714286,512.1808016640799,517.4,707.5714285714286,578.1808016640799,618.5,707.5714285714286,578.1808016640799,719.1,707.5714285714286,578.1808016640799,826.5,724.0714285714286,746.1808016640799,930.2,727.0714285714286,755.1808016640799,1033.4,727.0714285714286,755.1808016640799,1135,727.0714285714286,755.1808016640799,1238.2,727.0714285714286,755.1808016640799,1347.9,727.0714285714286,755.1808016640799,1448.3,727.0714285714286,755.1808016640799,1549.9,1217.5714285714287,590.1808016640799,1650.8,1223.5714285714287,590.1808016640799,1751,1223.5714285714287,590.1808016640799,1851.9,1223.5714285714287,590.1808016640799,1962.1,1223.5714285714287,590.1808016640799,2064.7,1223.5714285714287,590.1808016640799,2168.6,1223.5714285714287,590.1808016640799,2269.9,1223.5714285714287,590.1808016640799,2380.1,1223.5714285714287,590.1808016640799,2482.9,1223.5714285714287,590.1808016640799,2584.6,1223.5714285714287,590.1808016640799,2691.3,1223.5714285714287,590.1808016640799,2798.2,1223.5714285714287,590.1808016640799,2901.3,1223.5714285714287,590.1808016640799,3011,1223.5714285714287,590.1808016640799,3111.1,1223.5714285714287,590.1808016640799,3215,1223.5714285714287,590.1808016640799,3316.7,1223.5714285714287,590.1808016640799,3416.9,1223.5714285714287,590.1808016640799,3519.5,1223.5714285714287,590.1808016640799,3627,1223.5714285714287,590.1808016640799,3731.5,1223.5714285714287,590.1808016640799,3834.1,1223.5714285714287,590.1808016640799,3945.5,1223.5714285714287,590.1808016640799,4046.2,1223.5714285714287,590.1808016640799,4147.5,1223.5714285714287,590.1808016640799,4250.3,1223.5714285714287,590.1808016640799,4361.2,1223.5714285714287,590.1808016640799,4463.1,1223.5714285714287,590.1808016640799,4565.6,1223.5714285714287,590.1808016640799,4668.3,1223.5714285714287,590.1808016640799,4779,1223.5714285714287,590.1808016640799,4879.2,1223.5714285714287,590.1808016640799,4980.1]","[1408.3,1408.2,1000,0.1,408.2,""smooth"",""right"",""right"",""good_move"",4108.3,2698.8,2376.1,1409.6,322.6,""smooth"",""right"",""right"",""good_move"",10777,6668.4,2660.3,7771.2,345.5,""smooth"",""right"",""right"",""good_move"",13541.3,2764.2,2452.3,10777.1,311.9,""smooth"",""down"",""down"",""good_move"",16475.6,2933.8,2637.8,13541.8,296,""smooth"",""down"",""down"",""good_move"",19677,3200.6,2928.3,16476.5,272.2,""smooth"",""down"",""down"",""good_move""]"
"3260","","<div style=""width:500px;"">
  <p>What determined the result of this run?</p>
  </div>","89","html-slider-response","14","167360","0.0-7.0-1.0","242","1","2025-08-09 07:57:15","36c45c0696341be0efffe67d72a12abb","95.146.241.52","Mozilla/5.0 (Windows NT 10.0; Win64; x64) AppleWebKit/537.36 (KHTML, like Gecko) Chrome/138.0.0.0 Safari/537.36","WebKit","Chrome","138.0.0.0","Windows","10.0","https://app.prolific.com/","en-US,en;q=0.9","60056657125e50465c15533e","6877649eabb845cf142cd221","6896ff4d9a1dbd952c16a930","1","60056657125e50465c15533e","1","2025-08-09T08:00:04.939Z","","","","AttribQ","","","","","","","","","","","50","","","","","","","","","","","","","","","","","","","","","","","","","","",""
"4757","","<div style=""width:500px;"">
  <p>How much control did you have over the ball?</p>
  </div>","82","html-slider-response","15","172119","0.0-7.0-2.0","242","1","2025-08-09 07:57:15","36c45c0696341be0efffe67d72a12abb","95.146.241.52","Mozilla/5.0 (Windows NT 10.0; Win64; x64) AppleWebKit/537.36 (KHTML, like Gecko) Chrome/138.0.0.0 Safari/537.36","WebKit","Chrome","138.0.0.0","Windows","10.0","https://app.prolific.com/","en-US,en;q=0.9","60056657125e50465c15533e","6877649eabb845cf142cd221","6896ff4d9a1dbd952c16a930","1","60056657125e50465c15533e","1","2025-08-09T08:00:09.699Z","","","","ControlQ","","","","","","","","","","","50","","","","","","","","","","","","","","","","","","","","","","","","","","",""
"2972","","<div style=""width:500px;"">
  <p>How would you describe your current emotional state?</p>
  </div>","50","html-slider-response","16","175093","0.0-7.0-3.0","242","1","2025-08-09 07:57:15","36c45c0696341be0efffe67d72a12abb","95.146.241.52","Mozilla/5.0 (Windows NT 10.0; Win64; x64) AppleWebKit/537.36 (KHTML, like Gecko) Chrome/138.0.0.0 Safari/537.36","WebKit","Chrome","138.0.0.0","Windows","10.0","https://app.prolific.com/","en-US,en;q=0.9","60056657125e50465c15533e","6877649eabb845cf142cd221","6896ff4d9a1dbd952c16a930","1","60056657125e50465c15533e","1","2025-08-09T08:00:12.672Z","","","","StressQ","","","","","","","","","","","50","","","","","","","","","","","","","","","","","","","","","","","","","","",""
"2903","","<div style=""width:500px;"">
  <p>What best describes how you currently feel?</p>
  </div>","50","html-slider-response","17","177998","0.0-7.0-4.0","242","1","2025-08-09 07:57:15","36c45c0696341be0efffe67d72a12abb","95.146.241.52","Mozilla/5.0 (Windows NT 10.0; Win64; x64) AppleWebKit/537.36 (KHTML, like Gecko) Chrome/138.0.0.0 Safari/537.36","WebKit","Chrome","138.0.0.0","Windows","10.0","https://app.prolific.com/","en-US,en;q=0.9","60056657125e50465c15533e","6877649eabb845cf142cd221","6896ff4d9a1dbd952c16a930","1","60056657125e50465c15533e","1","2025-08-09T08:00:15.577Z","","","","MotivationQ","","","","","","","","","","","50","","","","","","","","","","","","","","","","","","","","","","","","","","",""
"","","","","ctl-task-cpt","18","209975","0.0-7.0-0.1","242","1","2025-08-09 07:57:15","36c45c0696341be0efffe67d72a12abb","95.146.241.52","Mozilla/5.0 (Windows NT 10.0; Win64; x64) AppleWebKit/537.36 (KHTML, like Gecko) Chrome/138.0.0.0 Safari/537.36","WebKit","Chrome","138.0.0.0","Windows","10.0","https://app.prolific.com/","en-US,en;q=0.9","60056657125e50465c15533e","6877649eabb845cf142cd221","6896ff4d9a1dbd952c16a930","1","60056657125e50465c15533e","1","2025-08-09T08:00:47.554Z","","","","","","","","","","","","","","","","win-only","3","g1:SW,g2:NE","0.9","2","0","179631.1","1019.5","6021.4","28962.3","1","4","8","6","2","8","8","12","4","0.09090909090909091","1098.5","3000","1415","[""up"",""right""]","{""num_key_presses"":6,""num_perfect"":6,""num_errors"":0,""num_randdir"":0,""num_randdir_good_moves"":0,""num_whilered"":0,""num_whileblue"":0,""num_blue"":2,""num_good_moves"":6}","[425.57142857142856,413.1808016640799,0.2,425.57142857142856,413.1808016640799,102,425.57142857142856,413.1808016640799,203.3,425.57142857142856,413.1808016640799,312.8,425.57142857142856,413.1808016640799,413.6,799.0714285714286,-12.819198335920063,517.5,842.5714285714286,-51.81919833592006,629,827.5714285714286,-39.81919833592006,729.7,790.0714285714286,47.18080166407994,833.3,775.0714285714286,71.18080166407994,934.1,775.0714285714286,71.18080166407994,1037.6,775.0714285714286,71.18080166407994,1137.9,775.0714285714286,71.18080166407994,1237.9,775.0714285714286,71.18080166407994,1346.2,775.0714285714286,71.18080166407994,1447.7,1375.0714285714287,59.18080166407994,1548.4,1375.0714285714287,54.68080166407994,1648.7,1375.0714285714287,54.68080166407994,1752.5,1375.0714285714287,54.68080166407994,1861.7,1375.0714285714287,54.68080166407994,1966.3,1375.0714285714287,54.68080166407994,2066.9,1375.0714285714287,54.68080166407994,2177.4,1375.0714285714287,54.68080166407994,2281.7,1375.0714285714287,54.68080166407994,2382.7,1375.0714285714287,54.68080166407994,2483.2,1375.0714285714287,54.68080166407994,2586.1,1375.0714285714287,54.68080166407994,2688.1,1375.0714285714287,54.68080166407994,2790.5,1375.0714285714287,54.68080166407994,2893.6,1375.0714285714287,54.68080166407994,2998.4,1375.0714285714287,54.68080166407994,3102.7,1375.0714285714287,54.68080166407994,3210.3,1375.0714285714287,54.68080166407994,3311.4,1375.0714285714287,54.68080166407994,3412.5,1375.0714285714287,54.68080166407994,3515.8,1375.0714285714287,54.68080166407994,3618.6,1375.0714285714287,54.68080166407994,3726.3,1375.0714285714287,54.68080166407994,3826.5,1375.0714285714287,54.68080166407994,3927.1,1375.0714285714287,54.68080166407994,4030.8,1375.0714285714287,54.68080166407994,4133.7,1375.0714285714287,54.68080166407994,4240,1375.0714285714287,54.68080166407994,4342.3,1375.0714285714287,54.68080166407994,4443.5,1375.0714285714287,54.68080166407994,4547.4,1375.0714285714287,54.68080166407994,4658.7,1375.0714285714287,54.68080166407994,4759.4,1375.0714285714287,54.68080166407994,4862.5,1375.0714285714287,54.68080166407994,4964.5]","[1311.2,1311.2,1000,0,311.2,""smooth"",""right"",""right"",""good_move"",4003.8,2692.2,2375.2,1311.6,317.1,""smooth"",""right"",""right"",""good_move"",6504.5,2500.1,2178.4,4004.4,321.7,""smooth"",""right"",""right"",""good_move"",9894.7,3390,3101.6,6504.8,288.4,""smooth"",""up"",""up"",""good_move"",12639.7,2743.5,2461.2,9896.3,282.2,""smooth"",""up"",""up"",""good_move"",22838.2,10197.8,2274.9,20058.6,504.7,""smooth"",""up"",""up"",""good_move""]"
"2505","","<div style=""width:500px;"">
  <p>What determined the result of this run?</p>
  </div>","78","html-slider-response","19","212481","0.0-7.0-1.1","242","1","2025-08-09 07:57:15","36c45c0696341be0efffe67d72a12abb","95.146.241.52","Mozilla/5.0 (Windows NT 10.0; Win64; x64) AppleWebKit/537.36 (KHTML, like Gecko) Chrome/138.0.0.0 Safari/537.36","WebKit","Chrome","138.0.0.0","Windows","10.0","https://app.prolific.com/","en-US,en;q=0.9","60056657125e50465c15533e","6877649eabb845cf142cd221","6896ff4d9a1dbd952c16a930","1","60056657125e50465c15533e","1","2025-08-09T08:00:50.061Z","","","","AttribQ","","","","","","","","","","","50","","","","","","","","","","","","","","","","","","","","","","","","","","",""
"2828","","<div style=""width:500px;"">
  <p>How much control did you have over the ball?</p>
  </div>","80","html-slider-response","20","215312","0.0-7.0-2.1","242","1","2025-08-09 07:57:15","36c45c0696341be0efffe67d72a12abb","95.146.241.52","Mozilla/5.0 (Windows NT 10.0; Win64; x64) AppleWebKit/537.36 (KHTML, like Gecko) Chrome/138.0.0.0 Safari/537.36","WebKit","Chrome","138.0.0.0","Windows","10.0","https://app.prolific.com/","en-US,en;q=0.9","60056657125e50465c15533e","6877649eabb845cf142cd221","6896ff4d9a1dbd952c16a930","1","60056657125e50465c15533e","1","2025-08-09T08:00:52.891Z","","","","ControlQ","","","","","","","","","","","50","","","","","","","","","","","","","","","","","","","","","","","","","","",""
"2826","","<div style=""width:500px;"">
  <p>How would you describe your current emotional state?</p>
  </div>","42","html-slider-response","21","218140","0.0-7.0-3.1","242","1","2025-08-09 07:57:15","36c45c0696341be0efffe67d72a12abb","95.146.241.52","Mozilla/5.0 (Windows NT 10.0; Win64; x64) AppleWebKit/537.36 (KHTML, like Gecko) Chrome/138.0.0.0 Safari/537.36","WebKit","Chrome","138.0.0.0","Windows","10.0","https://app.prolific.com/","en-US,en;q=0.9","60056657125e50465c15533e","6877649eabb845cf142cd221","6896ff4d9a1dbd952c16a930","1","60056657125e50465c15533e","1","2025-08-09T08:00:55.719Z","","","","StressQ","","","","","","","","","","","50","","","","","","","","","","","","","","","","","","","","","","","","","","",""
"3145","","<div style=""width:500px;"">
  <p>What best describes how you currently feel?</p>
  </div>","58","html-slider-response","22","221290","0.0-7.0-4.1","242","1","2025-08-09 07:57:15","36c45c0696341be0efffe67d72a12abb","95.146.241.52","Mozilla/5.0 (Windows NT 10.0; Win64; x64) AppleWebKit/537.36 (KHTML, like Gecko) Chrome/138.0.0.0 Safari/537.36","WebKit","Chrome","138.0.0.0","Windows","10.0","https://app.prolific.com/","en-US,en;q=0.9","60056657125e50465c15533e","6877649eabb845cf142cd221","6896ff4d9a1dbd952c16a930","1","60056657125e50465c15533e","1","2025-08-09T08:00:58.869Z","","","","MotivationQ","","","","","","","","","","","50","","","","","","","","","","","","","","","","","","","","","","","","","","",""
"","","","","ctl-task-cpt","23","252615","0.0-7.0-0.2","242","1","2025-08-09 07:57:15","36c45c0696341be0efffe67d72a12abb","95.146.241.52","Mozilla/5.0 (Windows NT 10.0; Win64; x64) AppleWebKit/537.36 (KHTML, like Gecko) Chrome/138.0.0.0 Safari/537.36","WebKit","Chrome","138.0.0.0","Windows","10.0","https://app.prolific.com/","en-US,en;q=0.9","60056657125e50465c15533e","6877649eabb845cf142cd221","6896ff4d9a1dbd952c16a930","1","60056657125e50465c15533e","1","2025-08-09T08:01:30.194Z","","","","","","","","","","","","","","","","win-only","3","g1:SW,g2:NE","0.8","3","0","222945.1","1263.1","6267.2","28294.8","1","4","8","6","2","8","6","18","12","0.13636363636363635","1090.9","3000","730","[""up"",""right""]","{""num_key_presses"":9,""num_perfect"":6,""num_errors"":2,""num_randdir"":1,""num_randdir_good_moves"":0,""num_whilered"":0,""num_whileblue"":1,""num_blue"":1,""num_good_moves"":7}","[413.57142857142856,413.1808016640799,1,413.57142857142856,413.1808016640799,102.3,413.57142857142856,413.1808016640799,206.1,413.57142857142856,413.1808016640799,308.3,413.57142857142856,413.1808016640799,418.3,413.57142857142856,413.1808016640799,520.1,791.5714285714286,32.18080166407994,624.2,812.5714285714286,15.680801664079937,728.2,812.5714285714286,15.680801664079937,832.6,812.5714285714286,15.680801664079937,933,812.5714285714286,15.680801664079937,1037.6,812.5714285714286,15.680801664079937,1139.3,812.5714285714286,15.680801664079937,1245.1,812.5714285714286,15.680801664079937,1354.9,812.5714285714286,15.680801664079937,1457.5,1327.0714285714287,29.180801664079937,1559.2,1369.0714285714287,33.68080166407994,1667.6,1369.0714285714287,33.68080166407994,1769.2,1369.0714285714287,33.68080166407994,1874.2,1369.0714285714287,33.68080166407994,1983.6,1369.0714285714287,33.68080166407994,2084.8,1369.0714285714287,33.68080166407994,2188.9,1369.0714285714287,33.68080166407994,2299,1369.0714285714287,33.68080166407994,2401.1,1369.0714285714287,33.68080166407994,2504,1369.0714285714287,33.68080166407994,2608.2,1369.0714285714287,33.68080166407994,2717.8,1369.0714285714287,33.68080166407994,2822.8,1369.0714285714287,33.68080166407994,2924.2,1369.0714285714287,33.68080166407994,3024.8,1369.0714285714287,33.68080166407994,3134.8,1369.0714285714287,33.68080166407994,3237.3,1369.0714285714287,33.68080166407994,3338.7,1369.0714285714287,33.68080166407994,3448.9,1369.0714285714287,33.68080166407994,3551.4,1369.0714285714287,33.68080166407994,3652.4,1369.0714285714287,33.68080166407994,3752.5,1369.0714285714287,33.68080166407994,3852.9,1369.0714285714287,33.68080166407994,3955.7,1369.0714285714287,33.68080166407994,4057.5,1369.0714285714287,33.68080166407994,4158.2,1369.0714285714287,33.68080166407994,4258.7,1369.0714285714287,33.68080166407994,4359.3,1369.0714285714287,33.68080166407994,4466.5,1369.0714285714287,33.68080166407994,4570.8,1369.0714285714287,33.68080166407994,4677,1369.0714285714287,33.68080166407994,4777.5,1369.0714285714287,33.68080166407994,4881.8,1369.0714285714287,33.68080166407994,4982.7]","[1358.7,1358.8,1000,0,358.8,""smooth"",""right"",""right"",""good_move"",4390.6,3031.1,2519.2,1359.5,511.9,""smooth"",""right"",""right"",""good_move"",6763.5,2372.4,2072.4,4391.1,300,""smooth"",""right"",""right"",""good_move"",9736.8,2972.9,2577.4,6764,395.5,""smooth"",""up"",""up"",""good_move"",12935.1,3197.8,2875.1,9737.3,322.7,""oops"",""up"",""left"",""bad_move"",16255.4,3319.5,2930.3,12935.9,389.2,""while_blue"",""up"",""up"",""good_move"",16450.7,194.7,3302.9,16256,-3108.2,""error"",""-"",""-"",""no_move"",19411.1,2960.3,1576.1,17453.2,381.8,""smooth"",""up"",""up"",""good_move"",21926.4,2515,2117.8,19411.5,397.1,""smooth"",""right"",""right"",""good_move""]"
"2955","","<div style=""width:500px;"">
  <p>What determined the result of this run?</p>
  </div>","64","html-slider-response","24","255571","0.0-7.0-1.2","242","1","2025-08-09 07:57:15","36c45c0696341be0efffe67d72a12abb","95.146.241.52","Mozilla/5.0 (Windows NT 10.0; Win64; x64) AppleWebKit/537.36 (KHTML, like Gecko) Chrome/138.0.0.0 Safari/537.36","WebKit","Chrome","138.0.0.0","Windows","10.0","https://app.prolific.com/","en-US,en;q=0.9","60056657125e50465c15533e","6877649eabb845cf142cd221","6896ff4d9a1dbd952c16a930","1","60056657125e50465c15533e","1","2025-08-09T08:01:33.150Z","","","","AttribQ","","","","","","","","","","","50","","","","","","","","","","","","","","","","","","","","","","","","","","",""
"1834","","<div style=""width:500px;"">
  <p>How much control did you have over the ball?</p>
  </div>","63","html-slider-response","25","257407","0.0-7.0-2.2","242","1","2025-08-09 07:57:15","36c45c0696341be0efffe67d72a12abb","95.146.241.52","Mozilla/5.0 (Windows NT 10.0; Win64; x64) AppleWebKit/537.36 (KHTML, like Gecko) Chrome/138.0.0.0 Safari/537.36","WebKit","Chrome","138.0.0.0","Windows","10.0","https://app.prolific.com/","en-US,en;q=0.9","60056657125e50465c15533e","6877649eabb845cf142cd221","6896ff4d9a1dbd952c16a930","1","60056657125e50465c15533e","1","2025-08-09T08:01:34.986Z","","","","ControlQ","","","","","","","","","","","50","","","","","","","","","","","","","","","","","","","","","","","","","","",""
"5043","","<div style=""width:500px;"">
  <p>How would you describe your current emotional state?</p>
  </div>","44","html-slider-response","26","262451","0.0-7.0-3.2","242","1","2025-08-09 07:57:15","36c45c0696341be0efffe67d72a12abb","95.146.241.52","Mozilla/5.0 (Windows NT 10.0; Win64; x64) AppleWebKit/537.36 (KHTML, like Gecko) Chrome/138.0.0.0 Safari/537.36","WebKit","Chrome","138.0.0.0","Windows","10.0","https://app.prolific.com/","en-US,en;q=0.9","60056657125e50465c15533e","6877649eabb845cf142cd221","6896ff4d9a1dbd952c16a930","1","60056657125e50465c15533e","1","2025-08-09T08:01:40.031Z","","","","StressQ","","","","","","","","","","","50","","","","","","","","","","","","","","","","","","","","","","","","","","",""
"3126","","<div style=""width:500px;"">
  <p>What best describes how you currently feel?</p>
  </div>","43","html-slider-response","27","265580","0.0-7.0-4.2","242","1","2025-08-09 07:57:15","36c45c0696341be0efffe67d72a12abb","95.146.241.52","Mozilla/5.0 (Windows NT 10.0; Win64; x64) AppleWebKit/537.36 (KHTML, like Gecko) Chrome/138.0.0.0 Safari/537.36","WebKit","Chrome","138.0.0.0","Windows","10.0","https://app.prolific.com/","en-US,en;q=0.9","60056657125e50465c15533e","6877649eabb845cf142cd221","6896ff4d9a1dbd952c16a930","1","60056657125e50465c15533e","1","2025-08-09T08:01:43.159Z","","","","MotivationQ","","","","","","","","","","","50","","","","","","","","","","","","","","","","","","","","","","","","","","",""
"","","","","ctl-task-cpt","28","310244","0.0-7.0-0.3","242","1","2025-08-09 07:57:15","36c45c0696341be0efffe67d72a12abb","95.146.241.52","Mozilla/5.0 (Windows NT 10.0; Win64; x64) AppleWebKit/537.36 (KHTML, like Gecko) Chrome/138.0.0.0 Safari/537.36","WebKit","Chrome","138.0.0.0","Windows","10.0","https://app.prolific.com/","en-US,en;q=0.9","60056657125e50465c15533e","6877649eabb845cf142cd221","6896ff4d9a1dbd952c16a930","1","60056657125e50465c15533e","1","2025-08-09T08:02:27.823Z","","","","","","","","","","","","","","","","win-only","0","g1:NW,g2:SE","0.7","4","0","267216.3","1011.8","6018.9","41651.7","1","4","4","6","2","4","3","21","18","0.1590909090909091","1182.6","3000","655","[""down"",""right""]","{""num_key_presses"":10,""num_perfect"":7,""num_errors"":1,""num_randdir"":2,""num_randdir_good_moves"":1,""num_whilered"":0,""num_whileblue"":1,""num_blue"":3,""num_good_moves"":8}","[419.57142857142856,422.1808016640799,0.1,419.57142857142856,422.1808016640799,101.3,419.57142857142856,422.1808016640799,207.4,419.57142857142856,422.1808016640799,310.2,419.57142857142856,422.1808016640799,413,449.57142857142856,443.1808016640799,513.4,844.0714285714286,698.1808016640799,618.1,854.5714285714286,713.1808016640799,720,854.5714285714286,713.1808016640799,820.5,854.5714285714286,713.1808016640799,924,761.5714285714286,755.1808016640799,1033.4,761.5714285714286,755.1808016640799,1133.4,761.5714285714286,755.1808016640799,1236.1,761.5714285714286,755.1808016640799,1336.5,761.5714285714286,755.1808016640799,1436.9,761.5714285714286,755.1808016640799,1537.7,761.5714285714286,755.1808016640799,1637.7,1055.5714285714287,593.1808016640799,1741.4,1073.5714285714287,581.1808016640799,1846.2,1073.5714285714287,581.1808016640799,1949.6,1073.5714285714287,581.1808016640799,2052.2,1073.5714285714287,581.1808016640799,2161.1,1073.5714285714287,581.1808016640799,2263.3,1073.5714285714287,581.1808016640799,2363.8,1073.5714285714287,581.1808016640799,2468,1073.5714285714287,581.1808016640799,2570.3,1073.5714285714287,581.1808016640799,2671,1073.5714285714287,581.1808016640799,2775.3,1073.5714285714287,581.1808016640799,2881.7,1073.5714285714287,581.1808016640799,2987.7,1073.5714285714287,581.1808016640799,3089.2,1073.5714285714287,581.1808016640799,3194.9,1073.5714285714287,581.1808016640799,3300.9,1073.5714285714287,581.1808016640799,3409.8,1073.5714285714287,581.1808016640799,3512.3,1073.5714285714287,581.1808016640799,3613.1,1073.5714285714287,581.1808016640799,3717.3,1073.5714285714287,581.1808016640799,3827.7,1073.5714285714287,581.1808016640799,3932.2,1073.5714285714287,581.1808016640799,4034.1,1073.5714285714287,581.1808016640799,4135.1,1073.5714285714287,581.1808016640799,4235.8,1073.5714285714287,581.1808016640799,4344,1073.5714285714287,581.1808016640799,4452.6,1073.5714285714287,581.1808016640799,4555.3,1073.5714285714287,581.1808016640799,4657.7,1073.5714285714287,581.1808016640799,4760.7,1073.5714285714287,581.1808016640799,4862.6,1073.5714285714287,581.1808016640799,4964.5]","[5297.5,5297.5,2866.7,2002.2,428.6,""smooth"",""right"",""right"",""good_move"",8186.8,2888.5,2548.8,5298.3,339.7,""oops"",""right"",""up"",""bad_move"",14825.5,6638.2,3120.8,11215.5,489.2,""smooth"",""right"",""right"",""good_move"",17951.2,3125.4,2657.5,14825.8,467.9,""oops"",""right"",""right"",""good_move"",20809.6,2858.1,2517.1,17951.6,340.9,""smooth"",""down"",""down"",""good_move"",23910.4,3100.2,2739.5,20810.3,360.7,""smooth"",""down"",""down"",""good_move"",26880.9,2970.1,2651.4,23910.8,318.7,""smooth"",""down"",""down"",""good_move"",29677,2795.9,2513.7,26881.1,282.2,""while_blue"",""down"",""left"",""bad_move"",32525.8,2848.2,2538.8,29677.6,309.4,""smooth"",""down"",""down"",""good_move"",35514.5,2987.9,2662.5,32526.6,325.4,""smooth"",""right"",""right"",""good_move""]"
"3808","","<div style=""width:500px;"">
  <p>What determined the result of this run?</p>
  </div>","63","html-slider-response","29","314054","0.0-7.0-1.3","242","1","2025-08-09 07:57:15","36c45c0696341be0efffe67d72a12abb","95.146.241.52","Mozilla/5.0 (Windows NT 10.0; Win64; x64) AppleWebKit/537.36 (KHTML, like Gecko) Chrome/138.0.0.0 Safari/537.36","WebKit","Chrome","138.0.0.0","Windows","10.0","https://app.prolific.com/","en-US,en;q=0.9","60056657125e50465c15533e","6877649eabb845cf142cd221","6896ff4d9a1dbd952c16a930","1","60056657125e50465c15533e","1","2025-08-09T08:02:31.633Z","","","","AttribQ","","","","","","","","","","","50","","","","","","","","","","","","","","","","","","","","","","","","","","",""
"4083","","<div style=""width:500px;"">
  <p>How much control did you have over the ball?</p>
  </div>","64","html-slider-response","30","318139","0.0-7.0-2.3","242","1","2025-08-09 07:57:15","36c45c0696341be0efffe67d72a12abb","95.146.241.52","Mozilla/5.0 (Windows NT 10.0; Win64; x64) AppleWebKit/537.36 (KHTML, like Gecko) Chrome/138.0.0.0 Safari/537.36","WebKit","Chrome","138.0.0.0","Windows","10.0","https://app.prolific.com/","en-US,en;q=0.9","60056657125e50465c15533e","6877649eabb845cf142cd221","6896ff4d9a1dbd952c16a930","1","60056657125e50465c15533e","1","2025-08-09T08:02:35.718Z","","","","ControlQ","","","","","","","","","","","50","","","","","","","","","","","","","","","","","","","","","","","","","","",""
"2478","","<div style=""width:500px;"">
  <p>How would you describe your current emotional state?</p>
  </div>","61","html-slider-response","31","320618","0.0-7.0-3.3","242","1","2025-08-09 07:57:15","36c45c0696341be0efffe67d72a12abb","95.146.241.52","Mozilla/5.0 (Windows NT 10.0; Win64; x64) AppleWebKit/537.36 (KHTML, like Gecko) Chrome/138.0.0.0 Safari/537.36","WebKit","Chrome","138.0.0.0","Windows","10.0","https://app.prolific.com/","en-US,en;q=0.9","60056657125e50465c15533e","6877649eabb845cf142cd221","6896ff4d9a1dbd952c16a930","1","60056657125e50465c15533e","1","2025-08-09T08:02:38.197Z","","","","StressQ","","","","","","","","","","","50","","","","","","","","","","","","","","","","","","","","","","","","","","",""
"2030","","<div style=""width:500px;"">
  <p>What best describes how you currently feel?</p>
  </div>","39","html-slider-response","32","322650","0.0-7.0-4.3","242","1","2025-08-09 07:57:15","36c45c0696341be0efffe67d72a12abb","95.146.241.52","Mozilla/5.0 (Windows NT 10.0; Win64; x64) AppleWebKit/537.36 (KHTML, like Gecko) Chrome/138.0.0.0 Safari/537.36","WebKit","Chrome","138.0.0.0","Windows","10.0","https://app.prolific.com/","en-US,en;q=0.9","60056657125e50465c15533e","6877649eabb845cf142cd221","6896ff4d9a1dbd952c16a930","1","60056657125e50465c15533e","1","2025-08-09T08:02:40.230Z","","","","MotivationQ","","","","","","","","","","","50","","","","","","","","","","","","","","","","","","","","","","","","","","",""
"","","","","ctl-task-cpt","33","353198","0.0-7.0-0.4","242","1","2025-08-09 07:57:15","36c45c0696341be0efffe67d72a12abb","95.146.241.52","Mozilla/5.0 (Windows NT 10.0; Win64; x64) AppleWebKit/537.36 (KHTML, like Gecko) Chrome/138.0.0.0 Safari/537.36","WebKit","Chrome","138.0.0.0","Windows","10.0","https://app.prolific.com/","en-US,en;q=0.9","60056657125e50465c15533e","6877649eabb845cf142cd221","6896ff4d9a1dbd952c16a930","1","60056657125e50465c15533e","1","2025-08-09T08:03:10.777Z","","","","","","","","","","","","","","","","win-only","2","g1:SE,g2:NW","0.6","5","0","324288","860.7","5875.8","27524.3","1","4","8","6","2","8","7","28","21","0.21212121212121213","969.6","3000","1185","[""left"",""up""]","{""num_key_presses"":8,""num_perfect"":5,""num_errors"":1,""num_randdir"":2,""num_randdir_good_moves"":1,""num_whilered"":0,""num_whileblue"":1,""num_blue"":1,""num_good_moves"":7}","[407.57142857142856,413.1808016640799,0.5,407.57142857142856,413.1808016640799,100.8,407.57142857142856,413.1808016640799,203.7,407.57142857142856,413.1808016640799,305.9,407.57142857142856,413.1808016640799,406.4,407.57142857142856,413.1808016640799,509.9,91.07142857142857,63.68080166407994,613.5,88.07142857142857,60.68080166407994,714.4,80.57142857142857,50.18080166407994,814.5,80.57142857142857,50.18080166407994,917.9,80.57142857142857,50.18080166407994,1026.9,80.57142857142857,50.18080166407994,1130.8,80.57142857142857,50.18080166407994,1236.5,80.57142857142857,50.18080166407994,1339.8,467.57142857142856,72.68080166407994,1448.5,863.5714285714286,204.68080166407992,1549.8,863.5714285714286,204.68080166407992,1651.7,863.5714285714286,204.68080166407992,1751.8,863.5714285714286,204.68080166407992,1852.3,863.5714285714286,204.68080166407992,1955.9,863.5714285714286,204.68080166407992,2063,863.5714285714286,204.68080166407992,2163,863.5714285714286,204.68080166407992,2263.9,863.5714285714286,204.68080166407992,2367.5,863.5714285714286,204.68080166407992,2468,863.5714285714286,204.68080166407992,2568.1,863.5714285714286,204.68080166407992,2670.5,863.5714285714286,204.68080166407992,2777.7,863.5714285714286,204.68080166407992,2878.9,863.5714285714286,204.68080166407992,2979,863.5714285714286,204.68080166407992,3083.5,863.5714285714286,204.68080166407992,3185.2,863.5714285714286,204.68080166407992,3285.6,863.5714285714286,204.68080166407992,3386.4,863.5714285714286,204.68080166407992,3495.1,863.5714285714286,204.68080166407992,3599.7,863.5714285714286,204.68080166407992,3700.7,863.5714285714286,204.68080166407992,3812.9,863.5714285714286,204.68080166407992,3914.5,863.5714285714286,204.68080166407992,4015.8,863.5714285714286,204.68080166407992,4118.2,863.5714285714286,204.68080166407992,4220.4,863.5714285714286,204.68080166407992,4320.4,863.5714285714286,204.68080166407992,4421.6,863.5714285714286,204.68080166407992,4527.8,863.5714285714286,204.68080166407992,4628,863.5714285714286,204.68080166407992,4732.4,863.5714285714286,204.68080166407992,4837.3,863.5714285714286,204.68080166407992,4941.6]","[1331.4,1331.4,1000,0,331.4,""smooth"",""left"",""left"",""good_move"",4185.4,2853.4,2507.8,1332,345.6,""smooth"",""left"",""left"",""good_move"",6682.2,2496.6,2150.6,4185.6,346,""smooth"",""left"",""left"",""good_move"",10013.9,3331.5,3060.9,6682.4,270.6,""oops"",""up"",""down"",""bad_move"",13154.1,3139.7,2845.7,10014.4,294,""smooth"",""up"",""up"",""good_move"",15463.3,2308.9,2014.3,13154.4,294.6,""oops"",""up"",""up"",""good_move"",18778.3,3314.9,3012.4,15463.4,302.5,""smooth"",""up"",""up"",""good_move"",21525.4,2746.6,2416,18778.8,330.6,""while_blue"",""up"",""up"",""good_move""]"
"2522","","<div style=""width:500px;"">
  <p>What determined the result of this run?</p>
  </div>","68","html-slider-response","34","355722","0.0-7.0-1.4","242","1","2025-08-09 07:57:15","36c45c0696341be0efffe67d72a12abb","95.146.241.52","Mozilla/5.0 (Windows NT 10.0; Win64; x64) AppleWebKit/537.36 (KHTML, like Gecko) Chrome/138.0.0.0 Safari/537.36","WebKit","Chrome","138.0.0.0","Windows","10.0","https://app.prolific.com/","en-US,en;q=0.9","60056657125e50465c15533e","6877649eabb845cf142cd221","6896ff4d9a1dbd952c16a930","1","60056657125e50465c15533e","1","2025-08-09T08:03:13.301Z","","","","AttribQ","","","","","","","","","","","50","","","","","","","","","","","","","","","","","","","","","","","","","","",""
"1680","","<div style=""width:500px;"">
  <p>How much control did you have over the ball?</p>
  </div>","63","html-slider-response","35","357403","0.0-7.0-2.4","242","1","2025-08-09 07:57:15","36c45c0696341be0efffe67d72a12abb","95.146.241.52","Mozilla/5.0 (Windows NT 10.0; Win64; x64) AppleWebKit/537.36 (KHTML, like Gecko) Chrome/138.0.0.0 Safari/537.36","WebKit","Chrome","138.0.0.0","Windows","10.0","https://app.prolific.com/","en-US,en;q=0.9","60056657125e50465c15533e","6877649eabb845cf142cd221","6896ff4d9a1dbd952c16a930","1","60056657125e50465c15533e","1","2025-08-09T08:03:14.982Z","","","","ControlQ","","","","","","","","","","","50","","","","","","","","","","","","","","","","","","","","","","","","","","",""
"2531","","<div style=""width:500px;"">
  <p>How would you describe your current emotional state?</p>
  </div>","61","html-slider-response","36","359935","0.0-7.0-3.4","242","1","2025-08-09 07:57:15","36c45c0696341be0efffe67d72a12abb","95.146.241.52","Mozilla/5.0 (Windows NT 10.0; Win64; x64) AppleWebKit/537.36 (KHTML, like Gecko) Chrome/138.0.0.0 Safari/537.36","WebKit","Chrome","138.0.0.0","Windows","10.0","https://app.prolific.com/","en-US,en;q=0.9","60056657125e50465c15533e","6877649eabb845cf142cd221","6896ff4d9a1dbd952c16a930","1","60056657125e50465c15533e","1","2025-08-09T08:03:17.514Z","","","","StressQ","","","","","","","","","","","50","","","","","","","","","","","","","","","","","","","","","","","","","","",""
"1751","","<div style=""width:500px;"">
  <p>What best describes how you currently feel?</p>
  </div>","43","html-slider-response","37","361688","0.0-7.0-4.4","242","1","2025-08-09 07:57:15","36c45c0696341be0efffe67d72a12abb","95.146.241.52","Mozilla/5.0 (Windows NT 10.0; Win64; x64) AppleWebKit/537.36 (KHTML, like Gecko) Chrome/138.0.0.0 Safari/537.36","WebKit","Chrome","138.0.0.0","Windows","10.0","https://app.prolific.com/","en-US,en;q=0.9","60056657125e50465c15533e","6877649eabb845cf142cd221","6896ff4d9a1dbd952c16a930","1","60056657125e50465c15533e","1","2025-08-09T08:03:19.267Z","","","","MotivationQ","","","","","","","","","","","50","","","","","","","","","","","","","","","","","","","","","","","","","","",""
"","","","","ctl-task-cpt","38","411049","0.0-7.0-0.5","242","1","2025-08-09 07:57:15","36c45c0696341be0efffe67d72a12abb","95.146.241.52","Mozilla/5.0 (Windows NT 10.0; Win64; x64) AppleWebKit/537.36 (KHTML, like Gecko) Chrome/138.0.0.0 Safari/537.36","WebKit","Chrome","138.0.0.0","Windows","10.0","https://app.prolific.com/","en-US,en;q=0.9","60056657125e50465c15533e","6877649eabb845cf142cd221","6896ff4d9a1dbd952c16a930","1","60056657125e50465c15533e","1","2025-08-09T08:04:08.628Z","","","","","","","","","","","","","","","","win-only","2","g1:SE,g2:NW","0.5","6","0","363322.7","725.5","5727.8","46338.7","1","4","4","6","2","-4","-4","24","28","0.18181818181818182","901","3000","-2555","[""left"",""up""]","{""num_key_presses"":9,""num_perfect"":5,""num_errors"":0,""num_randdir"":4,""num_randdir_good_moves"":2,""num_whilered"":0,""num_whileblue"":0,""num_blue"":4,""num_good_moves"":7}","[410.57142857142856,411.6808016640799,0.5,410.57142857142856,411.6808016640799,102.8,410.57142857142856,411.6808016640799,205.9,410.57142857142856,411.6808016640799,306.1,410.57142857142856,411.6808016640799,409.8,197.57142857142856,198.68080166407992,514,88.07142857142857,101.18080166407994,619.6,55.07142857142857,87.68080166407994,721.6,55.07142857142857,87.68080166407994,822.2,55.07142857142857,87.68080166407994,927.9,55.07142857142857,87.68080166407994,1032.5,55.07142857142857,87.68080166407994,1138.9,55.07142857142857,87.68080166407994,1241.2,55.07142857142857,87.68080166407994,1347.7,730.0714285714286,78.68080166407994,1451.7,758.5714285714286,86.18080166407994,1557.2,758.5714285714286,86.18080166407994,1664.7,758.5714285714286,86.18080166407994,1769,758.5714285714286,86.18080166407994,1870.4,758.5714285714286,86.18080166407994,1970.9,758.5714285714286,86.18080166407994,2075.3,758.5714285714286,86.18080166407994,2184.7,758.5714285714286,86.18080166407994,2288.4,758.5714285714286,86.18080166407994,2388.4,758.5714285714286,86.18080166407994,2490.9,758.5714285714286,86.18080166407994,2598.4,758.5714285714286,86.18080166407994,2703.2,758.5714285714286,86.18080166407994,2806.1,758.5714285714286,86.18080166407994,2913.7,758.5714285714286,86.18080166407994,3014.1,758.5714285714286,86.18080166407994,3115.1,758.5714285714286,86.18080166407994,3216,758.5714285714286,86.18080166407994,3322.9,758.5714285714286,86.18080166407994,3430,758.5714285714286,86.18080166407994,3537.5,758.5714285714286,86.18080166407994,3638.1,758.5714285714286,86.18080166407994,3745.4,758.5714285714286,86.18080166407994,3847.5,758.5714285714286,86.18080166407994,3949.7,758.5714285714286,86.18080166407994,4051.4,758.5714285714286,86.18080166407994,4153.9,758.5714285714286,86.18080166407994,4256.2,758.5714285714286,86.18080166407994,4362.8,758.5714285714286,86.18080166407994,4467.8,758.5714285714286,86.18080166407994,4579.1,758.5714285714286,86.18080166407994,4683.3,758.5714285714286,86.18080166407994,4784.1,758.5714285714286,86.18080166407994,4886.4,758.5714285714286,86.18080166407994,4987]","[11898.6,11898.6,2164.7,9262.6,471.3,""oops"",""left"",""left"",""good_move"",18796.4,6897.3,2396.6,16018.4,381.4,""oops"",""left"",""right"",""bad_move"",20978.7,2181.7,1654.6,18797,527.1,""oops"",""left"",""right"",""bad_move"",23612.1,2633,2304.1,20979.1,328.9,""smooth"",""left"",""left"",""good_move"",26645.2,3032.6,2638.9,23612.6,393.7,""smooth"",""left"",""left"",""good_move"",28924.3,2278.9,1926.8,26645.4,352.1,""smooth"",""left"",""left"",""good_move"",31398.9,2473.9,2141.5,28925,332.4,""oops"",""left"",""left"",""good_move"",35045.1,3646,3183.1,31399.2,462.9,""smooth"",""up"",""up"",""good_move"",37876.8,2831,2548.7,35045.8,282.3,""smooth"",""up"",""up"",""good_move""]"
"3610","","<div style=""width:500px;"">
  <p>What determined the result of this run?</p>
  </div>","41","html-slider-response","39","414660","0.0-7.0-1.5","242","1","2025-08-09 07:57:15","36c45c0696341be0efffe67d72a12abb","95.146.241.52","Mozilla/5.0 (Windows NT 10.0; Win64; x64) AppleWebKit/537.36 (KHTML, like Gecko) Chrome/138.0.0.0 Safari/537.36","WebKit","Chrome","138.0.0.0","Windows","10.0","https://app.prolific.com/","en-US,en;q=0.9","60056657125e50465c15533e","6877649eabb845cf142cd221","6896ff4d9a1dbd952c16a930","1","60056657125e50465c15533e","1","2025-08-09T08:04:12.239Z","","","","AttribQ","","","","","","","","","","","50","","","","","","","","","","","","","","","","","","","","","","","","","","",""
"2008","","<div style=""width:500px;"">
  <p>How much control did you have over the ball?</p>
  </div>","38","html-slider-response","40","416670","0.0-7.0-2.5","242","1","2025-08-09 07:57:15","36c45c0696341be0efffe67d72a12abb","95.146.241.52","Mozilla/5.0 (Windows NT 10.0; Win64; x64) AppleWebKit/537.36 (KHTML, like Gecko) Chrome/138.0.0.0 Safari/537.36","WebKit","Chrome","138.0.0.0","Windows","10.0","https://app.prolific.com/","en-US,en;q=0.9","60056657125e50465c15533e","6877649eabb845cf142cd221","6896ff4d9a1dbd952c16a930","1","60056657125e50465c15533e","1","2025-08-09T08:04:14.249Z","","","","ControlQ","","","","","","","","","","","50","","","","","","","","","","","","","","","","","","","","","","","","","","",""
"2778","","<div style=""width:500px;"">
  <p>How would you describe your current emotional state?</p>
  </div>","62","html-slider-response","41","419449","0.0-7.0-3.5","242","1","2025-08-09 07:57:15","36c45c0696341be0efffe67d72a12abb","95.146.241.52","Mozilla/5.0 (Windows NT 10.0; Win64; x64) AppleWebKit/537.36 (KHTML, like Gecko) Chrome/138.0.0.0 Safari/537.36","WebKit","Chrome","138.0.0.0","Windows","10.0","https://app.prolific.com/","en-US,en;q=0.9","60056657125e50465c15533e","6877649eabb845cf142cd221","6896ff4d9a1dbd952c16a930","1","60056657125e50465c15533e","1","2025-08-09T08:04:17.028Z","","","","StressQ","","","","","","","","","","","50","","","","","","","","","","","","","","","","","","","","","","","","","","",""
"2224","","<div style=""width:500px;"">
  <p>What best describes how you currently feel?</p>
  </div>","35","html-slider-response","42","421675","0.0-7.0-4.5","242","1","2025-08-09 07:57:15","36c45c0696341be0efffe67d72a12abb","95.146.241.52","Mozilla/5.0 (Windows NT 10.0; Win64; x64) AppleWebKit/537.36 (KHTML, like Gecko) Chrome/138.0.0.0 Safari/537.36","WebKit","Chrome","138.0.0.0","Windows","10.0","https://app.prolific.com/","en-US,en;q=0.9","60056657125e50465c15533e","6877649eabb845cf142cd221","6896ff4d9a1dbd952c16a930","1","60056657125e50465c15533e","1","2025-08-09T08:04:19.254Z","","","","MotivationQ","","","","","","","","","","","50","","","","","","","","","","","","","","","","","","","","","","","","","","",""
"","","","","ctl-task-cpt","43","473067","0.0-7.0-0.6","242","1","2025-08-09 07:57:15","36c45c0696341be0efffe67d72a12abb","95.146.241.52","Mozilla/5.0 (Windows NT 10.0; Win64; x64) AppleWebKit/537.36 (KHTML, like Gecko) Chrome/138.0.0.0 Safari/537.36","WebKit","Chrome","138.0.0.0","Windows","10.0","https://app.prolific.com/","en-US,en;q=0.9","60056657125e50465c15533e","6877649eabb845cf142cd221","6896ff4d9a1dbd952c16a930","1","60056657125e50465c15533e","1","2025-08-09T08:05:10.646Z","","","","","","","","","","","","","","","","win-only","3","g1:SW,g2:NE","0.4","7","0","423309.2","791.9","5802.9","48370.4","1","4","4","6","2","-4","-5","19","24","0.14393939393939395","1211.7","3000","-2450","[""up"",""right""]","{""num_key_presses"":12,""num_perfect"":4,""num_errors"":1,""num_randdir"":7,""num_randdir_good_moves"":3,""num_whilered"":0,""num_whileblue"":1,""num_blue"":3,""num_good_moves"":8}","[416.57142857142856,413.1808016640799,0.3,416.57142857142856,413.1808016640799,106.5,416.57142857142856,413.1808016640799,206.9,416.57142857142856,413.1808016640799,313.7,464.57142857142856,374.1808016640799,414,635.5714285714286,159.68080166407992,519.5,685.0714285714286,128.18080166407992,627.3,685.0714285714286,128.18080166407992,734,685.0714285714286,128.18080166407992,835.9,685.0714285714286,128.18080166407992,936.4,793.0714285714286,57.68080166407994,1039.8,793.0714285714286,57.68080166407994,1144,793.0714285714286,57.68080166407994,1250.2,793.0714285714286,57.68080166407994,1354.8,793.0714285714286,57.68080166407994,1455,793.0714285714286,57.68080166407994,1555.1,1022.5714285714286,47.18080166407994,1662.2,1277.5714285714287,104.18080166407994,1763.8,1277.5714285714287,104.18080166407994,1866.2,1277.5714285714287,104.18080166407994,1970.1,1277.5714285714287,104.18080166407994,2077.9,1277.5714285714287,104.18080166407994,2183.2,1277.5714285714287,104.18080166407994,2283.6,1277.5714285714287,104.18080166407994,2384.8,1277.5714285714287,104.18080166407994,2493.7,1277.5714285714287,104.18080166407994,2598,1277.5714285714287,104.18080166407994,2701.9,1277.5714285714287,104.18080166407994,2805,1277.5714285714287,104.18080166407994,2905.2,1277.5714285714287,104.18080166407994,3015.3,1277.5714285714287,104.18080166407994,3120,1277.5714285714287,104.18080166407994,3220.8,1277.5714285714287,104.18080166407994,3323.8,1277.5714285714287,104.18080166407994,3427,1277.5714285714287,104.18080166407994,3532.5,1277.5714285714287,104.18080166407994,3633.4,1277.5714285714287,104.18080166407994,3735.9,1277.5714285714287,104.18080166407994,3842.5,1277.5714285714287,104.18080166407994,3942.8,1277.5714285714287,104.18080166407994,4048.5,1277.5714285714287,104.18080166407994,4152.4,1277.5714285714287,104.18080166407994,4253.8,1277.5714285714287,104.18080166407994,4355.2,1277.5714285714287,104.18080166407994,4455.9,1277.5714285714287,104.18080166407994,4563.6,1277.5714285714287,104.18080166407994,4664.1,1277.5714285714287,104.18080166407994,4766.5,1277.5714285714287,104.18080166407994,4867.7,1277.5714285714287,104.18080166407994,4968.7]","[4303.3,4303.3,1905.8,2012.1,385.4,""oops"",""right"",""down"",""bad_move"",7213.6,2909.9,2576.8,4303.7,333.1,""oops"",""right"",""down"",""bad_move"",9311.8,2097.7,1522,7214.2,575.6,""smooth"",""right"",""right"",""good_move"",12247.1,2934.7,2609.4,9312.4,325.3,""oops"",""right"",""right"",""good_move"",14884.8,2637.4,2316,12247.4,321.4,""smooth"",""right"",""right"",""good_move"",17308,2422.9,2106.9,14885.2,315.9,""oops"",""up"",""left"",""bad_move"",20308.1,2999.7,2708.8,17308.4,290.9,""while_blue"",""up"",""up"",""good_move"",23500.9,3192.4,2871.4,20308.5,321,""smooth"",""up"",""up"",""good_move"",26808.5,3307.3,2954.7,23501.2,352.6,""oops"",""up"",""down"",""bad_move"",30674.8,3865.9,3505.6,26808.9,360.3,""oops"",""up"",""up"",""good_move"",33640,2963.9,2662.5,30676.1,301.4,""smooth"",""up"",""up"",""good_move"",40190.9,6550.4,2257.2,37558.6,375.1,""oops"",""up"",""up"",""good_move""]"
"3666","","<div style=""width:500px;"">
  <p>What determined the result of this run?</p>
  </div>","34","html-slider-response","44","476737","0.0-7.0-1.6","242","1","2025-08-09 07:57:15","36c45c0696341be0efffe67d72a12abb","95.146.241.52","Mozilla/5.0 (Windows NT 10.0; Win64; x64) AppleWebKit/537.36 (KHTML, like Gecko) Chrome/138.0.0.0 Safari/537.36","WebKit","Chrome","138.0.0.0","Windows","10.0","https://app.prolific.com/","en-US,en;q=0.9","60056657125e50465c15533e","6877649eabb845cf142cd221","6896ff4d9a1dbd952c16a930","1","60056657125e50465c15533e","1","2025-08-09T08:05:14.316Z","","","","AttribQ","","","","","","","","","","","50","","","","","","","","","","","","","","","","","","","","","","","","","","",""
"2011","","<div style=""width:500px;"">
  <p>How much control did you have over the ball?</p>
  </div>","29","html-slider-response","45","478750","0.0-7.0-2.6","242","1","2025-08-09 07:57:15","36c45c0696341be0efffe67d72a12abb","95.146.241.52","Mozilla/5.0 (Windows NT 10.0; Win64; x64) AppleWebKit/537.36 (KHTML, like Gecko) Chrome/138.0.0.0 Safari/537.36","WebKit","Chrome","138.0.0.0","Windows","10.0","https://app.prolific.com/","en-US,en;q=0.9","60056657125e50465c15533e","6877649eabb845cf142cd221","6896ff4d9a1dbd952c16a930","1","60056657125e50465c15533e","1","2025-08-09T08:05:16.329Z","","","","ControlQ","","","","","","","","","","","50","","","","","","","","","","","","","","","","","","","","","","","","","","",""
"1685","","<div style=""width:500px;"">
  <p>How would you describe your current emotional state?</p>
  </div>","79","html-slider-response","46","480436","0.0-7.0-3.6","242","1","2025-08-09 07:57:15","36c45c0696341be0efffe67d72a12abb","95.146.241.52","Mozilla/5.0 (Windows NT 10.0; Win64; x64) AppleWebKit/537.36 (KHTML, like Gecko) Chrome/138.0.0.0 Safari/537.36","WebKit","Chrome","138.0.0.0","Windows","10.0","https://app.prolific.com/","en-US,en;q=0.9","60056657125e50465c15533e","6877649eabb845cf142cd221","6896ff4d9a1dbd952c16a930","1","60056657125e50465c15533e","1","2025-08-09T08:05:18.015Z","","","","StressQ","","","","","","","","","","","50","","","","","","","","","","","","","","","","","","","","","","","","","","",""
"1940","","<div style=""width:500px;"">
  <p>What best describes how you currently feel?</p>
  </div>","34","html-slider-response","47","482377","0.0-7.0-4.6","242","1","2025-08-09 07:57:15","36c45c0696341be0efffe67d72a12abb","95.146.241.52","Mozilla/5.0 (Windows NT 10.0; Win64; x64) AppleWebKit/537.36 (KHTML, like Gecko) Chrome/138.0.0.0 Safari/537.36","WebKit","Chrome","138.0.0.0","Windows","10.0","https://app.prolific.com/","en-US,en;q=0.9","60056657125e50465c15533e","6877649eabb845cf142cd221","6896ff4d9a1dbd952c16a930","1","60056657125e50465c15533e","1","2025-08-09T08:05:19.956Z","","","","MotivationQ","","","","","","","","","","","50","","","","","","","","","","","","","","","","","","","","","","","","","","",""
"","","","","ctl-task-cpt","48","534248","0.0-7.0-0.7","242","1","2025-08-09 07:57:15","36c45c0696341be0efffe67d72a12abb","95.146.241.52","Mozilla/5.0 (Windows NT 10.0; Win64; x64) AppleWebKit/537.36 (KHTML, like Gecko) Chrome/138.0.0.0 Safari/537.36","WebKit","Chrome","138.0.0.0","Windows","10.0","https://app.prolific.com/","en-US,en;q=0.9","60056657125e50465c15533e","6877649eabb845cf142cd221","6896ff4d9a1dbd952c16a930","1","60056657125e50465c15533e","1","2025-08-09T08:06:11.827Z","","","","","","","","","","","","","","","","win-only","3","g1:SW,g2:NE","0.3","8","0","484013.2","1633.6","6637.1","48855.2","1","4","8","6","2","-8","-8","11","19","0.08333333333333333","855","3000","-2120","[""up"",""right""]","{""num_key_presses"":13,""num_perfect"":4,""num_errors"":0,""num_randdir"":9,""num_randdir_good_moves"":3,""num_whilered"":0,""num_whileblue"":0,""num_blue"":1,""num_good_moves"":7}","[410.57142857142856,422.1808016640799,0.4,410.57142857142856,422.1808016640799,102,410.57142857142856,422.1808016640799,207.2,410.57142857142856,422.1808016640799,308,446.57142857142856,386.1808016640799,408.5,719.5714285714286,107.18080166407994,509.8,778.0714285714286,56.18080166407994,617.9,782.5714285714286,56.18080166407994,722.5,782.5714285714286,56.18080166407994,824.2,782.5714285714286,56.18080166407994,926.9,782.5714285714286,56.18080166407994,1027,782.5714285714286,56.18080166407994,1135.8,782.5714285714286,56.18080166407994,1237,890.5714285714286,77.18080166407994,1342.7,1004.5714285714286,107.18080166407994,1446.5,1007.5714285714286,107.18080166407994,1552.9,1007.5714285714286,107.18080166407994,1654.9,1007.5714285714286,107.18080166407994,1757.8,1007.5714285714286,107.18080166407994,1858.2,1007.5714285714286,107.18080166407994,1965.1,1007.5714285714286,107.18080166407994,2066.9,1007.5714285714286,107.18080166407994,2166.9,1007.5714285714286,107.18080166407994,2271.9,1007.5714285714286,107.18080166407994,2372.8,1007.5714285714286,107.18080166407994,2473,1007.5714285714286,107.18080166407994,2580.9,1007.5714285714286,107.18080166407994,2685.2,1007.5714285714286,107.18080166407994,2789.9,1007.5714285714286,107.18080166407994,2892.8,1007.5714285714286,107.18080166407994,3002.2,1007.5714285714286,107.18080166407994,3107.7,1007.5714285714286,107.18080166407994,3208,1007.5714285714286,107.18080166407994,3317.2,1007.5714285714286,107.18080166407994,3420.3,1007.5714285714286,107.18080166407994,3520.5,1007.5714285714286,107.18080166407994,3620.5,1007.5714285714286,107.18080166407994,3725.9,1007.5714285714286,107.18080166407994,3834.7,1007.5714285714286,107.18080166407994,3938.3,1007.5714285714286,107.18080166407994,4039,1007.5714285714286,107.18080166407994,4149.4,1007.5714285714286,107.18080166407994,4252.8,1007.5714285714286,107.18080166407994,4362.1,1007.5714285714286,107.18080166407994,4467.6,1007.5714285714286,107.18080166407994,4568,1007.5714285714286,107.18080166407994,4672.9,1007.5714285714286,107.18080166407994,4773.7,1007.5714285714286,107.18080166407994,4874.1,1007.5714285714286,107.18080166407994,4982]","[1366.4,1366.4,1000,0,366.4,""smooth"",""right"",""right"",""good_move"",4577.4,3210.7,2869.9,1366.7,340.8,""smooth"",""right"",""right"",""good_move"",7558,2980.3,2692.4,4577.7,287.9,""smooth"",""right"",""right"",""good_move"",10826.6,3268.2,2927.7,7558.4,340.5,""oops"",""up"",""left"",""bad_move"",13815,2987.9,2684.2,10827.1,303.7,""oops"",""up"",""down"",""bad_move"",16697.9,2882.4,2377.8,13815.5,504.6,""oops"",""up"",""right"",""good_move"",19253.7,2555.2,2223,16698.5,332.2,""oops"",""up"",""down"",""bad_move"",25509.4,6255.5,2680.1,22516.6,312.7,""oops"",""up"",""up"",""good_move"",28237.1,2727.1,2407.3,25510,319.8,""oops"",""up"",""down"",""bad_move"",30488.2,2250.4,1884.8,28237.8,365.6,""oops"",""up"",""up"",""good_move"",33750.8,3262.4,2976.6,30488.4,285.8,""oops"",""up"",""down"",""bad_move"",36922.4,3171.2,2860,33751.2,311.2,""smooth"",""up"",""up"",""good_move"",39410.4,2487.8,2203.8,36922.6,284.1,""oops"",""up"",""down"",""bad_move""]"
"3565","","<div style=""width:500px;"">
  <p>What determined the result of this run?</p>
  </div>","19","html-slider-response","49","537815","0.0-7.0-1.7","242","1","2025-08-09 07:57:15","36c45c0696341be0efffe67d72a12abb","95.146.241.52","Mozilla/5.0 (Windows NT 10.0; Win64; x64) AppleWebKit/537.36 (KHTML, like Gecko) Chrome/138.0.0.0 Safari/537.36","WebKit","Chrome","138.0.0.0","Windows","10.0","https://app.prolific.com/","en-US,en;q=0.9","60056657125e50465c15533e","6877649eabb845cf142cd221","6896ff4d9a1dbd952c16a930","1","60056657125e50465c15533e","1","2025-08-09T08:06:15.394Z","","","","AttribQ","","","","","","","","","","","50","","","","","","","","","","","","","","","","","","","","","","","","","","",""
"2318","","<div style=""width:500px;"">
  <p>How much control did you have over the ball?</p>
  </div>","14","html-slider-response","50","540133","0.0-7.0-2.7","242","1","2025-08-09 07:57:15","36c45c0696341be0efffe67d72a12abb","95.146.241.52","Mozilla/5.0 (Windows NT 10.0; Win64; x64) AppleWebKit/537.36 (KHTML, like Gecko) Chrome/138.0.0.0 Safari/537.36","WebKit","Chrome","138.0.0.0","Windows","10.0","https://app.prolific.com/","en-US,en;q=0.9","60056657125e50465c15533e","6877649eabb845cf142cd221","6896ff4d9a1dbd952c16a930","1","60056657125e50465c15533e","1","2025-08-09T08:06:17.713Z","","","","ControlQ","","","","","","","","","","","50","","","","","","","","","","","","","","","","","","","","","","","","","","",""
"2673","","<div style=""width:500px;"">
  <p>How would you describe your current emotional state?</p>
  </div>","92","html-slider-response","51","542807","0.0-7.0-3.7","242","1","2025-08-09 07:57:15","36c45c0696341be0efffe67d72a12abb","95.146.241.52","Mozilla/5.0 (Windows NT 10.0; Win64; x64) AppleWebKit/537.36 (KHTML, like Gecko) Chrome/138.0.0.0 Safari/537.36","WebKit","Chrome","138.0.0.0","Windows","10.0","https://app.prolific.com/","en-US,en;q=0.9","60056657125e50465c15533e","6877649eabb845cf142cd221","6896ff4d9a1dbd952c16a930","1","60056657125e50465c15533e","1","2025-08-09T08:06:20.386Z","","","","StressQ","","","","","","","","","","","50","","","","","","","","","","","","","","","","","","","","","","","","","","",""
"2119","","<div style=""width:500px;"">
  <p>What best describes how you currently feel?</p>
  </div>","40","html-slider-response","52","544927","0.0-7.0-4.7","242","1","2025-08-09 07:57:15","36c45c0696341be0efffe67d72a12abb","95.146.241.52","Mozilla/5.0 (Windows NT 10.0; Win64; x64) AppleWebKit/537.36 (KHTML, like Gecko) Chrome/138.0.0.0 Safari/537.36","WebKit","Chrome","138.0.0.0","Windows","10.0","https://app.prolific.com/","en-US,en;q=0.9","60056657125e50465c15533e","6877649eabb845cf142cd221","6896ff4d9a1dbd952c16a930","1","60056657125e50465c15533e","1","2025-08-09T08:06:22.506Z","","","","MotivationQ","","","","","","","","","","","50","","","","","","","","","","","","","","","","","","","","","","","","","","",""
"","","","","ctl-task-cpt","53","592785","0.0-7.0-0.8","242","1","2025-08-09 07:57:15","36c45c0696341be0efffe67d72a12abb","95.146.241.52","Mozilla/5.0 (Windows NT 10.0; Win64; x64) AppleWebKit/537.36 (KHTML, like Gecko) Chrome/138.0.0.0 Safari/537.36","WebKit","Chrome","138.0.0.0","Windows","10.0","https://app.prolific.com/","en-US,en;q=0.9","60056657125e50465c15533e","6877649eabb845cf142cd221","6896ff4d9a1dbd952c16a930","1","60056657125e50465c15533e","1","2025-08-09T08:07:10.364Z","","","","","","","","","","","","","","","","win-only","0","g1:NW,g2:SE","0.4","9","0","546560.7","859.1","5864.9","44834.7","1","4","8","6","2","8","7","18","11","0.13636363636363635","1041.8","3000","690","[""down"",""right""]","{""num_key_presses"":12,""num_perfect"":4,""num_errors"":1,""num_randdir"":7,""num_randdir_good_moves"":4,""num_whilered"":0,""num_whileblue"":1,""num_blue"":3,""num_good_moves"":9}","[416.57142857142856,419.1808016640799,0.3,416.57142857142856,419.1808016640799,103.2,416.57142857142856,419.1808016640799,209.7,416.57142857142856,419.1808016640799,311.9,472.07142857142856,443.1808016640799,413.1,697.0714285714286,596.1808016640799,516.7,710.5714285714286,617.1808016640799,620.6,710.5714285714286,617.1808016640799,721.2,760.0714285714286,723.6808016640799,830.3,764.5714285714286,737.1808016640799,934,764.5714285714286,737.1808016640799,1034.2,764.5714285714286,737.1808016640799,1137.4,764.5714285714286,737.1808016640799,1241.8,764.5714285714286,737.1808016640799,1342.6,764.5714285714286,737.1808016640799,1450.3,958.0714285714286,669.6808016640799,1551.6,1061.5714285714287,612.6808016640799,1658.7,1061.5714285714287,612.6808016640799,1765.9,1061.5714285714287,612.6808016640799,1868,1061.5714285714287,612.6808016640799,1969.3,1061.5714285714287,612.6808016640799,2077.7,1061.5714285714287,612.6808016640799,2182.5,1061.5714285714287,612.6808016640799,2284.7,1061.5714285714287,612.6808016640799,2391.1,1061.5714285714287,612.6808016640799,2492.3,1061.5714285714287,612.6808016640799,2594.6,1061.5714285714287,612.6808016640799,2699,1061.5714285714287,612.6808016640799,2800.2,1061.5714285714287,612.6808016640799,2902.3,1061.5714285714287,612.6808016640799,3004.1,1061.5714285714287,612.6808016640799,3106.8,1061.5714285714287,612.6808016640799,3209.1,1061.5714285714287,612.6808016640799,3315.5,1061.5714285714287,612.6808016640799,3415.7,1061.5714285714287,612.6808016640799,3516.6,1061.5714285714287,612.6808016640799,3619.8,1061.5714285714287,612.6808016640799,3722.8,1061.5714285714287,612.6808016640799,3822.8,1061.5714285714287,612.6808016640799,3930.6,1061.5714285714287,612.6808016640799,4035.9,1061.5714285714287,612.6808016640799,4140.7,1061.5714285714287,612.6808016640799,4248,1061.5714285714287,612.6808016640799,4355.8,1061.5714285714287,612.6808016640799,4462.6,1061.5714285714287,612.6808016640799,4566.6,1061.5714285714287,612.6808016640799,4667.2,1061.5714285714287,612.6808016640799,4772.6,1061.5714285714287,612.6808016640799,4879.5,1061.5714285714287,612.6808016640799,4984.2]","[1379.1,1379.2,1000,0,379.2,""smooth"",""right"",""right"",""good_move"",3913.7,2533.1,2239.6,1380.6,293.5,""oops"",""right"",""left"",""bad_move"",6805.8,2891.6,2591.6,3914.2,300,""oops"",""right"",""down"",""good_move"",9335.7,2529.3,2224.6,6806.4,304.8,""oops"",""right"",""down"",""good_move"",16143.3,6807.4,3047.1,12596.8,499.4,""smooth"",""right"",""right"",""good_move"",18703.1,2559.6,2221.1,16143.5,338.5,""oops"",""right"",""down"",""good_move"",21955.5,3252.1,2889.7,18703.4,362.4,""oops"",""right"",""up"",""bad_move"",27802.7,5846.8,2358.8,25054.8,389.1,""smooth"",""right"",""right"",""good_move"",30331.2,2528.2,2143.3,27803,384.9,""smooth"",""right"",""right"",""good_move"",33029.5,2698,2313.8,30331.5,384.2,""oops"",""down"",""up"",""bad_move"",36153.1,3123.4,2814.7,33029.7,308.7,""while_blue"",""down"",""down"",""good_move"",38751.5,2598,2177.3,36153.5,420.7,""oops"",""down"",""down"",""good_move""]"
"2893","","<div style=""width:500px;"">
  <p>What determined the result of this run?</p>
  </div>","57","html-slider-response","54","595679","0.0-7.0-1.8","242","1","2025-08-09 07:57:15","36c45c0696341be0efffe67d72a12abb","95.146.241.52","Mozilla/5.0 (Windows NT 10.0; Win64; x64) AppleWebKit/537.36 (KHTML, like Gecko) Chrome/138.0.0.0 Safari/537.36","WebKit","Chrome","138.0.0.0","Windows","10.0","https://app.prolific.com/","en-US,en;q=0.9","60056657125e50465c15533e","6877649eabb845cf142cd221","6896ff4d9a1dbd952c16a930","1","60056657125e50465c15533e","1","2025-08-09T08:07:13.258Z","","","","AttribQ","","","","","","","","","","","50","","","","","","","","","","","","","","","","","","","","","","","","","","",""
"1970","","<div style=""width:500px;"">
  <p>How much control did you have over the ball?</p>
  </div>","43","html-slider-response","55","597650","0.0-7.0-2.8","242","1","2025-08-09 07:57:15","36c45c0696341be0efffe67d72a12abb","95.146.241.52","Mozilla/5.0 (Windows NT 10.0; Win64; x64) AppleWebKit/537.36 (KHTML, like Gecko) Chrome/138.0.0.0 Safari/537.36","WebKit","Chrome","138.0.0.0","Windows","10.0","https://app.prolific.com/","en-US,en;q=0.9","60056657125e50465c15533e","6877649eabb845cf142cd221","6896ff4d9a1dbd952c16a930","1","60056657125e50465c15533e","1","2025-08-09T08:07:15.230Z","","","","ControlQ","","","","","","","","","","","50","","","","","","","","","","","","","","","","","","","","","","","","","","",""
"1950","","<div style=""width:500px;"">
  <p>How would you describe your current emotional state?</p>
  </div>","76","html-slider-response","56","599602","0.0-7.0-3.8","242","1","2025-08-09 07:57:15","36c45c0696341be0efffe67d72a12abb","95.146.241.52","Mozilla/5.0 (Windows NT 10.0; Win64; x64) AppleWebKit/537.36 (KHTML, like Gecko) Chrome/138.0.0.0 Safari/537.36","WebKit","Chrome","138.0.0.0","Windows","10.0","https://app.prolific.com/","en-US,en;q=0.9","60056657125e50465c15533e","6877649eabb845cf142cd221","6896ff4d9a1dbd952c16a930","1","60056657125e50465c15533e","1","2025-08-09T08:07:17.181Z","","","","StressQ","","","","","","","","","","","50","","","","","","","","","","","","","","","","","","","","","","","","","","",""
"2103","","<div style=""width:500px;"">
  <p>What best describes how you currently feel?</p>
  </div>","35","html-slider-response","57","601706","0.0-7.0-4.8","242","1","2025-08-09 07:57:15","36c45c0696341be0efffe67d72a12abb","95.146.241.52","Mozilla/5.0 (Windows NT 10.0; Win64; x64) AppleWebKit/537.36 (KHTML, like Gecko) Chrome/138.0.0.0 Safari/537.36","WebKit","Chrome","138.0.0.0","Windows","10.0","https://app.prolific.com/","en-US,en;q=0.9","60056657125e50465c15533e","6877649eabb845cf142cd221","6896ff4d9a1dbd952c16a930","1","60056657125e50465c15533e","1","2025-08-09T08:07:19.285Z","","","","MotivationQ","","","","","","","","","","","50","","","","","","","","","","","","","","","","","","","","","","","","","","",""
"","","","","ctl-task-cpt","58","672864","0.0-7.0-0.9","242","1","2025-08-09 07:57:15","36c45c0696341be0efffe67d72a12abb","95.146.241.52","Mozilla/5.0 (Windows NT 10.0; Win64; x64) AppleWebKit/537.36 (KHTML, like Gecko) Chrome/138.0.0.0 Safari/537.36","WebKit","Chrome","138.0.0.0","Windows","10.0","https://app.prolific.com/","en-US,en;q=0.9","60056657125e50465c15533e","6877649eabb845cf142cd221","6896ff4d9a1dbd952c16a930","1","60056657125e50465c15533e","1","2025-08-09T08:08:30.444Z","","","","","","","","","","","","","","","","win-only","3","g1:SW,g2:NE","0.5","10","0","603339.5","1407.8","6416","68116.2","1","4","4","6","2","4","2","20","18","0.15151515151515152","1009.6","3000","450","[""up"",""right""]","{""num_key_presses"":16,""num_perfect"":8,""num_errors"":2,""num_randdir"":6,""num_randdir_good_moves"":2,""num_whilered"":0,""num_whileblue"":2,""num_blue"":6,""num_good_moves"":11}","[412.07142857142856,419.1808016640799,0.2,412.07142857142856,419.1808016640799,107.2,412.07142857142856,419.1808016640799,223,412.07142857142856,419.1808016640799,326.5,506.57142857142856,305.1808016640799,434.9,652.0714285714286,185.18080166407992,541.1,698.5714285714286,152.18080166407992,643.7,719.5714285714286,131.18080166407992,745.7,727.0714285714286,119.18080166407994,854.7,727.0714285714286,119.18080166407994,961.5,727.0714285714286,119.18080166407994,1070.4,727.0714285714286,119.18080166407994,1176.3,727.0714285714286,119.18080166407994,1279.6,727.0714285714286,119.18080166407994,1387.2,902.5714285714286,90.68080166407994,1494.2,1163.5714285714287,104.18080166407994,1605.3,1163.5714285714287,104.18080166407994,1710.3,1163.5714285714287,104.18080166407994,1821.3,1163.5714285714287,104.18080166407994,1921.7,1163.5714285714287,104.18080166407994,2033.8,1163.5714285714287,104.18080166407994,2138.4,1163.5714285714287,104.18080166407994,2242.8,1163.5714285714287,104.18080166407994,2350,1163.5714285714287,104.18080166407994,2450.5,1163.5714285714287,104.18080166407994,2551.6,1163.5714285714287,104.18080166407994,2660.1,1163.5714285714287,104.18080166407994,2768.6,1163.5714285714287,104.18080166407994,2880.4,1163.5714285714287,104.18080166407994,2982.8,1163.5714285714287,104.18080166407994,3092,1163.5714285714287,104.18080166407994,3193.8,1163.5714285714287,104.18080166407994,3294,1163.5714285714287,104.18080166407994,3402.9,1163.5714285714287,104.18080166407994,3509,1163.5714285714287,104.18080166407994,3618.4,1163.5714285714287,104.18080166407994,3725.4,1163.5714285714287,104.18080166407994,3829.4,1163.5714285714287,104.18080166407994,3932.4,1163.5714285714287,104.18080166407994,4042.9,1163.5714285714287,104.18080166407994,4149.9,1163.5714285714287,104.18080166407994,4257.7,1163.5714285714287,104.18080166407994,4359.3,1163.5714285714287,104.18080166407994,4460.6,1163.5714285714287,104.18080166407994,4564.5,1163.5714285714287,104.18080166407994,4667.9,1163.5714285714287,104.18080166407994,4769.7,1163.5714285714287,104.18080166407994,4870.9,1163.5714285714287,104.18080166407994,4977.7]","[4680.1,4680.1,2295.9,2015.1,369.1,""smooth"",""right"",""right"",""good_move"",7572.1,2891.5,2551,4680.6,340.5,""smooth"",""right"",""right"",""good_move"",10534.9,2962.6,2659.1,7572.3,303.5,""while_blue"",""right"",""right"",""good_move"",13287.4,2752,2331.1,10535.4,420.9,""oops"",""up"",""down"",""bad_move"",16777,3489.4,2937.2,13287.6,552.2,""smooth"",""up"",""up"",""good_move"",19222.6,2444.8,2071.6,16777.8,373.2,""smooth"",""up"",""up"",""good_move"",22487.1,3264.2,2807.7,19222.9,456.5,""smooth"",""up"",""up"",""good_move"",25623.2,3136,2869.2,22487.2,266.8,""while_blue"",""up"",""down"",""bad_move"",32512.1,6888.4,2853.4,29308,350.7,""oops"",""up"",""down"",""bad_move"",39256.4,6744,2222.2,36604.1,430.1,""oops"",""up"",""down"",""bad_move"",42253.2,2996.5,2583.8,39256.7,412.7,""oops"",""up"",""left"",""bad_move"",45161.8,2908.2,2489.9,42253.7,418.2,""oops"",""up"",""up"",""good_move"",52024.5,6862.5,2149.6,49501.8,373.1,""smooth"",""up"",""up"",""good_move"",55164,3139.3,2737.5,52024.7,401.8,""smooth"",""up"",""up"",""good_move"",57870.2,2706.1,2246.4,55164.2,459.7,""oops"",""up"",""up"",""good_move"",61362.9,3492.4,2330.6,57870.5,1161.8,""smooth"",""right"",""right"",""good_move""]"
"4997","","<div style=""width:500px;"">
  <p>What determined the result of this run?</p>
  </div>","29","html-slider-response","59","677863","0.0-7.0-1.9","242","1","2025-08-09 07:57:15","36c45c0696341be0efffe67d72a12abb","95.146.241.52","Mozilla/5.0 (Windows NT 10.0; Win64; x64) AppleWebKit/537.36 (KHTML, like Gecko) Chrome/138.0.0.0 Safari/537.36","WebKit","Chrome","138.0.0.0","Windows","10.0","https://app.prolific.com/","en-US,en;q=0.9","60056657125e50465c15533e","6877649eabb845cf142cd221","6896ff4d9a1dbd952c16a930","1","60056657125e50465c15533e","1","2025-08-09T08:08:35.442Z","","","","AttribQ","","","","","","","","","","","50","","","","","","","","","","","","","","","","","","","","","","","","","","",""
"1881","","<div style=""width:500px;"">
  <p>How much control did you have over the ball?</p>
  </div>","27","html-slider-response","60","679747","0.0-7.0-2.9","242","1","2025-08-09 07:57:15","36c45c0696341be0efffe67d72a12abb","95.146.241.52","Mozilla/5.0 (Windows NT 10.0; Win64; x64) AppleWebKit/537.36 (KHTML, like Gecko) Chrome/138.0.0.0 Safari/537.36","WebKit","Chrome","138.0.0.0","Windows","10.0","https://app.prolific.com/","en-US,en;q=0.9","60056657125e50465c15533e","6877649eabb845cf142cd221","6896ff4d9a1dbd952c16a930","1","60056657125e50465c15533e","1","2025-08-09T08:08:37.326Z","","","","ControlQ","","","","","","","","","","","50","","","","","","","","","","","","","","","","","","","","","","","","","","",""
"2766","","<div style=""width:500px;"">
  <p>How would you describe your current emotional state?</p>
  </div>","76","html-slider-response","61","682514","0.0-7.0-3.9","242","1","2025-08-09 07:57:15","36c45c0696341be0efffe67d72a12abb","95.146.241.52","Mozilla/5.0 (Windows NT 10.0; Win64; x64) AppleWebKit/537.36 (KHTML, like Gecko) Chrome/138.0.0.0 Safari/537.36","WebKit","Chrome","138.0.0.0","Windows","10.0","https://app.prolific.com/","en-US,en;q=0.9","60056657125e50465c15533e","6877649eabb845cf142cd221","6896ff4d9a1dbd952c16a930","1","60056657125e50465c15533e","1","2025-08-09T08:08:40.094Z","","","","StressQ","","","","","","","","","","","50","","","","","","","","","","","","","","","","","","","","","","","","","","",""
"3589","","<div style=""width:500px;"">
  <p>What best describes how you currently feel?</p>
  </div>","37","html-slider-response","62","686108","0.0-7.0-4.9","242","1","2025-08-09 07:57:15","36c45c0696341be0efffe67d72a12abb","95.146.241.52","Mozilla/5.0 (Windows NT 10.0; Win64; x64) AppleWebKit/537.36 (KHTML, like Gecko) Chrome/138.0.0.0 Safari/537.36","WebKit","Chrome","138.0.0.0","Windows","10.0","https://app.prolific.com/","en-US,en;q=0.9","60056657125e50465c15533e","6877649eabb845cf142cd221","6896ff4d9a1dbd952c16a930","1","60056657125e50465c15533e","1","2025-08-09T08:08:43.688Z","","","","MotivationQ","","","","","","","","","","","50","","","","","","","","","","","","","","","","","","","","","","","","","","",""
"","","","","ctl-task-cpt","63","715958","0.0-7.0-0.10","242","1","2025-08-09 07:57:15","36c45c0696341be0efffe67d72a12abb","95.146.241.52","Mozilla/5.0 (Windows NT 10.0; Win64; x64) AppleWebKit/537.36 (KHTML, like Gecko) Chrome/138.0.0.0 Safari/537.36","WebKit","Chrome","138.0.0.0","Windows","10.0","https://app.prolific.com/","en-US,en;q=0.9","60056657125e50465c15533e","6877649eabb845cf142cd221","6896ff4d9a1dbd952c16a930","1","60056657125e50465c15533e","1","2025-08-09T08:09:13.537Z","","","","","","","","","","","","","","","","win-only","3","g1:SW,g2:NE","0.6","11","0","687741.7","5320.2","10325.2","26821.2","1","4","8","6","2","8","8","28","20","0.21212121212121213","1352.4","3000","2075","[""up"",""right""]","{""num_key_presses"":6,""num_perfect"":4,""num_errors"":0,""num_randdir"":2,""num_randdir_good_moves"":2,""num_whilered"":0,""num_whileblue"":0,""num_blue"":0,""num_good_moves"":6}","[410.57142857142856,417.6808016640799,0.5,410.57142857142856,417.6808016640799,104.6,410.57142857142856,417.6808016640799,208.1,410.57142857142856,417.6808016640799,310.6,410.57142857142856,417.6808016640799,411.2,602.5714285714286,263.1808016640799,521.8,683.5714285714286,176.18080166407992,625.2,713.5714285714286,162.68080166407992,736.1,713.5714285714286,162.68080166407992,839.8,713.5714285714286,162.68080166407992,941.9,713.5714285714286,162.68080166407992,1052.6,763.0714285714286,89.18080166407994,1155.2,763.0714285714286,87.68080166407994,1255.8,763.0714285714286,87.68080166407994,1368.6,763.0714285714286,87.68080166407994,1471.2,763.0714285714286,87.68080166407994,1572.1,763.0714285714286,87.68080166407994,1680.5,1090.0714285714287,140.18080166407992,1781.2,1090.0714285714287,140.18080166407992,1887.8,1090.0714285714287,140.18080166407992,1989.8,1090.0714285714287,140.18080166407992,2091.3,1090.0714285714287,140.18080166407992,2200.2,1090.0714285714287,140.18080166407992,2304.4,1090.0714285714287,140.18080166407992,2412.3,1090.0714285714287,140.18080166407992,2521.2,1090.0714285714287,140.18080166407992,2628.4,1090.0714285714287,140.18080166407992,2737.4,1090.0714285714287,140.18080166407992,2841.6,1090.0714285714287,140.18080166407992,2951.2,1090.0714285714287,140.18080166407992,3052.9,1090.0714285714287,140.18080166407992,3154.6,1090.0714285714287,140.18080166407992,3261.7,1090.0714285714287,140.18080166407992,3367.8,1090.0714285714287,140.18080166407992,3470.7,1090.0714285714287,140.18080166407992,3580,1090.0714285714287,140.18080166407992,3687.5,1090.0714285714287,140.18080166407992,3796.9,1090.0714285714287,140.18080166407992,3905.8,1090.0714285714287,140.18080166407992,4016.6,1090.0714285714287,140.18080166407992,4119.9,1090.0714285714287,140.18080166407992,4228.7,1090.0714285714287,140.18080166407992,4338.1,1090.0714285714287,140.18080166407992,4448.1,1090.0714285714287,140.18080166407992,4549.8,1090.0714285714287,140.18080166407992,4654,1090.0714285714287,140.18080166407992,4754.7,1090.0714285714287,140.18080166407992,4857.8,1090.0714285714287,140.18080166407992,4960.1]","[1339.8,1339.8,1000,0,339.8,""oops"",""right"",""up"",""good_move"",3924.2,2584.2,2220.7,1340,363.5,""oops"",""right"",""right"",""good_move"",7239.4,3314.6,3004.1,3924.8,310.5,""smooth"",""right"",""right"",""good_move"",10106.8,2867.2,2557.2,7239.6,310,""smooth"",""right"",""right"",""good_move"",13413,3306,2979,10107,327,""smooth"",""up"",""up"",""good_move"",16319.9,2906.6,2600.7,13413.3,305.9,""smooth"",""up"",""up"",""good_move""]"
"2629","","<div style=""width:500px;"">
  <p>What determined the result of this run?</p>
  </div>","67","html-slider-response","64","718589","0.0-7.0-1.10","242","1","2025-08-09 07:57:15","36c45c0696341be0efffe67d72a12abb","95.146.241.52","Mozilla/5.0 (Windows NT 10.0; Win64; x64) AppleWebKit/537.36 (KHTML, like Gecko) Chrome/138.0.0.0 Safari/537.36","WebKit","Chrome","138.0.0.0","Windows","10.0","https://app.prolific.com/","en-US,en;q=0.9","60056657125e50465c15533e","6877649eabb845cf142cd221","6896ff4d9a1dbd952c16a930","1","60056657125e50465c15533e","1","2025-08-09T08:09:16.168Z","","","","AttribQ","","","","","","","","","","","50","","","","","","","","","","","","","","","","","","","","","","","","","","",""
"2842","","<div style=""width:500px;"">
  <p>How much control did you have over the ball?</p>
  </div>","60","html-slider-response","65","721432","0.0-7.0-2.10","242","1","2025-08-09 07:57:15","36c45c0696341be0efffe67d72a12abb","95.146.241.52","Mozilla/5.0 (Windows NT 10.0; Win64; x64) AppleWebKit/537.36 (KHTML, like Gecko) Chrome/138.0.0.0 Safari/537.36","WebKit","Chrome","138.0.0.0","Windows","10.0","https://app.prolific.com/","en-US,en;q=0.9","60056657125e50465c15533e","6877649eabb845cf142cd221","6896ff4d9a1dbd952c16a930","1","60056657125e50465c15533e","1","2025-08-09T08:09:19.011Z","","","","ControlQ","","","","","","","","","","","50","","","","","","","","","","","","","","","","","","","","","","","","","","",""
"2341","","<div style=""width:500px;"">
  <p>How would you describe your current emotional state?</p>
  </div>","69","html-slider-response","66","723773","0.0-7.0-3.10","242","1","2025-08-09 07:57:15","36c45c0696341be0efffe67d72a12abb","95.146.241.52","Mozilla/5.0 (Windows NT 10.0; Win64; x64) AppleWebKit/537.36 (KHTML, like Gecko) Chrome/138.0.0.0 Safari/537.36","WebKit","Chrome","138.0.0.0","Windows","10.0","https://app.prolific.com/","en-US,en;q=0.9","60056657125e50465c15533e","6877649eabb845cf142cd221","6896ff4d9a1dbd952c16a930","1","60056657125e50465c15533e","1","2025-08-09T08:09:21.352Z","","","","StressQ","","","","","","","","","","","50","","","","","","","","","","","","","","","","","","","","","","","","","","",""
"1619","","<div style=""width:500px;"">
  <p>What best describes how you currently feel?</p>
  </div>","36","html-slider-response","67","725394","0.0-7.0-4.10","242","1","2025-08-09 07:57:15","36c45c0696341be0efffe67d72a12abb","95.146.241.52","Mozilla/5.0 (Windows NT 10.0; Win64; x64) AppleWebKit/537.36 (KHTML, like Gecko) Chrome/138.0.0.0 Safari/537.36","WebKit","Chrome","138.0.0.0","Windows","10.0","https://app.prolific.com/","en-US,en;q=0.9","60056657125e50465c15533e","6877649eabb845cf142cd221","6896ff4d9a1dbd952c16a930","1","60056657125e50465c15533e","1","2025-08-09T08:09:22.973Z","","","","MotivationQ","","","","","","","","","","","50","","","","","","","","","","","","","","","","","","","","","","","","","","",""
"","","","","ctl-task-cpt","68","758367","0.0-7.0-0.11","242","1","2025-08-09 07:57:15","36c45c0696341be0efffe67d72a12abb","95.146.241.52","Mozilla/5.0 (Windows NT 10.0; Win64; x64) AppleWebKit/537.36 (KHTML, like Gecko) Chrome/138.0.0.0 Safari/537.36","WebKit","Chrome","138.0.0.0","Windows","10.0","https://app.prolific.com/","en-US,en;q=0.9","60056657125e50465c15533e","6877649eabb845cf142cd221","6896ff4d9a1dbd952c16a930","1","60056657125e50465c15533e","1","2025-08-09T08:09:55.946Z","","","","","","","","","","","","","","","","win-only","1","g1:NE,g2:SW","0.7","12","0","727027.2","671.4","5675.2","29941.3","1","4","4","6","2","4","3","31","28","0.23484848484848486","1425.7","3000","1780","[""down"",""left""]","{""num_key_presses"":8,""num_perfect"":5,""num_errors"":1,""num_randdir"":2,""num_randdir_good_moves"":1,""num_whilered"":0,""num_whileblue"":1,""num_blue"":1,""num_good_moves"":7}","[418.07142857142856,416.1808016640799,0.1,418.07142857142856,416.1808016640799,102.7,418.07142857142856,416.1808016640799,205.2,418.07142857142856,416.1808016640799,309.7,401.57142857142856,470.1808016640799,418.8,364.07142857142856,539.1808016640799,522.6,364.07142857142856,539.1808016640799,629.3,364.07142857142856,539.1808016640799,731.1,134.57142857142856,659.1808016640799,841.2,133.07142857142856,662.1808016640799,951.6,133.07142857142856,662.1808016640799,1059.1,133.07142857142856,662.1808016640799,1172.4,74.57142857142857,738.6808016640799,1275.4,74.57142857142857,738.6808016640799,1382.8,74.57142857142857,738.6808016640799,1489,74.57142857142857,738.6808016640799,1592.3,74.57142857142857,738.6808016640799,1702.4,74.57142857142857,738.6808016640799,1806.9,74.57142857142857,738.6808016640799,1918.1,482.57142857142856,557.1808016640799,2023.8,767.5714285714286,453.6808016640799,2131.6,767.5714285714286,453.6808016640799,2237.7,767.5714285714286,453.6808016640799,2343.4,767.5714285714286,453.6808016640799,2456.7,767.5714285714286,453.6808016640799,2559.8,767.5714285714286,453.6808016640799,2669.5,767.5714285714286,453.6808016640799,2775.9,767.5714285714286,453.6808016640799,2889,767.5714285714286,453.6808016640799,3002.4,767.5714285714286,453.6808016640799,3113.1,767.5714285714286,453.6808016640799,3223.8,767.5714285714286,453.6808016640799,3337.5,767.5714285714286,453.6808016640799,3443.8,767.5714285714286,453.6808016640799,3555.6,767.5714285714286,453.6808016640799,3657.8,767.5714285714286,453.6808016640799,3770.2,767.5714285714286,453.6808016640799,3872.6,767.5714285714286,453.6808016640799,3980.9,767.5714285714286,453.6808016640799,4086.8,767.5714285714286,453.6808016640799,4189.5,767.5714285714286,453.6808016640799,4294.7,767.5714285714286,453.6808016640799,4400.4,767.5714285714286,453.6808016640799,4505.1,767.5714285714286,453.6808016640799,4612.7,767.5714285714286,453.6808016640799,4719,767.5714285714286,453.6808016640799,4823.8,767.5714285714286,453.6808016640799,4928.1]","[1458.2,1458.2,1000,0,458.2,""smooth"",""down"",""down"",""good_move"",4609.8,3151.2,2868.4,1458.6,282.9,""while_blue"",""down"",""left"",""good_move"",8633.5,4023.2,3555.6,4610.3,467.6,""oops"",""down"",""right"",""bad_move"",11382.1,2748.2,2344,8633.9,404.2,""smooth"",""down"",""down"",""good_move"",14481,3098.7,2731,11382.3,367.7,""oops"",""down"",""down"",""good_move"",18130.6,3649.4,3235.6,14481.2,413.8,""smooth"",""left"",""left"",""good_move"",21094.6,2963.4,2621.8,18131.2,341.6,""smooth"",""left"",""left"",""good_move"",23999.5,2904.7,2512,21094.8,392.7,""smooth"",""left"",""left"",""good_move""]"
"3007","","<div style=""width:500px;"">
  <p>What determined the result of this run?</p>
  </div>","59","html-slider-response","69","761376","0.0-7.0-1.11","242","1","2025-08-09 07:57:15","36c45c0696341be0efffe67d72a12abb","95.146.241.52","Mozilla/5.0 (Windows NT 10.0; Win64; x64) AppleWebKit/537.36 (KHTML, like Gecko) Chrome/138.0.0.0 Safari/537.36","WebKit","Chrome","138.0.0.0","Windows","10.0","https://app.prolific.com/","en-US,en;q=0.9","60056657125e50465c15533e","6877649eabb845cf142cd221","6896ff4d9a1dbd952c16a930","1","60056657125e50465c15533e","1","2025-08-09T08:09:58.955Z","","","","AttribQ","","","","","","","","","","","50","","","","","","","","","","","","","","","","","","","","","","","","","","",""
"1932","","<div style=""width:500px;"">
  <p>How much control did you have over the ball?</p>
  </div>","58","html-slider-response","70","763311","0.0-7.0-2.11","242","1","2025-08-09 07:57:15","36c45c0696341be0efffe67d72a12abb","95.146.241.52","Mozilla/5.0 (Windows NT 10.0; Win64; x64) AppleWebKit/537.36 (KHTML, like Gecko) Chrome/138.0.0.0 Safari/537.36","WebKit","Chrome","138.0.0.0","Windows","10.0","https://app.prolific.com/","en-US,en;q=0.9","60056657125e50465c15533e","6877649eabb845cf142cd221","6896ff4d9a1dbd952c16a930","1","60056657125e50465c15533e","1","2025-08-09T08:10:00.890Z","","","","ControlQ","","","","","","","","","","","50","","","","","","","","","","","","","","","","","","","","","","","","","","",""
"2735","","<div style=""width:500px;"">
  <p>How would you describe your current emotional state?</p>
  </div>","43","html-slider-response","71","766048","0.0-7.0-3.11","242","1","2025-08-09 07:57:15","36c45c0696341be0efffe67d72a12abb","95.146.241.52","Mozilla/5.0 (Windows NT 10.0; Win64; x64) AppleWebKit/537.36 (KHTML, like Gecko) Chrome/138.0.0.0 Safari/537.36","WebKit","Chrome","138.0.0.0","Windows","10.0","https://app.prolific.com/","en-US,en;q=0.9","60056657125e50465c15533e","6877649eabb845cf142cd221","6896ff4d9a1dbd952c16a930","1","60056657125e50465c15533e","1","2025-08-09T08:10:03.627Z","","","","StressQ","","","","","","","","","","","50","","","","","","","","","","","","","","","","","","","","","","","","","","",""
"1809","","<div style=""width:500px;"">
  <p>What best describes how you currently feel?</p>
  </div>","34","html-slider-response","72","767859","0.0-7.0-4.11","242","1","2025-08-09 07:57:15","36c45c0696341be0efffe67d72a12abb","95.146.241.52","Mozilla/5.0 (Windows NT 10.0; Win64; x64) AppleWebKit/537.36 (KHTML, like Gecko) Chrome/138.0.0.0 Safari/537.36","WebKit","Chrome","138.0.0.0","Windows","10.0","https://app.prolific.com/","en-US,en;q=0.9","60056657125e50465c15533e","6877649eabb845cf142cd221","6896ff4d9a1dbd952c16a930","1","60056657125e50465c15533e","1","2025-08-09T08:10:05.438Z","","","","MotivationQ","","","","","","","","","","","50","","","","","","","","","","","","","","","","","","","","","","","","","","",""
"","","","","ctl-task-cpt","73","813421","0.0-7.0-0.12","242","1","2025-08-09 07:57:15","36c45c0696341be0efffe67d72a12abb","95.146.241.52","Mozilla/5.0 (Windows NT 10.0; Win64; x64) AppleWebKit/537.36 (KHTML, like Gecko) Chrome/138.0.0.0 Safari/537.36","WebKit","Chrome","138.0.0.0","Windows","10.0","https://app.prolific.com/","en-US,en;q=0.9","60056657125e50465c15533e","6877649eabb845cf142cd221","6896ff4d9a1dbd952c16a930","1","60056657125e50465c15533e","1","2025-08-09T08:10:51.000Z","","","","","","","","","","","","","","","","win-only","1","g1:NE,g2:SW","0.8","13","0","769493.7","764.3","5770.3","42544.7","1","4","4","6","2","4","4","35","31","0.26515151515151514","1035.7","3000","1735","[""down"",""left""]","{""num_key_presses"":8,""num_perfect"":7,""num_errors"":0,""num_randdir"":1,""num_randdir_good_moves"":0,""num_whilered"":0,""num_whileblue"":0,""num_blue"":4,""num_good_moves"":7}","[413.57142857142856,408.6808016640799,0.4,413.57142857142856,408.6808016640799,105.6,413.57142857142856,408.6808016640799,227.8,413.57142857142856,408.6808016640799,339.8,320.57142857142856,554.1808016640799,449.1,248.57142857142856,621.6808016640799,554.4,248.57142857142856,621.6808016640799,657.4,65.57142857142857,717.6808016640799,765.4,37.07142857142857,731.1808016640799,873.2,37.07142857142857,731.1808016640799,998.2,37.07142857142857,731.1808016640799,1108.3,37.07142857142857,731.1808016640799,1213.2,37.07142857142857,731.1808016640799,1314.4,110.57142857142857,683.1808016640799,1421.8,494.57142857142856,491.1808016640799,1531.5,562.0714285714286,455.1808016640799,1636,562.0714285714286,455.1808016640799,1737.1,562.0714285714286,455.1808016640799,1845.9,562.0714285714286,455.1808016640799,1950,562.0714285714286,455.1808016640799,2058.7,562.0714285714286,455.1808016640799,2161.7,562.0714285714286,455.1808016640799,2262.5,562.0714285714286,455.1808016640799,2364.2,562.0714285714286,455.1808016640799,2475.9,562.0714285714286,455.1808016640799,2579.6,562.0714285714286,455.1808016640799,2684.4,562.0714285714286,455.1808016640799,2792.4,562.0714285714286,455.1808016640799,2896.4,562.0714285714286,455.1808016640799,3005.2,562.0714285714286,455.1808016640799,3112.4,562.0714285714286,455.1808016640799,3218.6,562.0714285714286,455.1808016640799,3328.1,562.0714285714286,455.1808016640799,3431.6,562.0714285714286,455.1808016640799,3543.1,562.0714285714286,455.1808016640799,3643.2,562.0714285714286,455.1808016640799,3744.4,562.0714285714286,455.1808016640799,3847,562.0714285714286,455.1808016640799,3953.4,562.0714285714286,455.1808016640799,4058.1,562.0714285714286,455.1808016640799,4163.2,562.0714285714286,455.1808016640799,4279.2,562.0714285714286,455.1808016640799,4393.3,562.0714285714286,455.1808016640799,4499.8,562.0714285714286,455.1808016640799,4609.1,562.0714285714286,455.1808016640799,4712,562.0714285714286,455.1808016640799,4813.5,562.0714285714286,455.1808016640799,4919.2]","[1429.1,1429.1,1000,0,429.2,""smooth"",""down"",""down"",""good_move"",17988.7,16558.7,2827.6,14777.2,383.9,""smooth"",""down"",""down"",""good_move"",20836,2846.8,2490.5,17989.2,356.3,""smooth"",""down"",""down"",""good_move"",24345.1,3508.9,3135.2,20836.2,373.7,""smooth"",""left"",""left"",""good_move"",27579.6,3233.9,2869,24345.7,364.9,""smooth"",""left"",""left"",""good_move"",30379.7,2799.9,2186.8,27579.8,613.1,""oops"",""left"",""up"",""bad_move"",33557.3,3177.2,2849.7,30380.1,327.5,""smooth"",""left"",""left"",""good_move"",36539.1,2981.6,2621.1,33557.5,360.6,""smooth"",""down"",""down"",""good_move""]"
"3642","","<div style=""width:500px;"">
  <p>What determined the result of this run?</p>
  </div>","64","html-slider-response","74","817065","0.0-7.0-1.12","242","1","2025-08-09 07:57:15","36c45c0696341be0efffe67d72a12abb","95.146.241.52","Mozilla/5.0 (Windows NT 10.0; Win64; x64) AppleWebKit/537.36 (KHTML, like Gecko) Chrome/138.0.0.0 Safari/537.36","WebKit","Chrome","138.0.0.0","Windows","10.0","https://app.prolific.com/","en-US,en;q=0.9","60056657125e50465c15533e","6877649eabb845cf142cd221","6896ff4d9a1dbd952c16a930","1","60056657125e50465c15533e","1","2025-08-09T08:10:54.644Z","","","","AttribQ","","","","","","","","","","","50","","","","","","","","","","","","","","","","","","","","","","","","","","",""
"2538","","<div style=""width:500px;"">
  <p>How much control did you have over the ball?</p>
  </div>","59","html-slider-response","75","819604","0.0-7.0-2.12","242","1","2025-08-09 07:57:15","36c45c0696341be0efffe67d72a12abb","95.146.241.52","Mozilla/5.0 (Windows NT 10.0; Win64; x64) AppleWebKit/537.36 (KHTML, like Gecko) Chrome/138.0.0.0 Safari/537.36","WebKit","Chrome","138.0.0.0","Windows","10.0","https://app.prolific.com/","en-US,en;q=0.9","60056657125e50465c15533e","6877649eabb845cf142cd221","6896ff4d9a1dbd952c16a930","1","60056657125e50465c15533e","1","2025-08-09T08:10:57.183Z","","","","ControlQ","","","","","","","","","","","50","","","","","","","","","","","","","","","","","","","","","","","","","","",""
"2008","","<div style=""width:500px;"">
  <p>How would you describe your current emotional state?</p>
  </div>","34","html-slider-response","76","821613","0.0-7.0-3.12","242","1","2025-08-09 07:57:15","36c45c0696341be0efffe67d72a12abb","95.146.241.52","Mozilla/5.0 (Windows NT 10.0; Win64; x64) AppleWebKit/537.36 (KHTML, like Gecko) Chrome/138.0.0.0 Safari/537.36","WebKit","Chrome","138.0.0.0","Windows","10.0","https://app.prolific.com/","en-US,en;q=0.9","60056657125e50465c15533e","6877649eabb845cf142cd221","6896ff4d9a1dbd952c16a930","1","60056657125e50465c15533e","1","2025-08-09T08:10:59.193Z","","","","StressQ","","","","","","","","","","","50","","","","","","","","","","","","","","","","","","","","","","","","","","",""
"1881","","<div style=""width:500px;"">
  <p>What best describes how you currently feel?</p>
  </div>","29","html-slider-response","77","823496","0.0-7.0-4.12","242","1","2025-08-09 07:57:15","36c45c0696341be0efffe67d72a12abb","95.146.241.52","Mozilla/5.0 (Windows NT 10.0; Win64; x64) AppleWebKit/537.36 (KHTML, like Gecko) Chrome/138.0.0.0 Safari/537.36","WebKit","Chrome","138.0.0.0","Windows","10.0","https://app.prolific.com/","en-US,en;q=0.9","60056657125e50465c15533e","6877649eabb845cf142cd221","6896ff4d9a1dbd952c16a930","1","60056657125e50465c15533e","1","2025-08-09T08:11:01.075Z","","","","MotivationQ","","","","","","","","","","","50","","","","","","","","","","","","","","","","","","","","","","","","","","",""
