"rt","response_timestamp","stimulus","response","trial_type","trial_index","time_elapsed","internal_node_id","run_id","condition","recorded_at","source_code_version","ip","user_agent","device","browser","browser_version","platform","platform_version","referer","accept_language","PROLIFIC_PID","STUDY_ID","SESSION_ID","BATCH","prolific_id","batch","realtime","success","question_order","question_id","eventType","responses","item_order","radio_event_ids","radio_event_times","key_event_times","mouse_event_times","straightlining","zigzagging","honeypot","view_history","slider_start","which_type","canvas_config","goals_layout","control_level","trial_number","tutorial_trial_number","trial_start_time","phase1_start_time","phase2_start_time","phase3_start_time","goal_1_value","goal_1_distance","goal_2_value","goal_2_distance","goal_selected","outcome","outcome_total","participant_final_score","participant_initial_score","participant_final_score_prop","goal_choice_rt","allocated_time","allocated_time_remaining","goal_direction","counts","mouse_movements","key_presses"
"22416","1754470248186","<p style='font-size:40px;line-height:1.25'><strong>Welcome to the experiment!</strong></p><p style='font-size:1.1em;line-height:1.25'>Thank you for participanting in our experiment again! You will be asked to play the Dysfunctional Ball Game again. We will briefly recap the rules before we start.</p><p style='font-size:1.1em;line-height:1.25'>Press <strong>Next</strong> to continue.</p>","0","custom-html-button-response","0","22419","0.0-0.0","127","1","2025-08-06 08:50:24","36c45c0696341be0efffe67d72a12abb","95.68.64.32","Mozilla/5.0 (Windows NT 10.0; Win64; x64) AppleWebKit/537.36 (KHTML, like Gecko) Chrome/138.0.0.0 Safari/537.36","WebKit","Chrome","138.0.0.0","Windows","10.0","https://app.prolific.com/","lv-LV,lv;q=0.9,en-US;q=0.8,en;q=0.7","60196480480c1403e32285a8","687a1a965b9f5b85a264363e","6893174cfc78a5b5e9923772","1","60196480480c1403e32285a8","1","2025-08-06T08:50:48.189Z","","","","","","","","","","","","","","","","","","","","","","","","","","","","","","","","","","","","","","","","","",""
"9723","","","","fullscreen","1","33159","0.0-1.0","127","1","2025-08-06 08:50:24","36c45c0696341be0efffe67d72a12abb","95.68.64.32","Mozilla/5.0 (Windows NT 10.0; Win64; x64) AppleWebKit/537.36 (KHTML, like Gecko) Chrome/138.0.0.0 Safari/537.36","WebKit","Chrome","138.0.0.0","Windows","10.0","https://app.prolific.com/","lv-LV,lv;q=0.9,en-US;q=0.8,en;q=0.7","60196480480c1403e32285a8","687a1a965b9f5b85a264363e","6893174cfc78a5b5e9923772","1","60196480480c1403e32285a8","1","","true","","","","","","","","","","","","","","","","","","","","","","","","","","","","","","","","","","","","","","","","",""
"4691","1754470263621"," <p style='font-size:1.1em;line-height:1.25'>Thank you for closing all other tabs.</p><p style='font-size:1.1em;line-height:1.25'>We will now invite you to fill in some questionnaires, before starting the game.<br>This will take about 5 minutes.<br></p><p style='font-size:1.1em;line-height:1.25'>Press the <strong>Next</strong> button to continue.</p>","0","custom-html-button-response","2","37853","0.0-2.0","127","1","2025-08-06 08:50:24","36c45c0696341be0efffe67d72a12abb","95.68.64.32","Mozilla/5.0 (Windows NT 10.0; Win64; x64) AppleWebKit/537.36 (KHTML, like Gecko) Chrome/138.0.0.0 Safari/537.36","WebKit","Chrome","138.0.0.0","Windows","10.0","https://app.prolific.com/","lv-LV,lv;q=0.9,en-US;q=0.8,en;q=0.7","60196480480c1403e32285a8","687a1a965b9f5b85a264363e","6893174cfc78a5b5e9923772","1","60196480480c1403e32285a8","1","2025-08-06T08:51:03.622Z","","","","","","","","","","","","","","","","","","","","","","","","","","","","","","","","","","","","","","","","","",""
"3271","","","{""assigned_sex"":""female""}","survey-multi-choice","3","41127","0.0-3.0-0.0","127","1","2025-08-06 08:50:24","36c45c0696341be0efffe67d72a12abb","95.68.64.32","Mozilla/5.0 (Windows NT 10.0; Win64; x64) AppleWebKit/537.36 (KHTML, like Gecko) Chrome/138.0.0.0 Safari/537.36","WebKit","Chrome","138.0.0.0","Windows","10.0","https://app.prolific.com/","lv-LV,lv;q=0.9,en-US;q=0.8,en;q=0.7","60196480480c1403e32285a8","687a1a965b9f5b85a264363e","6893174cfc78a5b5e9923772","1","60196480480c1403e32285a8","1","","","[0]","0","demographics","","","","","","","","","","","","","","","","","","","","","","","","","","","","","","","","","","","","","",""
"8879","1754470275776","<p style='font-size:1.1em;line-height:1.25'>In the following, we will perform a baseline assessment. This means that we will ask you a few questions relating to your experiences over the past month.<br></p><p style='font-size:1.1em;line-height:1.25'>Press the <strong>Next</strong> button to continue.</p>","0","custom-html-button-response","4","50008","0.0-4.0-0.0","127","1","2025-08-06 08:50:24","36c45c0696341be0efffe67d72a12abb","95.68.64.32","Mozilla/5.0 (Windows NT 10.0; Win64; x64) AppleWebKit/537.36 (KHTML, like Gecko) Chrome/138.0.0.0 Safari/537.36","WebKit","Chrome","138.0.0.0","Windows","10.0","https://app.prolific.com/","lv-LV,lv;q=0.9,en-US;q=0.8,en;q=0.7","60196480480c1403e32285a8","687a1a965b9f5b85a264363e","6893174cfc78a5b5e9923772","1","60196480480c1403e32285a8","1","2025-08-06T08:51:15.777Z","","","","","","","","","","","","","","","","","","","","","","","","","","","","","","","","","","","","","","","","","",""
"48980.60000002384","","","","survey-template","5","98993","0.0-4.0-1.0","127","1","2025-08-06 08:50:24","36c45c0696341be0efffe67d72a12abb","95.68.64.32","Mozilla/5.0 (Windows NT 10.0; Win64; x64) AppleWebKit/537.36 (KHTML, like Gecko) Chrome/138.0.0.0 Safari/537.36","WebKit","Chrome","138.0.0.0","Windows","10.0","https://app.prolific.com/","lv-LV,lv;q=0.9,en-US;q=0.8,en;q=0.7","60196480480c1403e32285a8","687a1a965b9f5b85a264363e","6893174cfc78a5b5e9923772","1","60196480480c1403e32285a8","1","2025-08-06T08:52:04.762Z","","","","pss","{""Q01"":""2"",""Q02"":""1"",""Q03"":""2"",""Q04"":""3"",""Q05"":""2"",""Q06"":""2"",""Q07"":""2"",""Q08"":""2"",""Q09"":""3"",""Q10"":""2""}","[0,1,2,3,4,5,6,7,8,9]","[""Q01"",""Q02"",""Q03"",""Q04"",""Q05"",""Q06"",""Q07"",""Q08"",""Q09"",""Q10""]","[8295.299999952316,13941,16951.200000047684,20793.299999952316,24503,28308.299999952316,33271.89999997616,40983.89999997616,43877.10000002384,47967.10000002384]","[]","[9.399999976158142,7454.100000023842,7915.100000023842,8295.299999952316,13454.399999976158,13941,16951.200000047684,20793.299999952316,24503,27618.399999976158,27924.100000023842,28308.299999952316,33271.89999997616,36834.200000047684,37138,37501.89999997616,37889.89999997616,38366.89999997616,39331.10000002384,40983.89999997616,43877.10000002384,47598.799999952316,47967.10000002384,48979]","0.7","0.6666666666666666","0","","","","","","","","","","","","","","","","","","","","","","","","","","","","",""
"3857","1754470328620","<p style='font-size:1.1em;line-height:1.25'>Thank you for your answers! Now we will ask you a few more questions relating to your feelings in the last 24 hours.<br></p><p style='font-size:1.1em;line-height:1.25'>Press the <strong>Next</strong> button to continue.</p>","0","custom-html-button-response","6","102851","0.0-4.0-2.0","127","1","2025-08-06 08:50:24","36c45c0696341be0efffe67d72a12abb","95.68.64.32","Mozilla/5.0 (Windows NT 10.0; Win64; x64) AppleWebKit/537.36 (KHTML, like Gecko) Chrome/138.0.0.0 Safari/537.36","WebKit","Chrome","138.0.0.0","Windows","10.0","https://app.prolific.com/","lv-LV,lv;q=0.9,en-US;q=0.8,en;q=0.7","60196480480c1403e32285a8","687a1a965b9f5b85a264363e","6893174cfc78a5b5e9923772","1","60196480480c1403e32285a8","1","2025-08-06T08:52:08.620Z","","","","","","","","","","","","","","","","","","","","","","","","","","","","","","","","","","","","","","","","","",""
"61737","","","","survey-template","7","164593","0.0-4.0-3.0","127","1","2025-08-06 08:50:24","36c45c0696341be0efffe67d72a12abb","95.68.64.32","Mozilla/5.0 (Windows NT 10.0; Win64; x64) AppleWebKit/537.36 (KHTML, like Gecko) Chrome/138.0.0.0 Safari/537.36","WebKit","Chrome","138.0.0.0","Windows","10.0","https://app.prolific.com/","lv-LV,lv;q=0.9,en-US;q=0.8,en;q=0.7","60196480480c1403e32285a8","687a1a965b9f5b85a264363e","6893174cfc78a5b5e9923772","1","60196480480c1403e32285a8","1","2025-08-06T08:53:10.363Z","","","","drsp","{""Q01"":""2"",""Q02"":""2"",""Q03"":""2"",""Q04"":""2"",""Q05"":""1"",""Q06"":""3"",""Q07"":""2"",""Q08"":""3"",""Q09"":""1"",""Q10"":""1"",""Q11"":""1"",""Q12"":""3"",""Q13"":""5"",""Q14"":""4"",""Q15"":""3"",""Q16"":""2"",""Q17"":""3"",""Q18"":""3"",""Q19"":""0"",""Q20"":""1"",""Q21"":""1"",""Q22"":""2""}","[0,1,2,3,4,5,6,7,8,9,10,11,12,13,14,15,16,17,18,19,20,21]","[""Q01"",""Q02"",""Q03"",""Q04"",""Q05"",""Q06"",""Q07"",""Q08"",""Q09"",""Q10"",""Q10"",""Q11"",""Q12"",""Q13"",""Q14"",""Q15"",""Q16"",""Q17"",""Q18"",""Q19"",""Q20"",""Q21"",""Q21"",""Q22"",""Q22"",""Q22""]","[2799.899999976158,4348.899999976158,6481.799999952316,8903.5,9795.899999976158,12084.600000023842,13493.899999976158,15774.799999952316,18796.799999952316,21313,22110.799999952316,22954.600000023842,25391.700000047684,27720.700000047684,29405.600000023842,32139.799999952316,34828.200000047684,36609.60000002384,39775.60000002384,46085.39999997616,48355,51185.60000002384,53523,57972.60000002384,60205.200000047684,60986.39999997616]","[]","[22,2799.899999976158,4092.899999976158,4348.899999976158,6481.799999952316,7982.299999952316,8903.5,9795.899999976158,12084.600000023842,13493.899999976158,15774.799999952316,18796.799999952316,21313,22110.799999952316,22954.600000023842,25391.700000047684,27720.700000047684,29405.600000023842,32139.799999952316,34352.89999997616,34828.200000047684,36609.60000002384,37573.5,38592.89999997616,38874.5,39330.299999952316,39775.60000002384,42424.39999997616,43028.5,43585.39999997616,44369.299999952316,44777.10000002384,45268.60000002384,46085.39999997616,48355,51185.60000002384,52397.299999952316,53523,57972.60000002384,59953.10000002384,60205.200000047684,60986.39999997616,61730.89999997616]","0.3181818181818182","0.42857142857142855","0","","","","","","","","","","","","","","","","","","","","","","","","","","","","",""
"9896","","","","survey-template","8","174491","0.0-4.0-4.0","127","1","2025-08-06 08:50:24","36c45c0696341be0efffe67d72a12abb","95.68.64.32","Mozilla/5.0 (Windows NT 10.0; Win64; x64) AppleWebKit/537.36 (KHTML, like Gecko) Chrome/138.0.0.0 Safari/537.36","WebKit","Chrome","138.0.0.0","Windows","10.0","https://app.prolific.com/","lv-LV,lv;q=0.9,en-US;q=0.8,en;q=0.7","60196480480c1403e32285a8","687a1a965b9f5b85a264363e","6893174cfc78a5b5e9923772","1","60196480480c1403e32285a8","1","2025-08-06T08:53:20.260Z","","","","stress","{""Q01"":""2"",""Q02"":""4"",""Q03"":""2""}","[0,1,2]","[""Q01"",""Q02"",""Q03""]","[2808.899999976158,6075.299999952316,9101.199999928474]","[]","[2808.899999976158,6075.299999952316,9101.199999928474,9893.699999928474]","0.6666666666666666","1","0","","","","","","","","","","","","","","","","","","","","","","","","","","","","",""
"36750","","","","instructions","9","211243","0.0-5.0-0.0","127","1","2025-08-06 08:50:24","36c45c0696341be0efffe67d72a12abb","95.68.64.32","Mozilla/5.0 (Windows NT 10.0; Win64; x64) AppleWebKit/537.36 (KHTML, like Gecko) Chrome/138.0.0.0 Safari/537.36","WebKit","Chrome","138.0.0.0","Windows","10.0","https://app.prolific.com/","lv-LV,lv;q=0.9,en-US;q=0.8,en;q=0.7","60196480480c1403e32285a8","687a1a965b9f5b85a264363e","6893174cfc78a5b5e9923772","1","60196480480c1403e32285a8","1","","","","","","","","","","","","","","","[{""page_index"":0,""viewing_time"":36750}]","","","","","","","","","","","","","","","","","","","","","","","","","","","",""
"3346","","<p>Before you start with this game please answer the following three questions yourself. </p>
  <p>Through this game, we measure several aspects of your cognitive performance, such as reaction times, multi-tasking capabilities </p>
  <p>and the ability to assess the situation you are in.</p>
  <p></p>
  <p><b>How good do you usually are in such tasks?</b></p>","87","html-slider-response","10","214593","0.0-6.0-0.0","127","1","2025-08-06 08:50:24","36c45c0696341be0efffe67d72a12abb","95.68.64.32","Mozilla/5.0 (Windows NT 10.0; Win64; x64) AppleWebKit/537.36 (KHTML, like Gecko) Chrome/138.0.0.0 Safari/537.36","WebKit","Chrome","138.0.0.0","Windows","10.0","https://app.prolific.com/","lv-LV,lv;q=0.9,en-US;q=0.8,en;q=0.7","60196480480c1403e32285a8","687a1a965b9f5b85a264363e","6893174cfc78a5b5e9923772","1","60196480480c1403e32285a8","1","2025-08-06T08:54:00.362Z","","","","PreSkillQ","","","","","","","","","","","50","","","","","","","","","","","","","","","","","","","","","","","","","","",""
"3424","","<div style=""width:500px;"">
  <p>How well do you think you will perform in this task compared to other participants?</p>
  </div>","81","html-slider-response","11","218019","0.0-6.0-1.0","127","1","2025-08-06 08:50:24","36c45c0696341be0efffe67d72a12abb","95.68.64.32","Mozilla/5.0 (Windows NT 10.0; Win64; x64) AppleWebKit/537.36 (KHTML, like Gecko) Chrome/138.0.0.0 Safari/537.36","WebKit","Chrome","138.0.0.0","Windows","10.0","https://app.prolific.com/","lv-LV,lv;q=0.9,en-US;q=0.8,en;q=0.7","60196480480c1403e32285a8","687a1a965b9f5b85a264363e","6893174cfc78a5b5e9923772","1","60196480480c1403e32285a8","1","2025-08-06T08:54:03.788Z","","","","PrePerfQ","","","","","","","","","","","50","","","","","","","","","","","","","","","","","","","","","","","","","","",""
"3944","","<div style=""width:500px;"">
  <p>What best describes how you currently feel?</p>
  </div>","33","html-slider-response","12","221965","0.0-6.0-2.0","127","1","2025-08-06 08:50:24","36c45c0696341be0efffe67d72a12abb","95.68.64.32","Mozilla/5.0 (Windows NT 10.0; Win64; x64) AppleWebKit/537.36 (KHTML, like Gecko) Chrome/138.0.0.0 Safari/537.36","WebKit","Chrome","138.0.0.0","Windows","10.0","https://app.prolific.com/","lv-LV,lv;q=0.9,en-US;q=0.8,en;q=0.7","60196480480c1403e32285a8","687a1a965b9f5b85a264363e","6893174cfc78a5b5e9923772","1","60196480480c1403e32285a8","1","2025-08-06T08:54:07.734Z","","","","PreMotivationQ","","","","","","","","","","","50","","","","","","","","","","","","","","","","","","","","","","","","","","",""
"","","","","ctl-task-cpt","13","246578","0.0-7.0-0.0","127","1","2025-08-06 08:50:24","36c45c0696341be0efffe67d72a12abb","95.68.64.32","Mozilla/5.0 (Windows NT 10.0; Win64; x64) AppleWebKit/537.36 (KHTML, like Gecko) Chrome/138.0.0.0 Safari/537.36","WebKit","Chrome","138.0.0.0","Windows","10.0","https://app.prolific.com/","lv-LV,lv;q=0.9,en-US;q=0.8,en;q=0.7","60196480480c1403e32285a8","687a1a965b9f5b85a264363e","6893174cfc78a5b5e9923772","1","60196480480c1403e32285a8","1","2025-08-06T08:54:32.347Z","","","","","","","","","","","","","","","","win-only","0","g1:NW,g2:SE","1","1","0","223109.9","1510.6","6517.1","21604.3","1","4","4","6","2","4","3","3","0","0.022727272727272728","907.2","3000","1060","[""down"",""right""]","{""num_key_presses"":6,""num_perfect"":5,""num_errors"":1,""num_randdir"":0,""num_randdir_good_moves"":0,""num_whilered"":0,""num_whileblue"":1,""num_blue"":1,""num_good_moves"":6}","[417.57142857142856,419.47767857142856,0.2,417.57142857142856,419.47767857142856,110.7,417.57142857142856,419.47767857142856,212.4,417.57142857142856,419.47767857142856,315.4,417.57142857142856,419.47767857142856,415.8,609.5714285714286,564.4776785714286,523.9,692.5714285714286,623.4776785714286,624.9,704.5714285714286,680.4776785714286,729.6,721.5714285714286,710.4776785714286,830,725.5714285714286,717.4776785714286,930.7,725.5714285714286,717.4776785714286,1031.3,720.5714285714286,711.4776785714286,1135.8,642.5714285714286,575.4776785714286,1240.7,574.5714285714286,454.47767857142856,1341.3,568.5714285714286,438.47767857142856,1441.5,568.5714285714286,438.47767857142856,1547.2,568.5714285714286,438.47767857142856,1651.1,568.5714285714286,438.47767857142856,1754.9,568.5714285714286,438.47767857142856,1855.5,568.5714285714286,438.47767857142856,1962.3,568.5714285714286,438.47767857142856,2065.7,568.5714285714286,438.47767857142856,2165.8,568.5714285714286,438.47767857142856,2271.2,568.5714285714286,438.47767857142856,2379.2,568.5714285714286,438.47767857142856,2480.6,568.5714285714286,438.47767857142856,2582.2,568.5714285714286,438.47767857142856,2685.2,568.5714285714286,438.47767857142856,2795.1,568.5714285714286,438.47767857142856,2895.4,568.5714285714286,438.47767857142856,3001.3,568.5714285714286,438.47767857142856,3105.3,568.5714285714286,438.47767857142856,3212.1,568.5714285714286,438.47767857142856,3314,568.5714285714286,438.47767857142856,3415.7,568.5714285714286,438.47767857142856,3520.2,568.5714285714286,438.47767857142856,3621.2,568.5714285714286,438.47767857142856,3729,568.5714285714286,438.47767857142856,3829.1,568.5714285714286,438.47767857142856,3934.9,568.5714285714286,438.47767857142856,4035.9,568.5714285714286,438.47767857142856,4136.1,568.5714285714286,438.47767857142856,4245.5,568.5714285714286,438.47767857142856,4345.7,568.5714285714286,438.47767857142856,4450.6,568.5714285714286,438.47767857142856,4556.7,568.5714285714286,438.47767857142856,4663.5,568.5714285714286,438.47767857142856,4765.2,568.5714285714286,438.47767857142856,4865.2,568.5714285714286,438.47767857142856,4965.4]","[1440.5,1440.6,1000,0,440.6,""smooth"",""right"",""right"",""good_move"",4095.7,2654.4,2341.6,1441.4,312.7,""smooth"",""down"",""down"",""good_move"",6816.3,2720,2392.6,4096.4,327.4,""while_blue"",""right"",""down"",""good_move"",10399,3582,2986.1,6817,595.9,""smooth"",""right"",""right"",""good_move"",12882.7,2483.5,2097.8,10399.3,385.6,""smooth"",""right"",""right"",""good_move"",14982.1,2099.1,1729.4,12883.1,369.6,""smooth"",""down"",""down"",""good_move""]"
"4127","","<div style=""width:500px;"">
  <p>What determined the result of this run?</p>
  </div>","100","html-slider-response","14","250708","0.0-7.0-1.0","127","1","2025-08-06 08:50:24","36c45c0696341be0efffe67d72a12abb","95.68.64.32","Mozilla/5.0 (Windows NT 10.0; Win64; x64) AppleWebKit/537.36 (KHTML, like Gecko) Chrome/138.0.0.0 Safari/537.36","WebKit","Chrome","138.0.0.0","Windows","10.0","https://app.prolific.com/","lv-LV,lv;q=0.9,en-US;q=0.8,en;q=0.7","60196480480c1403e32285a8","687a1a965b9f5b85a264363e","6893174cfc78a5b5e9923772","1","60196480480c1403e32285a8","1","2025-08-06T08:54:36.477Z","","","","AttribQ","","","","","","","","","","","50","","","","","","","","","","","","","","","","","","","","","","","","","","",""
"1954","","<div style=""width:500px;"">
  <p>How much control did you have over the ball?</p>
  </div>","100","html-slider-response","15","252664","0.0-7.0-2.0","127","1","2025-08-06 08:50:24","36c45c0696341be0efffe67d72a12abb","95.68.64.32","Mozilla/5.0 (Windows NT 10.0; Win64; x64) AppleWebKit/537.36 (KHTML, like Gecko) Chrome/138.0.0.0 Safari/537.36","WebKit","Chrome","138.0.0.0","Windows","10.0","https://app.prolific.com/","lv-LV,lv;q=0.9,en-US;q=0.8,en;q=0.7","60196480480c1403e32285a8","687a1a965b9f5b85a264363e","6893174cfc78a5b5e9923772","1","60196480480c1403e32285a8","1","2025-08-06T08:54:38.433Z","","","","ControlQ","","","","","","","","","","","50","","","","","","","","","","","","","","","","","","","","","","","","","","",""
"2353","","<div style=""width:500px;"">
  <p>How would you describe your current emotional state?</p>
  </div>","69","html-slider-response","16","255018","0.0-7.0-3.0","127","1","2025-08-06 08:50:24","36c45c0696341be0efffe67d72a12abb","95.68.64.32","Mozilla/5.0 (Windows NT 10.0; Win64; x64) AppleWebKit/537.36 (KHTML, like Gecko) Chrome/138.0.0.0 Safari/537.36","WebKit","Chrome","138.0.0.0","Windows","10.0","https://app.prolific.com/","lv-LV,lv;q=0.9,en-US;q=0.8,en;q=0.7","60196480480c1403e32285a8","687a1a965b9f5b85a264363e","6893174cfc78a5b5e9923772","1","60196480480c1403e32285a8","1","2025-08-06T08:54:40.787Z","","","","StressQ","","","","","","","","","","","50","","","","","","","","","","","","","","","","","","","","","","","","","","",""
"3320","","<div style=""width:500px;"">
  <p>What best describes how you currently feel?</p>
  </div>","73","html-slider-response","17","258340","0.0-7.0-4.0","127","1","2025-08-06 08:50:24","36c45c0696341be0efffe67d72a12abb","95.68.64.32","Mozilla/5.0 (Windows NT 10.0; Win64; x64) AppleWebKit/537.36 (KHTML, like Gecko) Chrome/138.0.0.0 Safari/537.36","WebKit","Chrome","138.0.0.0","Windows","10.0","https://app.prolific.com/","lv-LV,lv;q=0.9,en-US;q=0.8,en;q=0.7","60196480480c1403e32285a8","687a1a965b9f5b85a264363e","6893174cfc78a5b5e9923772","1","60196480480c1403e32285a8","1","2025-08-06T08:54:44.109Z","","","","MotivationQ","","","","","","","","","","","50","","","","","","","","","","","","","","","","","","","","","","","","","","",""
"","","","","ctl-task-cpt","18","291633","0.0-7.0-0.1","127","1","2025-08-06 08:50:24","36c45c0696341be0efffe67d72a12abb","95.68.64.32","Mozilla/5.0 (Windows NT 10.0; Win64; x64) AppleWebKit/537.36 (KHTML, like Gecko) Chrome/138.0.0.0 Safari/537.36","WebKit","Chrome","138.0.0.0","Windows","10.0","https://app.prolific.com/","lv-LV,lv;q=0.9,en-US;q=0.8,en;q=0.7","60196480480c1403e32285a8","687a1a965b9f5b85a264363e","6893174cfc78a5b5e9923772","1","60196480480c1403e32285a8","1","2025-08-06T08:55:17.402Z","","","","","","","","","","","","","","","","win-only","1","g1:NE,g2:SW","0.9","2","0","259482","916.6","5919.2","30274.1","1","4","8","6","2","8","7","10","3","0.07575757575757576","712","3000","525","[""down"",""left""]","{""num_key_presses"":8,""num_perfect"":7,""num_errors"":1,""num_randdir"":0,""num_randdir_good_moves"":0,""num_whilered"":0,""num_whileblue"":1,""num_blue"":2,""num_good_moves"":7}","[419.57142857142856,418.47767857142856,0.1,419.57142857142856,418.47767857142856,103.6,419.57142857142856,418.47767857142856,205.9,427.57142857142856,418.47767857142856,308.7,429.57142857142856,417.47767857142856,409.9,67.57142857142857,729.4776785714286,513.8,64.57142857142857,743.4776785714286,614.3,64.57142857142857,745.4776785714286,717.4,64.57142857142857,746.4776785714286,822.9,64.57142857142857,746.4776785714286,924.3,107.57142857142857,748.4776785714286,1025,374.57142857142856,765.4776785714286,1130,394.57142857142856,769.4776785714286,1230.8,394.57142857142856,769.4776785714286,1337.1,394.57142857142856,769.4776785714286,1437.7,394.57142857142856,769.4776785714286,1538.1,394.57142857142856,769.4776785714286,1638.7,394.57142857142856,769.4776785714286,1738.7,394.57142857142856,769.4776785714286,1840,394.57142857142856,769.4776785714286,1944.4,394.57142857142856,769.4776785714286,2044.5,394.57142857142856,769.4776785714286,2151,394.57142857142856,769.4776785714286,2252.5,394.57142857142856,769.4776785714286,2354.4,394.57142857142856,769.4776785714286,2454.8,394.57142857142856,769.4776785714286,2560.1,394.57142857142856,769.4776785714286,2664.8,394.57142857142856,769.4776785714286,2769.7,394.57142857142856,769.4776785714286,2872.7,394.57142857142856,769.4776785714286,2974.8,394.57142857142856,769.4776785714286,3079.3,394.57142857142856,769.4776785714286,3185.7,394.57142857142856,769.4776785714286,3286.6,394.57142857142856,769.4776785714286,3386.9,394.57142857142856,769.4776785714286,3489.1,394.57142857142856,769.4776785714286,3589.3,394.57142857142856,769.4776785714286,3689.9,394.57142857142856,769.4776785714286,3794.4,394.57142857142856,769.4776785714286,3898.9,394.57142857142856,769.4776785714286,4002.7,394.57142857142856,769.4776785714286,4103.9,394.57142857142856,769.4776785714286,4204,394.57142857142856,769.4776785714286,4307.8,394.57142857142856,769.4776785714286,4409.5,394.57142857142856,769.4776785714286,4514.6,394.57142857142856,769.4776785714286,4620.4,394.57142857142856,769.4776785714286,4723.9,394.57142857142856,769.4776785714286,4824.4,394.57142857142856,769.4776785714286,4924.4]","[1369.1,1369,1000,0.1,369,""smooth"",""down"",""down"",""good_move"",3593,2223.4,1847.3,1369.8,376,""smooth"",""down"",""down"",""good_move"",6553.3,2959.9,2592.4,3593.4,367.5,""smooth"",""down"",""down"",""good_move"",9115.4,2561.9,2241.3,6553.6,320.5,""smooth"",""left"",""left"",""good_move"",11751.8,2635.9,2288.9,9115.9,347,""smooth"",""left"",""left"",""good_move"",14018.3,2266.4,1899.4,11751.9,367,""while_blue"",""left"",""up"",""bad_move"",17120.1,3101,2768.1,14019.1,332.9,""smooth"",""down"",""down"",""good_move"",24268.2,7147.9,3134.3,20737.1,396.8,""smooth"",""left"",""left"",""good_move""]"
"3436","","<div style=""width:500px;"">
  <p>What determined the result of this run?</p>
  </div>","100","html-slider-response","19","295071","0.0-7.0-1.1","127","1","2025-08-06 08:50:24","36c45c0696341be0efffe67d72a12abb","95.68.64.32","Mozilla/5.0 (Windows NT 10.0; Win64; x64) AppleWebKit/537.36 (KHTML, like Gecko) Chrome/138.0.0.0 Safari/537.36","WebKit","Chrome","138.0.0.0","Windows","10.0","https://app.prolific.com/","lv-LV,lv;q=0.9,en-US;q=0.8,en;q=0.7","60196480480c1403e32285a8","687a1a965b9f5b85a264363e","6893174cfc78a5b5e9923772","1","60196480480c1403e32285a8","1","2025-08-06T08:55:20.840Z","","","","AttribQ","","","","","","","","","","","50","","","","","","","","","","","","","","","","","","","","","","","","","","",""
"2735","","<div style=""width:500px;"">
  <p>How much control did you have over the ball?</p>
  </div>","100","html-slider-response","20","297808","0.0-7.0-2.1","127","1","2025-08-06 08:50:24","36c45c0696341be0efffe67d72a12abb","95.68.64.32","Mozilla/5.0 (Windows NT 10.0; Win64; x64) AppleWebKit/537.36 (KHTML, like Gecko) Chrome/138.0.0.0 Safari/537.36","WebKit","Chrome","138.0.0.0","Windows","10.0","https://app.prolific.com/","lv-LV,lv;q=0.9,en-US;q=0.8,en;q=0.7","60196480480c1403e32285a8","687a1a965b9f5b85a264363e","6893174cfc78a5b5e9923772","1","60196480480c1403e32285a8","1","2025-08-06T08:55:23.577Z","","","","ControlQ","","","","","","","","","","","50","","","","","","","","","","","","","","","","","","","","","","","","","","",""
"2067","","<div style=""width:500px;"">
  <p>How would you describe your current emotional state?</p>
  </div>","34","html-slider-response","21","299877","0.0-7.0-3.1","127","1","2025-08-06 08:50:24","36c45c0696341be0efffe67d72a12abb","95.68.64.32","Mozilla/5.0 (Windows NT 10.0; Win64; x64) AppleWebKit/537.36 (KHTML, like Gecko) Chrome/138.0.0.0 Safari/537.36","WebKit","Chrome","138.0.0.0","Windows","10.0","https://app.prolific.com/","lv-LV,lv;q=0.9,en-US;q=0.8,en;q=0.7","60196480480c1403e32285a8","687a1a965b9f5b85a264363e","6893174cfc78a5b5e9923772","1","60196480480c1403e32285a8","1","2025-08-06T08:55:25.647Z","","","","StressQ","","","","","","","","","","","50","","","","","","","","","","","","","","","","","","","","","","","","","","",""
"1882","","<div style=""width:500px;"">
  <p>What best describes how you currently feel?</p>
  </div>","81","html-slider-response","22","301761","0.0-7.0-4.1","127","1","2025-08-06 08:50:24","36c45c0696341be0efffe67d72a12abb","95.68.64.32","Mozilla/5.0 (Windows NT 10.0; Win64; x64) AppleWebKit/537.36 (KHTML, like Gecko) Chrome/138.0.0.0 Safari/537.36","WebKit","Chrome","138.0.0.0","Windows","10.0","https://app.prolific.com/","lv-LV,lv;q=0.9,en-US;q=0.8,en;q=0.7","60196480480c1403e32285a8","687a1a965b9f5b85a264363e","6893174cfc78a5b5e9923772","1","60196480480c1403e32285a8","1","2025-08-06T08:55:27.531Z","","","","MotivationQ","","","","","","","","","","","50","","","","","","","","","","","","","","","","","","","","","","","","","","",""
"","","","","ctl-task-cpt","23","341838","0.0-7.0-0.2","127","1","2025-08-06 08:50:24","36c45c0696341be0efffe67d72a12abb","95.68.64.32","Mozilla/5.0 (Windows NT 10.0; Win64; x64) AppleWebKit/537.36 (KHTML, like Gecko) Chrome/138.0.0.0 Safari/537.36","WebKit","Chrome","138.0.0.0","Windows","10.0","https://app.prolific.com/","lv-LV,lv;q=0.9,en-US;q=0.8,en;q=0.7","60196480480c1403e32285a8","687a1a965b9f5b85a264363e","6893174cfc78a5b5e9923772","1","60196480480c1403e32285a8","1","2025-08-06T08:56:07.607Z","","","","","","","","","","","","","","","","win-only","1","g1:NE,g2:SW","0.8","3","0","302906.8","1197.3","6198.2","37056.5","1","4","4","6","2","-4","-5","5","10","0.03787878787878788","785.2","3000","-3015","[""down"",""left""]","{""num_key_presses"":9,""num_perfect"":6,""num_errors"":1,""num_randdir"":2,""num_randdir_good_moves"":0,""num_whilered"":0,""num_whileblue"":1,""num_blue"":2,""num_good_moves"":7}","[422.57142857142856,417.47767857142856,0.3,422.57142857142856,417.47767857142856,103.4,422.57142857142856,417.47767857142856,203.5,422.57142857142856,417.47767857142856,308.5,268.57142857142856,583.4776785714286,413.4,188.57142857142856,652.4776785714286,518.6,174.57142857142856,672.4776785714286,618.7,140.57142857142856,722.4776785714286,718.9,123.57142857142857,744.4776785714286,819.5,123.57142857142857,744.4776785714286,924.2,125.57142857142857,744.4776785714286,1028.8,186.57142857142856,730.4776785714286,1129.5,258.57142857142856,724.4776785714286,1233.5,293.57142857142856,754.4776785714286,1333.6,300.57142857142856,766.4776785714286,1437.7,300.57142857142856,766.4776785714286,1539.8,300.57142857142856,766.4776785714286,1643.3,300.57142857142856,766.4776785714286,1743.3,300.57142857142856,766.4776785714286,1843.3,300.57142857142856,766.4776785714286,1948,300.57142857142856,766.4776785714286,2053.8,300.57142857142856,766.4776785714286,2154.1,300.57142857142856,766.4776785714286,2258.6,300.57142857142856,766.4776785714286,2359,300.57142857142856,766.4776785714286,2465.6,300.57142857142856,766.4776785714286,2569,300.57142857142856,766.4776785714286,2673.9,300.57142857142856,766.4776785714286,2781.4,300.57142857142856,766.4776785714286,2883,300.57142857142856,766.4776785714286,2985,300.57142857142856,766.4776785714286,3086.1,300.57142857142856,766.4776785714286,3189.4,300.57142857142856,766.4776785714286,3294.1,300.57142857142856,766.4776785714286,3394.4,300.57142857142856,766.4776785714286,3498,300.57142857142856,766.4776785714286,3598,300.57142857142856,766.4776785714286,3698.1,300.57142857142856,766.4776785714286,3803.1,300.57142857142856,766.4776785714286,3903.2,300.57142857142856,766.4776785714286,4003.2,300.57142857142856,766.4776785714286,4103.8,300.57142857142856,766.4776785714286,4204,300.57142857142856,766.4776785714286,4308.5,300.57142857142856,766.4776785714286,4413.2,300.57142857142856,766.4776785714286,4513.4,300.57142857142856,766.4776785714286,4616.3,300.57142857142856,766.4776785714286,4719.5,300.57142857142856,766.4776785714286,4823.8,300.57142857142856,766.4776785714286,4930.3]","[4537.4,4537.4,2116.7,2008.1,412.6,""smooth"",""down"",""down"",""good_move"",7185.1,2647,2111.7,4538.2,535.3,""smooth"",""down"",""down"",""good_move"",10305.1,3119.5,2649.4,7185.6,470.1,""smooth"",""down"",""down"",""good_move"",13025.5,2720.2,2367.8,10305.3,352.4,""smooth"",""left"",""left"",""good_move"",15785,2759,2373.1,13026,385.9,""oops"",""left"",""right"",""bad_move"",18953.1,3167.6,2915.9,15785.5,251.7,""while_blue"",""left"",""left"",""good_move"",22625.2,3671.6,3306.4,18953.6,365.2,""oops"",""left"",""up"",""bad_move"",25001.1,2375.3,2016.8,22625.8,358.5,""smooth"",""left"",""left"",""good_move"",27673.2,2671.9,2369.9,25001.3,302.1,""smooth"",""down"",""down"",""good_move""]"
"3679","","<div style=""width:500px;"">
  <p>What determined the result of this run?</p>
  </div>","8","html-slider-response","24","345519","0.0-7.0-1.2","127","1","2025-08-06 08:50:24","36c45c0696341be0efffe67d72a12abb","95.68.64.32","Mozilla/5.0 (Windows NT 10.0; Win64; x64) AppleWebKit/537.36 (KHTML, like Gecko) Chrome/138.0.0.0 Safari/537.36","WebKit","Chrome","138.0.0.0","Windows","10.0","https://app.prolific.com/","lv-LV,lv;q=0.9,en-US;q=0.8,en;q=0.7","60196480480c1403e32285a8","687a1a965b9f5b85a264363e","6893174cfc78a5b5e9923772","1","60196480480c1403e32285a8","1","2025-08-06T08:56:11.288Z","","","","AttribQ","","","","","","","","","","","50","","","","","","","","","","","","","","","","","","","","","","","","","","",""
"2957","","<div style=""width:500px;"">
  <p>How much control did you have over the ball?</p>
  </div>","24","html-slider-response","25","348477","0.0-7.0-2.2","127","1","2025-08-06 08:50:24","36c45c0696341be0efffe67d72a12abb","95.68.64.32","Mozilla/5.0 (Windows NT 10.0; Win64; x64) AppleWebKit/537.36 (KHTML, like Gecko) Chrome/138.0.0.0 Safari/537.36","WebKit","Chrome","138.0.0.0","Windows","10.0","https://app.prolific.com/","lv-LV,lv;q=0.9,en-US;q=0.8,en;q=0.7","60196480480c1403e32285a8","687a1a965b9f5b85a264363e","6893174cfc78a5b5e9923772","1","60196480480c1403e32285a8","1","2025-08-06T08:56:14.247Z","","","","ControlQ","","","","","","","","","","","50","","","","","","","","","","","","","","","","","","","","","","","","","","",""
"1919","","<div style=""width:500px;"">
  <p>How would you describe your current emotional state?</p>
  </div>","69","html-slider-response","26","350398","0.0-7.0-3.2","127","1","2025-08-06 08:50:24","36c45c0696341be0efffe67d72a12abb","95.68.64.32","Mozilla/5.0 (Windows NT 10.0; Win64; x64) AppleWebKit/537.36 (KHTML, like Gecko) Chrome/138.0.0.0 Safari/537.36","WebKit","Chrome","138.0.0.0","Windows","10.0","https://app.prolific.com/","lv-LV,lv;q=0.9,en-US;q=0.8,en;q=0.7","60196480480c1403e32285a8","687a1a965b9f5b85a264363e","6893174cfc78a5b5e9923772","1","60196480480c1403e32285a8","1","2025-08-06T08:56:16.167Z","","","","StressQ","","","","","","","","","","","50","","","","","","","","","","","","","","","","","","","","","","","","","","",""
"3230","","<div style=""width:500px;"">
  <p>What best describes how you currently feel?</p>
  </div>","100","html-slider-response","27","353629","0.0-7.0-4.2","127","1","2025-08-06 08:50:24","36c45c0696341be0efffe67d72a12abb","95.68.64.32","Mozilla/5.0 (Windows NT 10.0; Win64; x64) AppleWebKit/537.36 (KHTML, like Gecko) Chrome/138.0.0.0 Safari/537.36","WebKit","Chrome","138.0.0.0","Windows","10.0","https://app.prolific.com/","lv-LV,lv;q=0.9,en-US;q=0.8,en;q=0.7","60196480480c1403e32285a8","687a1a965b9f5b85a264363e","6893174cfc78a5b5e9923772","1","60196480480c1403e32285a8","1","2025-08-06T08:56:19.398Z","","","","MotivationQ","","","","","","","","","","","50","","","","","","","","","","","","","","","","","","","","","","","","","","",""
"","","","","ctl-task-cpt","28","386708","0.0-7.0-0.3","127","1","2025-08-06 08:50:24","36c45c0696341be0efffe67d72a12abb","95.68.64.32","Mozilla/5.0 (Windows NT 10.0; Win64; x64) AppleWebKit/537.36 (KHTML, like Gecko) Chrome/138.0.0.0 Safari/537.36","WebKit","Chrome","138.0.0.0","Windows","10.0","https://app.prolific.com/","lv-LV,lv;q=0.9,en-US;q=0.8,en;q=0.7","60196480480c1403e32285a8","687a1a965b9f5b85a264363e","6893174cfc78a5b5e9923772","1","60196480480c1403e32285a8","1","2025-08-06T08:56:52.477Z","","","","","","","","","","","","","","","","win-only","1","g1:NE,g2:SW","0.7","4","0","354773.3","735.8","5736.3","30061.2","1","4","8","6","2","8","8","13","5","0.09848484848484848","779.1","3000","470","[""down"",""left""]","{""num_key_presses"":8,""num_perfect"":6,""num_errors"":0,""num_randdir"":2,""num_randdir_good_moves"":1,""num_whilered"":0,""num_whileblue"":0,""num_blue"":1,""num_good_moves"":7}","[415.57142857142856,414.47767857142856,0.2,415.57142857142856,414.47767857142856,104.5,415.57142857142856,414.47767857142856,204.7,422.57142857142856,422.47767857142856,304.7,409.57142857142856,454.47767857142856,404.9,270.57142857142856,566.4776785714286,509.5,229.57142857142856,604.4776785714286,609.6,127.57142857142857,712.4776785714286,710.5,102.57142857142857,741.4776785714286,816,102.57142857142857,741.4776785714286,919.7,109.57142857142857,744.4776785714286,1020.1,320.57142857142856,769.4776785714286,1124.9,453.57142857142856,794.4776785714286,1230.6,453.57142857142856,794.4776785714286,1330.6,453.57142857142856,794.4776785714286,1431.2,453.57142857142856,794.4776785714286,1535.1,453.57142857142856,794.4776785714286,1639.8,453.57142857142856,794.4776785714286,1740,453.57142857142856,794.4776785714286,1847.2,453.57142857142856,794.4776785714286,1947.3,453.57142857142856,794.4776785714286,2055.5,453.57142857142856,794.4776785714286,2160.4,453.57142857142856,794.4776785714286,2265.3,453.57142857142856,794.4776785714286,2368.1,453.57142857142856,794.4776785714286,2469.7,453.57142857142856,794.4776785714286,2570.1,453.57142857142856,794.4776785714286,2672.7,453.57142857142856,794.4776785714286,2774.9,453.57142857142856,794.4776785714286,2879.4,453.57142857142856,794.4776785714286,2983.2,453.57142857142856,794.4776785714286,3085.2,453.57142857142856,794.4776785714286,3189.9,453.57142857142856,794.4776785714286,3290.6,453.57142857142856,794.4776785714286,3395.3,453.57142857142856,794.4776785714286,3499.2,453.57142857142856,794.4776785714286,3599.6,453.57142857142856,794.4776785714286,3699.9,453.57142857142856,794.4776785714286,3800.4,453.57142857142856,794.4776785714286,3904.9,453.57142857142856,794.4776785714286,4005,453.57142857142856,794.4776785714286,4105.4,453.57142857142856,794.4776785714286,4210.3,453.57142857142856,794.4776785714286,4310.5,453.57142857142856,794.4776785714286,4414.6,453.57142857142856,794.4776785714286,4516,453.57142857142856,794.4776785714286,4619.1,453.57142857142856,794.4776785714286,4719.4,453.57142857142856,794.4776785714286,4820.3,453.57142857142856,794.4776785714286,4920.3]","[1500.4,1500.4,1000,0,500.4,""smooth"",""down"",""down"",""good_move"",3551,2049.9,1716.9,1501.1,333,""smooth"",""down"",""down"",""good_move"",6098.9,2547.7,2231.3,3551.3,316.3,""smooth"",""down"",""down"",""good_move"",12478.7,6379.7,2467.7,9674.5,336.5,""oops"",""left"",""right"",""bad_move"",15187.7,2708.6,2367.5,12479.2,341,""smooth"",""left"",""left"",""good_move"",18235,3046.9,2704.9,15188.1,342,""smooth"",""left"",""left"",""good_move"",21291.8,3056.7,2774.8,18235.1,281.9,""smooth"",""left"",""left"",""good_move"",24220.3,2928.3,2670.5,21292,257.8,""oops"",""left"",""left"",""good_move""]"
"3438","","<div style=""width:500px;"">
  <p>What determined the result of this run?</p>
  </div>","34","html-slider-response","29","390148","0.0-7.0-1.3","127","1","2025-08-06 08:50:24","36c45c0696341be0efffe67d72a12abb","95.68.64.32","Mozilla/5.0 (Windows NT 10.0; Win64; x64) AppleWebKit/537.36 (KHTML, like Gecko) Chrome/138.0.0.0 Safari/537.36","WebKit","Chrome","138.0.0.0","Windows","10.0","https://app.prolific.com/","lv-LV,lv;q=0.9,en-US;q=0.8,en;q=0.7","60196480480c1403e32285a8","687a1a965b9f5b85a264363e","6893174cfc78a5b5e9923772","1","60196480480c1403e32285a8","1","2025-08-06T08:56:55.917Z","","","","AttribQ","","","","","","","","","","","50","","","","","","","","","","","","","","","","","","","","","","","","","","",""
"2386","","<div style=""width:500px;"">
  <p>How much control did you have over the ball?</p>
  </div>","70","html-slider-response","30","392535","0.0-7.0-2.3","127","1","2025-08-06 08:50:24","36c45c0696341be0efffe67d72a12abb","95.68.64.32","Mozilla/5.0 (Windows NT 10.0; Win64; x64) AppleWebKit/537.36 (KHTML, like Gecko) Chrome/138.0.0.0 Safari/537.36","WebKit","Chrome","138.0.0.0","Windows","10.0","https://app.prolific.com/","lv-LV,lv;q=0.9,en-US;q=0.8,en;q=0.7","60196480480c1403e32285a8","687a1a965b9f5b85a264363e","6893174cfc78a5b5e9923772","1","60196480480c1403e32285a8","1","2025-08-06T08:56:58.304Z","","","","ControlQ","","","","","","","","","","","50","","","","","","","","","","","","","","","","","","","","","","","","","","",""
"3318","","<div style=""width:500px;"">
  <p>How would you describe your current emotional state?</p>
  </div>","35","html-slider-response","31","395854","0.0-7.0-3.3","127","1","2025-08-06 08:50:24","36c45c0696341be0efffe67d72a12abb","95.68.64.32","Mozilla/5.0 (Windows NT 10.0; Win64; x64) AppleWebKit/537.36 (KHTML, like Gecko) Chrome/138.0.0.0 Safari/537.36","WebKit","Chrome","138.0.0.0","Windows","10.0","https://app.prolific.com/","lv-LV,lv;q=0.9,en-US;q=0.8,en;q=0.7","60196480480c1403e32285a8","687a1a965b9f5b85a264363e","6893174cfc78a5b5e9923772","1","60196480480c1403e32285a8","1","2025-08-06T08:57:01.623Z","","","","StressQ","","","","","","","","","","","50","","","","","","","","","","","","","","","","","","","","","","","","","","",""
"1560","","<div style=""width:500px;"">
  <p>What best describes how you currently feel?</p>
  </div>","100","html-slider-response","32","397416","0.0-7.0-4.3","127","1","2025-08-06 08:50:24","36c45c0696341be0efffe67d72a12abb","95.68.64.32","Mozilla/5.0 (Windows NT 10.0; Win64; x64) AppleWebKit/537.36 (KHTML, like Gecko) Chrome/138.0.0.0 Safari/537.36","WebKit","Chrome","138.0.0.0","Windows","10.0","https://app.prolific.com/","lv-LV,lv;q=0.9,en-US;q=0.8,en;q=0.7","60196480480c1403e32285a8","687a1a965b9f5b85a264363e","6893174cfc78a5b5e9923772","1","60196480480c1403e32285a8","1","2025-08-06T08:57:03.185Z","","","","MotivationQ","","","","","","","","","","","50","","","","","","","","","","","","","","","","","","","","","","","","","","",""
"","","","","ctl-task-cpt","33","431223","0.0-7.0-0.4","127","1","2025-08-06 08:50:24","36c45c0696341be0efffe67d72a12abb","95.68.64.32","Mozilla/5.0 (Windows NT 10.0; Win64; x64) AppleWebKit/537.36 (KHTML, like Gecko) Chrome/138.0.0.0 Safari/537.36","WebKit","Chrome","138.0.0.0","Windows","10.0","https://app.prolific.com/","lv-LV,lv;q=0.9,en-US;q=0.8,en;q=0.7","60196480480c1403e32285a8","687a1a965b9f5b85a264363e","6893174cfc78a5b5e9923772","1","60196480480c1403e32285a8","1","2025-08-06T08:57:36.992Z","","","","","","","","","","","","","","","","win-only","2","g1:SE,g2:NW","0.6","5","0","398559.3","774.8","5775.8","30787.9","1","4","4","6","2","-4","-4","9","13","0.06818181818181818","996.9","3000","-2985","[""left"",""up""]","{""num_key_presses"":8,""num_perfect"":4,""num_errors"":0,""num_randdir"":4,""num_randdir_good_moves"":2,""num_whilered"":0,""num_whileblue"":0,""num_blue"":1,""num_good_moves"":6}","[420.57142857142856,425.47767857142856,0.1,420.57142857142856,425.47767857142856,109.6,420.57142857142856,425.47767857142856,210.6,420.57142857142856,425.47767857142856,310.6,518.5714285714286,516.4776785714286,411,556.5714285714286,548.4776785714286,511.1,327.57142857142856,305.47767857142856,615.5,192.57142857142856,165.47767857142856,715.6,161.57142857142856,132.47767857142856,820.8,117.57142857142857,85.47767857142857,926,109.57142857142857,77.47767857142857,1027,109.57142857142857,77.47767857142857,1129,109.57142857142857,77.47767857142857,1231.6,109.57142857142857,78.47767857142857,1336.5,133.57142857142856,120.47767857142857,1440.8,136.57142857142856,139.47767857142856,1545.7,136.57142857142856,139.47767857142856,1645.8,136.57142857142856,139.47767857142856,1751.4,136.57142857142856,139.47767857142856,1851.6,136.57142857142856,139.47767857142856,1956.4,136.57142857142856,139.47767857142856,2056.4,136.57142857142856,139.47767857142856,2163.6,136.57142857142856,139.47767857142856,2265.3,136.57142857142856,139.47767857142856,2366.1,136.57142857142856,139.47767857142856,2471.5,136.57142857142856,139.47767857142856,2578.3,136.57142857142856,139.47767857142856,2680.7,136.57142857142856,139.47767857142856,2785.8,136.57142857142856,139.47767857142856,2886.3,136.57142857142856,139.47767857142856,2986.5,136.57142857142856,139.47767857142856,3090.9,136.57142857142856,139.47767857142856,3196.2,136.57142857142856,139.47767857142856,3296.2,136.57142857142856,139.47767857142856,3400.5,136.57142857142856,139.47767857142856,3501,136.57142857142856,139.47767857142856,3601.4,136.57142857142856,139.47767857142856,3706.1,136.57142857142856,139.47767857142856,3810.8,136.57142857142856,139.47767857142856,3911.6,136.57142857142856,139.47767857142856,4014.8,136.57142857142856,139.47767857142856,4116,136.57142857142856,139.47767857142856,4220.6,136.57142857142856,139.47767857142856,4320.6,136.57142857142856,139.47767857142856,4420.7,136.57142857142856,139.47767857142856,4520.8,136.57142857142856,139.47767857142856,4625.5,136.57142857142856,139.47767857142856,4725.6,136.57142857142856,139.47767857142856,4831.1,136.57142857142856,139.47767857142856,4931.4]","[1456.5,1456.5,1000,0,456.5,""oops"",""left"",""left"",""good_move"",4109.6,2652.5,2241.7,1457.1,410.8,""smooth"",""up"",""up"",""good_move"",6585.8,2476,2164.9,4109.8,311.1,""oops"",""left"",""up"",""good_move"",9210.3,2624.3,2316.6,6586,307.7,""smooth"",""left"",""left"",""good_move"",12258.8,3048.1,2707.1,9210.7,341,""oops"",""left"",""down"",""bad_move"",14527.9,2268.7,1874.3,12259.2,394.4,""smooth"",""up"",""up"",""good_move"",16498.8,1970.4,1662.3,14528.4,308.1,""smooth"",""up"",""up"",""good_move"",22002.4,5503.4,2465,19209.4,328,""oops"",""left"",""right"",""bad_move""]"
"2137","","<div style=""width:500px;"">
  <p>What determined the result of this run?</p>
  </div>","0","html-slider-response","34","433361","0.0-7.0-1.4","127","1","2025-08-06 08:50:24","36c45c0696341be0efffe67d72a12abb","95.68.64.32","Mozilla/5.0 (Windows NT 10.0; Win64; x64) AppleWebKit/537.36 (KHTML, like Gecko) Chrome/138.0.0.0 Safari/537.36","WebKit","Chrome","138.0.0.0","Windows","10.0","https://app.prolific.com/","lv-LV,lv;q=0.9,en-US;q=0.8,en;q=0.7","60196480480c1403e32285a8","687a1a965b9f5b85a264363e","6893174cfc78a5b5e9923772","1","60196480480c1403e32285a8","1","2025-08-06T08:57:39.130Z","","","","AttribQ","","","","","","","","","","","50","","","","","","","","","","","","","","","","","","","","","","","","","","",""
"2219","","<div style=""width:500px;"">
  <p>How much control did you have over the ball?</p>
  </div>","21","html-slider-response","35","435582","0.0-7.0-2.4","127","1","2025-08-06 08:50:24","36c45c0696341be0efffe67d72a12abb","95.68.64.32","Mozilla/5.0 (Windows NT 10.0; Win64; x64) AppleWebKit/537.36 (KHTML, like Gecko) Chrome/138.0.0.0 Safari/537.36","WebKit","Chrome","138.0.0.0","Windows","10.0","https://app.prolific.com/","lv-LV,lv;q=0.9,en-US;q=0.8,en;q=0.7","60196480480c1403e32285a8","687a1a965b9f5b85a264363e","6893174cfc78a5b5e9923772","1","60196480480c1403e32285a8","1","2025-08-06T08:57:41.351Z","","","","ControlQ","","","","","","","","","","","50","","","","","","","","","","","","","","","","","","","","","","","","","","",""
"1684","","<div style=""width:500px;"">
  <p>How would you describe your current emotional state?</p>
  </div>","67","html-slider-response","36","437267","0.0-7.0-3.4","127","1","2025-08-06 08:50:24","36c45c0696341be0efffe67d72a12abb","95.68.64.32","Mozilla/5.0 (Windows NT 10.0; Win64; x64) AppleWebKit/537.36 (KHTML, like Gecko) Chrome/138.0.0.0 Safari/537.36","WebKit","Chrome","138.0.0.0","Windows","10.0","https://app.prolific.com/","lv-LV,lv;q=0.9,en-US;q=0.8,en;q=0.7","60196480480c1403e32285a8","687a1a965b9f5b85a264363e","6893174cfc78a5b5e9923772","1","60196480480c1403e32285a8","1","2025-08-06T08:57:43.036Z","","","","StressQ","","","","","","","","","","","50","","","","","","","","","","","","","","","","","","","","","","","","","","",""
"1699","","<div style=""width:500px;"">
  <p>What best describes how you currently feel?</p>
  </div>","78","html-slider-response","37","438967","0.0-7.0-4.4","127","1","2025-08-06 08:50:24","36c45c0696341be0efffe67d72a12abb","95.68.64.32","Mozilla/5.0 (Windows NT 10.0; Win64; x64) AppleWebKit/537.36 (KHTML, like Gecko) Chrome/138.0.0.0 Safari/537.36","WebKit","Chrome","138.0.0.0","Windows","10.0","https://app.prolific.com/","lv-LV,lv;q=0.9,en-US;q=0.8,en;q=0.7","60196480480c1403e32285a8","687a1a965b9f5b85a264363e","6893174cfc78a5b5e9923772","1","60196480480c1403e32285a8","1","2025-08-06T08:57:44.736Z","","","","MotivationQ","","","","","","","","","","","50","","","","","","","","","","","","","","","","","","","","","","","","","","",""
"","","","","ctl-task-cpt","38","476726","0.0-7.0-0.5","127","1","2025-08-06 08:50:24","36c45c0696341be0efffe67d72a12abb","95.68.64.32","Mozilla/5.0 (Windows NT 10.0; Win64; x64) AppleWebKit/537.36 (KHTML, like Gecko) Chrome/138.0.0.0 Safari/537.36","WebKit","Chrome","138.0.0.0","Windows","10.0","https://app.prolific.com/","lv-LV,lv;q=0.9,en-US;q=0.8,en;q=0.7","60196480480c1403e32285a8","687a1a965b9f5b85a264363e","6893174cfc78a5b5e9923772","1","60196480480c1403e32285a8","1","2025-08-06T08:58:22.495Z","","","","","","","","","","","","","","","","win-only","0","g1:NW,g2:SE","0.5","6","0","440108.4","583.7","5597.9","34746","1","4","8","6","2","-8","-8","1","9","0.007575757575757576","792.9","3000","-2980","[""down"",""right""]","{""num_key_presses"":10,""num_perfect"":5,""num_errors"":0,""num_randdir"":5,""num_randdir_good_moves"":1,""num_whilered"":0,""num_whileblue"":0,""num_blue"":0,""num_good_moves"":6}","[425.57142857142856,408.47767857142856,0.2,425.57142857142856,408.47767857142856,103.4,425.57142857142856,408.47767857142856,206.9,425.57142857142856,414.47767857142856,307,543.5714285714286,551.4776785714286,407,704.5714285714286,687.4776785714286,511.6,705.5714285714286,688.4776785714286,611.9,706.5714285714286,691.4776785714286,716.7,717.5714285714286,716.4776785714286,821.7,717.5714285714286,716.4776785714286,922.5,717.5714285714286,716.4776785714286,1022.8,723.5714285714286,726.4776785714286,1127.5,928.5714285714286,852.4776785714286,1227.9,931.5714285714286,853.4776785714286,1332.4,931.5714285714286,853.4776785714286,1437.9,931.5714285714286,853.4776785714286,1541.5,931.5714285714286,853.4776785714286,1641.7,931.5714285714286,853.4776785714286,1742.2,931.5714285714286,853.4776785714286,1842.9,931.5714285714286,853.4776785714286,1948.5,931.5714285714286,853.4776785714286,2052.2,931.5714285714286,853.4776785714286,2159.1,931.5714285714286,853.4776785714286,2261.8,931.5714285714286,853.4776785714286,2361.9,931.5714285714286,853.4776785714286,2467.4,931.5714285714286,853.4776785714286,2572.8,931.5714285714286,853.4776785714286,2673.1,931.5714285714286,853.4776785714286,2777.6,931.5714285714286,853.4776785714286,2882.3,931.5714285714286,853.4776785714286,2990,931.5714285714286,853.4776785714286,3092,931.5714285714286,853.4776785714286,3193.4,931.5714285714286,853.4776785714286,3297.7,931.5714285714286,853.4776785714286,3402.6,931.5714285714286,853.4776785714286,3504.6,931.5714285714286,853.4776785714286,3605.4,931.5714285714286,853.4776785714286,3706.5,931.5714285714286,853.4776785714286,3807.2,931.5714285714286,853.4776785714286,3912.3,931.5714285714286,853.4776785714286,4016.7,931.5714285714286,853.4776785714286,4118.8,931.5714285714286,853.4776785714286,4228.5,931.5714285714286,853.4776785714286,4332.7,931.5714285714286,853.4776785714286,4435.3,931.5714285714286,853.4776785714286,4537.1,931.5714285714286,853.4776785714286,4642.4,931.5714285714286,853.4776785714286,4743.3,931.5714285714286,853.4776785714286,4847.6,931.5714285714286,853.4776785714286,4951.8]","[1382.9,1383,1000,0,383,""smooth"",""right"",""right"",""good_move"",3710.9,2327.4,1964.8,1383.5,362.6,""oops"",""down"",""right"",""good_move"",6630.2,2919,2585.6,3711.2,333.4,""smooth"",""down"",""down"",""good_move"",9321.7,2691.2,2398.3,6630.5,292.9,""oops"",""down"",""up"",""bad_move"",11970.7,2648.7,2347.2,9322,301.5,""oops"",""down"",""left"",""bad_move"",14982.6,3011.7,2743,11970.9,268.7,""smooth"",""down"",""down"",""good_move"",18391.4,3408.5,3082.5,14982.9,326,""smooth"",""right"",""right"",""good_move"",21154.3,2762.5,2519.5,18391.8,243,""smooth"",""down"",""down"",""good_move"",23814.5,2660,2402.5,21154.5,257.5,""oops"",""right"",""up"",""bad_move"",26839.5,3024.6,2755.7,23814.9,268.9,""oops"",""down"",""up"",""bad_move""]"
"2193","","<div style=""width:500px;"">
  <p>What determined the result of this run?</p>
  </div>","0","html-slider-response","39","478920","0.0-7.0-1.5","127","1","2025-08-06 08:50:24","36c45c0696341be0efffe67d72a12abb","95.68.64.32","Mozilla/5.0 (Windows NT 10.0; Win64; x64) AppleWebKit/537.36 (KHTML, like Gecko) Chrome/138.0.0.0 Safari/537.36","WebKit","Chrome","138.0.0.0","Windows","10.0","https://app.prolific.com/","lv-LV,lv;q=0.9,en-US;q=0.8,en;q=0.7","60196480480c1403e32285a8","687a1a965b9f5b85a264363e","6893174cfc78a5b5e9923772","1","60196480480c1403e32285a8","1","2025-08-06T08:58:24.690Z","","","","AttribQ","","","","","","","","","","","50","","","","","","","","","","","","","","","","","","","","","","","","","","",""
"2336","","<div style=""width:500px;"">
  <p>How much control did you have over the ball?</p>
  </div>","0","html-slider-response","40","481257","0.0-7.0-2.5","127","1","2025-08-06 08:50:24","36c45c0696341be0efffe67d72a12abb","95.68.64.32","Mozilla/5.0 (Windows NT 10.0; Win64; x64) AppleWebKit/537.36 (KHTML, like Gecko) Chrome/138.0.0.0 Safari/537.36","WebKit","Chrome","138.0.0.0","Windows","10.0","https://app.prolific.com/","lv-LV,lv;q=0.9,en-US;q=0.8,en;q=0.7","60196480480c1403e32285a8","687a1a965b9f5b85a264363e","6893174cfc78a5b5e9923772","1","60196480480c1403e32285a8","1","2025-08-06T08:58:27.027Z","","","","ControlQ","","","","","","","","","","","50","","","","","","","","","","","","","","","","","","","","","","","","","","",""
"2104","","<div style=""width:500px;"">
  <p>How would you describe your current emotional state?</p>
  </div>","100","html-slider-response","41","483363","0.0-7.0-3.5","127","1","2025-08-06 08:50:24","36c45c0696341be0efffe67d72a12abb","95.68.64.32","Mozilla/5.0 (Windows NT 10.0; Win64; x64) AppleWebKit/537.36 (KHTML, like Gecko) Chrome/138.0.0.0 Safari/537.36","WebKit","Chrome","138.0.0.0","Windows","10.0","https://app.prolific.com/","lv-LV,lv;q=0.9,en-US;q=0.8,en;q=0.7","60196480480c1403e32285a8","687a1a965b9f5b85a264363e","6893174cfc78a5b5e9923772","1","60196480480c1403e32285a8","1","2025-08-06T08:58:29.132Z","","","","StressQ","","","","","","","","","","","50","","","","","","","","","","","","","","","","","","","","","","","","","","",""
"1272","","<div style=""width:500px;"">
  <p>What best describes how you currently feel?</p>
  </div>","61","html-slider-response","42","484636","0.0-7.0-4.5","127","1","2025-08-06 08:50:24","36c45c0696341be0efffe67d72a12abb","95.68.64.32","Mozilla/5.0 (Windows NT 10.0; Win64; x64) AppleWebKit/537.36 (KHTML, like Gecko) Chrome/138.0.0.0 Safari/537.36","WebKit","Chrome","138.0.0.0","Windows","10.0","https://app.prolific.com/","lv-LV,lv;q=0.9,en-US;q=0.8,en;q=0.7","60196480480c1403e32285a8","687a1a965b9f5b85a264363e","6893174cfc78a5b5e9923772","1","60196480480c1403e32285a8","1","2025-08-06T08:58:30.405Z","","","","MotivationQ","","","","","","","","","","","50","","","","","","","","","","","","","","","","","","","","","","","","","","",""
"","","","","ctl-task-cpt","43","512979","0.0-7.0-0.6","127","1","2025-08-06 08:50:24","36c45c0696341be0efffe67d72a12abb","95.68.64.32","Mozilla/5.0 (Windows NT 10.0; Win64; x64) AppleWebKit/537.36 (KHTML, like Gecko) Chrome/138.0.0.0 Safari/537.36","WebKit","Chrome","138.0.0.0","Windows","10.0","https://app.prolific.com/","lv-LV,lv;q=0.9,en-US;q=0.8,en;q=0.7","60196480480c1403e32285a8","687a1a965b9f5b85a264363e","6893174cfc78a5b5e9923772","1","60196480480c1403e32285a8","1","2025-08-06T08:58:58.748Z","","","","","","","","","","","","","","","","win-only","3","g1:SW,g2:NE","0.4","7","0","485778.5","713.4","5715.7","25321","1","4","8","6","2","8","8","9","1","0.06818181818181818","1737.1","3000","940","[""up"",""right""]","{""num_key_presses"":6,""num_perfect"":4,""num_errors"":0,""num_randdir"":2,""num_randdir_good_moves"":2,""num_whilered"":0,""num_whileblue"":0,""num_blue"":1,""num_good_moves"":6}","[416.57142857142856,426.47767857142856,0.1,416.57142857142856,426.47767857142856,102.7,416.57142857142856,426.47767857142856,204.1,420.57142857142856,473.47767857142856,307.1,378.57142857142856,541.4776785714286,407.8,455.57142857142856,472.47767857142856,511.9,717.5714285714286,196.47767857142856,612,722.5714285714286,186.47767857142856,712.6,726.5714285714286,174.47767857142856,812.8,736.5714285714286,141.47767857142856,916.7,750.5714285714286,110.47767857142857,1017.8,757.5714285714286,98.47767857142857,1123.4,757.5714285714286,97.47767857142857,1224,757.5714285714286,97.47767857142857,1327.5,757.5714285714286,97.47767857142857,1433.2,757.5714285714286,97.47767857142857,1533.4,757.5714285714286,97.47767857142857,1637.4,757.5714285714286,97.47767857142857,1740.5,757.5714285714286,97.47767857142857,1844.3,745.5714285714286,117.47767857142857,1947.1,601.5714285714286,380.47767857142856,2052.3,558.5714285714286,487.47767857142856,2153.2,558.5714285714286,487.47767857142856,2263.7,558.5714285714286,487.47767857142856,2367.1,558.5714285714286,487.47767857142856,2467.5,558.5714285714286,487.47767857142856,2568,558.5714285714286,487.47767857142856,2674.6,558.5714285714286,487.47767857142856,2778,558.5714285714286,487.47767857142856,2883,558.5714285714286,487.47767857142856,2988,558.5714285714286,487.47767857142856,3090.8,558.5714285714286,487.47767857142856,3193,558.5714285714286,487.47767857142856,3303.9,558.5714285714286,487.47767857142856,3415.6,558.5714285714286,487.47767857142856,3518.5,558.5714285714286,487.47767857142856,3622.5,558.5714285714286,487.47767857142856,3723.8,558.5714285714286,487.47767857142856,3823.9,558.5714285714286,487.47767857142856,3924.8,558.5714285714286,487.47767857142856,4027.2,558.5714285714286,487.47767857142856,4128.2,558.5714285714286,487.47767857142856,4232.1,558.5714285714286,487.47767857142856,4333.2,558.5714285714286,487.47767857142856,4437.6,558.5714285714286,487.47767857142856,4538.6,558.5714285714286,487.47767857142856,4639.5,558.5714285714286,487.47767857142856,4741,558.5714285714286,487.47767857142856,4842.2,558.5714285714286,487.47767857142856,4942.5]","[1562.5,1562.5,1000,0,562.5,""smooth"",""right"",""right"",""good_move"",4686.9,3124,2754.7,1562.9,369.3,""smooth"",""up"",""up"",""good_move"",11346.8,6659.5,2550.6,8436.6,359.6,""smooth"",""right"",""right"",""good_move"",13762.6,2415.4,2020.2,11347.2,395.2,""oops"",""up"",""up"",""good_move"",16609.7,2846.8,2515.9,13762.9,330.9,""smooth"",""right"",""right"",""good_move"",19498.3,2888.4,2534.9,16609.9,353.5,""oops"",""up"",""up"",""good_move""]"
"4392","","<div style=""width:500px;"">
  <p>What determined the result of this run?</p>
  </div>","75","html-slider-response","44","517372","0.0-7.0-1.6","127","1","2025-08-06 08:50:24","36c45c0696341be0efffe67d72a12abb","95.68.64.32","Mozilla/5.0 (Windows NT 10.0; Win64; x64) AppleWebKit/537.36 (KHTML, like Gecko) Chrome/138.0.0.0 Safari/537.36","WebKit","Chrome","138.0.0.0","Windows","10.0","https://app.prolific.com/","lv-LV,lv;q=0.9,en-US;q=0.8,en;q=0.7","60196480480c1403e32285a8","687a1a965b9f5b85a264363e","6893174cfc78a5b5e9923772","1","60196480480c1403e32285a8","1","2025-08-06T08:59:03.142Z","","","","AttribQ","","","","","","","","","","","50","","","","","","","","","","","","","","","","","","","","","","","","","","",""
"2016","","<div style=""width:500px;"">
  <p>How much control did you have over the ball?</p>
  </div>","73","html-slider-response","45","519389","0.0-7.0-2.6","127","1","2025-08-06 08:50:24","36c45c0696341be0efffe67d72a12abb","95.68.64.32","Mozilla/5.0 (Windows NT 10.0; Win64; x64) AppleWebKit/537.36 (KHTML, like Gecko) Chrome/138.0.0.0 Safari/537.36","WebKit","Chrome","138.0.0.0","Windows","10.0","https://app.prolific.com/","lv-LV,lv;q=0.9,en-US;q=0.8,en;q=0.7","60196480480c1403e32285a8","687a1a965b9f5b85a264363e","6893174cfc78a5b5e9923772","1","60196480480c1403e32285a8","1","2025-08-06T08:59:05.158Z","","","","ControlQ","","","","","","","","","","","50","","","","","","","","","","","","","","","","","","","","","","","","","","",""
"2040","","<div style=""width:500px;"">
  <p>How would you describe your current emotional state?</p>
  </div>","75","html-slider-response","46","521430","0.0-7.0-3.6","127","1","2025-08-06 08:50:24","36c45c0696341be0efffe67d72a12abb","95.68.64.32","Mozilla/5.0 (Windows NT 10.0; Win64; x64) AppleWebKit/537.36 (KHTML, like Gecko) Chrome/138.0.0.0 Safari/537.36","WebKit","Chrome","138.0.0.0","Windows","10.0","https://app.prolific.com/","lv-LV,lv;q=0.9,en-US;q=0.8,en;q=0.7","60196480480c1403e32285a8","687a1a965b9f5b85a264363e","6893174cfc78a5b5e9923772","1","60196480480c1403e32285a8","1","2025-08-06T08:59:07.199Z","","","","StressQ","","","","","","","","","","","50","","","","","","","","","","","","","","","","","","","","","","","","","","",""
"2528","","<div style=""width:500px;"">
  <p>What best describes how you currently feel?</p>
  </div>","98","html-slider-response","47","523959","0.0-7.0-4.6","127","1","2025-08-06 08:50:24","36c45c0696341be0efffe67d72a12abb","95.68.64.32","Mozilla/5.0 (Windows NT 10.0; Win64; x64) AppleWebKit/537.36 (KHTML, like Gecko) Chrome/138.0.0.0 Safari/537.36","WebKit","Chrome","138.0.0.0","Windows","10.0","https://app.prolific.com/","lv-LV,lv;q=0.9,en-US;q=0.8,en;q=0.7","60196480480c1403e32285a8","687a1a965b9f5b85a264363e","6893174cfc78a5b5e9923772","1","60196480480c1403e32285a8","1","2025-08-06T08:59:09.728Z","","","","MotivationQ","","","","","","","","","","","50","","","","","","","","","","","","","","","","","","","","","","","","","","",""
"","","","","ctl-task-cpt","48","574965","0.0-7.0-0.7","127","1","2025-08-06 08:50:24","36c45c0696341be0efffe67d72a12abb","95.68.64.32","Mozilla/5.0 (Windows NT 10.0; Win64; x64) AppleWebKit/537.36 (KHTML, like Gecko) Chrome/138.0.0.0 Safari/537.36","WebKit","Chrome","138.0.0.0","Windows","10.0","https://app.prolific.com/","lv-LV,lv;q=0.9,en-US;q=0.8,en;q=0.7","60196480480c1403e32285a8","687a1a965b9f5b85a264363e","6893174cfc78a5b5e9923772","1","60196480480c1403e32285a8","1","2025-08-06T09:00:00.734Z","","","","","","","","","","","","","","","","win-only","2","g1:SE,g2:NW","0.3","8","0","525102","690.7","5691.1","47986.4","1","4","4","6","1","-1","-1","8","9","0.06060606060606061","1773.3","3000","-3000","[""down"",""right""]","{""num_key_presses"":8,""num_perfect"":3,""num_errors"":0,""num_randdir"":5,""num_randdir_good_moves"":2,""num_whilered"":0,""num_whileblue"":0,""num_blue"":6,""num_good_moves"":5}","[420.57142857142856,428.47767857142856,0.1,420.57142857142856,428.47767857142856,100.7,420.57142857142856,428.47767857142856,205.8,420.57142857142856,428.47767857142856,306,420.57142857142856,428.47767857142856,406.2,472.57142857142856,469.47767857142856,506.3,523.5714285714286,515.4776785714286,609.9,537.5714285714286,525.4776785714286,712.1,435.57142857142856,444.47767857142856,815.6,86.57142857142857,148.47767857142856,920,78.57142857142857,137.47767857142856,1020,78.57142857142857,130.47767857142856,1120.8,79.57142857142857,127.47767857142857,1228.7,105.57142857142857,144.47767857142856,1330,683.5714285714286,581.4776785714286,1430.5,767.5714285714286,642.4776785714286,1530.7,767.5714285714286,684.4776785714286,1635.3,721.5714285714286,743.4776785714286,1735.4,720.5714285714286,751.4776785714286,1841.1,720.5714285714286,752.4776785714286,1941.2,724.5714285714286,757.4776785714286,2045.6,651.5714285714286,762.4776785714286,2149.9,535.5714285714286,684.4776785714286,2254.6,556.5714285714286,625.4776785714286,2354.9,678.5714285714286,547.4776785714286,2459.5,699.5714285714286,540.4776785714286,2559.9,705.5714285714286,542.4776785714286,2663.5,705.5714285714286,542.4776785714286,2764.9,705.5714285714286,542.4776785714286,2870.2,705.5714285714286,542.4776785714286,2977.7,705.5714285714286,542.4776785714286,3077.7,705.5714285714286,542.4776785714286,3178.6,705.5714285714286,542.4776785714286,3281.1,705.5714285714286,542.4776785714286,3385.6,705.5714285714286,542.4776785714286,3490.5,705.5714285714286,542.4776785714286,3595,705.5714285714286,542.4776785714286,3695.1,705.5714285714286,542.4776785714286,3796.9,705.5714285714286,542.4776785714286,3900.6,705.5714285714286,542.4776785714286,4005.1,705.5714285714286,542.4776785714286,4108.2,705.5714285714286,542.4776785714286,4209.8,705.5714285714286,542.4776785714286,4314.9,705.5714285714286,542.4776785714286,4415.3,705.5714285714286,542.4776785714286,4520.2,705.5714285714286,542.4776785714286,4620.6,705.5714285714286,542.4776785714286,4720.6,705.5714285714286,542.4776785714286,4820.6,705.5714285714286,542.4776785714286,4921.6]","[1423.6,1423.6,1000,0,423.6,""smooth"",""right"",""right"",""good_move"",6903.6,5479.7,2161.5,4369.7,372.4,""oops"",""down"",""down"",""good_move"",13215.5,6311.6,2916.4,9919.6,379.5,""oops"",""right"",""up"",""bad_move"",26896.3,13680.5,3170.6,23234.7,491,""smooth"",""down"",""down"",""good_move"",29079.6,2182.8,1781,26896.8,401.8,""oops"",""right"",""left"",""bad_move"",31199.1,2119.2,1772.8,29079.9,346.4,""oops"",""right"",""down"",""good_move"",33567.8,2368.5,2034.5,31199.3,334,""smooth"",""right"",""right"",""good_move"",39143.8,5575.6,2403.8,36397.2,342.8,""oops"",""right"",""left"",""bad_move""]"
"3426","","<div style=""width:500px;"">
  <p>What determined the result of this run?</p>
  </div>","0","html-slider-response","49","578391","0.0-7.0-1.7","127","1","2025-08-06 08:50:24","36c45c0696341be0efffe67d72a12abb","95.68.64.32","Mozilla/5.0 (Windows NT 10.0; Win64; x64) AppleWebKit/537.36 (KHTML, like Gecko) Chrome/138.0.0.0 Safari/537.36","WebKit","Chrome","138.0.0.0","Windows","10.0","https://app.prolific.com/","lv-LV,lv;q=0.9,en-US;q=0.8,en;q=0.7","60196480480c1403e32285a8","687a1a965b9f5b85a264363e","6893174cfc78a5b5e9923772","1","60196480480c1403e32285a8","1","2025-08-06T09:00:04.160Z","","","","AttribQ","","","","","","","","","","","50","","","","","","","","","","","","","","","","","","","","","","","","","","",""
"2207","","<div style=""width:500px;"">
  <p>How much control did you have over the ball?</p>
  </div>","0","html-slider-response","50","580599","0.0-7.0-2.7","127","1","2025-08-06 08:50:24","36c45c0696341be0efffe67d72a12abb","95.68.64.32","Mozilla/5.0 (Windows NT 10.0; Win64; x64) AppleWebKit/537.36 (KHTML, like Gecko) Chrome/138.0.0.0 Safari/537.36","WebKit","Chrome","138.0.0.0","Windows","10.0","https://app.prolific.com/","lv-LV,lv;q=0.9,en-US;q=0.8,en;q=0.7","60196480480c1403e32285a8","687a1a965b9f5b85a264363e","6893174cfc78a5b5e9923772","1","60196480480c1403e32285a8","1","2025-08-06T09:00:06.368Z","","","","ControlQ","","","","","","","","","","","50","","","","","","","","","","","","","","","","","","","","","","","","","","",""
"1914","","<div style=""width:500px;"">
  <p>How would you describe your current emotional state?</p>
  </div>","85","html-slider-response","51","582514","0.0-7.0-3.7","127","1","2025-08-06 08:50:24","36c45c0696341be0efffe67d72a12abb","95.68.64.32","Mozilla/5.0 (Windows NT 10.0; Win64; x64) AppleWebKit/537.36 (KHTML, like Gecko) Chrome/138.0.0.0 Safari/537.36","WebKit","Chrome","138.0.0.0","Windows","10.0","https://app.prolific.com/","lv-LV,lv;q=0.9,en-US;q=0.8,en;q=0.7","60196480480c1403e32285a8","687a1a965b9f5b85a264363e","6893174cfc78a5b5e9923772","1","60196480480c1403e32285a8","1","2025-08-06T09:00:08.283Z","","","","StressQ","","","","","","","","","","","50","","","","","","","","","","","","","","","","","","","","","","","","","","",""
"1276","","<div style=""width:500px;"">
  <p>What best describes how you currently feel?</p>
  </div>","79","html-slider-response","52","583790","0.0-7.0-4.7","127","1","2025-08-06 08:50:24","36c45c0696341be0efffe67d72a12abb","95.68.64.32","Mozilla/5.0 (Windows NT 10.0; Win64; x64) AppleWebKit/537.36 (KHTML, like Gecko) Chrome/138.0.0.0 Safari/537.36","WebKit","Chrome","138.0.0.0","Windows","10.0","https://app.prolific.com/","lv-LV,lv;q=0.9,en-US;q=0.8,en;q=0.7","60196480480c1403e32285a8","687a1a965b9f5b85a264363e","6893174cfc78a5b5e9923772","1","60196480480c1403e32285a8","1","2025-08-06T09:00:09.559Z","","","","MotivationQ","","","","","","","","","","","50","","","","","","","","","","","","","","","","","","","","","","","","","","",""
"","","","","ctl-task-cpt","53","633101","0.0-7.0-0.8","127","1","2025-08-06 08:50:24","36c45c0696341be0efffe67d72a12abb","95.68.64.32","Mozilla/5.0 (Windows NT 10.0; Win64; x64) AppleWebKit/537.36 (KHTML, like Gecko) Chrome/138.0.0.0 Safari/537.36","WebKit","Chrome","138.0.0.0","Windows","10.0","https://app.prolific.com/","lv-LV,lv;q=0.9,en-US;q=0.8,en;q=0.7","60196480480c1403e32285a8","687a1a965b9f5b85a264363e","6893174cfc78a5b5e9923772","1","60196480480c1403e32285a8","1","2025-08-06T09:00:58.870Z","","","","","","","","","","","","","","","","win-only","1","g1:NE,g2:SW","0.4","9","0","584931","908.2","5910.7","46291","1","4","8","6","2","-8","-11","0","8","0","872","3000","-3015","[""down"",""left""]","{""num_key_presses"":16,""num_perfect"":4,""num_errors"":3,""num_randdir"":6,""num_randdir_good_moves"":2,""num_whilered"":3,""num_whileblue"":0,""num_blue"":2,""num_good_moves"":6}","[417.57142857142856,424.47767857142856,0.1,417.57142857142856,424.47767857142856,102,417.57142857142856,424.47767857142856,202.6,417.57142857142856,424.47767857142856,307.4,433.57142857142856,414.47767857142856,407.9,433.57142857142856,414.47767857142856,512.9,229.57142857142856,634.4776785714286,612.9,151.57142857142856,704.4776785714286,717.2,95.57142857142857,751.4776785714286,817.9,95.57142857142857,751.4776785714286,922.2,95.57142857142857,751.4776785714286,1022.9,100.57142857142857,754.4776785714286,1127.2,301.57142857142856,712.4776785714286,1227.9,381.57142857142856,715.4776785714286,1328,501.57142857142856,756.4776785714286,1432.8,492.57142857142856,756.4776785714286,1538,492.57142857142856,756.4776785714286,1642.2,492.57142857142856,756.4776785714286,1742.8,492.57142857142856,756.4776785714286,1849.4,492.57142857142856,756.4776785714286,1949.9,492.57142857142856,756.4776785714286,2053.9,492.57142857142856,756.4776785714286,2157.9,492.57142857142856,756.4776785714286,2262.8,492.57142857142856,756.4776785714286,2371.2,492.57142857142856,756.4776785714286,2472.5,492.57142857142856,756.4776785714286,2577.2,492.57142857142856,756.4776785714286,2685.1,492.57142857142856,756.4776785714286,2789.3,492.57142857142856,756.4776785714286,2893,492.57142857142856,756.4776785714286,2997.5,492.57142857142856,756.4776785714286,3103.8,492.57142857142856,756.4776785714286,3207.1,492.57142857142856,756.4776785714286,3308.8,492.57142857142856,756.4776785714286,3419.1,492.57142857142856,756.4776785714286,3522.3,492.57142857142856,756.4776785714286,3627.4,492.57142857142856,756.4776785714286,3727.9,492.57142857142856,756.4776785714286,3827.9,492.57142857142856,756.4776785714286,3933.4,492.57142857142856,756.4776785714286,4037.1,492.57142857142856,756.4776785714286,4137.9,492.57142857142856,756.4776785714286,4242.1,492.57142857142856,756.4776785714286,4342.1,492.57142857142856,756.4776785714286,4443,492.57142857142856,756.4776785714286,4553.6,492.57142857142856,756.4776785714286,4656.7,492.57142857142856,756.4776785714286,4757.6,492.57142857142856,756.4776785714286,4857.9,492.57142857142856,756.4776785714286,4969.1]","[1398.5,1398.5,1000,0,398.5,""smooth"",""down"",""down"",""good_move"",7598.7,6199.9,2396.9,4894.7,307.1,""oops"",""down"",""right"",""bad_move"",10551,2952,2603.4,7599,348.6,""oops"",""down"",""left"",""good_move"",13559.2,3008,2701.1,10551.2,306.9,""oops"",""down"",""right"",""bad_move"",16454.9,2895.4,2551.5,13559.5,343.9,""oops"",""down"",""right"",""bad_move"",19766.9,3311.7,3003.5,16455.2,308.2,""smooth"",""down"",""down"",""good_move"",22263.9,2496.6,2199.8,19767.3,296.8,""smooth"",""down"",""down"",""good_move"",25495.1,3231,2967.4,22264.1,263.6,""oops"",""left"",""left"",""good_move"",31156.3,5660.9,2056,28760.2,340.1,""smooth"",""left"",""left"",""good_move"",31350.6,194.1,2759.1,31156.5,-2565,""error"",""-"",""-"",""no_move"",34119,2768.2,1518.1,32355,245.9,""oops"",""left"",""up"",""bad_move"",34686.7,567.5,1371.4,34119.2,-803.9,""error"",""-"",""-"",""no_move"",34871.3,184.5,1371.4,34119.2,-619.3,""while_red"",""-"",""-"",""no_move"",35071.3,384.5,1371.4,34119.2,-419.3,""while_red"",""-"",""-"",""no_move"",35178.5,491.7,1371.4,34119.2,-312.1,""while_red"",""-"",""-"",""no_move"",36254.8,1568,2255,35688.5,-1688.7,""error"",""-"",""-"",""no_move""]"
"1951","","<div style=""width:500px;"">
  <p>What determined the result of this run?</p>
  </div>","0","html-slider-response","54","635053","0.0-7.0-1.8","127","1","2025-08-06 08:50:24","36c45c0696341be0efffe67d72a12abb","95.68.64.32","Mozilla/5.0 (Windows NT 10.0; Win64; x64) AppleWebKit/537.36 (KHTML, like Gecko) Chrome/138.0.0.0 Safari/537.36","WebKit","Chrome","138.0.0.0","Windows","10.0","https://app.prolific.com/","lv-LV,lv;q=0.9,en-US;q=0.8,en;q=0.7","60196480480c1403e32285a8","687a1a965b9f5b85a264363e","6893174cfc78a5b5e9923772","1","60196480480c1403e32285a8","1","2025-08-06T09:01:00.822Z","","","","AttribQ","","","","","","","","","","","50","","","","","","","","","","","","","","","","","","","","","","","","","","",""
"1868","","<div style=""width:500px;"">
  <p>How much control did you have over the ball?</p>
  </div>","0","html-slider-response","55","636922","0.0-7.0-2.8","127","1","2025-08-06 08:50:24","36c45c0696341be0efffe67d72a12abb","95.68.64.32","Mozilla/5.0 (Windows NT 10.0; Win64; x64) AppleWebKit/537.36 (KHTML, like Gecko) Chrome/138.0.0.0 Safari/537.36","WebKit","Chrome","138.0.0.0","Windows","10.0","https://app.prolific.com/","lv-LV,lv;q=0.9,en-US;q=0.8,en;q=0.7","60196480480c1403e32285a8","687a1a965b9f5b85a264363e","6893174cfc78a5b5e9923772","1","60196480480c1403e32285a8","1","2025-08-06T09:01:02.691Z","","","","ControlQ","","","","","","","","","","","50","","","","","","","","","","","","","","","","","","","","","","","","","","",""
"1656","","<div style=""width:500px;"">
  <p>How would you describe your current emotional state?</p>
  </div>","100","html-slider-response","56","638579","0.0-7.0-3.8","127","1","2025-08-06 08:50:24","36c45c0696341be0efffe67d72a12abb","95.68.64.32","Mozilla/5.0 (Windows NT 10.0; Win64; x64) AppleWebKit/537.36 (KHTML, like Gecko) Chrome/138.0.0.0 Safari/537.36","WebKit","Chrome","138.0.0.0","Windows","10.0","https://app.prolific.com/","lv-LV,lv;q=0.9,en-US;q=0.8,en;q=0.7","60196480480c1403e32285a8","687a1a965b9f5b85a264363e","6893174cfc78a5b5e9923772","1","60196480480c1403e32285a8","1","2025-08-06T09:01:04.348Z","","","","StressQ","","","","","","","","","","","50","","","","","","","","","","","","","","","","","","","","","","","","","","",""
"2132","","<div style=""width:500px;"">
  <p>What best describes how you currently feel?</p>
  </div>","44","html-slider-response","57","640712","0.0-7.0-4.8","127","1","2025-08-06 08:50:24","36c45c0696341be0efffe67d72a12abb","95.68.64.32","Mozilla/5.0 (Windows NT 10.0; Win64; x64) AppleWebKit/537.36 (KHTML, like Gecko) Chrome/138.0.0.0 Safari/537.36","WebKit","Chrome","138.0.0.0","Windows","10.0","https://app.prolific.com/","lv-LV,lv;q=0.9,en-US;q=0.8,en;q=0.7","60196480480c1403e32285a8","687a1a965b9f5b85a264363e","6893174cfc78a5b5e9923772","1","60196480480c1403e32285a8","1","2025-08-06T09:01:06.481Z","","","","MotivationQ","","","","","","","","","","","50","","","","","","","","","","","","","","","","","","","","","","","","","","",""
"","","","","ctl-task-cpt","58","660422","0.0-7.0-0.9","127","1","2025-08-06 08:50:24","36c45c0696341be0efffe67d72a12abb","95.68.64.32","Mozilla/5.0 (Windows NT 10.0; Win64; x64) AppleWebKit/537.36 (KHTML, like Gecko) Chrome/138.0.0.0 Safari/537.36","WebKit","Chrome","138.0.0.0","Windows","10.0","https://app.prolific.com/","lv-LV,lv;q=0.9,en-US;q=0.8,en;q=0.7","60196480480c1403e32285a8","687a1a965b9f5b85a264363e","6893174cfc78a5b5e9923772","1","60196480480c1403e32285a8","1","2025-08-06T09:01:26.192Z","","","","","","","","","","","","","","","","win-only","2","g1:SE,g2:NW","0.5","10","0","641855","637.4","5642.7","16691.4","1","4","4","6","1","1","1","1","0","0.007575757575757576","1640.7","3000","1785","[""down"",""right""]","{""num_key_presses"":4,""num_perfect"":3,""num_errors"":0,""num_randdir"":1,""num_randdir_good_moves"":1,""num_whilered"":0,""num_whileblue"":0,""num_blue"":0,""num_good_moves"":4}","[410.57142857142856,412.47767857142856,0.2,410.57142857142856,412.47767857142856,103.1,410.57142857142856,412.47767857142856,206.2,410.57142857142856,412.47767857142856,308.1,410.57142857142856,412.47767857142856,413,411.57142857142856,412.47767857142856,513,414.57142857142856,413.47767857142856,613.5,414.57142857142856,413.47767857142856,715.3,387.57142857142856,382.47767857142856,818.8,313.57142857142856,317.47767857142856,923.7,223.57142857142856,249.47767857142856,1028.2,180.57142857142856,212.47767857142856,1128.2,678.5714285714286,610.4776785714286,1229.2,781.5714285714286,698.4776785714286,1333.7,769.5714285714286,703.4776785714286,1437.9,738.5714285714286,753.4776785714286,1538.2,738.5714285714286,754.4776785714286,1638.4,738.5714285714286,754.4776785714286,1738.6,738.5714285714286,754.4776785714286,1842.8,738.5714285714286,754.4776785714286,1943,744.5714285714286,745.4776785714286,2043,835.5714285714286,648.4776785714286,2143.5,875.5714285714286,630.4776785714286,2243.5,882.5714285714286,627.4776785714286,2348.4,882.5714285714286,627.4776785714286,2453.4,882.5714285714286,627.4776785714286,2558.6,882.5714285714286,627.4776785714286,2663.6,882.5714285714286,627.4776785714286,2769.3,882.5714285714286,627.4776785714286,2869.4,882.5714285714286,627.4776785714286,2972.8,882.5714285714286,627.4776785714286,3073.1,882.5714285714286,627.4776785714286,3173.1,882.5714285714286,627.4776785714286,3275.7,882.5714285714286,627.4776785714286,3378.5,882.5714285714286,627.4776785714286,3483.3,882.5714285714286,627.4776785714286,3587,882.5714285714286,627.4776785714286,3687.2,882.5714285714286,627.4776785714286,3787.3,882.5714285714286,627.4776785714286,3888.6,882.5714285714286,627.4776785714286,3989.5,882.5714285714286,627.4776785714286,4093.6,882.5714285714286,627.4776785714286,4203.9,882.5714285714286,627.4776785714286,4311.6,882.5714285714286,627.4776785714286,4421.1,882.5714285714286,627.4776785714286,4521.7,882.5714285714286,627.4776785714286,4622.3,882.5714285714286,627.4776785714286,4731.9,882.5714285714286,627.4776785714286,4838.1,882.5714285714286,627.4776785714286,4939.3]","[1446.8,1446.8,1000,0,446.8,""smooth"",""right"",""right"",""good_move"",4214.9,2767.8,2407.5,1447.1,360.3,""smooth"",""down"",""down"",""good_move"",7578,3362.7,3059.2,4215.3,303.5,""oops"",""right"",""right"",""good_move"",10950.3,3372.2,3046.4,7578.1,325.8,""smooth"",""down"",""down"",""good_move""]"
"2700","","<div style=""width:500px;"">
  <p>What determined the result of this run?</p>
  </div>","73","html-slider-response","59","663123","0.0-7.0-1.9","127","1","2025-08-06 08:50:24","36c45c0696341be0efffe67d72a12abb","95.68.64.32","Mozilla/5.0 (Windows NT 10.0; Win64; x64) AppleWebKit/537.36 (KHTML, like Gecko) Chrome/138.0.0.0 Safari/537.36","WebKit","Chrome","138.0.0.0","Windows","10.0","https://app.prolific.com/","lv-LV,lv;q=0.9,en-US;q=0.8,en;q=0.7","60196480480c1403e32285a8","687a1a965b9f5b85a264363e","6893174cfc78a5b5e9923772","1","60196480480c1403e32285a8","1","2025-08-06T09:01:28.892Z","","","","AttribQ","","","","","","","","","","","50","","","","","","","","","","","","","","","","","","","","","","","","","","",""
"2024","","<div style=""width:500px;"">
  <p>How much control did you have over the ball?</p>
  </div>","56","html-slider-response","60","665148","0.0-7.0-2.9","127","1","2025-08-06 08:50:24","36c45c0696341be0efffe67d72a12abb","95.68.64.32","Mozilla/5.0 (Windows NT 10.0; Win64; x64) AppleWebKit/537.36 (KHTML, like Gecko) Chrome/138.0.0.0 Safari/537.36","WebKit","Chrome","138.0.0.0","Windows","10.0","https://app.prolific.com/","lv-LV,lv;q=0.9,en-US;q=0.8,en;q=0.7","60196480480c1403e32285a8","687a1a965b9f5b85a264363e","6893174cfc78a5b5e9923772","1","60196480480c1403e32285a8","1","2025-08-06T09:01:30.917Z","","","","ControlQ","","","","","","","","","","","50","","","","","","","","","","","","","","","","","","","","","","","","","","",""
"4098","","<div style=""width:500px;"">
  <p>How would you describe your current emotional state?</p>
  </div>","100","html-slider-response","61","669247","0.0-7.0-3.9","127","1","2025-08-06 08:50:24","36c45c0696341be0efffe67d72a12abb","95.68.64.32","Mozilla/5.0 (Windows NT 10.0; Win64; x64) AppleWebKit/537.36 (KHTML, like Gecko) Chrome/138.0.0.0 Safari/537.36","WebKit","Chrome","138.0.0.0","Windows","10.0","https://app.prolific.com/","lv-LV,lv;q=0.9,en-US;q=0.8,en;q=0.7","60196480480c1403e32285a8","687a1a965b9f5b85a264363e","6893174cfc78a5b5e9923772","1","60196480480c1403e32285a8","1","2025-08-06T09:01:35.016Z","","","","StressQ","","","","","","","","","","","50","","","","","","","","","","","","","","","","","","","","","","","","","","",""
"2080","","<div style=""width:500px;"">
  <p>What best describes how you currently feel?</p>
  </div>","45","html-slider-response","62","671328","0.0-7.0-4.9","127","1","2025-08-06 08:50:24","36c45c0696341be0efffe67d72a12abb","95.68.64.32","Mozilla/5.0 (Windows NT 10.0; Win64; x64) AppleWebKit/537.36 (KHTML, like Gecko) Chrome/138.0.0.0 Safari/537.36","WebKit","Chrome","138.0.0.0","Windows","10.0","https://app.prolific.com/","lv-LV,lv;q=0.9,en-US;q=0.8,en;q=0.7","60196480480c1403e32285a8","687a1a965b9f5b85a264363e","6893174cfc78a5b5e9923772","1","60196480480c1403e32285a8","1","2025-08-06T09:01:37.097Z","","","","MotivationQ","","","","","","","","","","","50","","","","","","","","","","","","","","","","","","","","","","","","","","",""
"","","","","ctl-task-cpt","63","692847","0.0-7.0-0.10","127","1","2025-08-06 08:50:24","36c45c0696341be0efffe67d72a12abb","95.68.64.32","Mozilla/5.0 (Windows NT 10.0; Win64; x64) AppleWebKit/537.36 (KHTML, like Gecko) Chrome/138.0.0.0 Safari/537.36","WebKit","Chrome","138.0.0.0","Windows","10.0","https://app.prolific.com/","lv-LV,lv;q=0.9,en-US;q=0.8,en;q=0.7","60196480480c1403e32285a8","687a1a965b9f5b85a264363e","6893174cfc78a5b5e9923772","1","60196480480c1403e32285a8","1","2025-08-06T09:01:58.616Z","","","","","","","","","","","","","","","","win-only","2","g1:SE,g2:NW","0.6","11","0","672469.8","674.3","5676.2","18500.4","1","4","4","6","1","1","1","2","1","0.015151515151515152","1237","3000","1780","[""down"",""right""]","{""num_key_presses"":4,""num_perfect"":4,""num_errors"":0,""num_randdir"":0,""num_randdir_good_moves"":0,""num_whilered"":0,""num_whileblue"":0,""num_blue"":1,""num_good_moves"":4}","[416.57142857142856,412.47767857142856,0,416.57142857142856,412.47767857142856,100.9,416.57142857142856,412.47767857142856,205.9,416.57142857142856,412.47767857142856,311.3,417.57142857142856,412.47767857142856,415.9,422.57142857142856,415.47767857142856,519.1,424.57142857142856,418.47767857142856,620.8,424.57142857142856,426.47767857142856,721.4,424.57142857142856,431.47767857142856,826.2,551.5714285714286,547.4776785714286,926.4,659.5714285714286,696.4776785714286,1031.6,699.5714285714286,748.4776785714286,1136.2,771.5714285714286,789.4776785714286,1236.5,773.5714285714286,790.4776785714286,1351.2,773.5714285714286,790.4776785714286,1455.8,773.5714285714286,790.4776785714286,1555.9,828.5714285714286,705.4776785714286,1656.1,948.5714285714286,569.4776785714286,1756.2,1016.5714285714286,519.4776785714286,1856.2,1025.5714285714287,516.4776785714286,1956.8,1025.5714285714287,516.4776785714286,2060.9,1025.5714285714287,516.4776785714286,2161.4,1025.5714285714287,516.4776785714286,2266.1,1025.5714285714287,516.4776785714286,2366.4,1025.5714285714287,516.4776785714286,2466.5,1025.5714285714287,516.4776785714286,2571,1025.5714285714287,516.4776785714286,2671.5,1025.5714285714287,516.4776785714286,2775.9,1025.5714285714287,516.4776785714286,2876.6,1025.5714285714287,516.4776785714286,2981.3,1025.5714285714287,516.4776785714286,3086.1,1025.5714285714287,516.4776785714286,3186.1,1025.5714285714287,516.4776785714286,3286.3,1025.5714285714287,516.4776785714286,3387,1025.5714285714287,516.4776785714286,3491.1,1025.5714285714287,516.4776785714286,3597.9,1025.5714285714287,516.4776785714286,3700.9,1025.5714285714287,516.4776785714286,3801.2,1025.5714285714287,516.4776785714286,3901.3,1025.5714285714287,516.4776785714286,4001.8,1025.5714285714287,516.4776785714286,4106.1,1025.5714285714287,516.4776785714286,4211,1025.5714285714287,516.4776785714286,4311.3,1025.5714285714287,516.4776785714286,4415.9,1025.5714285714287,516.4776785714286,4518.3,1025.5714285714287,516.4776785714286,4621.1,1025.5714285714287,516.4776785714286,4726.2,1025.5714285714287,516.4776785714286,4826.2,1025.5714285714287,516.4776785714286,4926.3]","[4606.9,4606.9,2282.7,2004.4,319.8,""smooth"",""right"",""right"",""good_move"",7598.1,2990.9,2680.5,4607.2,310.4,""smooth"",""right"",""right"",""good_move"",10430.8,2832.5,2527.5,7598.3,305,""smooth"",""down"",""down"",""good_move"",12718.3,2287.3,1983.4,10431,303.9,""smooth"",""down"",""down"",""good_move""]"
"3304","","<div style=""width:500px;"">
  <p>What determined the result of this run?</p>
  </div>","25","html-slider-response","64","696152","0.0-7.0-1.10","127","1","2025-08-06 08:50:24","36c45c0696341be0efffe67d72a12abb","95.68.64.32","Mozilla/5.0 (Windows NT 10.0; Win64; x64) AppleWebKit/537.36 (KHTML, like Gecko) Chrome/138.0.0.0 Safari/537.36","WebKit","Chrome","138.0.0.0","Windows","10.0","https://app.prolific.com/","lv-LV,lv;q=0.9,en-US;q=0.8,en;q=0.7","60196480480c1403e32285a8","687a1a965b9f5b85a264363e","6893174cfc78a5b5e9923772","1","60196480480c1403e32285a8","1","2025-08-06T09:02:01.921Z","","","","AttribQ","","","","","","","","","","","50","","","","","","","","","","","","","","","","","","","","","","","","","","",""
"2941","","<div style=""width:500px;"">
  <p>How much control did you have over the ball?</p>
  </div>","60","html-slider-response","65","699094","0.0-7.0-2.10","127","1","2025-08-06 08:50:24","36c45c0696341be0efffe67d72a12abb","95.68.64.32","Mozilla/5.0 (Windows NT 10.0; Win64; x64) AppleWebKit/537.36 (KHTML, like Gecko) Chrome/138.0.0.0 Safari/537.36","WebKit","Chrome","138.0.0.0","Windows","10.0","https://app.prolific.com/","lv-LV,lv;q=0.9,en-US;q=0.8,en;q=0.7","60196480480c1403e32285a8","687a1a965b9f5b85a264363e","6893174cfc78a5b5e9923772","1","60196480480c1403e32285a8","1","2025-08-06T09:02:04.863Z","","","","ControlQ","","","","","","","","","","","50","","","","","","","","","","","","","","","","","","","","","","","","","","",""
"1792","","<div style=""width:500px;"">
  <p>How would you describe your current emotional state?</p>
  </div>","100","html-slider-response","66","700887","0.0-7.0-3.10","127","1","2025-08-06 08:50:24","36c45c0696341be0efffe67d72a12abb","95.68.64.32","Mozilla/5.0 (Windows NT 10.0; Win64; x64) AppleWebKit/537.36 (KHTML, like Gecko) Chrome/138.0.0.0 Safari/537.36","WebKit","Chrome","138.0.0.0","Windows","10.0","https://app.prolific.com/","lv-LV,lv;q=0.9,en-US;q=0.8,en;q=0.7","60196480480c1403e32285a8","687a1a965b9f5b85a264363e","6893174cfc78a5b5e9923772","1","60196480480c1403e32285a8","1","2025-08-06T09:02:06.656Z","","","","StressQ","","","","","","","","","","","50","","","","","","","","","","","","","","","","","","","","","","","","","","",""
"1288","","<div style=""width:500px;"">
  <p>What best describes how you currently feel?</p>
  </div>","41","html-slider-response","67","702176","0.0-7.0-4.10","127","1","2025-08-06 08:50:24","36c45c0696341be0efffe67d72a12abb","95.68.64.32","Mozilla/5.0 (Windows NT 10.0; Win64; x64) AppleWebKit/537.36 (KHTML, like Gecko) Chrome/138.0.0.0 Safari/537.36","WebKit","Chrome","138.0.0.0","Windows","10.0","https://app.prolific.com/","lv-LV,lv;q=0.9,en-US;q=0.8,en;q=0.7","60196480480c1403e32285a8","687a1a965b9f5b85a264363e","6893174cfc78a5b5e9923772","1","60196480480c1403e32285a8","1","2025-08-06T09:02:07.945Z","","","","MotivationQ","","","","","","","","","","","50","","","","","","","","","","","","","","","","","","","","","","","","","","",""
"","","","","ctl-task-cpt","68","733156","0.0-7.0-0.11","127","1","2025-08-06 08:50:24","36c45c0696341be0efffe67d72a12abb","95.68.64.32","Mozilla/5.0 (Windows NT 10.0; Win64; x64) AppleWebKit/537.36 (KHTML, like Gecko) Chrome/138.0.0.0 Safari/537.36","WebKit","Chrome","138.0.0.0","Windows","10.0","https://app.prolific.com/","lv-LV,lv;q=0.9,en-US;q=0.8,en;q=0.7","60196480480c1403e32285a8","687a1a965b9f5b85a264363e","6893174cfc78a5b5e9923772","1","60196480480c1403e32285a8","1","2025-08-06T09:02:38.925Z","","","","","","","","","","","","","","","","win-only","0","g1:NW,g2:SE","0.7","12","0","703317.6","790","5790.6","27960.3","1","4","8","6","2","8","8","10","2","0.07575757575757576","860.1","3000","725","[""down"",""right""]","{""num_key_presses"":8,""num_perfect"":7,""num_errors"":0,""num_randdir"":1,""num_randdir_good_moves"":0,""num_whilered"":0,""num_whileblue"":0,""num_blue"":0,""num_good_moves"":7}","[417.57142857142856,427.47767857142856,0.2,417.57142857142856,427.47767857142856,100.6,417.57142857142856,427.47767857142856,200.6,417.57142857142856,427.47767857142856,305.7,454.57142857142856,452.47767857142856,410.3,623.5714285714286,591.4776785714286,516.1,699.5714285714286,673.4776785714286,616.2,738.5714285714286,713.4776785714286,720.5,751.5714285714286,725.4776785714286,825.4,752.5714285714286,725.4776785714286,925.7,752.5714285714286,725.4776785714286,1025.7,752.5714285714286,725.4776785714286,1130.4,747.5714285714286,689.4776785714286,1230.7,734.5714285714286,568.4776785714286,1335.6,742.5714285714286,526.4776785714286,1442.9,753.5714285714286,507.47767857142856,1545.6,758.5714285714286,511.47767857142856,1651.1,758.5714285714286,511.47767857142856,1755.3,758.5714285714286,511.47767857142856,1855.8,758.5714285714286,511.47767857142856,1956.3,758.5714285714286,511.47767857142856,2060.7,758.5714285714286,511.47767857142856,2165.4,758.5714285714286,511.47767857142856,2265.5,758.5714285714286,511.47767857142856,2365.8,758.5714285714286,511.47767857142856,2466.1,758.5714285714286,511.47767857142856,2566.5,758.5714285714286,511.47767857142856,2670.6,758.5714285714286,511.47767857142856,2775.6,758.5714285714286,511.47767857142856,2881,758.5714285714286,511.47767857142856,2985.5,758.5714285714286,511.47767857142856,3086.1,758.5714285714286,511.47767857142856,3186.2,758.5714285714286,511.47767857142856,3290.5,758.5714285714286,511.47767857142856,3396.7,758.5714285714286,511.47767857142856,3500.9,758.5714285714286,511.47767857142856,3607.7,758.5714285714286,511.47767857142856,3710.6,758.5714285714286,511.47767857142856,3815.9,758.5714285714286,511.47767857142856,3916.1,758.5714285714286,511.47767857142856,4016.1,758.5714285714286,511.47767857142856,4120.3,758.5714285714286,511.47767857142856,4221,758.5714285714286,511.47767857142856,4325.8,758.5714285714286,511.47767857142856,4426,758.5714285714286,511.47767857142856,4530.7,758.5714285714286,511.47767857142856,4635.5,758.5714285714286,511.47767857142856,4735.5,758.5714285714286,511.47767857142856,4841,758.5714285714286,511.47767857142856,4945.3]","[1333.4,1333.4,1000,0,333.4,""oops"",""right"",""up"",""bad_move"",4835.5,3501.8,3218.3,1333.8,283.5,""smooth"",""down"",""down"",""good_move"",7699.7,2864,2586.9,4835.7,277.1,""smooth"",""down"",""down"",""good_move"",10755.7,3056,2719.6,7699.7,336.4,""smooth"",""down"",""down"",""good_move"",13548,2792.2,2472.5,10755.8,319.7,""smooth"",""down"",""down"",""good_move"",16379.9,2831.8,2568.7,13548.1,263.1,""smooth"",""right"",""right"",""good_move"",19539.8,3159.7,2821.3,16380.1,338.4,""smooth"",""right"",""right"",""good_move"",22084,2544,2228.8,19540,315.2,""smooth"",""right"",""right"",""good_move""]"
"2493","","<div style=""width:500px;"">
  <p>What determined the result of this run?</p>
  </div>","7","html-slider-response","69","735649","0.0-7.0-1.11","127","1","2025-08-06 08:50:24","36c45c0696341be0efffe67d72a12abb","95.68.64.32","Mozilla/5.0 (Windows NT 10.0; Win64; x64) AppleWebKit/537.36 (KHTML, like Gecko) Chrome/138.0.0.0 Safari/537.36","WebKit","Chrome","138.0.0.0","Windows","10.0","https://app.prolific.com/","lv-LV,lv;q=0.9,en-US;q=0.8,en;q=0.7","60196480480c1403e32285a8","687a1a965b9f5b85a264363e","6893174cfc78a5b5e9923772","1","60196480480c1403e32285a8","1","2025-08-06T09:02:41.418Z","","","","AttribQ","","","","","","","","","","","50","","","","","","","","","","","","","","","","","","","","","","","","","","",""
"1932","","<div style=""width:500px;"">
  <p>How much control did you have over the ball?</p>
  </div>","59","html-slider-response","70","737582","0.0-7.0-2.11","127","1","2025-08-06 08:50:24","36c45c0696341be0efffe67d72a12abb","95.68.64.32","Mozilla/5.0 (Windows NT 10.0; Win64; x64) AppleWebKit/537.36 (KHTML, like Gecko) Chrome/138.0.0.0 Safari/537.36","WebKit","Chrome","138.0.0.0","Windows","10.0","https://app.prolific.com/","lv-LV,lv;q=0.9,en-US;q=0.8,en;q=0.7","60196480480c1403e32285a8","687a1a965b9f5b85a264363e","6893174cfc78a5b5e9923772","1","60196480480c1403e32285a8","1","2025-08-06T09:02:43.351Z","","","","ControlQ","","","","","","","","","","","50","","","","","","","","","","","","","","","","","","","","","","","","","","",""
"1340","","<div style=""width:500px;"">
  <p>How would you describe your current emotional state?</p>
  </div>","100","html-slider-response","71","738923","0.0-7.0-3.11","127","1","2025-08-06 08:50:24","36c45c0696341be0efffe67d72a12abb","95.68.64.32","Mozilla/5.0 (Windows NT 10.0; Win64; x64) AppleWebKit/537.36 (KHTML, like Gecko) Chrome/138.0.0.0 Safari/537.36","WebKit","Chrome","138.0.0.0","Windows","10.0","https://app.prolific.com/","lv-LV,lv;q=0.9,en-US;q=0.8,en;q=0.7","60196480480c1403e32285a8","687a1a965b9f5b85a264363e","6893174cfc78a5b5e9923772","1","60196480480c1403e32285a8","1","2025-08-06T09:02:44.692Z","","","","StressQ","","","","","","","","","","","50","","","","","","","","","","","","","","","","","","","","","","","","","","",""
"1119","","<div style=""width:500px;"">
  <p>What best describes how you currently feel?</p>
  </div>","42","html-slider-response","72","740043","0.0-7.0-4.11","127","1","2025-08-06 08:50:24","36c45c0696341be0efffe67d72a12abb","95.68.64.32","Mozilla/5.0 (Windows NT 10.0; Win64; x64) AppleWebKit/537.36 (KHTML, like Gecko) Chrome/138.0.0.0 Safari/537.36","WebKit","Chrome","138.0.0.0","Windows","10.0","https://app.prolific.com/","lv-LV,lv;q=0.9,en-US;q=0.8,en;q=0.7","60196480480c1403e32285a8","687a1a965b9f5b85a264363e","6893174cfc78a5b5e9923772","1","60196480480c1403e32285a8","1","2025-08-06T09:02:45.812Z","","","","MotivationQ","","","","","","","","","","","50","","","","","","","","","","","","","","","","","","","","","","","","","","",""
"","","","","ctl-task-cpt","73","766828","0.0-7.0-0.12","127","1","2025-08-06 08:50:24","36c45c0696341be0efffe67d72a12abb","95.68.64.32","Mozilla/5.0 (Windows NT 10.0; Win64; x64) AppleWebKit/537.36 (KHTML, like Gecko) Chrome/138.0.0.0 Safari/537.36","WebKit","Chrome","138.0.0.0","Windows","10.0","https://app.prolific.com/","lv-LV,lv;q=0.9,en-US;q=0.8,en;q=0.7","60196480480c1403e32285a8","687a1a965b9f5b85a264363e","6893174cfc78a5b5e9923772","1","60196480480c1403e32285a8","1","2025-08-06T09:03:12.597Z","","","","","","","","","","","","","","","","win-only","2","g1:SE,g2:NW","0.8","13","0","741184.4","631.5","5632.9","23767.2","1","4","8","6","2","8","8","18","10","0.13636363636363635","1332","3000","715","[""left"",""up""]","{""num_key_presses"":6,""num_perfect"":5,""num_errors"":0,""num_randdir"":1,""num_randdir_good_moves"":1,""num_whilered"":0,""num_whileblue"":0,""num_blue"":1,""num_good_moves"":6}","[420.57142857142856,408.47767857142856,0.1,420.57142857142856,408.47767857142856,104.4,420.57142857142856,408.47767857142856,209.2,433.57142857142856,425.47767857142856,314.1,445.57142857142856,446.47767857142856,418.7,409.57142857142856,414.47767857142856,519.1,217.57142857142856,259.47767857142856,623.8,207.57142857142856,242.47767857142856,724.7,189.57142857142856,215.47767857142856,829.6,149.57142857142856,156.47767857142856,929.7,114.57142857142857,120.47767857142857,1034.1,109.57142857142857,115.47767857142857,1139.1,109.57142857142857,115.47767857142857,1239.1,109.57142857142857,115.47767857142857,1341,109.57142857142857,115.47767857142857,1446.6,191.57142857142856,153.47767857142856,1549.4,438.57142857142856,323.47767857142856,1654.3,477.57142857142856,443.47767857142856,1759.3,470.57142857142856,475.47767857142856,1863.9,470.57142857142856,475.47767857142856,1964.2,470.57142857142856,475.47767857142856,2068.6,470.57142857142856,475.47767857142856,2169.1,470.57142857142856,475.47767857142856,2274.4,470.57142857142856,475.47767857142856,2380.7,470.57142857142856,475.47767857142856,2484.3,470.57142857142856,475.47767857142856,2584.3,470.57142857142856,475.47767857142856,2685.9,470.57142857142856,475.47767857142856,2789.1,470.57142857142856,475.47767857142856,2889.5,470.57142857142856,475.47767857142856,2993.8,470.57142857142856,475.47767857142856,3094.5,470.57142857142856,475.47767857142856,3199.7,470.57142857142856,475.47767857142856,3303.6,470.57142857142856,475.47767857142856,3404.4,470.57142857142856,475.47767857142856,3509.1,470.57142857142856,475.47767857142856,3609.1,470.57142857142856,475.47767857142856,3709.1,470.57142857142856,475.47767857142856,3809.6,470.57142857142856,475.47767857142856,3913.8,470.57142857142856,475.47767857142856,4019.1,470.57142857142856,475.47767857142856,4124.6,470.57142857142856,475.47767857142856,4229.5,470.57142857142856,475.47767857142856,4333.9,470.57142857142856,475.47767857142856,4439,470.57142857142856,475.47767857142856,4539,470.57142857142856,475.47767857142856,4644.8,470.57142857142856,475.47767857142856,4749.2,470.57142857142856,475.47767857142856,4854,470.57142857142856,475.47767857142856,4954.8]","[1414.6,1414.6,1000,0,414.6,""smooth"",""left"",""left"",""good_move"",4526.4,3111.5,2785.4,1414.9,326.1,""smooth"",""up"",""up"",""good_move"",7110.6,2584,2218.1,4526.6,365.9,""smooth"",""up"",""up"",""good_move"",9302.5,2191.8,1815.4,7110.7,376.4,""smooth"",""left"",""left"",""good_move"",16174.7,6872,2716.1,13042.8,415.8,""oops"",""up"",""up"",""good_move"",18046.6,1871.7,1445.7,16174.9,426,""smooth"",""left"",""left"",""good_move""]"
"2629","","<div style=""width:500px;"">
  <p>What determined the result of this run?</p>
  </div>","11","html-slider-response","74","769458","0.0-7.0-1.12","127","1","2025-08-06 08:50:24","36c45c0696341be0efffe67d72a12abb","95.68.64.32","Mozilla/5.0 (Windows NT 10.0; Win64; x64) AppleWebKit/537.36 (KHTML, like Gecko) Chrome/138.0.0.0 Safari/537.36","WebKit","Chrome","138.0.0.0","Windows","10.0","https://app.prolific.com/","lv-LV,lv;q=0.9,en-US;q=0.8,en;q=0.7","60196480480c1403e32285a8","687a1a965b9f5b85a264363e","6893174cfc78a5b5e9923772","1","60196480480c1403e32285a8","1","2025-08-06T09:03:15.227Z","","","","AttribQ","","","","","","","","","","","50","","","","","","","","","","","","","","","","","","","","","","","","","","",""
"2225","","<div style=""width:500px;"">
  <p>How much control did you have over the ball?</p>
  </div>","66","html-slider-response","75","771684","0.0-7.0-2.12","127","1","2025-08-06 08:50:24","36c45c0696341be0efffe67d72a12abb","95.68.64.32","Mozilla/5.0 (Windows NT 10.0; Win64; x64) AppleWebKit/537.36 (KHTML, like Gecko) Chrome/138.0.0.0 Safari/537.36","WebKit","Chrome","138.0.0.0","Windows","10.0","https://app.prolific.com/","lv-LV,lv;q=0.9,en-US;q=0.8,en;q=0.7","60196480480c1403e32285a8","687a1a965b9f5b85a264363e","6893174cfc78a5b5e9923772","1","60196480480c1403e32285a8","1","2025-08-06T09:03:17.453Z","","","","ControlQ","","","","","","","","","","","50","","","","","","","","","","","","","","","","","","","","","","","","","","",""
"1836","","<div style=""width:500px;"">
  <p>How would you describe your current emotional state?</p>
  </div>","93","html-slider-response","76","773521","0.0-7.0-3.12","127","1","2025-08-06 08:50:24","36c45c0696341be0efffe67d72a12abb","95.68.64.32","Mozilla/5.0 (Windows NT 10.0; Win64; x64) AppleWebKit/537.36 (KHTML, like Gecko) Chrome/138.0.0.0 Safari/537.36","WebKit","Chrome","138.0.0.0","Windows","10.0","https://app.prolific.com/","lv-LV,lv;q=0.9,en-US;q=0.8,en;q=0.7","60196480480c1403e32285a8","687a1a965b9f5b85a264363e","6893174cfc78a5b5e9923772","1","60196480480c1403e32285a8","1","2025-08-06T09:03:19.290Z","","","","StressQ","","","","","","","","","","","50","","","","","","","","","","","","","","","","","","","","","","","","","","",""
"2996","","<div style=""width:500px;"">
  <p>What best describes how you currently feel?</p>
