"rt","response_timestamp","stimulus","response","trial_type","trial_index","time_elapsed","internal_node_id","run_id","condition","recorded_at","source_code_version","ip","user_agent","device","browser","browser_version","platform","platform_version","referer","accept_language","PROLIFIC_PID","STUDY_ID","SESSION_ID","BATCH","prolific_id","batch","realtime","success","question_order","question_id","eventType","responses","item_order","radio_event_ids","radio_event_times","key_event_times","mouse_event_times","straightlining","zigzagging","honeypot","view_history","slider_start","which_type","canvas_config","goals_layout","control_level","trial_number","tutorial_trial_number","trial_start_time","phase1_start_time","phase2_start_time","phase3_start_time","goal_1_value","goal_1_distance","goal_2_value","goal_2_distance","goal_selected","outcome","outcome_total","participant_final_score","participant_initial_score","participant_final_score_prop","goal_choice_rt","allocated_time","allocated_time_remaining","goal_direction","counts","mouse_movements","key_presses"
"21031","1754474517259","<p style='font-size:40px;line-height:1.25'><strong>Welcome to the experiment!</strong></p><p style='font-size:1.1em;line-height:1.25'>Thank you for participanting in our experiment again! You will be asked to play the Dysfunctional Ball Game again. We will briefly recap the rules before we start.</p><p style='font-size:1.1em;line-height:1.25'>Press <strong>Next</strong> to continue.</p>","0","custom-html-button-response","0","21034","0.0-0.0","172","1","2025-08-06 10:01:33","36c45c0696341be0efffe67d72a12abb","41.56.250.93","Mozilla/5.0 (Windows NT 10.0; Win64; x64) AppleWebKit/537.36 (KHTML, like Gecko) Chrome/139.0.0.0 Safari/537.36","WebKit","Chrome","139.0.0.0","Windows","10.0","https://app.prolific.com/","en-ZA,en-GB;q=0.9,en-US;q=0.8,en;q=0.7","60292aabf20c7d2af65541a7","6877649eabb845cf142cd221","689327da4072a99bf98a442e","1","60292aabf20c7d2af65541a7","1","2025-08-06T10:01:57.261Z","","","","","","","","","","","","","","","","","","","","","","","","","","","","","","","","","","","","","","","","","",""
"21525","","","","fullscreen","1","43576","0.0-1.0","172","1","2025-08-06 10:01:33","36c45c0696341be0efffe67d72a12abb","41.56.250.93","Mozilla/5.0 (Windows NT 10.0; Win64; x64) AppleWebKit/537.36 (KHTML, like Gecko) Chrome/139.0.0.0 Safari/537.36","WebKit","Chrome","139.0.0.0","Windows","10.0","https://app.prolific.com/","en-ZA,en-GB;q=0.9,en-US;q=0.8,en;q=0.7","60292aabf20c7d2af65541a7","6877649eabb845cf142cd221","689327da4072a99bf98a442e","1","60292aabf20c7d2af65541a7","1","","true","","","","","","","","","","","","","","","","","","","","","","","","","","","","","","","","","","","","","","","","",""
"4191","1754474543995"," <p style='font-size:1.1em;line-height:1.25'>Thank you for closing all other tabs.</p><p style='font-size:1.1em;line-height:1.25'>We will now invite you to fill in some questionnaires, before starting the game.<br>This will take about 5 minutes.<br></p><p style='font-size:1.1em;line-height:1.25'>Press the <strong>Next</strong> button to continue.</p>","0","custom-html-button-response","2","47769","0.0-2.0","172","1","2025-08-06 10:01:33","36c45c0696341be0efffe67d72a12abb","41.56.250.93","Mozilla/5.0 (Windows NT 10.0; Win64; x64) AppleWebKit/537.36 (KHTML, like Gecko) Chrome/139.0.0.0 Safari/537.36","WebKit","Chrome","139.0.0.0","Windows","10.0","https://app.prolific.com/","en-ZA,en-GB;q=0.9,en-US;q=0.8,en;q=0.7","60292aabf20c7d2af65541a7","6877649eabb845cf142cd221","689327da4072a99bf98a442e","1","60292aabf20c7d2af65541a7","1","2025-08-06T10:02:23.995Z","","","","","","","","","","","","","","","","","","","","","","","","","","","","","","","","","","","","","","","","","",""
"2136","","","{""assigned_sex"":""female""}","survey-multi-choice","3","49907","0.0-3.0-0.0","172","1","2025-08-06 10:01:33","36c45c0696341be0efffe67d72a12abb","41.56.250.93","Mozilla/5.0 (Windows NT 10.0; Win64; x64) AppleWebKit/537.36 (KHTML, like Gecko) Chrome/139.0.0.0 Safari/537.36","WebKit","Chrome","139.0.0.0","Windows","10.0","https://app.prolific.com/","en-ZA,en-GB;q=0.9,en-US;q=0.8,en;q=0.7","60292aabf20c7d2af65541a7","6877649eabb845cf142cd221","689327da4072a99bf98a442e","1","60292aabf20c7d2af65541a7","1","","","[0]","0","demographics","","","","","","","","","","","","","","","","","","","","","","","","","","","","","","","","","","","","","",""
"3461","1754474549595","<p style='font-size:1.1em;line-height:1.25'>In the following, we will perform a baseline assessment. This means that we will ask you a few questions relating to your experiences over the past month.<br></p><p style='font-size:1.1em;line-height:1.25'>Press the <strong>Next</strong> button to continue.</p>","0","custom-html-button-response","4","53369","0.0-4.0-0.0","172","1","2025-08-06 10:01:33","36c45c0696341be0efffe67d72a12abb","41.56.250.93","Mozilla/5.0 (Windows NT 10.0; Win64; x64) AppleWebKit/537.36 (KHTML, like Gecko) Chrome/139.0.0.0 Safari/537.36","WebKit","Chrome","139.0.0.0","Windows","10.0","https://app.prolific.com/","en-ZA,en-GB;q=0.9,en-US;q=0.8,en;q=0.7","60292aabf20c7d2af65541a7","6877649eabb845cf142cd221","689327da4072a99bf98a442e","1","60292aabf20c7d2af65541a7","1","2025-08-06T10:02:29.595Z","","","","","","","","","","","","","","","","","","","","","","","","","","","","","","","","","","","","","","","","","",""
"111448.89999999106","","","","survey-template","5","164822","0.0-4.0-1.0","172","1","2025-08-06 10:01:33","36c45c0696341be0efffe67d72a12abb","41.56.250.93","Mozilla/5.0 (Windows NT 10.0; Win64; x64) AppleWebKit/537.36 (KHTML, like Gecko) Chrome/139.0.0.0 Safari/537.36","WebKit","Chrome","139.0.0.0","Windows","10.0","https://app.prolific.com/","en-ZA,en-GB;q=0.9,en-US;q=0.8,en;q=0.7","60292aabf20c7d2af65541a7","6877649eabb845cf142cd221","689327da4072a99bf98a442e","1","60292aabf20c7d2af65541a7","1","2025-08-06T10:04:21.048Z","","","","pss","{""Q01"":""1"",""Q02"":""0"",""Q03"":""1"",""Q04"":""1"",""Q05"":""1"",""Q06"":""0"",""Q07"":""1"",""Q08"":""1"",""Q09"":""1"",""Q10"":""0""}","[0,1,2,3,4,5,6,7,8,9]","[""Q01"",""Q02"",""Q03"",""Q04"",""Q05"",""Q06"",""Q07"",""Q08"",""Q09"",""Q10"",""Q10""]","[20741.70000000298,31909.29999999702,35653.39999999106,46573.29999999702,51821,60733.29999999702,76741.29999999702,81813.09999999404,88005.29999999702,98717.29999999702,110629.20000000298]","[]","[0.09999999403953552,20741.70000000298,31909.29999999702,35653.39999999106,46573.29999999702,51821,60733.29999999702,75269.39999999106,76741.29999999702,81221.5,81813.09999999404,88005.29999999702,98717.29999999702,110085.29999999702,110629.20000000298,111445.39999999106]","0.4","0.3333333333333333","0","","","","","","","","","","","","","","","","","","","","","","","","","","","","",""
"1226","1754474662275","<p style='font-size:1.1em;line-height:1.25'>Thank you for your answers! Now we will ask you a few more questions relating to your feelings in the last 24 hours.<br></p><p style='font-size:1.1em;line-height:1.25'>Press the <strong>Next</strong> button to continue.</p>","0","custom-html-button-response","6","166049","0.0-4.0-2.0","172","1","2025-08-06 10:01:33","36c45c0696341be0efffe67d72a12abb","41.56.250.93","Mozilla/5.0 (Windows NT 10.0; Win64; x64) AppleWebKit/537.36 (KHTML, like Gecko) Chrome/139.0.0.0 Safari/537.36","WebKit","Chrome","139.0.0.0","Windows","10.0","https://app.prolific.com/","en-ZA,en-GB;q=0.9,en-US;q=0.8,en;q=0.7","60292aabf20c7d2af65541a7","6877649eabb845cf142cd221","689327da4072a99bf98a442e","1","60292aabf20c7d2af65541a7","1","2025-08-06T10:04:22.275Z","","","","","","","","","","","","","","","","","","","","","","","","","","","","","","","","","","","","","","","","","",""
"100946.89999999106","","","","survey-template","7","267000","0.0-4.0-3.0","172","1","2025-08-06 10:01:33","36c45c0696341be0efffe67d72a12abb","41.56.250.93","Mozilla/5.0 (Windows NT 10.0; Win64; x64) AppleWebKit/537.36 (KHTML, like Gecko) Chrome/139.0.0.0 Safari/537.36","WebKit","Chrome","139.0.0.0","Windows","10.0","https://app.prolific.com/","en-ZA,en-GB;q=0.9,en-US;q=0.8,en;q=0.7","60292aabf20c7d2af65541a7","6877649eabb845cf142cd221","689327da4072a99bf98a442e","1","60292aabf20c7d2af65541a7","1","2025-08-06T10:06:03.227Z","","","","drsp","{""Q01"":""0"",""Q02"":""0"",""Q03"":""0"",""Q04"":""0"",""Q05"":""0"",""Q06"":""0"",""Q07"":""0"",""Q08"":""0"",""Q09"":""0"",""Q10"":""0"",""Q11"":""1"",""Q12"":""0"",""Q13"":""5"",""Q14"":""0"",""Q15"":""1"",""Q16"":""0"",""Q17"":""0"",""Q18"":""0"",""Q19"":""0"",""Q20"":""0"",""Q21"":""0"",""Q22"":""0""}","[0,1,2,3,4,5,6,7,8,9,10,11,12,13,14,15,16,17,18,19,20,21]","[""Q01"",""Q02"",""Q03"",""Q04"",""Q05"",""Q06"",""Q07"",""Q08"",""Q09"",""Q10"",""Q11"",""Q12"",""Q13"",""Q14"",""Q15"",""Q16"",""Q17"",""Q18"",""Q15"",""Q19"",""Q20"",""Q21"",""Q22"",""Q11""]","[3941.199999988079,4549.29999999702,7893.199999988079,8724.89999999106,10005.199999988079,12421.29999999702,15317.199999988079,19477.39999999106,21573.29999999702,25157.19999998808,26869.09999999404,28493.39999999106,31589.19999998808,34365.19999998808,38349,41093.09999999404,42901.09999999404,45405.09999999404,56453.19999998808,66381.09999999404,70229.09999999404,73549.09999999404,76869.19999998808,96901.19999998808]","[]","[0.09999999403953552,3941.199999988079,4549.29999999702,5277.399999991059,6237,7157,7893.199999988079,8724.89999999106,10005.199999988079,12421.29999999702,13213.29999999702,15317.199999988079,16012.89999999106,16845.39999999106,17300.89999999106,18013.19999998808,18877.59999999404,19477.39999999106,21573.29999999702,25157.19999998808,26869.09999999404,28493.39999999106,30757.39999999106,31589.19999998808,34365.19999998808,38349,41093.09999999404,42237.29999999702,42901.09999999404,45405.09999999404,56453.19999998808,66381.09999999404,70229.09999999404,73549.09999999404,76869.19999998808,96901.19999998808,100941.19999998808]","0.8636363636363636","0.2857142857142857","0","","","","","","","","","","","","","","","","","","","","","","","","","","","","",""
"12407.5","","","","survey-template","8","279410","0.0-4.0-4.0","172","1","2025-08-06 10:01:33","36c45c0696341be0efffe67d72a12abb","41.56.250.93","Mozilla/5.0 (Windows NT 10.0; Win64; x64) AppleWebKit/537.36 (KHTML, like Gecko) Chrome/139.0.0.0 Safari/537.36","WebKit","Chrome","139.0.0.0","Windows","10.0","https://app.prolific.com/","en-ZA,en-GB;q=0.9,en-US;q=0.8,en;q=0.7","60292aabf20c7d2af65541a7","6877649eabb845cf142cd221","689327da4072a99bf98a442e","1","60292aabf20c7d2af65541a7","1","2025-08-06T10:06:15.636Z","","","","stress","{""Q01"":""0"",""Q02"":""2"",""Q03"":""0""}","[0,1,2]","[""Q01"",""Q02"",""Q02"",""Q03""]","[2934.300000011921,3974.4000000059605,7878.300000011921,11382.300000011921]","[]","[2934.300000011921,3974.4000000059605,6830.4000000059605,7878.300000011921,11382.300000011921,12406.300000011921]","0.6666666666666666","0","0","","","","","","","","","","","","","","","","","","","","","","","","","","","","",""
"2061","","","","instructions","9","281473","0.0-5.0-0.0","172","1","2025-08-06 10:01:33","36c45c0696341be0efffe67d72a12abb","41.56.250.93","Mozilla/5.0 (Windows NT 10.0; Win64; x64) AppleWebKit/537.36 (KHTML, like Gecko) Chrome/139.0.0.0 Safari/537.36","WebKit","Chrome","139.0.0.0","Windows","10.0","https://app.prolific.com/","en-ZA,en-GB;q=0.9,en-US;q=0.8,en;q=0.7","60292aabf20c7d2af65541a7","6877649eabb845cf142cd221","689327da4072a99bf98a442e","1","60292aabf20c7d2af65541a7","1","","","","","","","","","","","","","","","[{""page_index"":0,""viewing_time"":2061}]","","","","","","","","","","","","","","","","","","","","","","","","","","","",""
"3254","","<p>Before you start with this game please answer the following three questions yourself. </p>
  <p>Through this game, we measure several aspects of your cognitive performance, such as reaction times, multi-tasking capabilities </p>
  <p>and the ability to assess the situation you are in.</p>
  <p></p>
  <p><b>How good do you usually are in such tasks?</b></p>","87","html-slider-response","10","284729","0.0-6.0-0.0","172","1","2025-08-06 10:01:33","36c45c0696341be0efffe67d72a12abb","41.56.250.93","Mozilla/5.0 (Windows NT 10.0; Win64; x64) AppleWebKit/537.36 (KHTML, like Gecko) Chrome/139.0.0.0 Safari/537.36","WebKit","Chrome","139.0.0.0","Windows","10.0","https://app.prolific.com/","en-ZA,en-GB;q=0.9,en-US;q=0.8,en;q=0.7","60292aabf20c7d2af65541a7","6877649eabb845cf142cd221","689327da4072a99bf98a442e","1","60292aabf20c7d2af65541a7","1","2025-08-06T10:06:20.955Z","","","","PreSkillQ","","","","","","","","","","","50","","","","","","","","","","","","","","","","","","","","","","","","","","",""
"2751","","<div style=""width:500px;"">
  <p>How well do you think you will perform in this task compared to other participants?</p>
  </div>","85","html-slider-response","11","287481","0.0-6.0-1.0","172","1","2025-08-06 10:01:33","36c45c0696341be0efffe67d72a12abb","41.56.250.93","Mozilla/5.0 (Windows NT 10.0; Win64; x64) AppleWebKit/537.36 (KHTML, like Gecko) Chrome/139.0.0.0 Safari/537.36","WebKit","Chrome","139.0.0.0","Windows","10.0","https://app.prolific.com/","en-ZA,en-GB;q=0.9,en-US;q=0.8,en;q=0.7","60292aabf20c7d2af65541a7","6877649eabb845cf142cd221","689327da4072a99bf98a442e","1","60292aabf20c7d2af65541a7","1","2025-08-06T10:06:23.707Z","","","","PrePerfQ","","","","","","","","","","","50","","","","","","","","","","","","","","","","","","","","","","","","","","",""
"3671","","<div style=""width:500px;"">
  <p>What best describes how you currently feel?</p>
  </div>","100","html-slider-response","12","291153","0.0-6.0-2.0","172","1","2025-08-06 10:01:33","36c45c0696341be0efffe67d72a12abb","41.56.250.93","Mozilla/5.0 (Windows NT 10.0; Win64; x64) AppleWebKit/537.36 (KHTML, like Gecko) Chrome/139.0.0.0 Safari/537.36","WebKit","Chrome","139.0.0.0","Windows","10.0","https://app.prolific.com/","en-ZA,en-GB;q=0.9,en-US;q=0.8,en;q=0.7","60292aabf20c7d2af65541a7","6877649eabb845cf142cd221","689327da4072a99bf98a442e","1","60292aabf20c7d2af65541a7","1","2025-08-06T10:06:27.379Z","","","","PreMotivationQ","","","","","","","","","","","50","","","","","","","","","","","","","","","","","","","","","","","","","","",""
"","","","","ctl-task-cpt","13","315817","0.0-7.0-0.0","172","1","2025-08-06 10:01:33","36c45c0696341be0efffe67d72a12abb","41.56.250.93","Mozilla/5.0 (Windows NT 10.0; Win64; x64) AppleWebKit/537.36 (KHTML, like Gecko) Chrome/139.0.0.0 Safari/537.36","WebKit","Chrome","139.0.0.0","Windows","10.0","https://app.prolific.com/","en-ZA,en-GB;q=0.9,en-US;q=0.8,en;q=0.7","60292aabf20c7d2af65541a7","6877649eabb845cf142cd221","689327da4072a99bf98a442e","1","60292aabf20c7d2af65541a7","1","2025-08-06T10:06:52.043Z","","","","","","","","","","","","","","","","win-only","2","g1:SE,g2:NW","1","1","0","295175.7","1579.3","6579.9","21654.6","1","4","4","6","1","-1","-1","0","0","0","1211.5","3000","-2385","[""down"",""right""]","{""num_key_presses"":4,""num_perfect"":4,""num_errors"":0,""num_randdir"":0,""num_randdir_good_moves"":0,""num_whilered"":0,""num_whileblue"":0,""num_blue"":0,""num_good_moves"":3}","[350.14285714285717,353.04910714285717,0.3,350.14285714285717,353.04910714285717,100.8,350.14285714285717,353.04910714285717,201.5,350.14285714285717,353.04910714285717,306.9,350.14285714285717,353.04910714285717,408,350.14285714285717,353.04910714285717,508,350.14285714285717,360.04910714285717,612,272.14285714285717,343.04910714285717,718.2,306.14285714285717,378.04910714285717,821.9,644.1428571428571,606.0491071428571,922.7,655.1428571428571,628.0491071428571,1036.8,657.1428571428571,630.0491071428571,1137,657.1428571428571,630.0491071428571,1237.3,657.1428571428571,630.0491071428571,1352.1,657.1428571428571,626.0491071428571,1456.9,657.1428571428571,626.0491071428571,1557.1,612.1428571428571,616.0491071428571,1657.5,525.1428571428571,600.0491071428571,1757.5,443.14285714285717,582.0491071428571,1858.3,410.14285714285717,577.0491071428571,1962,410.14285714285717,577.0491071428571,2068.4,410.14285714285717,577.0491071428571,2173,410.14285714285717,577.0491071428571,2278.1,410.14285714285717,577.0491071428571,2384.7,410.14285714285717,577.0491071428571,2487,410.14285714285717,577.0491071428571,2591.9,410.14285714285717,577.0491071428571,2693,410.14285714285717,577.0491071428571,2804.2,410.14285714285717,577.0491071428571,2906.9,410.14285714285717,577.0491071428571,3007.9,410.14285714285717,577.0491071428571,3107.9,410.14285714285717,577.0491071428571,3217.6,410.14285714285717,577.0491071428571,3321.8,410.14285714285717,577.0491071428571,3421.8,410.14285714285717,577.0491071428571,3522.8,410.14285714285717,577.0491071428571,3626.8,410.14285714285717,577.0491071428571,3734.7,410.14285714285717,577.0491071428571,3836.5,410.14285714285717,577.0491071428571,3936.7,410.14285714285717,577.0491071428571,4036.7,410.14285714285717,577.0491071428571,4137.8,410.14285714285717,577.0491071428571,4241.6,410.14285714285717,577.0491071428571,4342.7,410.14285714285717,577.0491071428571,4450.4,410.14285714285717,577.0491071428571,4550.4,410.14285714285717,577.0491071428571,4650.4,410.14285714285717,577.0491071428571,4750.5,410.14285714285717,577.0491071428571,4851.1,410.14285714285717,577.0491071428571,4956.7]","[2412.5,2412.4,1000,0.1,1412.4,""smooth"",""up"",""up"",""bad_move"",6752.9,4338.6,3636,2414.4,702.5,""smooth"",""down"",""down"",""good_move"",9400.5,2646.8,2147.1,6753.7,499.7,""smooth"",""down"",""down"",""good_move"",12568.8,3167.8,2694.8,9401,473,""smooth"",""down"",""down"",""good_move""]"
"20510","","<div style=""width:500px;"">
  <p>What determined the result of this run?</p>
  </div>","100","html-slider-response","14","336329","0.0-7.0-1.0","172","1","2025-08-06 10:01:33","36c45c0696341be0efffe67d72a12abb","41.56.250.93","Mozilla/5.0 (Windows NT 10.0; Win64; x64) AppleWebKit/537.36 (KHTML, like Gecko) Chrome/139.0.0.0 Safari/537.36","WebKit","Chrome","139.0.0.0","Windows","10.0","https://app.prolific.com/","en-ZA,en-GB;q=0.9,en-US;q=0.8,en;q=0.7","60292aabf20c7d2af65541a7","6877649eabb845cf142cd221","689327da4072a99bf98a442e","1","60292aabf20c7d2af65541a7","1","2025-08-06T10:07:12.555Z","","","","AttribQ","","","","","","","","","","","50","","","","","","","","","","","","","","","","","","","","","","","","","","",""
"4022","","<div style=""width:500px;"">
  <p>How much control did you have over the ball?</p>
  </div>","100","html-slider-response","15","340353","0.0-7.0-2.0","172","1","2025-08-06 10:01:33","36c45c0696341be0efffe67d72a12abb","41.56.250.93","Mozilla/5.0 (Windows NT 10.0; Win64; x64) AppleWebKit/537.36 (KHTML, like Gecko) Chrome/139.0.0.0 Safari/537.36","WebKit","Chrome","139.0.0.0","Windows","10.0","https://app.prolific.com/","en-ZA,en-GB;q=0.9,en-US;q=0.8,en;q=0.7","60292aabf20c7d2af65541a7","6877649eabb845cf142cd221","689327da4072a99bf98a442e","1","60292aabf20c7d2af65541a7","1","2025-08-06T10:07:16.579Z","","","","ControlQ","","","","","","","","","","","50","","","","","","","","","","","","","","","","","","","","","","","","","","",""
"4447","","<div style=""width:500px;"">
  <p>How would you describe your current emotional state?</p>
  </div>","81","html-slider-response","16","344801","0.0-7.0-3.0","172","1","2025-08-06 10:01:33","36c45c0696341be0efffe67d72a12abb","41.56.250.93","Mozilla/5.0 (Windows NT 10.0; Win64; x64) AppleWebKit/537.36 (KHTML, like Gecko) Chrome/139.0.0.0 Safari/537.36","WebKit","Chrome","139.0.0.0","Windows","10.0","https://app.prolific.com/","en-ZA,en-GB;q=0.9,en-US;q=0.8,en;q=0.7","60292aabf20c7d2af65541a7","6877649eabb845cf142cd221","689327da4072a99bf98a442e","1","60292aabf20c7d2af65541a7","1","2025-08-06T10:07:21.027Z","","","","StressQ","","","","","","","","","","","50","","","","","","","","","","","","","","","","","","","","","","","","","","",""
"4127","","<div style=""width:500px;"">
  <p>What best describes how you currently feel?</p>
  </div>","100","html-slider-response","17","348929","0.0-7.0-4.0","172","1","2025-08-06 10:01:33","36c45c0696341be0efffe67d72a12abb","41.56.250.93","Mozilla/5.0 (Windows NT 10.0; Win64; x64) AppleWebKit/537.36 (KHTML, like Gecko) Chrome/139.0.0.0 Safari/537.36","WebKit","Chrome","139.0.0.0","Windows","10.0","https://app.prolific.com/","en-ZA,en-GB;q=0.9,en-US;q=0.8,en;q=0.7","60292aabf20c7d2af65541a7","6877649eabb845cf142cd221","689327da4072a99bf98a442e","1","60292aabf20c7d2af65541a7","1","2025-08-06T10:07:25.155Z","","","","MotivationQ","","","","","","","","","","","50","","","","","","","","","","","","","","","","","","","","","","","","","","",""
"","","","","ctl-task-cpt","18","385407","0.0-7.0-0.1","172","1","2025-08-06 10:01:33","36c45c0696341be0efffe67d72a12abb","41.56.250.93","Mozilla/5.0 (Windows NT 10.0; Win64; x64) AppleWebKit/537.36 (KHTML, like Gecko) Chrome/139.0.0.0 Safari/537.36","WebKit","Chrome","139.0.0.0","Windows","10.0","https://app.prolific.com/","en-ZA,en-GB;q=0.9,en-US;q=0.8,en;q=0.7","60292aabf20c7d2af65541a7","6877649eabb845cf142cd221","689327da4072a99bf98a442e","1","60292aabf20c7d2af65541a7","1","2025-08-06T10:08:01.634Z","","","","","","","","","","","","","","","","win-only","1","g1:NE,g2:SW","0.9","2","0","352951.1","7799.3","12801.5","33472.3","1","4","8","6","2","8","7","7","0","0.05303030303030303","1439.5","3000","420","[""down"",""left""]","{""num_key_presses"":7,""num_perfect"":5,""num_errors"":1,""num_randdir"":1,""num_randdir_good_moves"":1,""num_whilered"":0,""num_whileblue"":0,""num_blue"":0,""num_good_moves"":6}","[343.14285714285717,353.04910714285717,0.4,343.14285714285717,353.04910714285717,114.6,343.14285714285717,353.04910714285717,217.6,376.14285714285717,356.04910714285717,321,460.14285714285717,345.04910714285717,421,554.1428571428571,328.04910714285717,522.6,563.1428571428571,335.04910714285717,630.7,563.1428571428571,335.04910714285717,730.9,563.1428571428571,335.04910714285717,832.6,472.14285714285717,365.04910714285717,936,107.14285714285714,596.0491071428571,1037.4,36.142857142857146,654.0491071428571,1137.8,34.142857142857146,656.0491071428571,1237.8,41.142857142857146,648.0491071428571,1343.7,46.142857142857146,645.0491071428571,1449.3,46.142857142857146,645.0491071428571,1551.9,46.142857142857146,644.0491071428571,1653,110.14285714285714,638.0491071428571,1764.1,171.14285714285714,635.0491071428571,1864.7,216.14285714285714,635.0491071428571,1968,216.14285714285714,635.0491071428571,2068,217.14285714285714,635.0491071428571,2173.1,217.14285714285714,635.0491071428571,2286.9,202.14285714285714,630.0491071428571,2398.1,198.14285714285714,629.0491071428571,2501.8,198.14285714285714,629.0491071428571,2601.8,198.14285714285714,629.0491071428571,2702.9,198.14285714285714,629.0491071428571,2808.2,198.14285714285714,629.0491071428571,2912.3,198.14285714285714,629.0491071428571,3013.7,198.14285714285714,629.0491071428571,3114.9,198.14285714285714,629.0491071428571,3216.9,198.14285714285714,629.0491071428571,3316.9,198.14285714285714,629.0491071428571,3417.9,198.14285714285714,629.0491071428571,3521.8,198.14285714285714,629.0491071428571,3631.3,198.14285714285714,629.0491071428571,3736.6,198.14285714285714,629.0491071428571,3837.8,198.14285714285714,629.0491071428571,3947.8,198.14285714285714,629.0491071428571,4048.2,198.14285714285714,629.0491071428571,4152.7,198.14285714285714,629.0491071428571,4264.3,198.14285714285714,629.0491071428571,4366.7,198.14285714285714,629.0491071428571,4468.2,198.14285714285714,629.0491071428571,4569.3,198.14285714285714,629.0491071428571,4673.2,198.14285714285714,629.0491071428571,4778.2,198.14285714285714,629.0491071428571,4882.5,198.14285714285714,629.0491071428571,4986.8]","[540.6,540.6,1000,0,-459.3,""error"",""-"",""-"",""no_move"",4827.8,4286,2781.6,1544.5,501.7,""smooth"",""down"",""down"",""good_move"",8238.9,3410.4,2888.6,4828.6,521.8,""smooth"",""down"",""down"",""good_move"",11163.4,2924.2,2566.6,8239.3,357.6,""oops"",""left"",""left"",""good_move"",13891.5,2727.6,2298.7,11164,428.9,""smooth"",""left"",""left"",""good_move"",17390,3498.1,3071.2,13892,426.8,""smooth"",""left"",""left"",""good_move"",20579.6,3189.2,2813.1,17390.4,376.1,""smooth"",""down"",""down"",""good_move""]"
"3568","","<div style=""width:500px;"">
  <p>What determined the result of this run?</p>
  </div>","100","html-slider-response","19","388977","0.0-7.0-1.1","172","1","2025-08-06 10:01:33","36c45c0696341be0efffe67d72a12abb","41.56.250.93","Mozilla/5.0 (Windows NT 10.0; Win64; x64) AppleWebKit/537.36 (KHTML, like Gecko) Chrome/139.0.0.0 Safari/537.36","WebKit","Chrome","139.0.0.0","Windows","10.0","https://app.prolific.com/","en-ZA,en-GB;q=0.9,en-US;q=0.8,en;q=0.7","60292aabf20c7d2af65541a7","6877649eabb845cf142cd221","689327da4072a99bf98a442e","1","60292aabf20c7d2af65541a7","1","2025-08-06T10:08:05.203Z","","","","AttribQ","","","","","","","","","","","50","","","","","","","","","","","","","","","","","","","","","","","","","","",""
"2390","","<div style=""width:500px;"">
  <p>How much control did you have over the ball?</p>
  </div>","100","html-slider-response","20","391369","0.0-7.0-2.1","172","1","2025-08-06 10:01:33","36c45c0696341be0efffe67d72a12abb","41.56.250.93","Mozilla/5.0 (Windows NT 10.0; Win64; x64) AppleWebKit/537.36 (KHTML, like Gecko) Chrome/139.0.0.0 Safari/537.36","WebKit","Chrome","139.0.0.0","Windows","10.0","https://app.prolific.com/","en-ZA,en-GB;q=0.9,en-US;q=0.8,en;q=0.7","60292aabf20c7d2af65541a7","6877649eabb845cf142cd221","689327da4072a99bf98a442e","1","60292aabf20c7d2af65541a7","1","2025-08-06T10:08:07.595Z","","","","ControlQ","","","","","","","","","","","50","","","","","","","","","","","","","","","","","","","","","","","","","","",""
"5159","","<div style=""width:500px;"">
  <p>How would you describe your current emotional state?</p>
  </div>","58","html-slider-response","21","396529","0.0-7.0-3.1","172","1","2025-08-06 10:01:33","36c45c0696341be0efffe67d72a12abb","41.56.250.93","Mozilla/5.0 (Windows NT 10.0; Win64; x64) AppleWebKit/537.36 (KHTML, like Gecko) Chrome/139.0.0.0 Safari/537.36","WebKit","Chrome","139.0.0.0","Windows","10.0","https://app.prolific.com/","en-ZA,en-GB;q=0.9,en-US;q=0.8,en;q=0.7","60292aabf20c7d2af65541a7","6877649eabb845cf142cd221","689327da4072a99bf98a442e","1","60292aabf20c7d2af65541a7","1","2025-08-06T10:08:12.755Z","","","","StressQ","","","","","","","","","","","50","","","","","","","","","","","","","","","","","","","","","","","","","","",""
"3486","","<div style=""width:500px;"">
  <p>What best describes how you currently feel?</p>
  </div>","100","html-slider-response","22","400017","0.0-7.0-4.1","172","1","2025-08-06 10:01:33","36c45c0696341be0efffe67d72a12abb","41.56.250.93","Mozilla/5.0 (Windows NT 10.0; Win64; x64) AppleWebKit/537.36 (KHTML, like Gecko) Chrome/139.0.0.0 Safari/537.36","WebKit","Chrome","139.0.0.0","Windows","10.0","https://app.prolific.com/","en-ZA,en-GB;q=0.9,en-US;q=0.8,en;q=0.7","60292aabf20c7d2af65541a7","6877649eabb845cf142cd221","689327da4072a99bf98a442e","1","60292aabf20c7d2af65541a7","1","2025-08-06T10:08:16.243Z","","","","MotivationQ","","","","","","","","","","","50","","","","","","","","","","","","","","","","","","","","","","","","","","",""
"","","","","ctl-task-cpt","23","433533","0.0-7.0-0.2","172","1","2025-08-06 10:01:33","36c45c0696341be0efffe67d72a12abb","41.56.250.93","Mozilla/5.0 (Windows NT 10.0; Win64; x64) AppleWebKit/537.36 (KHTML, like Gecko) Chrome/139.0.0.0 Safari/537.36","WebKit","Chrome","139.0.0.0","Windows","10.0","https://app.prolific.com/","en-ZA,en-GB;q=0.9,en-US;q=0.8,en;q=0.7","60292aabf20c7d2af65541a7","6877649eabb845cf142cd221","689327da4072a99bf98a442e","1","60292aabf20c7d2af65541a7","1","2025-08-06T10:08:49.760Z","","","","","","","","","","","","","","","","win-only","1","g1:NE,g2:SW","0.8","3","0","404039.3","1518.8","6519.7","30505.4","1","4","4","6","2","4","4","11","7","0.08333333333333333","934.5","3000","860","[""down"",""left""]","{""num_key_presses"":6,""num_perfect"":6,""num_errors"":0,""num_randdir"":0,""num_randdir_good_moves"":0,""num_whilered"":0,""num_whileblue"":0,""num_blue"":2,""num_good_moves"":6}","[350.14285714285717,348.04910714285717,0.3,350.14285714285717,348.04910714285717,102.1,350.14285714285717,348.04910714285717,202.2,350.14285714285717,348.04910714285717,307.2,346.14285714285717,333.04910714285717,407.2,240.14285714285714,506.04910714285717,508.3,137.14285714285714,587.0491071428571,617.7,118.14285714285714,607.0491071428571,722.2,92.14285714285714,630.0491071428571,822.4,90.14285714285714,632.0491071428571,937.3,90.14285714285714,632.0491071428571,1043.3,132.14285714285714,627.0491071428571,1152.6,216.14285714285714,590.0491071428571,1257.3,227.14285714285714,565.0491071428571,1358.3,231.14285714285714,564.0491071428571,1469.5,232.14285714285714,564.0491071428571,1573.2,232.14285714285714,564.0491071428571,1677.5,232.14285714285714,564.0491071428571,1777.5,232.14285714285714,564.0491071428571,1883.9,232.14285714285714,564.0491071428571,1984.1,232.14285714285714,564.0491071428571,2084.8,232.14285714285714,564.0491071428571,2187.2,232.14285714285714,564.0491071428571,2288.1,232.14285714285714,564.0491071428571,2388.1,232.14285714285714,564.0491071428571,2492.1,232.14285714285714,564.0491071428571,2601.4,232.14285714285714,564.0491071428571,2703.1,232.14285714285714,564.0491071428571,2817.9,232.14285714285714,564.0491071428571,2922.1,232.14285714285714,564.0491071428571,3022.4,232.14285714285714,564.0491071428571,3127.9,232.14285714285714,564.0491071428571,3233.3,232.14285714285714,564.0491071428571,3335.2,232.14285714285714,564.0491071428571,3437,232.14285714285714,564.0491071428571,3537.1,232.14285714285714,564.0491071428571,3642.1,232.14285714285714,564.0491071428571,3742.1,232.14285714285714,564.0491071428571,3850.8,232.14285714285714,564.0491071428571,3951.4,232.14285714285714,564.0491071428571,4053.1,232.14285714285714,564.0491071428571,4158,232.14285714285714,564.0491071428571,4258,232.14285714285714,564.0491071428571,4358,232.14285714285714,564.0491071428571,4461.9,232.14285714285714,564.0491071428571,4566.8,232.14285714285714,564.0491071428571,4667.5,232.14285714285714,564.0491071428571,4768,232.14285714285714,564.0491071428571,4873,232.14285714285714,564.0491071428571,4977.2]","[5133.6,5133.6,2644.8,2006,482.8,""smooth"",""down"",""down"",""good_move"",8717.1,3583.1,3004.6,5134,578.5,""smooth"",""down"",""down"",""good_move"",11597.1,2879.8,2454.3,8717.4,425.4,""smooth"",""down"",""down"",""good_move"",14293.2,2695.8,2290.8,11597.4,405,""smooth"",""left"",""left"",""good_move"",16949.2,2655.1,2243.6,14294.1,411.5,""smooth"",""left"",""left"",""good_move"",23877.8,6928.4,3124.6,20336.7,416.5,""smooth"",""left"",""left"",""good_move""]"
"3082","","<div style=""width:500px;"">
  <p>What determined the result of this run?</p>
  </div>","100","html-slider-response","24","436617","0.0-7.0-1.2","172","1","2025-08-06 10:01:33","36c45c0696341be0efffe67d72a12abb","41.56.250.93","Mozilla/5.0 (Windows NT 10.0; Win64; x64) AppleWebKit/537.36 (KHTML, like Gecko) Chrome/139.0.0.0 Safari/537.36","WebKit","Chrome","139.0.0.0","Windows","10.0","https://app.prolific.com/","en-ZA,en-GB;q=0.9,en-US;q=0.8,en;q=0.7","60292aabf20c7d2af65541a7","6877649eabb845cf142cd221","689327da4072a99bf98a442e","1","60292aabf20c7d2af65541a7","1","2025-08-06T10:08:52.843Z","","","","AttribQ","","","","","","","","","","","50","","","","","","","","","","","","","","","","","","","","","","","","","","",""
"37440","","<div style=""width:500px;"">
  <p>How much control did you have over the ball?</p>
  </div>","100","html-slider-response","25","474059","0.0-7.0-2.2","172","1","2025-08-06 10:01:33","36c45c0696341be0efffe67d72a12abb","41.56.250.93","Mozilla/5.0 (Windows NT 10.0; Win64; x64) AppleWebKit/537.36 (KHTML, like Gecko) Chrome/139.0.0.0 Safari/537.36","WebKit","Chrome","139.0.0.0","Windows","10.0","https://app.prolific.com/","en-ZA,en-GB;q=0.9,en-US;q=0.8,en;q=0.7","60292aabf20c7d2af65541a7","6877649eabb845cf142cd221","689327da4072a99bf98a442e","1","60292aabf20c7d2af65541a7","1","2025-08-06T10:09:30.285Z","","","","ControlQ","","","","","","","","","","","50","","","","","","","","","","","","","","","","","","","","","","","","","","",""
"4012","","<div style=""width:500px;"">
  <p>How would you describe your current emotional state?</p>
  </div>","32","html-slider-response","26","478073","0.0-7.0-3.2","172","1","2025-08-06 10:01:33","36c45c0696341be0efffe67d72a12abb","41.56.250.93","Mozilla/5.0 (Windows NT 10.0; Win64; x64) AppleWebKit/537.36 (KHTML, like Gecko) Chrome/139.0.0.0 Safari/537.36","WebKit","Chrome","139.0.0.0","Windows","10.0","https://app.prolific.com/","en-ZA,en-GB;q=0.9,en-US;q=0.8,en;q=0.7","60292aabf20c7d2af65541a7","6877649eabb845cf142cd221","689327da4072a99bf98a442e","1","60292aabf20c7d2af65541a7","1","2025-08-06T10:09:34.299Z","","","","StressQ","","","","","","","","","","","50","","","","","","","","","","","","","","","","","","","","","","","","","","",""
"2767","","<div style=""width:500px;"">
  <p>What best describes how you currently feel?</p>
  </div>","100","html-slider-response","27","480841","0.0-7.0-4.2","172","1","2025-08-06 10:01:33","36c45c0696341be0efffe67d72a12abb","41.56.250.93","Mozilla/5.0 (Windows NT 10.0; Win64; x64) AppleWebKit/537.36 (KHTML, like Gecko) Chrome/139.0.0.0 Safari/537.36","WebKit","Chrome","139.0.0.0","Windows","10.0","https://app.prolific.com/","en-ZA,en-GB;q=0.9,en-US;q=0.8,en;q=0.7","60292aabf20c7d2af65541a7","6877649eabb845cf142cd221","689327da4072a99bf98a442e","1","60292aabf20c7d2af65541a7","1","2025-08-06T10:09:37.067Z","","","","MotivationQ","","","","","","","","","","","50","","","","","","","","","","","","","","","","","","","","","","","","","","",""
"","","","","ctl-task-cpt","28","514025","0.0-7.0-0.3","172","1","2025-08-06 10:01:33","36c45c0696341be0efffe67d72a12abb","41.56.250.93","Mozilla/5.0 (Windows NT 10.0; Win64; x64) AppleWebKit/537.36 (KHTML, like Gecko) Chrome/139.0.0.0 Safari/537.36","WebKit","Chrome","139.0.0.0","Windows","10.0","https://app.prolific.com/","en-ZA,en-GB;q=0.9,en-US;q=0.8,en;q=0.7","60292aabf20c7d2af65541a7","6877649eabb845cf142cd221","689327da4072a99bf98a442e","1","60292aabf20c7d2af65541a7","1","2025-08-06T10:10:10.251Z","","","","","","","","","","","","","","","","win-only","1","g1:NE,g2:SW","0.7","4","0","484863.6","1231.6","6234.6","30167.1","1","4","8","6","2","8","8","19","11","0.14393939393939395","1326.6","3000","680","[""down"",""left""]","{""num_key_presses"":6,""num_perfect"":5,""num_errors"":0,""num_randdir"":1,""num_randdir_good_moves"":1,""num_whilered"":0,""num_whileblue"":0,""num_blue"":2,""num_good_moves"":6}","[354.14285714285717,349.04910714285717,0.5,354.14285714285717,349.04910714285717,103.8,353.14285714285717,348.04910714285717,205.3,353.14285714285717,348.04910714285717,310.2,364.14285714285717,344.04910714285717,414.2,396.14285714285717,340.04910714285717,521.3,396.14285714285717,340.04910714285717,625.2,418.14285714285717,339.04910714285717,730.2,269.14285714285717,426.04910714285717,835.3,95.14285714285714,551.0491071428571,935.6,79.14285714285714,576.0491071428571,1038.8,74.14285714285714,584.0491071428571,1139.3,62.142857142857146,611.0491071428571,1239.3,45.142857142857146,629.0491071428571,1339.3,45.142857142857146,629.0491071428571,1444.1,51.142857142857146,623.0491071428571,1544.1,53.142857142857146,620.0491071428571,1644.3,142.14285714285714,597.0491071428571,1749.6,269.14285714285717,523.0491071428571,1854.4,310.14285714285717,500.04910714285717,1960.3,310.14285714285717,500.04910714285717,2060.5,310.14285714285717,500.04910714285717,2164.4,310.14285714285717,500.04910714285717,2265.4,310.14285714285717,500.04910714285717,2370.2,310.14285714285717,500.04910714285717,2474.3,310.14285714285717,500.04910714285717,2575.1,310.14285714285717,500.04910714285717,2679.5,310.14285714285717,500.04910714285717,2779.6,310.14285714285717,500.04910714285717,2884.3,310.14285714285717,500.04910714285717,2990.1,310.14285714285717,500.04910714285717,3103,310.14285714285717,500.04910714285717,3203.4,310.14285714285717,500.04910714285717,3305.1,310.14285714285717,500.04910714285717,3409.1,310.14285714285717,500.04910714285717,3518.5,310.14285714285717,500.04910714285717,3620.1,310.14285714285717,500.04910714285717,3721.5,310.14285714285717,500.04910714285717,3825.1,310.14285714285717,500.04910714285717,3929.5,310.14285714285717,500.04910714285717,4036.6,310.14285714285717,500.04910714285717,4140,310.14285714285717,500.04910714285717,4243.9,310.14285714285717,500.04910714285717,4352.6,310.14285714285717,500.04910714285717,4453,310.14285714285717,500.04910714285717,4554,310.14285714285717,500.04910714285717,4654,310.14285714285717,500.04910714285717,4759,310.14285714285717,500.04910714285717,4859,310.14285714285717,500.04910714285717,4960]","[1482.5,1482.5,1000,0,482.5,""smooth"",""down"",""down"",""good_move"",3641.6,2158.4,1708.6,1483.2,449.8,""smooth"",""left"",""left"",""good_move"",6874,3231.5,2475.8,3642.5,755.7,""smooth"",""down"",""down"",""good_move"",14062.6,7188.1,2500.3,11165.9,396.4,""smooth"",""left"",""left"",""good_move"",20744.9,6682,2892.5,17431.7,420.7,""smooth"",""down"",""down"",""good_move"",23827.1,3082,2561.2,20745.3,520.7,""oops"",""left"",""left"",""good_move""]"
"8575","","<div style=""width:500px;"">
  <p>What determined the result of this run?</p>
  </div>","100","html-slider-response","29","522601","0.0-7.0-1.3","172","1","2025-08-06 10:01:33","36c45c0696341be0efffe67d72a12abb","41.56.250.93","Mozilla/5.0 (Windows NT 10.0; Win64; x64) AppleWebKit/537.36 (KHTML, like Gecko) Chrome/139.0.0.0 Safari/537.36","WebKit","Chrome","139.0.0.0","Windows","10.0","https://app.prolific.com/","en-ZA,en-GB;q=0.9,en-US;q=0.8,en;q=0.7","60292aabf20c7d2af65541a7","6877649eabb845cf142cd221","689327da4072a99bf98a442e","1","60292aabf20c7d2af65541a7","1","2025-08-06T10:10:18.827Z","","","","AttribQ","","","","","","","","","","","50","","","","","","","","","","","","","","","","","","","","","","","","","","",""
"2358","","<div style=""width:500px;"">
  <p>How much control did you have over the ball?</p>
  </div>","100","html-slider-response","30","524961","0.0-7.0-2.3","172","1","2025-08-06 10:01:33","36c45c0696341be0efffe67d72a12abb","41.56.250.93","Mozilla/5.0 (Windows NT 10.0; Win64; x64) AppleWebKit/537.36 (KHTML, like Gecko) Chrome/139.0.0.0 Safari/537.36","WebKit","Chrome","139.0.0.0","Windows","10.0","https://app.prolific.com/","en-ZA,en-GB;q=0.9,en-US;q=0.8,en;q=0.7","60292aabf20c7d2af65541a7","6877649eabb845cf142cd221","689327da4072a99bf98a442e","1","60292aabf20c7d2af65541a7","1","2025-08-06T10:10:21.187Z","","","","ControlQ","","","","","","","","","","","50","","","","","","","","","","","","","","","","","","","","","","","","","","",""
"2326","","<div style=""width:500px;"">
  <p>How would you describe your current emotional state?</p>
  </div>","9","html-slider-response","31","527289","0.0-7.0-3.3","172","1","2025-08-06 10:01:33","36c45c0696341be0efffe67d72a12abb","41.56.250.93","Mozilla/5.0 (Windows NT 10.0; Win64; x64) AppleWebKit/537.36 (KHTML, like Gecko) Chrome/139.0.0.0 Safari/537.36","WebKit","Chrome","139.0.0.0","Windows","10.0","https://app.prolific.com/","en-ZA,en-GB;q=0.9,en-US;q=0.8,en;q=0.7","60292aabf20c7d2af65541a7","6877649eabb845cf142cd221","689327da4072a99bf98a442e","1","60292aabf20c7d2af65541a7","1","2025-08-06T10:10:23.515Z","","","","StressQ","","","","","","","","","","","50","","","","","","","","","","","","","","","","","","","","","","","","","","",""
"2831","","<div style=""width:500px;"">
  <p>What best describes how you currently feel?</p>
  </div>","100","html-slider-response","32","530121","0.0-7.0-4.3","172","1","2025-08-06 10:01:33","36c45c0696341be0efffe67d72a12abb","41.56.250.93","Mozilla/5.0 (Windows NT 10.0; Win64; x64) AppleWebKit/537.36 (KHTML, like Gecko) Chrome/139.0.0.0 Safari/537.36","WebKit","Chrome","139.0.0.0","Windows","10.0","https://app.prolific.com/","en-ZA,en-GB;q=0.9,en-US;q=0.8,en;q=0.7","60292aabf20c7d2af65541a7","6877649eabb845cf142cd221","689327da4072a99bf98a442e","1","60292aabf20c7d2af65541a7","1","2025-08-06T10:10:26.347Z","","","","MotivationQ","","","","","","","","","","","50","","","","","","","","","","","","","","","","","","","","","","","","","","",""
"","","","","ctl-task-cpt","33","581799","0.0-7.0-0.4","172","1","2025-08-06 10:01:33","36c45c0696341be0efffe67d72a12abb","41.56.250.93","Mozilla/5.0 (Windows NT 10.0; Win64; x64) AppleWebKit/537.36 (KHTML, like Gecko) Chrome/139.0.0.0 Safari/537.36","WebKit","Chrome","139.0.0.0","Windows","10.0","https://app.prolific.com/","en-ZA,en-GB;q=0.9,en-US;q=0.8,en;q=0.7","60292aabf20c7d2af65541a7","6877649eabb845cf142cd221","689327da4072a99bf98a442e","1","60292aabf20c7d2af65541a7","1","2025-08-06T10:11:18.026Z","","","","","","","","","","","","","","","","win-only","0","g1:NW,g2:SE","0.6","5","0","534143.5","1798.8","6799.6","48647.3","1","4","4","6","2","-4","-5","14","19","0.10606060606060606","1201","3000","-2330","[""down"",""right""]","{""num_key_presses"":9,""num_perfect"":4,""num_errors"":1,""num_randdir"":4,""num_randdir_good_moves"":1,""num_whilered"":0,""num_whileblue"":0,""num_blue"":4,""num_good_moves"":5}","[350.14285714285717,344.04910714285717,0.3,349.14285714285717,343.04910714285717,101.4,349.14285714285717,343.04910714285717,202.1,349.14285714285717,343.04910714285717,302.3,349.14285714285717,343.04910714285717,406.9,349.14285714285717,343.04910714285717,513.2,351.14285714285717,369.04910714285717,618.1,406.14285714285717,473.04910714285717,719.4,564.1428571428571,596.0491071428571,825.3,572.1428571428571,611.0491071428571,926.8,600.1428571428571,632.0491071428571,1031,603.1428571428571,633.0491071428571,1135.2,605.1428571428571,633.0491071428571,1237.1,605.1428571428571,633.0491071428571,1337.1,605.1428571428571,633.0491071428571,1437.1,605.1428571428571,633.0491071428571,1537.1,507.14285714285717,559.0491071428571,1638.3,488.14285714285717,526.0491071428571,1752.3,493.14285714285717,517.0491071428571,1853.1,493.14285714285717,517.0491071428571,1957,493.14285714285717,517.0491071428571,2066.2,493.14285714285717,517.0491071428571,2167.2,494.14285714285717,497.04910714285717,2267.2,490.14285714285717,494.04910714285717,2372,476.14285714285717,488.04910714285717,2482.3,476.14285714285717,488.04910714285717,2587,476.14285714285717,488.04910714285717,2687,476.14285714285717,488.04910714285717,2788,476.14285714285717,488.04910714285717,2892.3,476.14285714285717,488.04910714285717,2992.4,476.14285714285717,488.04910714285717,3098.2,476.14285714285717,488.04910714285717,3203,476.14285714285717,488.04910714285717,3317.5,476.14285714285717,488.04910714285717,3418,476.14285714285717,488.04910714285717,3532.5,476.14285714285717,488.04910714285717,3637.9,476.14285714285717,488.04910714285717,3737.9,476.14285714285717,488.04910714285717,3837.9,476.14285714285717,488.04910714285717,3942.4,476.14285714285717,488.04910714285717,4049.3,476.14285714285717,488.04910714285717,4149.6,476.14285714285717,488.04910714285717,4252.9,476.14285714285717,488.04910714285717,4356.7,476.14285714285717,488.04910714285717,4473.7,476.14285714285717,488.04910714285717,4577,476.14285714285717,488.04910714285717,4682.4,476.14285714285717,488.04910714285717,4786.9,476.14285714285717,488.04910714285717,4887.9]","[4477.3,4477.3,1929.9,2007.3,540.1,""oops"",""down"",""up"",""bad_move"",7675.2,3197,2682.3,4478.2,514.7,""oops"",""down"",""down"",""good_move"",14858.8,7183,2633.9,11793.5,431.4,""smooth"",""down"",""down"",""good_move"",21245.3,6385.9,2042,18759.8,443.5,""smooth"",""down"",""down"",""good_move"",24421.5,3175.9,2737.9,21245.7,437.9,""oops"",""right"",""up"",""bad_move"",26425.1,2002.7,1506.1,24422.4,496.6,""smooth"",""down"",""down"",""good_move"",29509.1,3083.6,2621,26425.5,462.6,""oops"",""down"",""left"",""bad_move"",33341.2,3831.5,3337,29509.7,494.5,""smooth"",""down"",""down"",""good_move"",38290.5,4948.9,3083.7,37031.7,-1824.9,""error"",""-"",""-"",""no_move""]"
"6112","","<div style=""width:500px;"">
  <p>What determined the result of this run?</p>
  </div>","64","html-slider-response","34","587913","0.0-7.0-1.4","172","1","2025-08-06 10:01:33","36c45c0696341be0efffe67d72a12abb","41.56.250.93","Mozilla/5.0 (Windows NT 10.0; Win64; x64) AppleWebKit/537.36 (KHTML, like Gecko) Chrome/139.0.0.0 Safari/537.36","WebKit","Chrome","139.0.0.0","Windows","10.0","https://app.prolific.com/","en-ZA,en-GB;q=0.9,en-US;q=0.8,en;q=0.7","60292aabf20c7d2af65541a7","6877649eabb845cf142cd221","689327da4072a99bf98a442e","1","60292aabf20c7d2af65541a7","1","2025-08-06T10:11:24.139Z","","","","AttribQ","","","","","","","","","","","50","","","","","","","","","","","","","","","","","","","","","","","","","","",""
"4208","","<div style=""width:500px;"">
  <p>How much control did you have over the ball?</p>
  </div>","0","html-slider-response","35","592123","0.0-7.0-2.4","172","1","2025-08-06 10:01:33","36c45c0696341be0efffe67d72a12abb","41.56.250.93","Mozilla/5.0 (Windows NT 10.0; Win64; x64) AppleWebKit/537.36 (KHTML, like Gecko) Chrome/139.0.0.0 Safari/537.36","WebKit","Chrome","139.0.0.0","Windows","10.0","https://app.prolific.com/","en-ZA,en-GB;q=0.9,en-US;q=0.8,en;q=0.7","60292aabf20c7d2af65541a7","6877649eabb845cf142cd221","689327da4072a99bf98a442e","1","60292aabf20c7d2af65541a7","1","2025-08-06T10:11:28.349Z","","","","ControlQ","","","","","","","","","","","50","","","","","","","","","","","","","","","","","","","","","","","","","","",""
"2980","","<div style=""width:500px;"">
  <p>How would you describe your current emotional state?</p>
  </div>","100","html-slider-response","36","595105","0.0-7.0-3.4","172","1","2025-08-06 10:01:33","36c45c0696341be0efffe67d72a12abb","41.56.250.93","Mozilla/5.0 (Windows NT 10.0; Win64; x64) AppleWebKit/537.36 (KHTML, like Gecko) Chrome/139.0.0.0 Safari/537.36","WebKit","Chrome","139.0.0.0","Windows","10.0","https://app.prolific.com/","en-ZA,en-GB;q=0.9,en-US;q=0.8,en;q=0.7","60292aabf20c7d2af65541a7","6877649eabb845cf142cd221","689327da4072a99bf98a442e","1","60292aabf20c7d2af65541a7","1","2025-08-06T10:11:31.331Z","","","","StressQ","","","","","","","","","","","50","","","","","","","","","","","","","","","","","","","","","","","","","","",""
"3182","","<div style=""width:500px;"">
  <p>What best describes how you currently feel?</p>
  </div>","100","html-slider-response","37","598289","0.0-7.0-4.4","172","1","2025-08-06 10:01:33","36c45c0696341be0efffe67d72a12abb","41.56.250.93","Mozilla/5.0 (Windows NT 10.0; Win64; x64) AppleWebKit/537.36 (KHTML, like Gecko) Chrome/139.0.0.0 Safari/537.36","WebKit","Chrome","139.0.0.0","Windows","10.0","https://app.prolific.com/","en-ZA,en-GB;q=0.9,en-US;q=0.8,en;q=0.7","60292aabf20c7d2af65541a7","6877649eabb845cf142cd221","689327da4072a99bf98a442e","1","60292aabf20c7d2af65541a7","1","2025-08-06T10:11:34.515Z","","","","MotivationQ","","","","","","","","","","","50","","","","","","","","","","","","","","","","","","","","","","","","","","",""
"","","","","ctl-task-cpt","38","651141","0.0-7.0-0.5","172","1","2025-08-06 10:01:33","36c45c0696341be0efffe67d72a12abb","41.56.250.93","Mozilla/5.0 (Windows NT 10.0; Win64; x64) AppleWebKit/537.36 (KHTML, like Gecko) Chrome/139.0.0.0 Safari/537.36","WebKit","Chrome","139.0.0.0","Windows","10.0","https://app.prolific.com/","en-ZA,en-GB;q=0.9,en-US;q=0.8,en;q=0.7","60292aabf20c7d2af65541a7","6877649eabb845cf142cd221","689327da4072a99bf98a442e","1","60292aabf20c7d2af65541a7","1","2025-08-06T10:12:27.367Z","","","","","","","","","","","","","","","","win-only","0","g1:NW,g2:SE","0.5","6","0","602311.2","1104.4","6107.5","49835.6","1","4","8","6","1","-1","-1","13","14","0.09848484848484848","1349.7","3000","-2640","[""left"",""up""]","{""num_key_presses"":8,""num_perfect"":4,""num_errors"":0,""num_randdir"":4,""num_randdir_good_moves"":1,""num_whilered"":0,""num_whileblue"":0,""num_blue"":5,""num_good_moves"":5}","[347.14285714285717,345.04910714285717,0.3,347.14285714285717,345.04910714285717,116.4,347.14285714285717,344.04910714285717,220.6,353.14285714285717,340.04910714285717,321,360.14285714285717,340.04910714285717,421.3,360.14285714285717,340.04910714285717,527.3,358.14285714285717,344.04910714285717,631.3,234.14285714285714,356.04910714285717,737.2,115.14285714285714,257.04910714285717,853.9,108.14285714285714,223.04910714285714,957.1,118.14285714285714,189.04910714285714,1057.3,93.14285714285714,118.04910714285714,1161.2,73.14285714285714,61.049107142857146,1269.6,73.14285714285714,61.049107142857146,1387.2,74.14285714285714,63.049107142857146,1504.7,131.14285714285714,124.04910714285714,1606,243.14285714285714,329.04910714285717,1710.9,268.14285714285717,344.04910714285717,1820.6,278.14285714285717,342.04910714285717,1922.4,278.14285714285717,341.04910714285717,2030,278.14285714285717,341.04910714285717,2133.3,278.14285714285717,341.04910714285717,2244,278.14285714285717,341.04910714285717,2354,278.14285714285717,341.04910714285717,2457.2,278.14285714285717,341.04910714285717,2561.5,278.14285714285717,341.04910714285717,2666.1,278.14285714285717,341.04910714285717,2766.1,278.14285714285717,341.04910714285717,2868,278.14285714285717,341.04910714285717,2968.2,278.14285714285717,341.04910714285717,3071.4,278.14285714285717,341.04910714285717,3176.5,278.14285714285717,341.04910714285717,3276.8,278.14285714285717,341.04910714285717,3381.4,278.14285714285717,341.04910714285717,3481.7,278.14285714285717,341.04910714285717,3587,278.14285714285717,341.04910714285717,3702.1,278.14285714285717,341.04910714285717,3818.6,278.14285714285717,341.04910714285717,3920.9,278.14285714285717,341.04910714285717,4022.1,278.14285714285717,341.04910714285717,4126.7,278.14285714285717,341.04910714285717,4227.3,278.14285714285717,341.04910714285717,4327.4,278.14285714285717,341.04910714285717,4432.3,278.14285714285717,341.04910714285717,4536.7,278.14285714285717,341.04910714285717,4653.2,278.14285714285717,341.04910714285717,4758,278.14285714285717,341.04910714285717,4865.4,278.14285714285717,341.04910714285717,4966.7]","[1448.1,1448.1,1000,0,448.1,""smooth"",""up"",""up"",""good_move"",4681.4,3232.6,2730.4,1448.8,502.2,""smooth"",""left"",""left"",""good_move"",7417.4,2735.6,2375.4,4681.8,360.2,""oops"",""up"",""right"",""bad_move"",12977.2,5559.2,1787.3,10773.8,416.1,""oops"",""up"",""up"",""good_move"",19786.3,6808.5,3002.8,16378.5,405,""oops"",""left"",""right"",""bad_move"",30273.5,10486.6,2714,27158.9,400.6,""oops"",""left"",""right"",""bad_move"",33675.9,3401.9,2727.9,30274.1,674,""smooth"",""left"",""left"",""good_move"",36758,3081.5,2657,33676.5,424.6,""smooth"",""left"",""left"",""good_move""]"
"20475","","<div style=""width:500px;"">
  <p>What determined the result of this run?</p>
  </div>","0","html-slider-response","39","671617","0.0-7.0-1.5","172","1","2025-08-06 10:01:33","36c45c0696341be0efffe67d72a12abb","41.56.250.93","Mozilla/5.0 (Windows NT 10.0; Win64; x64) AppleWebKit/537.36 (KHTML, like Gecko) Chrome/139.0.0.0 Safari/537.36","WebKit","Chrome","139.0.0.0","Windows","10.0","https://app.prolific.com/","en-ZA,en-GB;q=0.9,en-US;q=0.8,en;q=0.7","60292aabf20c7d2af65541a7","6877649eabb845cf142cd221","689327da4072a99bf98a442e","1","60292aabf20c7d2af65541a7","1","2025-08-06T10:12:47.843Z","","","","AttribQ","","","","","","","","","","","50","","","","","","","","","","","","","","","","","","","","","","","","","","",""
"3079","","<div style=""width:500px;"">
  <p>How much control did you have over the ball?</p>
  </div>","0","html-slider-response","40","674698","0.0-7.0-2.5","172","1","2025-08-06 10:01:33","36c45c0696341be0efffe67d72a12abb","41.56.250.93","Mozilla/5.0 (Windows NT 10.0; Win64; x64) AppleWebKit/537.36 (KHTML, like Gecko) Chrome/139.0.0.0 Safari/537.36","WebKit","Chrome","139.0.0.0","Windows","10.0","https://app.prolific.com/","en-ZA,en-GB;q=0.9,en-US;q=0.8,en;q=0.7","60292aabf20c7d2af65541a7","6877649eabb845cf142cd221","689327da4072a99bf98a442e","1","60292aabf20c7d2af65541a7","1","2025-08-06T10:12:50.924Z","","","","ControlQ","","","","","","","","","","","50","","","","","","","","","","","","","","","","","","","","","","","","","","",""
"3574","","<div style=""width:500px;"">
  <p>How would you describe your current emotional state?</p>
  </div>","73","html-slider-response","41","678273","0.0-7.0-3.5","172","1","2025-08-06 10:01:33","36c45c0696341be0efffe67d72a12abb","41.56.250.93","Mozilla/5.0 (Windows NT 10.0; Win64; x64) AppleWebKit/537.36 (KHTML, like Gecko) Chrome/139.0.0.0 Safari/537.36","WebKit","Chrome","139.0.0.0","Windows","10.0","https://app.prolific.com/","en-ZA,en-GB;q=0.9,en-US;q=0.8,en;q=0.7","60292aabf20c7d2af65541a7","6877649eabb845cf142cd221","689327da4072a99bf98a442e","1","60292aabf20c7d2af65541a7","1","2025-08-06T10:12:54.500Z","","","","StressQ","","","","","","","","","","","50","","","","","","","","","","","","","","","","","","","","","","","","","","",""
"4583","","<div style=""width:500px;"">
  <p>What best describes how you currently feel?</p>
  </div>","99","html-slider-response","42","682859","0.0-7.0-4.5","172","1","2025-08-06 10:01:33","36c45c0696341be0efffe67d72a12abb","41.56.250.93","Mozilla/5.0 (Windows NT 10.0; Win64; x64) AppleWebKit/537.36 (KHTML, like Gecko) Chrome/139.0.0.0 Safari/537.36","WebKit","Chrome","139.0.0.0","Windows","10.0","https://app.prolific.com/","en-ZA,en-GB;q=0.9,en-US;q=0.8,en;q=0.7","60292aabf20c7d2af65541a7","6877649eabb845cf142cd221","689327da4072a99bf98a442e","1","60292aabf20c7d2af65541a7","1","2025-08-06T10:12:59.085Z","","","","MotivationQ","","","","","","","","","","","50","","","","","","","","","","","","","","","","","","","","","","","","","","",""
"","","","","ctl-task-cpt","43","712567","0.0-7.0-0.6","172","1","2025-08-06 10:01:33","36c45c0696341be0efffe67d72a12abb","41.56.250.93","Mozilla/5.0 (Windows NT 10.0; Win64; x64) AppleWebKit/537.36 (KHTML, like Gecko) Chrome/139.0.0.0 Safari/537.36","WebKit","Chrome","139.0.0.0","Windows","10.0","https://app.prolific.com/","en-ZA,en-GB;q=0.9,en-US;q=0.8,en;q=0.7","60292aabf20c7d2af65541a7","6877649eabb845cf142cd221","689327da4072a99bf98a442e","1","60292aabf20c7d2af65541a7","1","2025-08-06T10:13:28.793Z","","","","","","","","","","","","","","","","win-only","2","g1:SE,g2:NW","0.4","7","0","686882.3","1515.3","6521.3","26686.9","1","4","8","6","1","1","1","14","13","0.10606060606060606","1808.1","3000","595","[""down"",""right""]","{""num_key_presses"":6,""num_perfect"":4,""num_errors"":0,""num_randdir"":2,""num_randdir_good_moves"":1,""num_whilered"":0,""num_whileblue"":0,""num_blue"":1,""num_good_moves"":5}","[350.14285714285717,346.04910714285717,0.4,350.14285714285717,346.04910714285717,101.7,351.14285714285717,345.04910714285717,205.2,368.14285714285717,338.04910714285717,305.4,368.14285714285717,338.04910714285717,406.6,376.14285714285717,343.04910714285717,526,402.14285714285717,373.04910714285717,626.1,429.14285714285717,451.04910714285717,726.6,522.1428571428571,552.0491071428571,827.8,527.1428571428571,560.0491071428571,930.4,527.1428571428571,560.0491071428571,1031.5,527.1428571428571,560.0491071428571,1135.7,527.1428571428571,560.0491071428571,1240.1,572.1428571428571,578.0491071428571,1351.4,601.1428571428571,597.0491071428571,1461.3,602.1428571428571,598.0491071428571,1577,625.1428571428571,612.0491071428571,1695.3,627.1428571428571,614.0491071428571,1809.8,627.1428571428571,614.0491071428571,1910.4,628.1428571428571,614.0491071428571,2011.9,628.1428571428571,614.0491071428571,2118.8,618.1428571428571,603.0491071428571,2220.3,577.1428571428571,587.0491071428571,2327.9,501.14285714285717,544.0491071428571,2432.2,465.14285714285717,517.0491071428571,2532.2,436.14285714285717,486.04910714285717,2635.6,434.14285714285717,484.04910714285717,2735.6,434.14285714285717,484.04910714285717,2835.6,434.14285714285717,484.04910714285717,2941.4,434.14285714285717,484.04910714285717,3041.5,434.14285714285717,484.04910714285717,3146.6,434.14285714285717,484.04910714285717,3250.4,433.14285714285717,483.04910714285717,3351.7,433.14285714285717,483.04910714285717,3456.2,433.14285714285717,483.04910714285717,3560.6,433.14285714285717,483.04910714285717,3674.7,433.14285714285717,483.04910714285717,3777.7,433.14285714285717,483.04910714285717,3881.2,433.14285714285717,483.04910714285717,3991.6,433.14285714285717,483.04910714285717,4091.8,433.14285714285717,483.04910714285717,4194.1,433.14285714285717,483.04910714285717,4295.3,433.14285714285717,483.04910714285717,4395.4,433.14285714285717,483.04910714285717,4495.9,433.14285714285717,483.04910714285717,4595.9,433.14285714285717,483.04910714285717,4700.4,433.14285714285717,483.04910714285717,4805.2,433.14285714285717,483.04910714285717,4905.2]","[2074.1,2074.1,1000,0,1074.1,""smooth"",""right"",""right"",""good_move"",4648.3,2573,2133.7,2075.3,439.3,""smooth"",""down"",""down"",""good_move"",8080.3,3431.3,3060.3,4649,371,""oops"",""down"",""up"",""bad_move"",13846.2,5765.2,2141.2,11304.8,400.2,""smooth"",""right"",""right"",""good_move"",17424.4,3577.5,3155.8,13846.9,421.7,""oops"",""down"",""down"",""good_move"",20032.5,2607.4,2181.3,17425.1,426.1,""smooth"",""down"",""down"",""good_move""]"
"14593","","<div style=""width:500px;"">
  <p>What determined the result of this run?</p>
  </div>","97","html-slider-response","44","727162","0.0-7.0-1.6","172","1","2025-08-06 10:01:33","36c45c0696341be0efffe67d72a12abb","41.56.250.93","Mozilla/5.0 (Windows NT 10.0; Win64; x64) AppleWebKit/537.36 (KHTML, like Gecko) Chrome/139.0.0.0 Safari/537.36","WebKit","Chrome","139.0.0.0","Windows","10.0","https://app.prolific.com/","en-ZA,en-GB;q=0.9,en-US;q=0.8,en;q=0.7","60292aabf20c7d2af65541a7","6877649eabb845cf142cd221","689327da4072a99bf98a442e","1","60292aabf20c7d2af65541a7","1","2025-08-06T10:13:43.388Z","","","","AttribQ","","","","","","","","","","","50","","","","","","","","","","","","","","","","","","","","","","","","","","",""
"2997","","<div style=""width:500px;"">
  <p>How much control did you have over the ball?</p>
  </div>","95","html-slider-response","45","730161","0.0-7.0-2.6","172","1","2025-08-06 10:01:33","36c45c0696341be0efffe67d72a12abb","41.56.250.93","Mozilla/5.0 (Windows NT 10.0; Win64; x64) AppleWebKit/537.36 (KHTML, like Gecko) Chrome/139.0.0.0 Safari/537.36","WebKit","Chrome","139.0.0.0","Windows","10.0","https://app.prolific.com/","en-ZA,en-GB;q=0.9,en-US;q=0.8,en;q=0.7","60292aabf20c7d2af65541a7","6877649eabb845cf142cd221","689327da4072a99bf98a442e","1","60292aabf20c7d2af65541a7","1","2025-08-06T10:13:46.387Z","","","","ControlQ","","","","","","","","","","","50","","","","","","","","","","","","","","","","","","","","","","","","","","",""
"3840","","<div style=""width:500px;"">
  <p>How would you describe your current emotional state?</p>
  </div>","53","html-slider-response","46","734002","0.0-7.0-3.6","172","1","2025-08-06 10:01:33","36c45c0696341be0efffe67d72a12abb","41.56.250.93","Mozilla/5.0 (Windows NT 10.0; Win64; x64) AppleWebKit/537.36 (KHTML, like Gecko) Chrome/139.0.0.0 Safari/537.36","WebKit","Chrome","139.0.0.0","Windows","10.0","https://app.prolific.com/","en-ZA,en-GB;q=0.9,en-US;q=0.8,en;q=0.7","60292aabf20c7d2af65541a7","6877649eabb845cf142cd221","689327da4072a99bf98a442e","1","60292aabf20c7d2af65541a7","1","2025-08-06T10:13:50.229Z","","","","StressQ","","","","","","","","","","","50","","","","","","","","","","","","","","","","","","","","","","","","","","",""
"29327","","<div style=""width:500px;"">
  <p>What best describes how you currently feel?</p>
  </div>","99","html-slider-response","47","763331","0.0-7.0-4.6","172","1","2025-08-06 10:01:33","36c45c0696341be0efffe67d72a12abb","41.56.250.93","Mozilla/5.0 (Windows NT 10.0; Win64; x64) AppleWebKit/537.36 (KHTML, like Gecko) Chrome/139.0.0.0 Safari/537.36","WebKit","Chrome","139.0.0.0","Windows","10.0","https://app.prolific.com/","en-ZA,en-GB;q=0.9,en-US;q=0.8,en;q=0.7","60292aabf20c7d2af65541a7","6877649eabb845cf142cd221","689327da4072a99bf98a442e","1","60292aabf20c7d2af65541a7","1","2025-08-06T10:14:19.557Z","","","","MotivationQ","","","","","","","","","","","50","","","","","","","","","","","","","","","","","","","","","","","","","","",""
"","","","","ctl-task-cpt","48","805567","0.0-7.0-0.7","172","1","2025-08-06 10:01:33","36c45c0696341be0efffe67d72a12abb","41.56.250.93","Mozilla/5.0 (Windows NT 10.0; Win64; x64) AppleWebKit/537.36 (KHTML, like Gecko) Chrome/139.0.0.0 Safari/537.36","WebKit","Chrome","139.0.0.0","Windows","10.0","https://app.prolific.com/","en-ZA,en-GB;q=0.9,en-US;q=0.8,en;q=0.7","60292aabf20c7d2af65541a7","6877649eabb845cf142cd221","689327da4072a99bf98a442e","1","60292aabf20c7d2af65541a7","1","2025-08-06T10:15:01.793Z","","","","","","","","","","","","","","","","win-only","2","g1:SE,g2:NW","0.3","8","0","767354.4","1435.5","6441","39211.8","1","4","4","6","1","1","1","15","14","0.11363636363636363","1321.8","3000","1155","[""down"",""right""]","{""num_key_presses"":6,""num_perfect"":3,""num_errors"":0,""num_randdir"":3,""num_randdir_good_moves"":2,""num_whilered"":0,""num_whileblue"":0,""num_blue"":4,""num_good_moves"":5}","[346.14285714285717,340.04910714285717,0.5,346.14285714285717,340.04910714285717,107.8,355.14285714285717,343.04910714285717,211.7,447.14285714285717,371.04910714285717,327.4,447.14285714285717,378.04910714285717,431.7,447.14285714285717,378.04910714285717,531.7,450.14285714285717,379.04910714285717,636.2,500.14285714285717,419.04910714285717,740.2,526.1428571428571,441.04910714285717,841,590.1428571428571,522.0491071428571,945.6,622.1428571428571,584.0491071428571,1050.5,625.1428571428571,613.0491071428571,1151.1,621.1428571428571,633.0491071428571,1258.9,620.1428571428571,636.0491071428571,1361,628.1428571428571,623.0491071428571,1476.8,628.1428571428571,620.0491071428571,1577,625.1428571428571,617.0491071428571,1683.7,625.1428571428571,617.0491071428571,1785.3,625.1428571428571,617.0491071428571,1886.8,626.1428571428571,596.0491071428571,1990.6,627.1428571428571,576.0491071428571,2107.5,651.1428571428571,535.0491071428571,2220.9,711.1428571428571,428.04910714285717,2323.8,776.1428571428571,359.04910714285717,2425.7,775.1428571428571,355.04910714285717,2527.3,775.1428571428571,355.04910714285717,2630,775.1428571428571,354.04910714285717,2731.5,775.1428571428571,354.04910714285717,2835.3,775.1428571428571,354.04910714285717,2936.1,775.1428571428571,354.04910714285717,3043.2,775.1428571428571,354.04910714285717,3157.2,775.1428571428571,354.04910714285717,3257.2,775.1428571428571,354.04910714285717,3369.4,775.1428571428571,354.04910714285717,3471.5,775.1428571428571,354.04910714285717,3572.9,775.1428571428571,354.04910714285717,3676.6,775.1428571428571,354.04910714285717,3782.1,775.1428571428571,354.04910714285717,3884.9,775.1428571428571,354.04910714285717,3985.8,775.1428571428571,354.04910714285717,4090.3,775.1428571428571,354.04910714285717,4205,775.1428571428571,354.04910714285717,4307.5,775.1428571428571,354.04910714285717,4410.6,775.1428571428571,354.04910714285717,4511.1,775.1428571428571,354.04910714285717,4611.5,775.1428571428571,354.04910714285717,4711.7,775.1428571428571,354.04910714285717,4815.4,775.1428571428571,354.04910714285717,4922.3]","[8230.9,8230.9,3173.3,4667.7,389.9,""oops"",""right"",""up"",""bad_move"",12474.4,4242.8,3806.2,8231.6,436.6,""smooth"",""right"",""right"",""good_move"",22928.6,10453.5,2771.3,19732,425.3,""oops"",""right"",""down"",""good_move"",26336.4,3407.2,2872,22929.2,535.2,""smooth"",""right"",""right"",""good_move"",29320.4,2983.2,2507,26337.2,476.2,""oops"",""down"",""down"",""good_move"",32660,3339,2942.4,29321.1,396.6,""smooth"",""down"",""down"",""good_move""]"
"3706","","<div style=""width:500px;"">
  <p>What determined the result of this run?</p>
  </div>","85","html-slider-response","49","809274","0.0-7.0-1.7","172","1","2025-08-06 10:01:33","36c45c0696341be0efffe67d72a12abb","41.56.250.93","Mozilla/5.0 (Windows NT 10.0; Win64; x64) AppleWebKit/537.36 (KHTML, like Gecko) Chrome/139.0.0.0 Safari/537.36","WebKit","Chrome","139.0.0.0","Windows","10.0","https://app.prolific.com/","en-ZA,en-GB;q=0.9,en-US;q=0.8,en;q=0.7","60292aabf20c7d2af65541a7","6877649eabb845cf142cd221","689327da4072a99bf98a442e","1","60292aabf20c7d2af65541a7","1","2025-08-06T10:15:05.500Z","","","","AttribQ","","","","","","","","","","","50","","","","","","","","","","","","","","","","","","","","","","","","","","",""
"2292","","<div style=""width:500px;"">
  <p>How much control did you have over the ball?</p>
  </div>","79","html-slider-response","50","811569","0.0-7.0-2.7","172","1","2025-08-06 10:01:33","36c45c0696341be0efffe67d72a12abb","41.56.250.93","Mozilla/5.0 (Windows NT 10.0; Win64; x64) AppleWebKit/537.36 (KHTML, like Gecko) Chrome/139.0.0.0 Safari/537.36","WebKit","Chrome","139.0.0.0","Windows","10.0","https://app.prolific.com/","en-ZA,en-GB;q=0.9,en-US;q=0.8,en;q=0.7","60292aabf20c7d2af65541a7","6877649eabb845cf142cd221","689327da4072a99bf98a442e","1","60292aabf20c7d2af65541a7","1","2025-08-06T10:15:07.795Z","","","","ControlQ","","","","","","","","","","","50","","","","","","","","","","","","","","","","","","","","","","","","","","",""
"2955","","<div style=""width:500px;"">
  <p>How would you describe your current emotional state?</p>
  </div>","60","html-slider-response","51","814526","0.0-7.0-3.7","172","1","2025-08-06 10:01:33","36c45c0696341be0efffe67d72a12abb","41.56.250.93","Mozilla/5.0 (Windows NT 10.0; Win64; x64) AppleWebKit/537.36 (KHTML, like Gecko) Chrome/139.0.0.0 Safari/537.36","WebKit","Chrome","139.0.0.0","Windows","10.0","https://app.prolific.com/","en-ZA,en-GB;q=0.9,en-US;q=0.8,en;q=0.7","60292aabf20c7d2af65541a7","6877649eabb845cf142cd221","689327da4072a99bf98a442e","1","60292aabf20c7d2af65541a7","1","2025-08-06T10:15:10.752Z","","","","StressQ","","","","","","","","","","","50","","","","","","","","","","","","","","","","","","","","","","","","","","",""
"3850","","<div style=""width:500px;"">
  <p>What best describes how you currently feel?</p>
  </div>","98","html-slider-response","52","818378","0.0-7.0-4.7","172","1","2025-08-06 10:01:33","36c45c0696341be0efffe67d72a12abb","41.56.250.93","Mozilla/5.0 (Windows NT 10.0; Win64; x64) AppleWebKit/537.36 (KHTML, like Gecko) Chrome/139.0.0.0 Safari/537.36","WebKit","Chrome","139.0.0.0","Windows","10.0","https://app.prolific.com/","en-ZA,en-GB;q=0.9,en-US;q=0.8,en;q=0.7","60292aabf20c7d2af65541a7","6877649eabb845cf142cd221","689327da4072a99bf98a442e","1","60292aabf20c7d2af65541a7","1","2025-08-06T10:15:14.604Z","","","","MotivationQ","","","","","","","","","","","50","","","","","","","","","","","","","","","","","","","","","","","","","","",""
"","","","","ctl-task-cpt","53","877276","0.0-7.0-0.8","172","1","2025-08-06 10:01:33","36c45c0696341be0efffe67d72a12abb","41.56.250.93","Mozilla/5.0 (Windows NT 10.0; Win64; x64) AppleWebKit/537.36 (KHTML, like Gecko) Chrome/139.0.0.0 Safari/537.36","WebKit","Chrome","139.0.0.0","Windows","10.0","https://app.prolific.com/","en-ZA,en-GB;q=0.9,en-US;q=0.8,en;q=0.7","60292aabf20c7d2af65541a7","6877649eabb845cf142cd221","689327da4072a99bf98a442e","1","60292aabf20c7d2af65541a7","1","2025-08-06T10:16:13.502Z","","","","","","","","","","","","","","","","win-only","2","g1:SE,g2:NW","0.4","9","0","822401.2","18292.8","23297.2","55882.3","1","4","4","6","1","-1","-1","14","15","0.10606060606060606","936.1","3000","-2030","[""down"",""right""]","{""num_key_presses"":11,""num_perfect"":5,""num_errors"":0,""num_randdir"":6,""num_randdir_good_moves"":2,""num_whilered"":0,""num_whileblue"":0,""num_blue"":0,""num_good_moves"":7}","[351.14285714285717,352.04910714285717,0.7,351.14285714285717,352.04910714285717,100.2,383.14285714285717,366.04910714285717,200.6,437.14285714285717,379.04910714285717,303.8,447.14285714285717,394.04910714285717,405.1,586.1428571428571,670.0491071428571,506.9,606.1428571428571,671.0491071428571,609.9,621.1428571428571,669.0491071428571,721.6,629.1428571428571,663.0491071428571,824.1,629.1428571428571,663.0491071428571,926.5,629.1428571428571,663.0491071428571,1029.6,629.1428571428571,663.0491071428571,1133.9,630.1428571428571,666.0491071428571,1238.9,637.1428571428571,668.0491071428571,1339.8,637.1428571428571,668.0491071428571,1456.7,637.1428571428571,668.0491071428571,1560.1,637.1428571428571,668.0491071428571,1675.5,637.1428571428571,668.0491071428571,1787.2,637.1428571428571,668.0491071428571,1888.4,637.1428571428571,668.0491071428571,1990.8,637.1428571428571,668.0491071428571,2095.8,637.1428571428571,668.0491071428571,2204.9,637.1428571428571,668.0491071428571,2309.8,637.1428571428571,668.0491071428571,2414.9,637.1428571428571,668.0491071428571,2514.9,637.1428571428571,668.0491071428571,2618.1,637.1428571428571,668.0491071428571,2724.6,637.1428571428571,668.0491071428571,2828.9,637.1428571428571,668.0491071428571,2929.5,637.1428571428571,668.0491071428571,3034.1,637.1428571428571,668.0491071428571,3136.3,637.1428571428571,668.0491071428571,3243.4,637.1428571428571,668.0491071428571,3343.4,637.1428571428571,668.0491071428571,3449.6,637.1428571428571,668.0491071428571,3558.6,637.1428571428571,668.0491071428571,3660.4,637.1428571428571,668.0491071428571,3766.7,637.1428571428571,668.0491071428571,3868.6,637.1428571428571,668.0491071428571,3972.3,637.1428571428571,668.0491071428571,4073.4,637.1428571428571,668.0491071428571,4174.3,637.1428571428571,668.0491071428571,4280.8,637.1428571428571,668.0491071428571,4389.7,637.1428571428571,668.0491071428571,4499.3,637.1428571428571,668.0491071428571,4603.6,637.1428571428571,668.0491071428571,4708.3,637.1428571428571,668.0491071428571,4809.5,637.1428571428571,668.0491071428571,4921.7]","[1449.1,1449.1,1000,0,449.1,""smooth"",""down"",""down"",""good_move"",4274.1,2824.3,2387.7,1449.8,436.6,""oops"",""down"",""left"",""bad_move"",6722,2447.4,2044.1,4274.6,403.3,""oops"",""down"",""left"",""bad_move"",9585.5,2862.9,2516.2,6722.6,346.7,""oops"",""down"",""right"",""good_move"",12553.5,2967.5,2621.9,9586,345.6,""oops"",""down"",""right"",""good_move"",15318.3,2764.1,2327.2,12554.3,436.8,""smooth"",""down"",""down"",""good_move"",18233.3,2914.4,2479.3,15318.9,435.1,""oops"",""right"",""up"",""bad_move"",21033,2799.3,2363.9,18233.8,435.3,""oops"",""right"",""up"",""bad_move"",23491,2457.7,2104.8,21033.4,352.8,""smooth"",""down"",""down"",""good_move"",26123.7,2631.9,2293,23492,338.8,""smooth"",""down"",""down"",""good_move"",29194.6,3070.5,2732.5,26124.1,338,""smooth"",""right"",""right"",""good_move""]"
"38059","","<div style=""width:500px;"">
  <p>What determined the result of this run?</p>
  </div>","91","html-slider-response","54","915337","0.0-7.0-1.8","172","1","2025-08-06 10:01:33","36c45c0696341be0efffe67d72a12abb","41.56.250.93","Mozilla/5.0 (Windows NT 10.0; Win64; x64) AppleWebKit/537.36 (KHTML, like Gecko) Chrome/139.0.0.0 Safari/537.36","WebKit","Chrome","139.0.0.0","Windows","10.0","https://app.prolific.com/","en-ZA,en-GB;q=0.9,en-US;q=0.8,en;q=0.7","60292aabf20c7d2af65541a7","6877649eabb845cf142cd221","689327da4072a99bf98a442e","1","60292aabf20c7d2af65541a7","1","2025-08-06T10:16:51.563Z","","","","AttribQ","","","","","","","","","","","50","","","","","","","","","","","","","","","","","","","","","","","","","","",""
"7031","","<div style=""width:500px;"">
  <p>How much control did you have over the ball?</p>
  </div>","36","html-slider-response","55","922369","0.0-7.0-2.8","172","1","2025-08-06 10:01:33","36c45c0696341be0efffe67d72a12abb","41.56.250.93","Mozilla/5.0 (Windows NT 10.0; Win64; x64) AppleWebKit/537.36 (KHTML, like Gecko) Chrome/139.0.0.0 Safari/537.36","WebKit","Chrome","139.0.0.0","Windows","10.0","https://app.prolific.com/","en-ZA,en-GB;q=0.9,en-US;q=0.8,en;q=0.7","60292aabf20c7d2af65541a7","6877649eabb845cf142cd221","689327da4072a99bf98a442e","1","60292aabf20c7d2af65541a7","1","2025-08-06T10:16:58.596Z","","","","ControlQ","","","","","","","","","","","50","","","","","","","","","","","","","","","","","","","","","","","","","","",""
"3286","","<div style=""width:500px;"">
  <p>How would you describe your current emotional state?</p>
  </div>","80","html-slider-response","56","925657","0.0-7.0-3.8","172","1","2025-08-06 10:01:33","36c45c0696341be0efffe67d72a12abb","41.56.250.93","Mozilla/5.0 (Windows NT 10.0; Win64; x64) AppleWebKit/537.36 (KHTML, like Gecko) Chrome/139.0.0.0 Safari/537.36","WebKit","Chrome","139.0.0.0","Windows","10.0","https://app.prolific.com/","en-ZA,en-GB;q=0.9,en-US;q=0.8,en;q=0.7","60292aabf20c7d2af65541a7","6877649eabb845cf142cd221","689327da4072a99bf98a442e","1","60292aabf20c7d2af65541a7","1","2025-08-06T10:17:01.883Z","","","","StressQ","","","","","","","","","","","50","","","","","","","","","","","","","","","","","","","","","","","","","","",""
"4278","","<div style=""width:500px;"">
  <p>What best describes how you currently feel?</p>
  </div>","98","html-slider-response","57","929936","0.0-7.0-4.8","172","1","2025-08-06 10:01:33","36c45c0696341be0efffe67d72a12abb","41.56.250.93","Mozilla/5.0 (Windows NT 10.0; Win64; x64) AppleWebKit/537.36 (KHTML, like Gecko) Chrome/139.0.0.0 Safari/537.36","WebKit","Chrome","139.0.0.0","Windows","10.0","https://app.prolific.com/","en-ZA,en-GB;q=0.9,en-US;q=0.8,en;q=0.7","60292aabf20c7d2af65541a7","6877649eabb845cf142cd221","689327da4072a99bf98a442e","1","60292aabf20c7d2af65541a7","1","2025-08-06T10:17:06.163Z","","","","MotivationQ","","","","","","","","","","","50","","","","","","","","","","","","","","","","","","","","","","","","","","",""
"","","","","ctl-task-cpt","58","950531","0.0-7.0-0.9","172","1","2025-08-06 10:01:33","36c45c0696341be0efffe67d72a12abb","41.56.250.93","Mozilla/5.0 (Windows NT 10.0; Win64; x64) AppleWebKit/537.36 (KHTML, like Gecko) Chrome/139.0.0.0 Safari/537.36","WebKit","Chrome","139.0.0.0","Windows","10.0","https://app.prolific.com/","en-ZA,en-GB;q=0.9,en-US;q=0.8,en;q=0.7","60292aabf20c7d2af65541a7","6877649eabb845cf142cd221","689327da4072a99bf98a442e","1","60292aabf20c7d2af65541a7","1","2025-08-06T10:17:26.757Z","","","","","","","","","","","","","","","","win-only","0","g1:NW,g2:SE","0.5","10","0","933958.9","2102.7","7106.4","17575.6","1","4","8","6","1","1","1","15","14","0.11363636363636363","1272.2","3000","2025","[""left"",""up""]","{""num_key_presses"":4,""num_perfect"":4,""num_errors"":0,""num_randdir"":0,""num_randdir_good_moves"":0,""num_whilered"":0,""num_whileblue"":0,""num_blue"":0,""num_good_moves"":4}","[344.14285714285717,342.04910714285717,0.6,344.14285714285717,342.04910714285717,114.7,344.14285714285717,342.04910714285717,221.1,348.14285714285717,342.04910714285717,323.7,390.14285714285717,342.04910714285717,438.3,413.14285714285717,349.04910714285717,543.2,423.14285714285717,361.04910714285717,651.2,270.14285714285717,325.04910714285717,753,99.14285714285714,165.04910714285714,858.8,82.14285714285714,119.04910714285714,964.5,84.14285714285714,106.04910714285714,1069.6,68.14285714285714,79.04910714285714,1180.9,63.142857142857146,74.04910714285714,1285.3,63.142857142857146,74.04910714285714,1386.3,158.14285714285714,98.04910714285714,1489.3,276.14285714285717,140.04910714285714,1593.1,276.14285714285717,140.04910714285714,1694.2,273.14285714285717,143.04910714285714,1807,273.14285714285717,143.04910714285714,1908.7,273.14285714285717,143.04910714285714,2015.5,273.14285714285717,143.04910714285714,2118.2,273.14285714285717,143.04910714285714,2219.3,273.14285714285717,143.04910714285714,2328.7,273.14285714285717,143.04910714285714,2433.1,273.14285714285717,143.04910714285714,2534.2,273.14285714285717,143.04910714285714,2639.1,273.14285714285717,143.04910714285714,2743.4,273.14285714285717,143.04910714285714,2864.1,273.14285714285717,143.04910714285714,2974.7,273.14285714285717,143.04910714285714,3082.4,273.14285714285717,143.04910714285714,3192.9,273.14285714285717,143.04910714285714,3296.2,273.14285714285717,143.04910714285714,3397.2,273.14285714285717,143.04910714285714,3498.4,273.14285714285717,143.04910714285714,3598.8,273.14285714285717,143.04910714285714,3709.7,273.14285714285717,143.04910714285714,3822.4,273.14285714285717,143.04910714285714,3922.9,273.14285714285717,143.04910714285714,4025,273.14285714285717,143.04910714285714,4129.3,273.14285714285717,143.04910714285714,4229.4,273.14285714285717,143.04910714285714,4333.6,273.14285714285717,143.04910714285714,4435.1,273.14285714285717,143.04910714285714,4536.3,273.14285714285717,143.04910714285714,4639.1,273.14285714285717,143.04910714285714,4742,273.14285714285717,143.04910714285714,4842.8,273.14285714285717,143.04910714285714,4943.6]","[1354.6,1354.6,1000,0,354.6,""smooth"",""up"",""up"",""good_move"",4098.6,2743.3,2372.6,1355.3,370.7,""smooth"",""up"",""up"",""good_move"",7626.9,3527.9,3240.1,4099,287.8,""smooth"",""left"",""left"",""good_move"",10338,2710,2361.9,7628,348.1,""smooth"",""left"",""left"",""good_move""]"
"3093","","<div style=""width:500px;"">
  <p>What determined the result of this run?</p>
  </div>","100","html-slider-response","59","953625","0.0-7.0-1.9","172","1","2025-08-06 10:01:33","36c45c0696341be0efffe67d72a12abb","41.56.250.93","Mozilla/5.0 (Windows NT 10.0; Win64; x64) AppleWebKit/537.36 (KHTML, like Gecko) Chrome/139.0.0.0 Safari/537.36","WebKit","Chrome","139.0.0.0","Windows","10.0","https://app.prolific.com/","en-ZA,en-GB;q=0.9,en-US;q=0.8,en;q=0.7","60292aabf20c7d2af65541a7","6877649eabb845cf142cd221","689327da4072a99bf98a442e","1","60292aabf20c7d2af65541a7","1","2025-08-06T10:17:29.851Z","","","","AttribQ","","","","","","","","","","","50","","","","","","","","","","","","","","","","","","","","","","","","","","",""
"6207","","<div style=""width:500px;"">
  <p>How much control did you have over the ball?</p>
  </div>","100","html-slider-response","60","959834","0.0-7.0-2.9","172","1","2025-08-06 10:01:33","36c45c0696341be0efffe67d72a12abb","41.56.250.93","Mozilla/5.0 (Windows NT 10.0; Win64; x64) AppleWebKit/537.36 (KHTML, like Gecko) Chrome/139.0.0.0 Safari/537.36","WebKit","Chrome","139.0.0.0","Windows","10.0","https://app.prolific.com/","en-ZA,en-GB;q=0.9,en-US;q=0.8,en;q=0.7","60292aabf20c7d2af65541a7","6877649eabb845cf142cd221","689327da4072a99bf98a442e","1","60292aabf20c7d2af65541a7","1","2025-08-06T10:17:36.060Z","","","","ControlQ","","","","","","","","","","","50","","","","","","","","","","","","","","","","","","","","","","","","","","",""
"3438","","<div style=""width:500px;"">
  <p>How would you describe your current emotional state?</p>
  </div>","48","html-slider-response","61","963274","0.0-7.0-3.9","172","1","2025-08-06 10:01:33","36c45c0696341be0efffe67d72a12abb","41.56.250.93","Mozilla/5.0 (Windows NT 10.0; Win64; x64) AppleWebKit/537.36 (KHTML, like Gecko) Chrome/139.0.0.0 Safari/537.36","WebKit","Chrome","139.0.0.0","Windows","10.0","https://app.prolific.com/","en-ZA,en-GB;q=0.9,en-US;q=0.8,en;q=0.7","60292aabf20c7d2af65541a7","6877649eabb845cf142cd221","689327da4072a99bf98a442e","1","60292aabf20c7d2af65541a7","1","2025-08-06T10:17:39.500Z","","","","StressQ","","","","","","","","","","","50","","","","","","","","","","","","","","","","","","","","","","","","","","",""
"2902","","<div style=""width:500px;"">
  <p>What best describes how you currently feel?</p>
  </div>","99","html-slider-response","62","966178","0.0-7.0-4.9","172","1","2025-08-06 10:01:33","36c45c0696341be0efffe67d72a12abb","41.56.250.93","Mozilla/5.0 (Windows NT 10.0; Win64; x64) AppleWebKit/537.36 (KHTML, like Gecko) Chrome/139.0.0.0 Safari/537.36","WebKit","Chrome","139.0.0.0","Windows","10.0","https://app.prolific.com/","en-ZA,en-GB;q=0.9,en-US;q=0.8,en;q=0.7","60292aabf20c7d2af65541a7","6877649eabb845cf142cd221","689327da4072a99bf98a442e","1","60292aabf20c7d2af65541a7","1","2025-08-06T10:17:42.404Z","","","","MotivationQ","","","","","","","","","","","50","","","","","","","","","","","","","","","","","","","","","","","","","","",""
"","","","","ctl-task-cpt","63","998785","0.0-7.0-0.10","172","1","2025-08-06 10:01:33","36c45c0696341be0efffe67d72a12abb","41.56.250.93","Mozilla/5.0 (Windows NT 10.0; Win64; x64) AppleWebKit/537.36 (KHTML, like Gecko) Chrome/139.0.0.0 Safari/537.36","WebKit","Chrome","139.0.0.0","Windows","10.0","https://app.prolific.com/","en-ZA,en-GB;q=0.9,en-US;q=0.8,en;q=0.7","60292aabf20c7d2af65541a7","6877649eabb845cf142cd221","689327da4072a99bf98a442e","1","60292aabf20c7d2af65541a7","1","2025-08-06T10:18:15.011Z","","","","","","","","","","","","","","","","win-only","1","g1:NE,g2:SW","0.6","11","0","970201.2","5500.1","10503.6","29586.5","1","4","8","6","1","1","0","15","15","0.11363636363636363","1168.4","3000","1440","[""up"",""right""]","{""num_key_presses"":7,""num_perfect"":3,""num_errors"":1,""num_randdir"":3,""num_randdir_good_moves"":2,""num_whilered"":0,""num_whileblue"":0,""num_blue"":0,""num_good_moves"":5}","[348.14285714285717,346.04910714285717,1,348.14285714285717,346.04910714285717,101.8,348.14285714285717,346.04910714285717,213.6,348.14285714285717,346.04910714285717,319.1,348.14285714285717,346.04910714285717,425.4,348.14285714285717,346.04910714285717,534.1,430.14285714285717,299.04910714285717,651.3,469.14285714285717,211.04910714285714,754.1,506.14285714285717,170.04910714285714,862.3,573.1428571428571,135.04910714285714,962.4,605.1428571428571,98.04910714285714,1067.3,619.1428571428571,80.04910714285714,1173.2,619.1428571428571,80.04910714285714,1277.8,619.1428571428571,80.04910714285714,1382.7,636.1428571428571,121.04910714285714,1498,639.1428571428571,154.04910714285714,1603.4,639.1428571428571,154.04910714285714,1711.2,605.1428571428571,171.04910714285714,1811.2,605.1428571428571,171.04910714285714,1912.4,605.1428571428571,171.04910714285714,2017,605.1428571428571,171.04910714285714,2121.1,605.1428571428571,171.04910714285714,2223.1,605.1428571428571,171.04910714285714,2326.4,605.1428571428571,171.04910714285714,2427.7,605.1428571428571,171.04910714285714,2535.7,605.1428571428571,171.04910714285714,2651.9,605.1428571428571,171.04910714285714,2766.8,605.1428571428571,171.04910714285714,2869.9,605.1428571428571,171.04910714285714,2975.5,605.1428571428571,171.04910714285714,3077.2,605.1428571428571,171.04910714285714,3181.2,605.1428571428571,171.04910714285714,3287.4,605.1428571428571,171.04910714285714,3389.5,605.1428571428571,171.04910714285714,3491.1,605.1428571428571,171.04910714285714,3595.9,605.1428571428571,171.04910714285714,3697.3,605.1428571428571,171.04910714285714,3811.1,605.1428571428571,171.04910714285714,3916.4,605.1428571428571,171.04910714285714,4022.1,605.1428571428571,171.04910714285714,4125.8,605.1428571428571,171.04910714285714,4227.2,605.1428571428571,171.04910714285714,4331.2,605.1428571428571,171.04910714285714,4432,605.1428571428571,171.04910714285714,4546.4,605.1428571428571,171.04910714285714,4649.3,605.1428571428571,171.04910714285714,4751.7,605.1428571428571,171.04910714285714,4853.3,605.1428571428571,171.04910714285714,4962.3]","[316,316,1000,0,-684,""error"",""-"",""-"",""no_move"",4491.4,4174.8,2762.5,1317.1,411.8,""oops"",""up"",""up"",""good_move"",7171.2,2679,2292.8,4492.2,386.2,""smooth"",""up"",""up"",""good_move"",9950.1,2778.4,2423.4,7171.8,355,""oops"",""right"",""left"",""bad_move"",12707.1,2756.1,2385.1,9951,371,""smooth"",""right"",""right"",""good_move"",15477.6,2770,2395.2,12707.6,374.8,""smooth"",""right"",""right"",""good_move"",18962.9,3484,3094.1,15478.9,389.9,""oops"",""right"",""right"",""good_move""]"
"3736","","<div style=""width:500px;"">
  <p>What determined the result of this run?</p>
  </div>","91","html-slider-response","64","1002521","0.0-7.0-1.10","172","1","2025-08-06 10:01:33","36c45c0696341be0efffe67d72a12abb","41.56.250.93","Mozilla/5.0 (Windows NT 10.0; Win64; x64) AppleWebKit/537.36 (KHTML, like Gecko) Chrome/139.0.0.0 Safari/537.36","WebKit","Chrome","139.0.0.0","Windows","10.0","https://app.prolific.com/","en-ZA,en-GB;q=0.9,en-US;q=0.8,en;q=0.7","60292aabf20c7d2af65541a7","6877649eabb845cf142cd221","689327da4072a99bf98a442e","1","60292aabf20c7d2af65541a7","1","2025-08-06T10:18:18.748Z","","","","AttribQ","","","","","","","","","","","50","","","","","","","","","","","","","","","","","","","","","","","","","","",""
"4390","","<div style=""width:500px;"">
  <p>How much control did you have over the ball?</p>
  </div>","80","html-slider-response","65","1006913","0.0-7.0-2.10","172","1","2025-08-06 10:01:33","36c45c0696341be0efffe67d72a12abb","41.56.250.93","Mozilla/5.0 (Windows NT 10.0; Win64; x64) AppleWebKit/537.36 (KHTML, like Gecko) Chrome/139.0.0.0 Safari/537.36","WebKit","Chrome","139.0.0.0","Windows","10.0","https://app.prolific.com/","en-ZA,en-GB;q=0.9,en-US;q=0.8,en;q=0.7","60292aabf20c7d2af65541a7","6877649eabb845cf142cd221","689327da4072a99bf98a442e","1","60292aabf20c7d2af65541a7","1","2025-08-06T10:18:23.139Z","","","","ControlQ","","","","","","","","","","","50","","","","","","","","","","","","","","","","","","","","","","","","","","",""
"3151","","<div style=""width:500px;"">
  <p>How would you describe your current emotional state?</p>
  </div>","58","html-slider-response","66","1010065","0.0-7.0-3.10","172","1","2025-08-06 10:01:33","36c45c0696341be0efffe67d72a12abb","41.56.250.93","Mozilla/5.0 (Windows NT 10.0; Win64; x64) AppleWebKit/537.36 (KHTML, like Gecko) Chrome/139.0.0.0 Safari/537.36","WebKit","Chrome","139.0.0.0","Windows","10.0","https://app.prolific.com/","en-ZA,en-GB;q=0.9,en-US;q=0.8,en;q=0.7","60292aabf20c7d2af65541a7","6877649eabb845cf142cd221","689327da4072a99bf98a442e","1","60292aabf20c7d2af65541a7","1","2025-08-06T10:18:26.291Z","","","","StressQ","","","","","","","","","","","50","","","","","","","","","","","","","","","","","","","","","","","","","","",""
"3063","","<div style=""width:500px;"">
  <p>What best describes how you currently feel?</p>
  </div>","100","html-slider-response","67","1013130","0.0-7.0-4.10","172","1","2025-08-06 10:01:33","36c45c0696341be0efffe67d72a12abb","41.56.250.93","Mozilla/5.0 (Windows NT 10.0; Win64; x64) AppleWebKit/537.36 (KHTML, like Gecko) Chrome/139.0.0.0 Safari/537.36","WebKit","Chrome","139.0.0.0","Windows","10.0","https://app.prolific.com/","en-ZA,en-GB;q=0.9,en-US;q=0.8,en;q=0.7","60292aabf20c7d2af65541a7","6877649eabb845cf142cd221","689327da4072a99bf98a442e","1","60292aabf20c7d2af65541a7","1","2025-08-06T10:18:29.356Z","","","","MotivationQ","","","","","","","","","","","50","","","","","","","","","","","","","","","","","","","","","","","","","","",""
"","","","","ctl-task-cpt","68","1046685","0.0-7.0-0.11","172","1","2025-08-06 10:01:33","36c45c0696341be0efffe67d72a12abb","41.56.250.93","Mozilla/5.0 (Windows NT 10.0; Win64; x64) AppleWebKit/537.36 (KHTML, like Gecko) Chrome/139.0.0.0 Safari/537.36","WebKit","Chrome","139.0.0.0","Windows","10.0","https://app.prolific.com/","en-ZA,en-GB;q=0.9,en-US;q=0.8,en;q=0.7","60292aabf20c7d2af65541a7","6877649eabb845cf142cd221","689327da4072a99bf98a442e","1","60292aabf20c7d2af65541a7","1","2025-08-06T10:19:02.911Z","","","","","","","","","","","","","","","","win-only","3","g1:SW,g2:NE","0.7","12","0","1017152.1","15318.3","20322.5","30532.7","1","4","4","6","1","1","1","16","15","0.12121212121212122","1129.9","3000","1925","[""down"",""left""]","{""num_key_presses"":4,""num_perfect"":4,""num_errors"":0,""num_randdir"":0,""num_randdir_good_moves"":0,""num_whilered"":0,""num_whileblue"":0,""num_blue"":0,""num_good_moves"":4}","[353.14285714285717,350.04910714285717,0.6,353.14285714285717,350.04910714285717,111,353.14285714285717,350.04910714285717,212.2,381.14285714285717,359.04910714285717,320.9,428.14285714285717,361.04910714285717,426.7,461.14285714285717,365.04910714285717,528.7,454.14285714285717,368.04910714285717,645.4,315.14285714285717,491.04910714285717,745.5,110.14285714285714,631.0491071428571,848.4,102.14285714285714,633.0491071428571,952.2,88.14285714285714,642.0491071428571,1052.9,88.14285714285714,642.0491071428571,1154,88.14285714285714,642.0491071428571,1266.3,97.14285714285714,631.0491071428571,1378.9,184.14285714285714,589.0491071428571,1478.9,271.14285714285717,553.0491071428571,1580.1,273.14285714285717,552.0491071428571,1682.6,273.14285714285717,551.0491071428571,1793.8,265.14285714285717,548.0491071428571,1896.9,265.14285714285717,548.0491071428571,1999.4,265.14285714285717,548.0491071428571,2102.8,265.14285714285717,548.0491071428571,2214.1,265.14285714285717,548.0491071428571,2326.7,265.14285714285717,548.0491071428571,2434.9,265.14285714285717,548.0491071428571,2535.2,265.14285714285717,548.0491071428571,2635.6,265.14285714285717,548.0491071428571,2748.3,265.14285714285717,548.0491071428571,2856.7,265.14285714285717,548.0491071428571,2958.4,265.14285714285717,548.0491071428571,3059.5,265.14285714285717,548.0491071428571,3160.6,265.14285714285717,548.0491071428571,3263,265.14285714285717,548.0491071428571,3369.4,265.14285714285717,548.0491071428571,3472.8,265.14285714285717,548.0491071428571,3574.2,265.14285714285717,548.0491071428571,3675,265.14285714285717,548.0491071428571,3786,265.14285714285717,548.0491071428571,3892.7,265.14285714285717,548.0491071428571,3994,265.14285714285717,548.0491071428571,4094.4,265.14285714285717,548.0491071428571,4197.5,265.14285714285717,548.0491071428571,4299.8,265.14285714285717,548.0491071428571,4403.9,265.14285714285717,548.0491071428571,4509.2,265.14285714285717,548.0491071428571,4611.6,265.14285714285717,548.0491071428571,4714.9,265.14285714285717,548.0491071428571,4817.8,265.14285714285717,548.0491071428571,4925.3]","[1545.4,1545.4,1000,0,545.4,""smooth"",""down"",""down"",""good_move"",4154.6,2608.2,2224.4,1546.5,383.8,""smooth"",""down"",""down"",""good_move"",7313.7,3158.3,2813.1,4155.5,345.2,""smooth"",""left"",""left"",""good_move"",10081.1,2767,2409.9,7314.2,357.1,""smooth"",""left"",""left"",""good_move""]"
"65700","","<div style=""width:500px;"">
  <p>What determined the result of this run?</p>
  </div>","97","html-slider-response","69","1112386","0.0-7.0-1.11","172","1","2025-08-06 10:01:33","36c45c0696341be0efffe67d72a12abb","41.56.250.93","Mozilla/5.0 (Windows NT 10.0; Win64; x64) AppleWebKit/537.36 (KHTML, like Gecko) Chrome/139.0.0.0 Safari/537.36","WebKit","Chrome","139.0.0.0","Windows","10.0","https://app.prolific.com/","en-ZA,en-GB;q=0.9,en-US;q=0.8,en;q=0.7","60292aabf20c7d2af65541a7","6877649eabb845cf142cd221","689327da4072a99bf98a442e","1","60292aabf20c7d2af65541a7","1","2025-08-06T10:20:08.612Z","","","","AttribQ","","","","","","","","","","","50","","","","","","","","","","","","","","","","","","","","","","","","","","",""
"10069","","<div style=""width:500px;"">
  <p>How much control did you have over the ball?</p>
  </div>","83","html-slider-response","70","1122457","0.0-7.0-2.11","172","1","2025-08-06 10:01:33","36c45c0696341be0efffe67d72a12abb","41.56.250.93","Mozilla/5.0 (Windows NT 10.0; Win64; x64) AppleWebKit/537.36 (KHTML, like Gecko) Chrome/139.0.0.0 Safari/537.36","WebKit","Chrome","139.0.0.0","Windows","10.0","https://app.prolific.com/","en-ZA,en-GB;q=0.9,en-US;q=0.8,en;q=0.7","60292aabf20c7d2af65541a7","6877649eabb845cf142cd221","689327da4072a99bf98a442e","1","60292aabf20c7d2af65541a7","1","2025-08-06T10:20:18.684Z","","","","ControlQ","","","","","","","","","","","50","","","","","","","","","","","","","","","","","","","","","","","","","","",""
"2774","","<div style=""width:500px;"">
  <p>How would you describe your current emotional state?</p>
  </div>","64","html-slider-response","71","1125234","0.0-7.0-3.11","172","1","2025-08-06 10:01:33","36c45c0696341be0efffe67d72a12abb","41.56.250.93","Mozilla/5.0 (Windows NT 10.0; Win64; x64) AppleWebKit/537.36 (KHTML, like Gecko) Chrome/139.0.0.0 Safari/537.36","WebKit","Chrome","139.0.0.0","Windows","10.0","https://app.prolific.com/","en-ZA,en-GB;q=0.9,en-US;q=0.8,en;q=0.7","60292aabf20c7d2af65541a7","6877649eabb845cf142cd221","689327da4072a99bf98a442e","1","60292aabf20c7d2af65541a7","1","2025-08-06T10:20:21.460Z","","","","StressQ","","","","","","","","","","","50","","","","","","","","","","","","","","","","","","","","","","","","","","",""
"3798","","<div style=""width:500px;"">
  <p>What best describes how you currently feel?</p>
  </div>","98","html-slider-response","72","1129033","0.0-7.0-4.11","172","1","2025-08-06 10:01:33","36c45c0696341be0efffe67d72a12abb","41.56.250.93","Mozilla/5.0 (Windows NT 10.0; Win64; x64) AppleWebKit/537.36 (KHTML, like Gecko) Chrome/139.0.0.0 Safari/537.36","WebKit","Chrome","139.0.0.0","Windows","10.0","https://app.prolific.com/","en-ZA,en-GB;q=0.9,en-US;q=0.8,en;q=0.7","60292aabf20c7d2af65541a7","6877649eabb845cf142cd221","689327da4072a99bf98a442e","1","60292aabf20c7d2af65541a7","1","2025-08-06T10:20:25.259Z","","","","MotivationQ","","","","","","","","","","","50","","","","","","","","","","","","","","","","","","","","","","","","","","",""
"","","","","ctl-task-cpt","73","1156218","0.0-7.0-0.12","172","1","2025-08-06 10:01:33","36c45c0696341be0efffe67d72a12abb","41.56.250.93","Mozilla/5.0 (Windows NT 10.0; Win64; x64) AppleWebKit/537.36 (KHTML, like Gecko) Chrome/139.0.0.0 Safari/537.36","WebKit","Chrome","139.0.0.0","Windows","10.0","https://app.prolific.com/","en-ZA,en-GB;q=0.9,en-US;q=0.8,en;q=0.7","60292aabf20c7d2af65541a7","6877649eabb845cf142cd221","689327da4072a99bf98a442e","1","60292aabf20c7d2af65541a7","1","2025-08-06T10:20:52.444Z","","","","","","","","","","","","","","","","win-only","2","g1:SE,g2:NW","0.8","13","0","1133055.6","1845.9","6846.9","24159.4","1","4","8","6","1","1","0","16","16","0.12121212121212122","2318.5","3000","1860","[""down"",""right""]","{""num_key_presses"":5,""num_perfect"":3,""num_errors"":1,""num_randdir"":1,""num_randdir_good_moves"":1,""num_whilered"":0,""num_whileblue"":0,""num_blue"":1,""num_good_moves"":4}","[347.14285714285717,349.04910714285717,0.4,347.14285714285717,349.04910714285717,102.7,347.14285714285717,349.04910714285717,204.6,347.14285714285717,349.04910714285717,308.1,347.14285714285717,349.04910714285717,412.2,347.14285714285717,349.04910714285717,515.8,451.14285714285717,446.04910714285717,616.4,596.1428571428571,567.0491071428571,731.9,604.1428571428571,580.0491071428571,835,604.1428571428571,582.0491071428571,940.3,611.1428571428571,597.0491071428571,1041.1,611.1428571428571,597.0491071428571,1145.6,611.1428571428571,597.0491071428571,1259,611.1428571428571,597.0491071428571,1371.5,611.1428571428571,597.0491071428571,1474.8,611.1428571428571,597.0491071428571,1575.7,611.1428571428571,597.0491071428571,1682.3,611.1428571428571,598.0491071428571,1785.2,616.1428571428571,611.0491071428571,1886,616.1428571428571,611.0491071428571,1993.6,616.1428571428571,614.0491071428571,2099.8,616.1428571428571,616.0491071428571,2201.3,616.1428571428571,617.0491071428571,2305.7,616.1428571428571,617.0491071428571,2407.7,616.1428571428571,617.0491071428571,2508.1,617.1428571428571,617.0491071428571,2612.8,618.1428571428571,617.0491071428571,2715.4,618.1428571428571,617.0491071428571,2821.8,618.1428571428571,617.0491071428571,2930.3,618.1428571428571,617.0491071428571,3036.4,618.1428571428571,617.0491071428571,3138.6,618.1428571428571,617.0491071428571,3242.3,618.1428571428571,617.0491071428571,3346.7,621.1428571428571,618.0491071428571,3450.3,643.1428571428571,622.0491071428571,3556.7,644.1428571428571,622.0491071428571,3659.4,644.1428571428571,622.0491071428571,3771.4,644.1428571428571,622.0491071428571,3878.9,644.1428571428571,622.0491071428571,3980.5,644.1428571428571,622.0491071428571,4093.3,644.1428571428571,622.0491071428571,4195.7,644.1428571428571,622.0491071428571,4296.2,644.1428571428571,622.0491071428571,4397.4,644.1428571428571,622.0491071428571,4505.8,644.1428571428571,622.0491071428571,4606.4,644.1428571428571,622.0491071428571,4707.2,644.1428571428571,622.0491071428571,4824.3,644.1428571428571,622.0491071428571,4924.4]","[553.6,553.6,1000,0,-446.4,""error"",""-"",""-"",""no_move"",9069.3,8515.3,2663.1,5919.4,486.8,""smooth"",""down"",""down"",""good_move"",11415.3,2345.4,1903.9,9069.9,441.5,""oops"",""right"",""down"",""good_move"",14346.2,2930.2,2530.3,11416.1,399.9,""smooth"",""right"",""right"",""good_move"",17165.2,2818.2,2441.4,14347.1,376.8,""smooth"",""right"",""right"",""good_move""]"
"3718","","<div style=""width:500px;"">
  <p>What determined the result of this run?</p>
  </div>","100","html-slider-response","74","1159938","0.0-7.0-1.12","172","1","2025-08-06 10:01:33","36c45c0696341be0efffe67d72a12abb","41.56.250.93","Mozilla/5.0 (Windows NT 10.0; Win64; x64) AppleWebKit/537.36 (KHTML, like Gecko) Chrome/139.0.0.0 Safari/537.36","WebKit","Chrome","139.0.0.0","Windows","10.0","https://app.prolific.com/","en-ZA,en-GB;q=0.9,en-US;q=0.8,en;q=0.7","60292aabf20c7d2af65541a7","6877649eabb845cf142cd221","689327da4072a99bf98a442e","1","60292aabf20c7d2af65541a7","1","2025-08-06T10:20:56.164Z","","","","AttribQ","","","","","","","","","","","50","","","","","","","","","","","","","","","","","","","","","","","","","","",""
"3230","","<div style=""width:500px;"">
  <p>How much control did you have over the ball?</p>
  </div>","100","html-slider-response","75","1163169","0.0-7.0-2.12","172","1","2025-08-06 10:01:33","36c45c0696341be0efffe67d72a12abb","41.56.250.93","Mozilla/5.0 (Windows NT 10.0; Win64; x64) AppleWebKit/537.36 (KHTML, like Gecko) Chrome/139.0.0.0 Safari/537.36","WebKit","Chrome","139.0.0.0","Windows","10.0","https://app.prolific.com/","en-ZA,en-GB;q=0.9,en-US;q=0.8,en;q=0.7","60292aabf20c7d2af65541a7","6877649eabb845cf142cd221","689327da4072a99bf98a442e","1","60292aabf20c7d2af65541a7","1","2025-08-06T10:20:59.396Z","","","","ControlQ","","","","","","","","","","","50","","","","","","","","","","","","","","","","","","","","","","","","","","",""
"5773","","<div style=""width:500px;"">
  <p>How would you describe your current emotional state?</p>
  </div>","100","html-slider-response","76","1168946","0.0-7.0-3.12","172","1","2025-08-06 10:01:33","36c45c0696341be0efffe67d72a12abb","41.56.250.93","Mozilla/5.0 (Windows NT 10.0; Win64; x64) AppleWebKit/537.36 (KHTML, like Gecko) Chrome/139.0.0.0 Safari/537.36","WebKit","Chrome","139.0.0.0","Windows","10.0","https://app.prolific.com/","en-ZA,en-GB;q=0.9,en-US;q=0.8,en;q=0.7","60292aabf20c7d2af65541a7","6877649eabb845cf142cd221","689327da4072a99bf98a442e","1","60292aabf20c7d2af65541a7","1","2025-08-06T10:21:05.172Z","","","","StressQ","","","","","","","","","","","50","","","","","","","","","","","","","","","","","","","","","","","","","","",""
"3998","","<div style=""width:500px;"">
  <p>What best describes how you currently feel?</p>
  </div>","100","html-slider-response","77","1172945","0.0-7.0-4.12","172","1","2025-08-06 10:01:33","36c45c0696341be0efffe67d72a12abb","41.56.250.93","Mozilla/5.0 (Windows NT 10.0; Win64; x64) AppleWebKit/537.36 (KHTML, like Gecko) Chrome/139.0.0.0 Safari/537.36","WebKit","Chrome","139.0.0.0","Windows","10.0","https://app.prolific.com/","en-ZA,en-GB;q=0.9,en-US;q=0.8,en;q=0.7","60292aabf20c7d2af65541a7","6877649eabb845cf142cd221","689327da4072a99bf98a442e","1","60292aabf20c7d2af65541a7","1","2025-08-06T10:21:09.171Z","","","","MotivationQ","","","","","","","","","","","50","","","","","","","","","","","","","","","","","","","","","","","","","","",""
