"rt","response_timestamp","stimulus","response","trial_type","trial_index","time_elapsed","internal_node_id","run_id","condition","recorded_at","source_code_version","ip","user_agent","device","browser","browser_version","platform","platform_version","referer","accept_language","PROLIFIC_PID","STUDY_ID","SESSION_ID","BATCH","prolific_id","batch","realtime","success","question_order","question_id","eventType","responses","item_order","radio_event_ids","radio_event_times","key_event_times","mouse_event_times","straightlining","zigzagging","honeypot","view_history","slider_start","which_type","canvas_config","goals_layout","control_level","trial_number","tutorial_trial_number","trial_start_time","phase1_start_time","phase2_start_time","phase3_start_time","goal_1_value","goal_1_distance","goal_2_value","goal_2_distance","goal_selected","outcome","outcome_total","participant_final_score","participant_initial_score","participant_final_score_prop","goal_choice_rt","allocated_time","allocated_time_remaining","goal_direction","counts","mouse_movements","key_presses"
"47937","1753865564453","<p style='font-size:40px;line-height:1.25'><strong>Welcome to the experiment!</strong></p><p style='font-size:1.1em;line-height:1.25'>Thank you for participanting in our experiment again! You will be asked to play the Dysfunctional Ball Game again. We will briefly recap the rules before we start.</p><p style='font-size:1.1em;line-height:1.25'>Press <strong>Next</strong> to continue.</p>","0","custom-html-button-response","0","47938","0.0-0.0","63","1","2025-07-30 08:51:55","36c45c0696341be0efffe67d72a12abb","37.225.94.247","Mozilla/5.0 (Windows NT 10.0; Win64; x64) AppleWebKit/537.36 (KHTML, like Gecko) Chrome/138.0.0.0 Safari/537.36","WebKit","Chrome","138.0.0.0","Windows","10.0","https://app.prolific.com/","en-US,en;q=0.9,pl-PL;q=0.8,pl;q=0.7","603a293ee62ae15da2674441","687a19d2168e237449fb8af4","6889dc697f5ae051ce52bb67","0","603a293ee62ae15da2674441","0","2025-07-30T08:52:44.454Z","","","","","","","","","","","","","","","","","","","","","","","","","","","","","","","","","","","","","","","","","",""
"539000","","","","fullscreen","1","587948","0.0-1.0","63","1","2025-07-30 08:51:55","36c45c0696341be0efffe67d72a12abb","37.225.94.247","Mozilla/5.0 (Windows NT 10.0; Win64; x64) AppleWebKit/537.36 (KHTML, like Gecko) Chrome/138.0.0.0 Safari/537.36","WebKit","Chrome","138.0.0.0","Windows","10.0","https://app.prolific.com/","en-US,en;q=0.9,pl-PL;q=0.8,pl;q=0.7","603a293ee62ae15da2674441","687a19d2168e237449fb8af4","6889dc697f5ae051ce52bb67","0","603a293ee62ae15da2674441","0","","true","","","","","","","","","","","","","","","","","","","","","","","","","","","","","","","","","","","","","","","","",""
"2520","1753866106984"," <p style='font-size:1.1em;line-height:1.25'>Thank you for closing all other tabs.</p><p style='font-size:1.1em;line-height:1.25'>We will now invite you to fill in some questionnaires, before starting the game.<br>This will take about 5 minutes.<br></p><p style='font-size:1.1em;line-height:1.25'>Press the <strong>Next</strong> button to continue.</p>","0","custom-html-button-response","2","590470","0.0-2.0","63","1","2025-07-30 08:51:55","36c45c0696341be0efffe67d72a12abb","37.225.94.247","Mozilla/5.0 (Windows NT 10.0; Win64; x64) AppleWebKit/537.36 (KHTML, like Gecko) Chrome/138.0.0.0 Safari/537.36","WebKit","Chrome","138.0.0.0","Windows","10.0","https://app.prolific.com/","en-US,en;q=0.9,pl-PL;q=0.8,pl;q=0.7","603a293ee62ae15da2674441","687a19d2168e237449fb8af4","6889dc697f5ae051ce52bb67","0","603a293ee62ae15da2674441","0","2025-07-30T09:01:46.985Z","","","","","","","","","","","","","","","","","","","","","","","","","","","","","","","","","","","","","","","","","",""
"1649","","","{""assigned_sex"":""male""}","survey-multi-choice","3","592120","0.0-3.0-0.0","63","1","2025-07-30 08:51:55","36c45c0696341be0efffe67d72a12abb","37.225.94.247","Mozilla/5.0 (Windows NT 10.0; Win64; x64) AppleWebKit/537.36 (KHTML, like Gecko) Chrome/138.0.0.0 Safari/537.36","WebKit","Chrome","138.0.0.0","Windows","10.0","https://app.prolific.com/","en-US,en;q=0.9,pl-PL;q=0.8,pl;q=0.7","603a293ee62ae15da2674441","687a19d2168e237449fb8af4","6889dc697f5ae051ce52bb67","0","603a293ee62ae15da2674441","0","","","[0]","0","demographics","","","","","","","","","","","","","","","","","","","","","","","","","","","","","","","","","","","","","",""
"32667","1753866141302","<p style='font-size:1.1em;line-height:1.25'>In the following, we will perform a baseline assessment. This means that we will ask you a few questions relating to your experiences over the past month.<br></p><p style='font-size:1.1em;line-height:1.25'>Press the <strong>Next</strong> button to continue.</p>","0","custom-html-button-response","4","624788","0.0-4.0-0.0","63","1","2025-07-30 08:51:55","36c45c0696341be0efffe67d72a12abb","37.225.94.247","Mozilla/5.0 (Windows NT 10.0; Win64; x64) AppleWebKit/537.36 (KHTML, like Gecko) Chrome/138.0.0.0 Safari/537.36","WebKit","Chrome","138.0.0.0","Windows","10.0","https://app.prolific.com/","en-US,en;q=0.9,pl-PL;q=0.8,pl;q=0.7","603a293ee62ae15da2674441","687a19d2168e237449fb8af4","6889dc697f5ae051ce52bb67","0","603a293ee62ae15da2674441","0","2025-07-30T09:02:21.303Z","","","","","","","","","","","","","","","","","","","","","","","","","","","","","","","","","","","","","","","","","",""
"48959.19999999995","","","","survey-template","5","673750","0.0-4.0-1.0","63","1","2025-07-30 08:51:55","36c45c0696341be0efffe67d72a12abb","37.225.94.247","Mozilla/5.0 (Windows NT 10.0; Win64; x64) AppleWebKit/537.36 (KHTML, like Gecko) Chrome/138.0.0.0 Safari/537.36","WebKit","Chrome","138.0.0.0","Windows","10.0","https://app.prolific.com/","en-US,en;q=0.9,pl-PL;q=0.8,pl;q=0.7","603a293ee62ae15da2674441","687a19d2168e237449fb8af4","6889dc697f5ae051ce52bb67","0","603a293ee62ae15da2674441","0","2025-07-30T09:03:10.265Z","","","","pss","{""Q01"":""1"",""Q02"":""2"",""Q03"":""2"",""Q04"":""1"",""Q05"":""0"",""Q06"":""2"",""Q07"":""2"",""Q08"":""3"",""Q09"":""2"",""Q10"":""2""}","[0,1,2,3,4,5,6,7,8,9]","[""Q01"",""Q03"",""Q02"",""Q04"",""Q05"",""Q07"",""Q08"",""Q09"",""Q10"",""Q08"",""Q06""]","[3017.0999999998603,9457,10012.09999999986,12707.199999999953,15713.199999999953,27502,29310.09999999986,33752.19999999995,35958.09999999986,44039.19999999995,46750.09999999986]","[]","[0.09999999986030161,3017.0999999998603,7223.09999999986,9457,10012.09999999986,12707.199999999953,15713.199999999953,26701.09999999986,27502,29310.09999999986,33752.19999999995,35958.09999999986,40256.09999999986,44039.19999999995,46750.09999999986,48958.09999999986]","0.6","0.5555555555555556","0","","","","","","","","","","","","","","","","","","","","","","","","","","","","",""
"10640","1753866200906","<p style='font-size:1.1em;line-height:1.25'>Thank you for your answers! Now we will ask you a few more questions relating to your feelings in the last 24 hours.<br></p><p style='font-size:1.1em;line-height:1.25'>Press the <strong>Next</strong> button to continue.</p>","0","custom-html-button-response","6","684391","0.0-4.0-2.0","63","1","2025-07-30 08:51:55","36c45c0696341be0efffe67d72a12abb","37.225.94.247","Mozilla/5.0 (Windows NT 10.0; Win64; x64) AppleWebKit/537.36 (KHTML, like Gecko) Chrome/138.0.0.0 Safari/537.36","WebKit","Chrome","138.0.0.0","Windows","10.0","https://app.prolific.com/","en-US,en;q=0.9,pl-PL;q=0.8,pl;q=0.7","603a293ee62ae15da2674441","687a19d2168e237449fb8af4","6889dc697f5ae051ce52bb67","0","603a293ee62ae15da2674441","0","2025-07-30T09:03:20.906Z","","","","","","","","","","","","","","","","","","","","","","","","","","","","","","","","","","","","","","","","","",""
"72796.19999999995","","","","survey-template","7","757192","0.0-4.0-3.0","63","1","2025-07-30 08:51:55","36c45c0696341be0efffe67d72a12abb","37.225.94.247","Mozilla/5.0 (Windows NT 10.0; Win64; x64) AppleWebKit/537.36 (KHTML, like Gecko) Chrome/138.0.0.0 Safari/537.36","WebKit","Chrome","138.0.0.0","Windows","10.0","https://app.prolific.com/","en-US,en;q=0.9,pl-PL;q=0.8,pl;q=0.7","603a293ee62ae15da2674441","687a19d2168e237449fb8af4","6889dc697f5ae051ce52bb67","0","603a293ee62ae15da2674441","0","2025-07-30T09:04:33.707Z","","","","drsp","{""Q01"":""4"",""Q02"":""4"",""Q03"":""4"",""Q04"":""1"",""Q05"":""1"",""Q06"":""1"",""Q07"":""3"",""Q08"":""3"",""Q09"":""3"",""Q10"":""2"",""Q11"":""4"",""Q12"":""2"",""Q13"":""5"",""Q14"":""3"",""Q15"":""4"",""Q16"":""3"",""Q17"":""2"",""Q18"":""4"",""Q19"":""2"",""Q20"":""3"",""Q21"":""4"",""Q22"":""3""}","[0,1,2,3,4,5,6,7,8,9,10,11,12,13,14,15,16,17,18,19,20,21]","[""Q05"",""Q04"",""Q03"",""Q03"",""Q02"",""Q01"",""Q06"",""Q07"",""Q08"",""Q09"",""Q10"",""Q11"",""Q12"",""Q13"",""Q14"",""Q15"",""Q16"",""Q17"",""Q18"",""Q20"",""Q19"",""Q21"",""Q22""]","[2084.0999999998603,3557.0999999998603,4596.199999999953,5463,6792.09999999986,7398.899999999907,11165.799999999814,13585,13918,15858,17216,19225.09999999986,20753.799999999814,22946.899999999907,24712.09999999986,26375.899999999907,29463,31289.199999999953,34770,65475.299999999814,66235,67971.79999999981,70258.19999999995]","[]","[0.09999999986030161,2084.0999999998603,3557.0999999998603,4291.199999999953,4596.199999999953,5042.799999999814,5463,6390.899999999907,6792.09999999986,7398.899999999907,11165.799999999814,13002,13333.899999999907,13585,13918,14197.199999999953,15858,17216,18736.09999999986,19225.09999999986,20375.09999999986,20753.799999999814,22946.899999999907,24712.09999999986,26375.899999999907,29463,31289.199999999953,33117.19999999995,33438,33748.39999999991,34770,63801.09999999986,64541.39999999991,65475.299999999814,65955,66235,67971.79999999981,70258.19999999995,72794.19999999995]","0.3181818181818182","0.3333333333333333","0","","","","","","","","","","","","","","","","","","","","","","","","","","","","",""
"16771.800000000047","","","","survey-template","8","773973","0.0-4.0-4.0","63","1","2025-07-30 08:51:55","36c45c0696341be0efffe67d72a12abb","37.225.94.247","Mozilla/5.0 (Windows NT 10.0; Win64; x64) AppleWebKit/537.36 (KHTML, like Gecko) Chrome/138.0.0.0 Safari/537.36","WebKit","Chrome","138.0.0.0","Windows","10.0","https://app.prolific.com/","en-US,en;q=0.9,pl-PL;q=0.8,pl;q=0.7","603a293ee62ae15da2674441","687a19d2168e237449fb8af4","6889dc697f5ae051ce52bb67","0","603a293ee62ae15da2674441","0","2025-07-30T09:04:50.488Z","","","","stress","{""Q01"":""2"",""Q02"":""3"",""Q03"":""2""}","[0,1,2]","[""Q02"",""Q03"",""Q01""]","[8444.300000000047,13072.300000000047,14090.40000000014]","[]","[8444.300000000047,13072.300000000047,14090.40000000014,16771.300000000047]","1","0","0","","","","","","","","","","","","","","","","","","","","","","","","","","","","",""
"78788","","","","instructions","9","852771","0.0-5.0-0.0","63","1","2025-07-30 08:51:55","36c45c0696341be0efffe67d72a12abb","37.225.94.247","Mozilla/5.0 (Windows NT 10.0; Win64; x64) AppleWebKit/537.36 (KHTML, like Gecko) Chrome/138.0.0.0 Safari/537.36","WebKit","Chrome","138.0.0.0","Windows","10.0","https://app.prolific.com/","en-US,en;q=0.9,pl-PL;q=0.8,pl;q=0.7","603a293ee62ae15da2674441","687a19d2168e237449fb8af4","6889dc697f5ae051ce52bb67","0","603a293ee62ae15da2674441","0","","","","","","","","","","","","","","","[{""page_index"":0,""viewing_time"":78788}]","","","","","","","","","","","","","","","","","","","","","","","","","","","",""
"2568","","<p>Before you start with this game please answer the following three questions yourself. </p>
  <p>Through this game, we measure several aspects of your cognitive performance, such as reaction times, multi-tasking capabilities </p>
  <p>and the ability to assess the situation you are in.</p>
  <p></p>
  <p><b>How good do you usually are in such tasks?</b></p>","86","html-slider-response","10","855340","0.0-6.0-0.0","63","1","2025-07-30 08:51:55","36c45c0696341be0efffe67d72a12abb","37.225.94.247","Mozilla/5.0 (Windows NT 10.0; Win64; x64) AppleWebKit/537.36 (KHTML, like Gecko) Chrome/138.0.0.0 Safari/537.36","WebKit","Chrome","138.0.0.0","Windows","10.0","https://app.prolific.com/","en-US,en;q=0.9,pl-PL;q=0.8,pl;q=0.7","603a293ee62ae15da2674441","687a19d2168e237449fb8af4","6889dc697f5ae051ce52bb67","0","603a293ee62ae15da2674441","0","2025-07-30T09:06:11.855Z","","","","PreSkillQ","","","","","","","","","","","50","","","","","","","","","","","","","","","","","","","","","","","","","","",""
"2431","","<div style=""width:500px;"">
  <p>How well do you think you will perform in this task compared to other participants?</p>
  </div>","77","html-slider-response","11","857772","0.0-6.0-1.0","63","1","2025-07-30 08:51:55","36c45c0696341be0efffe67d72a12abb","37.225.94.247","Mozilla/5.0 (Windows NT 10.0; Win64; x64) AppleWebKit/537.36 (KHTML, like Gecko) Chrome/138.0.0.0 Safari/537.36","WebKit","Chrome","138.0.0.0","Windows","10.0","https://app.prolific.com/","en-US,en;q=0.9,pl-PL;q=0.8,pl;q=0.7","603a293ee62ae15da2674441","687a19d2168e237449fb8af4","6889dc697f5ae051ce52bb67","0","603a293ee62ae15da2674441","0","2025-07-30T09:06:14.287Z","","","","PrePerfQ","","","","","","","","","","","50","","","","","","","","","","","","","","","","","","","","","","","","","","",""
"2246","","<div style=""width:500px;"">
  <p>What best describes how you currently feel?</p>
  </div>","23","html-slider-response","12","860018","0.0-6.0-2.0","63","1","2025-07-30 08:51:55","36c45c0696341be0efffe67d72a12abb","37.225.94.247","Mozilla/5.0 (Windows NT 10.0; Win64; x64) AppleWebKit/537.36 (KHTML, like Gecko) Chrome/138.0.0.0 Safari/537.36","WebKit","Chrome","138.0.0.0","Windows","10.0","https://app.prolific.com/","en-US,en;q=0.9,pl-PL;q=0.8,pl;q=0.7","603a293ee62ae15da2674441","687a19d2168e237449fb8af4","6889dc697f5ae051ce52bb67","0","603a293ee62ae15da2674441","0","2025-07-30T09:06:16.533Z","","","","PreMotivationQ","","","","","","","","","","","50","","","","","","","","","","","","","","","","","","","","","","","","","","",""
"","","","","ctl-task-cpt","13","897177","0.0-7.0-0.0","63","1","2025-07-30 08:51:55","36c45c0696341be0efffe67d72a12abb","37.225.94.247","Mozilla/5.0 (Windows NT 10.0; Win64; x64) AppleWebKit/537.36 (KHTML, like Gecko) Chrome/138.0.0.0 Safari/537.36","WebKit","Chrome","138.0.0.0","Windows","10.0","https://app.prolific.com/","en-US,en;q=0.9,pl-PL;q=0.8,pl;q=0.7","603a293ee62ae15da2674441","687a19d2168e237449fb8af4","6889dc697f5ae051ce52bb67","0","603a293ee62ae15da2674441","0","2025-07-30T09:06:53.692Z","","","","","","","","","","","","","","","","win-only","1","g1:NE,g2:SW","1","1","0","861740.1","1691.7","6697","34152.6","1","4","8","6","2","8","7","7","0","0.05303030303030303","2696.9","3000","810","[""down"",""left""]","{""num_key_presses"":7,""num_perfect"":6,""num_errors"":1,""num_randdir"":0,""num_randdir_good_moves"":0,""num_whilered"":0,""num_whileblue"":0,""num_blue"":3,""num_good_moves"":6}","[414.57142857142856,413.47767857142856,0.3,414.57142857142856,413.47767857142856,104.7,414.57142857142856,413.47767857142856,209,414.57142857142856,413.47767857142856,309.6,414.57142857142856,413.47767857142856,410,414.57142857142856,413.47767857142856,514.1,414.57142857142856,413.47767857142856,614.4,414.57142857142856,413.47767857142856,719.4,414.57142857142856,413.47767857142856,824.6,414.57142857142856,413.47767857142856,928.7,414.57142857142856,413.47767857142856,1029.7,414.57142857142856,413.47767857142856,1134.2,414.57142857142856,413.47767857142856,1234.3,414.57142857142856,413.47767857142856,1338.6,414.57142857142856,413.47767857142856,1439.3,414.57142857142856,413.47767857142856,1544.3,415.57142857142856,413.47767857142856,1644.3,420.57142857142856,415.47767857142856,1744.3,421.57142857142856,416.47767857142856,1844.6,421.57142857142856,416.47767857142856,1944.7,421.57142857142856,416.47767857142856,2049.4,421.57142857142856,416.47767857142856,2149.4,437.57142857142856,414.47767857142856,2254.3,497.57142857142856,409.47767857142856,2359.2,435.57142857142856,454.47767857142856,2459.2,133.57142857142856,625.4776785714286,2564.7,96.57142857142857,710.4776785714286,2664.8,88.57142857142857,748.4776785714286,2769.2,89.57142857142857,744.4776785714286,2873.6,221.57142857142856,644.4776785714286,2973.6,354.57142857142856,563.4776785714286,3073.7,354.57142857142856,562.4776785714286,3174.6,354.57142857142856,562.4776785714286,3274.6,354.57142857142856,562.4776785714286,3378.9,354.57142857142856,562.4776785714286,3479.4,354.57142857142856,562.4776785714286,3579.7,354.57142857142856,561.4776785714286,3683.7,354.57142857142856,561.4776785714286,3784.7,354.57142857142856,561.4776785714286,3889.7,354.57142857142856,561.4776785714286,3993.6,354.57142857142856,561.4776785714286,4093.6,354.57142857142856,561.4776785714286,4194.5,354.57142857142856,561.4776785714286,4294.9,354.57142857142856,561.4776785714286,4399.9,354.57142857142856,561.4776785714286,4504.5,354.57142857142856,561.4776785714286,4604.7,354.57142857142856,561.4776785714286,4708.9,354.57142857142856,561.4776785714286,4814.9,354.57142857142856,561.4776785714286,4914.9]","[220.3,220.4,1000,0,-779.6,""error"",""-"",""-"",""no_move"",7528.6,7308.1,2462.4,4669.2,397,""smooth"",""down"",""down"",""good_move"",10668.4,3139.3,2829.8,7529.1,309.5,""smooth"",""left"",""left"",""good_move"",16669.4,6000.6,2661.6,13704.3,303.5,""smooth"",""down"",""down"",""good_move"",19258.6,2589.1,2112,16669.6,477,""smooth"",""down"",""down"",""good_move"",24943.8,5685,2320.7,22234.5,388.6,""smooth"",""left"",""left"",""good_move"",27368.4,2424.4,2082.6,24944,341.9,""smooth"",""left"",""left"",""good_move""]"
"2480","","<div style=""width:500px;"">
  <p>What determined the result of this run?</p>
  </div>","83","html-slider-response","14","899658","0.0-7.0-1.0","63","1","2025-07-30 08:51:55","36c45c0696341be0efffe67d72a12abb","37.225.94.247","Mozilla/5.0 (Windows NT 10.0; Win64; x64) AppleWebKit/537.36 (KHTML, like Gecko) Chrome/138.0.0.0 Safari/537.36","WebKit","Chrome","138.0.0.0","Windows","10.0","https://app.prolific.com/","en-US,en;q=0.9,pl-PL;q=0.8,pl;q=0.7","603a293ee62ae15da2674441","687a19d2168e237449fb8af4","6889dc697f5ae051ce52bb67","0","603a293ee62ae15da2674441","0","2025-07-30T09:06:56.173Z","","","","AttribQ","","","","","","","","","","","50","","","","","","","","","","","","","","","","","","","","","","","","","","",""
"1502","","<div style=""width:500px;"">
  <p>How much control did you have over the ball?</p>
  </div>","89","html-slider-response","15","901161","0.0-7.0-2.0","63","1","2025-07-30 08:51:55","36c45c0696341be0efffe67d72a12abb","37.225.94.247","Mozilla/5.0 (Windows NT 10.0; Win64; x64) AppleWebKit/537.36 (KHTML, like Gecko) Chrome/138.0.0.0 Safari/537.36","WebKit","Chrome","138.0.0.0","Windows","10.0","https://app.prolific.com/","en-US,en;q=0.9,pl-PL;q=0.8,pl;q=0.7","603a293ee62ae15da2674441","687a19d2168e237449fb8af4","6889dc697f5ae051ce52bb67","0","603a293ee62ae15da2674441","0","2025-07-30T09:06:57.676Z","","","","ControlQ","","","","","","","","","","","50","","","","","","","","","","","","","","","","","","","","","","","","","","",""
"2280","","<div style=""width:500px;"">
  <p>How would you describe your current emotional state?</p>
  </div>","18","html-slider-response","16","903449","0.0-7.0-3.0","63","1","2025-07-30 08:51:55","36c45c0696341be0efffe67d72a12abb","37.225.94.247","Mozilla/5.0 (Windows NT 10.0; Win64; x64) AppleWebKit/537.36 (KHTML, like Gecko) Chrome/138.0.0.0 Safari/537.36","WebKit","Chrome","138.0.0.0","Windows","10.0","https://app.prolific.com/","en-US,en;q=0.9,pl-PL;q=0.8,pl;q=0.7","603a293ee62ae15da2674441","687a19d2168e237449fb8af4","6889dc697f5ae051ce52bb67","0","603a293ee62ae15da2674441","0","2025-07-30T09:06:59.964Z","","","","StressQ","","","","","","","","","","","50","","","","","","","","","","","","","","","","","","","","","","","","","","",""
"1741","","<div style=""width:500px;"">
  <p>What best describes how you currently feel?</p>
  </div>","36","html-slider-response","17","905191","0.0-7.0-4.0","63","1","2025-07-30 08:51:55","36c45c0696341be0efffe67d72a12abb","37.225.94.247","Mozilla/5.0 (Windows NT 10.0; Win64; x64) AppleWebKit/537.36 (KHTML, like Gecko) Chrome/138.0.0.0 Safari/537.36","WebKit","Chrome","138.0.0.0","Windows","10.0","https://app.prolific.com/","en-US,en;q=0.9,pl-PL;q=0.8,pl;q=0.7","603a293ee62ae15da2674441","687a19d2168e237449fb8af4","6889dc697f5ae051ce52bb67","0","603a293ee62ae15da2674441","0","2025-07-30T09:07:01.706Z","","","","MotivationQ","","","","","","","","","","","50","","","","","","","","","","","","","","","","","","","","","","","","","","",""
"","","","","ctl-task-cpt","18","948471","0.0-7.0-0.1","63","1","2025-07-30 08:51:55","36c45c0696341be0efffe67d72a12abb","37.225.94.247","Mozilla/5.0 (Windows NT 10.0; Win64; x64) AppleWebKit/537.36 (KHTML, like Gecko) Chrome/138.0.0.0 Safari/537.36","WebKit","Chrome","138.0.0.0","Windows","10.0","https://app.prolific.com/","en-US,en;q=0.9,pl-PL;q=0.8,pl;q=0.7","603a293ee62ae15da2674441","687a19d2168e237449fb8af4","6889dc697f5ae051ce52bb67","0","603a293ee62ae15da2674441","0","2025-07-30T09:07:44.986Z","","","","","","","","","","","","","","","","win-only","3","g1:SW,g2:NE","0.9","2","0","906905.5","618.6","5620.9","40266.2","1","4","4","6","2","4","4","11","7","0.08333333333333333","881.9","3000","635","[""up"",""right""]","{""num_key_presses"":8,""num_perfect"":7,""num_errors"":0,""num_randdir"":1,""num_randdir_good_moves"":0,""num_whilered"":0,""num_whileblue"":0,""num_blue"":4,""num_good_moves"":7}","[423.57142857142856,428.47767857142856,0.1,422.57142857142856,427.47767857142856,101.9,420.57142857142856,420.47767857142856,202,353.57142857142856,462.47767857142856,302.6,127.57142857142857,698.4776785714286,407.1,164.57142857142856,694.4776785714286,507.5,589.5714285714286,291.47767857142856,612.2,677.5714285714286,168.47767857142856,712.4,729.5714285714286,96.47767857142857,816.8,758.5714285714286,67.47767857142857,916.8,743.5714285714286,102.47767857142857,1017.4,583.5714285714286,460.47767857142856,1122.6,455.57142857142856,561.4776785714286,1223.7,454.57142857142856,540.4776785714286,1327.1,457.57142857142856,541.4776785714286,1467,510.57142857142856,575.4776785714286,1567.1,511.57142857142856,572.4776785714286,1667.4,511.57142857142856,572.4776785714286,1767.6,511.57142857142856,572.4776785714286,1871.9,511.57142857142856,572.4776785714286,1976.6,511.57142857142856,572.4776785714286,2077.6,511.57142857142856,572.4776785714286,2182.6,511.57142857142856,572.4776785714286,2286.5,511.57142857142856,572.4776785714286,2386.5,511.57142857142856,572.4776785714286,2487.4,511.57142857142856,572.4776785714286,2587.5,511.57142857142856,572.4776785714286,2687.9,511.57142857142856,572.4776785714286,2792.5,511.57142857142856,572.4776785714286,2892.8,511.57142857142856,572.4776785714286,2996.6,511.57142857142856,572.4776785714286,3097.6,511.57142857142856,572.4776785714286,3202.4,511.57142857142856,572.4776785714286,3302.8,511.57142857142856,572.4776785714286,3406.6,511.57142857142856,572.4776785714286,3506.7,511.57142857142856,572.4776785714286,3607.7,511.57142857142856,572.4776785714286,3711.7,511.57142857142856,572.4776785714286,3812.3,511.57142857142856,572.4776785714286,3916.9,511.57142857142856,572.4776785714286,4017,511.57142857142856,572.4776785714286,4122.3,511.57142857142856,572.4776785714286,4222.3,511.57142857142856,572.4776785714286,4326.9,511.57142857142856,572.4776785714286,4426.9,511.57142857142856,572.4776785714286,4531.9,511.57142857142856,572.4776785714286,4632,511.57142857142856,572.4776785714286,4732.2,511.57142857142856,572.4776785714286,4836.7,511.57142857142856,572.4776785714286,4937.9]","[1377.5,1377.5,1000,0,377.5,""smooth"",""right"",""right"",""good_move"",8231.3,6853.4,2917.8,5019.8,293.7,""smooth"",""right"",""right"",""good_move"",10811.1,2579.7,2311.9,8231.4,267.8,""smooth"",""up"",""up"",""good_move"",17170.5,6359.1,2532.2,14325,313.3,""oops"",""up"",""down"",""bad_move"",27114.5,9943.8,2328.4,24500.5,285.6,""smooth"",""up"",""up"",""good_move"",29779.4,2664.8,2329.2,27114.6,335.6,""smooth"",""up"",""up"",""good_move"",32526.3,2746.6,2455.4,29779.7,291.2,""smooth"",""right"",""right"",""good_move"",34556.2,2029.7,1718.9,32526.5,310.8,""smooth"",""up"",""up"",""good_move""]"
"3194","","<div style=""width:500px;"">
  <p>What determined the result of this run?</p>
  </div>","70","html-slider-response","19","951666","0.0-7.0-1.1","63","1","2025-07-30 08:51:55","36c45c0696341be0efffe67d72a12abb","37.225.94.247","Mozilla/5.0 (Windows NT 10.0; Win64; x64) AppleWebKit/537.36 (KHTML, like Gecko) Chrome/138.0.0.0 Safari/537.36","WebKit","Chrome","138.0.0.0","Windows","10.0","https://app.prolific.com/","en-US,en;q=0.9,pl-PL;q=0.8,pl;q=0.7","603a293ee62ae15da2674441","687a19d2168e237449fb8af4","6889dc697f5ae051ce52bb67","0","603a293ee62ae15da2674441","0","2025-07-30T09:07:48.182Z","","","","AttribQ","","","","","","","","","","","50","","","","","","","","","","","","","","","","","","","","","","","","","","",""
"2029","","<div style=""width:500px;"">
  <p>How much control did you have over the ball?</p>
  </div>","68","html-slider-response","20","953696","0.0-7.0-2.1","63","1","2025-07-30 08:51:55","36c45c0696341be0efffe67d72a12abb","37.225.94.247","Mozilla/5.0 (Windows NT 10.0; Win64; x64) AppleWebKit/537.36 (KHTML, like Gecko) Chrome/138.0.0.0 Safari/537.36","WebKit","Chrome","138.0.0.0","Windows","10.0","https://app.prolific.com/","en-US,en;q=0.9,pl-PL;q=0.8,pl;q=0.7","603a293ee62ae15da2674441","687a19d2168e237449fb8af4","6889dc697f5ae051ce52bb67","0","603a293ee62ae15da2674441","0","2025-07-30T09:07:50.211Z","","","","ControlQ","","","","","","","","","","","50","","","","","","","","","","","","","","","","","","","","","","","","","","",""
"2005","","<div style=""width:500px;"">
  <p>How would you describe your current emotional state?</p>
  </div>","28","html-slider-response","21","955702","0.0-7.0-3.1","63","1","2025-07-30 08:51:55","36c45c0696341be0efffe67d72a12abb","37.225.94.247","Mozilla/5.0 (Windows NT 10.0; Win64; x64) AppleWebKit/537.36 (KHTML, like Gecko) Chrome/138.0.0.0 Safari/537.36","WebKit","Chrome","138.0.0.0","Windows","10.0","https://app.prolific.com/","en-US,en;q=0.9,pl-PL;q=0.8,pl;q=0.7","603a293ee62ae15da2674441","687a19d2168e237449fb8af4","6889dc697f5ae051ce52bb67","0","603a293ee62ae15da2674441","0","2025-07-30T09:07:52.217Z","","","","StressQ","","","","","","","","","","","50","","","","","","","","","","","","","","","","","","","","","","","","","","",""
"936","","<div style=""width:500px;"">
  <p>What best describes how you currently feel?</p>
  </div>","22","html-slider-response","22","956639","0.0-7.0-4.1","63","1","2025-07-30 08:51:55","36c45c0696341be0efffe67d72a12abb","37.225.94.247","Mozilla/5.0 (Windows NT 10.0; Win64; x64) AppleWebKit/537.36 (KHTML, like Gecko) Chrome/138.0.0.0 Safari/537.36","WebKit","Chrome","138.0.0.0","Windows","10.0","https://app.prolific.com/","en-US,en;q=0.9,pl-PL;q=0.8,pl;q=0.7","603a293ee62ae15da2674441","687a19d2168e237449fb8af4","6889dc697f5ae051ce52bb67","0","603a293ee62ae15da2674441","0","2025-07-30T09:07:53.154Z","","","","MotivationQ","","","","","","","","","","","50","","","","","","","","","","","","","","","","","","","","","","","","","","",""
"","","","","ctl-task-cpt","23","983411","0.0-7.0-0.2","63","1","2025-07-30 08:51:55","36c45c0696341be0efffe67d72a12abb","37.225.94.247","Mozilla/5.0 (Windows NT 10.0; Win64; x64) AppleWebKit/537.36 (KHTML, like Gecko) Chrome/138.0.0.0 Safari/537.36","WebKit","Chrome","138.0.0.0","Windows","10.0","https://app.prolific.com/","en-US,en;q=0.9,pl-PL;q=0.8,pl;q=0.7","603a293ee62ae15da2674441","687a19d2168e237449fb8af4","6889dc697f5ae051ce52bb67","0","603a293ee62ae15da2674441","0","2025-07-30T09:08:19.926Z","","","","","","","","","","","","","","","","win-only","2","g1:SE,g2:NW","0.8","3","0","958353.6","2513.7","7515.8","23745.9","1","4","8","6","2","8","8","19","11","0.14393939393939395","1019.7","3000","1120","[""left"",""up""]","{""num_key_presses"":6,""num_perfect"":5,""num_errors"":0,""num_randdir"":1,""num_randdir_good_moves"":1,""num_whilered"":0,""num_whileblue"":0,""num_blue"":0,""num_good_moves"":6}","[424.57142857142856,405.47767857142856,0.3,424.57142857142856,405.47767857142856,103,424.57142857142856,405.47767857142856,206.5,486.57142857142856,446.47767857142856,306.7,501.57142857142856,474.47767857142856,407.5,488.57142857142856,474.47767857142856,511.6,350.57142857142856,361.47767857142856,612.5,164.57142857142856,147.47767857142856,717.3,145.57142857142856,120.47767857142857,821.7,138.57142857142856,115.47767857142857,922.9,95.57142857142857,93.47767857142857,1023.7,94.57142857142857,95.47767857142857,1127.1,219.57142857142856,361.47767857142856,1227.8,256.57142857142856,408.47767857142856,1333,256.57142857142856,405.47767857142856,1436.6,256.57142857142856,405.47767857142856,1536.9,256.57142857142856,405.47767857142856,1637.3,256.57142857142856,405.47767857142856,1737.4,256.57142857142856,405.47767857142856,1837.6,256.57142857142856,405.47767857142856,1942.8,256.57142857142856,405.47767857142856,2042.8,256.57142857142856,405.47767857142856,2147.9,256.57142857142856,405.47767857142856,2251.9,256.57142857142856,405.47767857142856,2352,256.57142857142856,405.47767857142856,2452,256.57142857142856,405.47767857142856,2552.1,256.57142857142856,405.47767857142856,2652.2,256.57142857142856,405.47767857142856,2756.7,256.57142857142856,405.47767857142856,2862.2,256.57142857142856,405.47767857142856,2966.7,256.57142857142856,405.47767857142856,3067,256.57142857142856,405.47767857142856,3167.2,256.57142857142856,405.47767857142856,3272.5,256.57142857142856,405.47767857142856,3377.1,256.57142857142856,405.47767857142856,3477.2,256.57142857142856,405.47767857142856,3577.7,256.57142857142856,405.47767857142856,3677.7,256.57142857142856,405.47767857142856,3782.4,256.57142857142856,405.47767857142856,3882.6,256.57142857142856,405.47767857142856,3987.5,256.57142857142856,405.47767857142856,4092.8,256.57142857142856,405.47767857142856,4196.6,256.57142857142856,405.47767857142856,4296.8,256.57142857142856,405.47767857142856,4397.8,256.57142857142856,405.47767857142856,4501.7,256.57142857142856,405.47767857142856,4602.3,256.57142857142856,405.47767857142856,4702.5,256.57142857142856,405.47767857142856,4802.5,256.57142857142856,405.47767857142856,4906.8]","[1375.9,1375.9,1000,0,375.9,""smooth"",""left"",""left"",""good_move"",5191.3,3815.1,3577,1376.2,238.1,""smooth"",""up"",""up"",""good_move"",8059.3,2867.7,2514.6,5191.6,353.1,""oops"",""left"",""up"",""good_move"",10938.6,2879,2554.8,8059.6,324.2,""smooth"",""left"",""left"",""good_move"",13436.5,2497.7,2184.1,10938.8,313.6,""smooth"",""left"",""left"",""good_move"",16144.4,2707.7,2404.4,13436.7,303.3,""smooth"",""up"",""up"",""good_move""]"
"1941","","<div style=""width:500px;"">
  <p>What determined the result of this run?</p>
  </div>","92","html-slider-response","24","985354","0.0-7.0-1.2","63","1","2025-07-30 08:51:55","36c45c0696341be0efffe67d72a12abb","37.225.94.247","Mozilla/5.0 (Windows NT 10.0; Win64; x64) AppleWebKit/537.36 (KHTML, like Gecko) Chrome/138.0.0.0 Safari/537.36","WebKit","Chrome","138.0.0.0","Windows","10.0","https://app.prolific.com/","en-US,en;q=0.9,pl-PL;q=0.8,pl;q=0.7","603a293ee62ae15da2674441","687a19d2168e237449fb8af4","6889dc697f5ae051ce52bb67","0","603a293ee62ae15da2674441","0","2025-07-30T09:08:21.869Z","","","","AttribQ","","","","","","","","","","","50","","","","","","","","","","","","","","","","","","","","","","","","","","",""
"1139","","<div style=""width:500px;"">
  <p>How much control did you have over the ball?</p>
  </div>","75","html-slider-response","25","986494","0.0-7.0-2.2","63","1","2025-07-30 08:51:55","36c45c0696341be0efffe67d72a12abb","37.225.94.247","Mozilla/5.0 (Windows NT 10.0; Win64; x64) AppleWebKit/537.36 (KHTML, like Gecko) Chrome/138.0.0.0 Safari/537.36","WebKit","Chrome","138.0.0.0","Windows","10.0","https://app.prolific.com/","en-US,en;q=0.9,pl-PL;q=0.8,pl;q=0.7","603a293ee62ae15da2674441","687a19d2168e237449fb8af4","6889dc697f5ae051ce52bb67","0","603a293ee62ae15da2674441","0","2025-07-30T09:08:23.009Z","","","","ControlQ","","","","","","","","","","","50","","","","","","","","","","","","","","","","","","","","","","","","","","",""
"828","","<div style=""width:500px;"">
  <p>How would you describe your current emotional state?</p>
  </div>","17","html-slider-response","26","987323","0.0-7.0-3.2","63","1","2025-07-30 08:51:55","36c45c0696341be0efffe67d72a12abb","37.225.94.247","Mozilla/5.0 (Windows NT 10.0; Win64; x64) AppleWebKit/537.36 (KHTML, like Gecko) Chrome/138.0.0.0 Safari/537.36","WebKit","Chrome","138.0.0.0","Windows","10.0","https://app.prolific.com/","en-US,en;q=0.9,pl-PL;q=0.8,pl;q=0.7","603a293ee62ae15da2674441","687a19d2168e237449fb8af4","6889dc697f5ae051ce52bb67","0","603a293ee62ae15da2674441","0","2025-07-30T09:08:23.838Z","","","","StressQ","","","","","","","","","","","50","","","","","","","","","","","","","","","","","","","","","","","","","","",""
"1359","","<div style=""width:500px;"">
  <p>What best describes how you currently feel?</p>
  </div>","23","html-slider-response","27","988683","0.0-7.0-4.2","63","1","2025-07-30 08:51:55","36c45c0696341be0efffe67d72a12abb","37.225.94.247","Mozilla/5.0 (Windows NT 10.0; Win64; x64) AppleWebKit/537.36 (KHTML, like Gecko) Chrome/138.0.0.0 Safari/537.36","WebKit","Chrome","138.0.0.0","Windows","10.0","https://app.prolific.com/","en-US,en;q=0.9,pl-PL;q=0.8,pl;q=0.7","603a293ee62ae15da2674441","687a19d2168e237449fb8af4","6889dc697f5ae051ce52bb67","0","603a293ee62ae15da2674441","0","2025-07-30T09:08:25.198Z","","","","MotivationQ","","","","","","","","","","","50","","","","","","","","","","","","","","","","","","","","","","","","","","",""
"","","","","ctl-task-cpt","28","1032879","0.0-7.0-0.3","63","1","2025-07-30 08:51:55","36c45c0696341be0efffe67d72a12abb","37.225.94.247","Mozilla/5.0 (Windows NT 10.0; Win64; x64) AppleWebKit/537.36 (KHTML, like Gecko) Chrome/138.0.0.0 Safari/537.36","WebKit","Chrome","138.0.0.0","Windows","10.0","https://app.prolific.com/","en-US,en;q=0.9,pl-PL;q=0.8,pl;q=0.7","603a293ee62ae15da2674441","687a19d2168e237449fb8af4","6889dc697f5ae051ce52bb67","0","603a293ee62ae15da2674441","0","2025-07-30T09:09:09.395Z","","","","","","","","","","","","","","","","win-only","3","g1:SW,g2:NE","0.7","4","0","990389.6","513","5517.3","41171","1","4","4","6","2","-4","-6","13","19","0.09848484848484848","792.6","3000","-3015","[""up"",""right""]","{""num_key_presses"":11,""num_perfect"":6,""num_errors"":2,""num_randdir"":3,""num_randdir_good_moves"":1,""num_whilered"":0,""num_whileblue"":2,""num_blue"":3,""num_good_moves"":7}","[416.57142857142856,407.47767857142856,0.2,416.57142857142856,407.47767857142856,100.1,406.57142857142856,408.47767857142856,202.4,442.57142857142856,414.47767857142856,302.4,228.57142857142856,583.4776785714286,402.8,187.57142857142856,621.4776785714286,507.3,614.5714285714286,177.47767857142856,607.3,749.5714285714286,81.47767857142857,708,763.5714285714286,68.47767857142857,812.2,749.5714285714286,97.47767857142857,912.4,588.5714285714286,359.47767857142856,1017.2,530.5714285714286,422.47767857142856,1118,530.5714285714286,422.47767857142856,1222.5,530.5714285714286,422.47767857142856,1322.5,530.5714285714286,422.47767857142856,1422.6,530.5714285714286,422.47767857142856,1523.3,530.5714285714286,422.47767857142856,1627.5,530.5714285714286,422.47767857142856,1727.7,530.5714285714286,422.47767857142856,1828,530.5714285714286,422.47767857142856,1933.1,530.5714285714286,422.47767857142856,2033.5,530.5714285714286,422.47767857142856,2138.9,530.5714285714286,422.47767857142856,2242.5,530.5714285714286,422.47767857142856,2342.8,530.5714285714286,422.47767857142856,2448.2,530.5714285714286,422.47767857142856,2552.5,530.5714285714286,422.47767857142856,2652.9,530.5714285714286,422.47767857142856,2757.2,530.5714285714286,422.47767857142856,2857.9,530.5714285714286,422.47767857142856,2959.1,530.5714285714286,422.47767857142856,3062.2,530.5714285714286,422.47767857142856,3162.4,530.5714285714286,422.47767857142856,3267.7,530.5714285714286,422.47767857142856,3372.6,530.5714285714286,422.47767857142856,3472.9,530.5714285714286,422.47767857142856,3577.2,530.5714285714286,422.47767857142856,3677.5,530.5714285714286,422.47767857142856,3777.5,530.5714285714286,422.47767857142856,3882.4,530.5714285714286,422.47767857142856,3983.2,530.5714285714286,422.47767857142856,4087.5,530.5714285714286,422.47767857142856,4187.5,530.5714285714286,422.47767857142856,4292.9,530.5714285714286,422.47767857142856,4397.3,530.5714285714286,422.47767857142856,4498,530.5714285714286,422.47767857142856,4599.2,530.5714285714286,422.47767857142856,4702.3,530.5714285714286,422.47767857142856,4803.1,530.5714285714286,422.47767857142856,4909.4]","[4772.1,4772.1,2407.5,2005,359.6,""smooth"",""right"",""right"",""good_move"",7699.9,2927.4,2665.8,4772.5,261.6,""while_blue"",""right"",""down"",""bad_move"",10677.9,2977.6,2517.7,7700.3,459.9,""oops"",""right"",""up"",""good_move"",14200.3,3522.3,3200.4,10678.1,321.9,""smooth"",""right"",""right"",""good_move"",17327.4,3126.8,2838.4,14200.6,288.4,""oops"",""up"",""down"",""bad_move"",19226,1898.4,1541.1,17327.6,357.3,""smooth"",""up"",""up"",""good_move"",21813,2586.9,2301.5,19226.1,285.4,""smooth"",""up"",""up"",""good_move"",24403.8,2590.6,2270.9,21813.2,319.7,""smooth"",""up"",""up"",""good_move"",27031,2626.9,2358.2,24404.1,268.7,""oops"",""right"",""left"",""bad_move"",30249.4,3218.1,2921.1,27031.3,297,""smooth"",""right"",""right"",""good_move"",33249.3,2999.6,2734.4,30249.7,265.2,""while_blue"",""right"",""down"",""bad_move""]"
"1450","","<div style=""width:500px;"">
  <p>What determined the result of this run?</p>
  </div>","8","html-slider-response","29","1034331","0.0-7.0-1.3","63","1","2025-07-30 08:51:55","36c45c0696341be0efffe67d72a12abb","37.225.94.247","Mozilla/5.0 (Windows NT 10.0; Win64; x64) AppleWebKit/537.36 (KHTML, like Gecko) Chrome/138.0.0.0 Safari/537.36","WebKit","Chrome","138.0.0.0","Windows","10.0","https://app.prolific.com/","en-US,en;q=0.9,pl-PL;q=0.8,pl;q=0.7","603a293ee62ae15da2674441","687a19d2168e237449fb8af4","6889dc697f5ae051ce52bb67","0","603a293ee62ae15da2674441","0","2025-07-30T09:09:10.846Z","","","","AttribQ","","","","","","","","","","","50","","","","","","","","","","","","","","","","","","","","","","","","","","",""
"2634","","<div style=""width:500px;"">
  <p>How much control did you have over the ball?</p>
  </div>","15","html-slider-response","30","1036966","0.0-7.0-2.3","63","1","2025-07-30 08:51:55","36c45c0696341be0efffe67d72a12abb","37.225.94.247","Mozilla/5.0 (Windows NT 10.0; Win64; x64) AppleWebKit/537.36 (KHTML, like Gecko) Chrome/138.0.0.0 Safari/537.36","WebKit","Chrome","138.0.0.0","Windows","10.0","https://app.prolific.com/","en-US,en;q=0.9,pl-PL;q=0.8,pl;q=0.7","603a293ee62ae15da2674441","687a19d2168e237449fb8af4","6889dc697f5ae051ce52bb67","0","603a293ee62ae15da2674441","0","2025-07-30T09:09:13.481Z","","","","ControlQ","","","","","","","","","","","50","","","","","","","","","","","","","","","","","","","","","","","","","","",""
"1578","","<div style=""width:500px;"">
  <p>How would you describe your current emotional state?</p>
  </div>","39","html-slider-response","31","1038545","0.0-7.0-3.3","63","1","2025-07-30 08:51:55","36c45c0696341be0efffe67d72a12abb","37.225.94.247","Mozilla/5.0 (Windows NT 10.0; Win64; x64) AppleWebKit/537.36 (KHTML, like Gecko) Chrome/138.0.0.0 Safari/537.36","WebKit","Chrome","138.0.0.0","Windows","10.0","https://app.prolific.com/","en-US,en;q=0.9,pl-PL;q=0.8,pl;q=0.7","603a293ee62ae15da2674441","687a19d2168e237449fb8af4","6889dc697f5ae051ce52bb67","0","603a293ee62ae15da2674441","0","2025-07-30T09:09:15.060Z","","","","StressQ","","","","","","","","","","","50","","","","","","","","","","","","","","","","","","","","","","","","","","",""
"1518","","<div style=""width:500px;"">
  <p>What best describes how you currently feel?</p>
  </div>","39","html-slider-response","32","1040064","0.0-7.0-4.3","63","1","2025-07-30 08:51:55","36c45c0696341be0efffe67d72a12abb","37.225.94.247","Mozilla/5.0 (Windows NT 10.0; Win64; x64) AppleWebKit/537.36 (KHTML, like Gecko) Chrome/138.0.0.0 Safari/537.36","WebKit","Chrome","138.0.0.0","Windows","10.0","https://app.prolific.com/","en-US,en;q=0.9,pl-PL;q=0.8,pl;q=0.7","603a293ee62ae15da2674441","687a19d2168e237449fb8af4","6889dc697f5ae051ce52bb67","0","603a293ee62ae15da2674441","0","2025-07-30T09:09:16.579Z","","","","MotivationQ","","","","","","","","","","","50","","","","","","","","","","","","","","","","","","","","","","","","","","",""
"","","","","ctl-task-cpt","33","1074437","0.0-7.0-0.4","63","1","2025-07-30 08:51:55","36c45c0696341be0efffe67d72a12abb","37.225.94.247","Mozilla/5.0 (Windows NT 10.0; Win64; x64) AppleWebKit/537.36 (KHTML, like Gecko) Chrome/138.0.0.0 Safari/537.36","WebKit","Chrome","138.0.0.0","Windows","10.0","https://app.prolific.com/","en-US,en;q=0.9,pl-PL;q=0.8,pl;q=0.7","603a293ee62ae15da2674441","687a19d2168e237449fb8af4","6889dc697f5ae051ce52bb67","0","603a293ee62ae15da2674441","0","2025-07-30T09:09:50.952Z","","","","","","","","","","","","","","","","win-only","1","g1:NE,g2:SW","0.6","5","0","1041763.5","615.2","5615.8","31355.3","1","4","4","6","2","4","4","17","13","0.12878787878787878","930.6","3000","50","[""down"",""left""]","{""num_key_presses"":8,""num_perfect"":5,""num_errors"":0,""num_randdir"":3,""num_randdir_good_moves"":2,""num_whilered"":0,""num_whileblue"":0,""num_blue"":1,""num_good_moves"":7}","[417.57142857142856,422.47767857142856,0.2,417.57142857142856,422.47767857142856,100.8,408.57142857142856,436.47767857142856,205.4,418.57142857142856,436.47767857142856,310.4,711.5714285714286,148.47767857142856,410.6,682.5714285714286,86.47767857142857,510.9,424.57142857142856,404.47767857142856,615.7,249.57142857142856,657.4776785714286,720.9,171.57142857142856,716.4776785714286,825.8,100.57142857142857,745.4776785714286,927.4,98.57142857142857,746.4776785714286,1030.4,229.57142857142856,656.4776785714286,1130.8,294.57142857142856,640.4776785714286,1235.2,297.57142857142856,636.4776785714286,1335.8,297.57142857142856,636.4776785714286,1440.9,297.57142857142856,636.4776785714286,1540.9,297.57142857142856,636.4776785714286,1641,297.57142857142856,636.4776785714286,1741,297.57142857142856,636.4776785714286,1845.9,297.57142857142856,636.4776785714286,1950.6,297.57142857142856,636.4776785714286,2051.1,297.57142857142856,636.4776785714286,2156.1,297.57142857142856,636.4776785714286,2260.7,297.57142857142856,636.4776785714286,2365,297.57142857142856,636.4776785714286,2465.7,297.57142857142856,636.4776785714286,2566.5,297.57142857142856,636.4776785714286,2670.8,297.57142857142856,636.4776785714286,2775.2,297.57142857142856,636.4776785714286,2875.7,297.57142857142856,636.4776785714286,2975.9,297.57142857142856,636.4776785714286,3081.2,297.57142857142856,636.4776785714286,3186.6,297.57142857142856,636.4776785714286,3290.1,297.57142857142856,636.4776785714286,3391.3,297.57142857142856,636.4776785714286,3491.6,297.57142857142856,636.4776785714286,3591.6,297.57142857142856,636.4776785714286,3691.6,297.57142857142856,636.4776785714286,3795.4,297.57142857142856,636.4776785714286,3895.4,297.57142857142856,636.4776785714286,4051.1,297.57142857142856,636.4776785714286,4156,297.57142857142856,636.4776785714286,4261.1,297.57142857142856,636.4776785714286,4365.8,297.57142857142856,636.4776785714286,4470.9,297.57142857142856,636.4776785714286,4575.1,297.57142857142856,636.4776785714286,4675.7,297.57142857142856,636.4776785714286,4776.2,297.57142857142856,636.4776785714286,4881.5,297.57142857142856,636.4776785714286,4985.4]","[1546.9,1546.9,1000,0,546.9,""oops"",""down"",""right"",""bad_move"",4671.7,3124.5,2718.6,1547.2,405.9,""smooth"",""down"",""down"",""good_move"",7932.9,3260.9,2503.2,4672,757.7,""oops"",""down"",""down"",""good_move"",10775.7,2842.5,2580.6,7933.2,261.9,""smooth"",""left"",""left"",""good_move"",13216.9,2440.8,2205.5,10776.1,235.3,""smooth"",""left"",""left"",""good_move"",19518.6,6301.5,2829.5,16435.2,253.9,""smooth"",""left"",""left"",""good_move"",22849.8,3331,3065.8,19518.8,265.2,""oops"",""down"",""left"",""good_move"",25652.9,2802.8,2527.2,22850.1,275.6,""smooth"",""down"",""down"",""good_move""]"
"3324","","<div style=""width:500px;"">
  <p>What determined the result of this run?</p>
  </div>","68","html-slider-response","34","1077763","0.0-7.0-1.4","63","1","2025-07-30 08:51:55","36c45c0696341be0efffe67d72a12abb","37.225.94.247","Mozilla/5.0 (Windows NT 10.0; Win64; x64) AppleWebKit/537.36 (KHTML, like Gecko) Chrome/138.0.0.0 Safari/537.36","WebKit","Chrome","138.0.0.0","Windows","10.0","https://app.prolific.com/","en-US,en;q=0.9,pl-PL;q=0.8,pl;q=0.7","603a293ee62ae15da2674441","687a19d2168e237449fb8af4","6889dc697f5ae051ce52bb67","0","603a293ee62ae15da2674441","0","2025-07-30T09:09:54.278Z","","","","AttribQ","","","","","","","","","","","50","","","","","","","","","","","","","","","","","","","","","","","","","","",""
"986","","<div style=""width:500px;"">
  <p>How much control did you have over the ball?</p>
  </div>","77","html-slider-response","35","1078749","0.0-7.0-2.4","63","1","2025-07-30 08:51:55","36c45c0696341be0efffe67d72a12abb","37.225.94.247","Mozilla/5.0 (Windows NT 10.0; Win64; x64) AppleWebKit/537.36 (KHTML, like Gecko) Chrome/138.0.0.0 Safari/537.36","WebKit","Chrome","138.0.0.0","Windows","10.0","https://app.prolific.com/","en-US,en;q=0.9,pl-PL;q=0.8,pl;q=0.7","603a293ee62ae15da2674441","687a19d2168e237449fb8af4","6889dc697f5ae051ce52bb67","0","603a293ee62ae15da2674441","0","2025-07-30T09:09:55.264Z","","","","ControlQ","","","","","","","","","","","50","","","","","","","","","","","","","","","","","","","","","","","","","","",""
"1750","","<div style=""width:500px;"">
  <p>How would you describe your current emotional state?</p>
  </div>","17","html-slider-response","36","1080500","0.0-7.0-3.4","63","1","2025-07-30 08:51:55","36c45c0696341be0efffe67d72a12abb","37.225.94.247","Mozilla/5.0 (Windows NT 10.0; Win64; x64) AppleWebKit/537.36 (KHTML, like Gecko) Chrome/138.0.0.0 Safari/537.36","WebKit","Chrome","138.0.0.0","Windows","10.0","https://app.prolific.com/","en-US,en;q=0.9,pl-PL;q=0.8,pl;q=0.7","603a293ee62ae15da2674441","687a19d2168e237449fb8af4","6889dc697f5ae051ce52bb67","0","603a293ee62ae15da2674441","0","2025-07-30T09:09:57.015Z","","","","StressQ","","","","","","","","","","","50","","","","","","","","","","","","","","","","","","","","","","","","","","",""
"9324","","<div style=""width:500px;"">
  <p>What best describes how you currently feel?</p>
  </div>","15","html-slider-response","37","1089833","0.0-7.0-4.4","63","1","2025-07-30 08:51:55","36c45c0696341be0efffe67d72a12abb","37.225.94.247","Mozilla/5.0 (Windows NT 10.0; Win64; x64) AppleWebKit/537.36 (KHTML, like Gecko) Chrome/138.0.0.0 Safari/537.36","WebKit","Chrome","138.0.0.0","Windows","10.0","https://app.prolific.com/","en-US,en;q=0.9,pl-PL;q=0.8,pl;q=0.7","603a293ee62ae15da2674441","687a19d2168e237449fb8af4","6889dc697f5ae051ce52bb67","0","603a293ee62ae15da2674441","0","2025-07-30T09:10:06.348Z","","","","MotivationQ","","","","","","","","","","","50","","","","","","","","","","","","","","","","","","","","","","","","","","",""
"","","","","ctl-task-cpt","38","1135001","0.0-7.0-0.5","63","1","2025-07-30 08:51:55","36c45c0696341be0efffe67d72a12abb","37.225.94.247","Mozilla/5.0 (Windows NT 10.0; Win64; x64) AppleWebKit/537.36 (KHTML, like Gecko) Chrome/138.0.0.0 Safari/537.36","WebKit","Chrome","138.0.0.0","Windows","10.0","https://app.prolific.com/","en-US,en;q=0.9,pl-PL;q=0.8,pl;q=0.7","603a293ee62ae15da2674441","687a19d2168e237449fb8af4","6889dc697f5ae051ce52bb67","0","603a293ee62ae15da2674441","0","2025-07-30T09:10:51.516Z","","","","","","","","","","","","","","","","win-only","3","g1:SW,g2:NE","0.5","6","0","1091525","715.6","5717.5","42150.9","1","4","8","6","2","-8","-8","9","17","0.06818181818181818","712.9","3000","-3015","[""up"",""right""]","{""num_key_presses"":10,""num_perfect"":5,""num_errors"":0,""num_randdir"":5,""num_randdir_good_moves"":2,""num_whilered"":0,""num_whileblue"":0,""num_blue"":2,""num_good_moves"":7}","[415.57142857142856,417.47767857142856,0.2,415.57142857142856,418.47767857142856,101.3,415.57142857142856,448.47767857142856,204.9,398.57142857142856,488.47767857142856,305.4,538.5714285714286,337.47767857142856,409.8,690.5714285714286,146.47767857142856,510.6,730.5714285714286,97.47767857142857,615,752.5714285714286,82.47767857142857,715.7,752.5714285714286,82.47767857142857,819.8,692.5714285714286,181.47767857142856,920.3,583.5714285714286,232.47767857142856,1020.4,583.5714285714286,232.47767857142856,1120.4,583.5714285714286,232.47767857142856,1221.1,583.5714285714286,232.47767857142856,1324.7,583.5714285714286,232.47767857142856,1424.9,583.5714285714286,232.47767857142856,1525,583.5714285714286,232.47767857142856,1630.5,583.5714285714286,232.47767857142856,1735,583.5714285714286,232.47767857142856,1835.9,583.5714285714286,232.47767857142856,1939.7,583.5714285714286,232.47767857142856,2041.5,583.5714285714286,232.47767857142856,2144.9,583.5714285714286,232.47767857142856,2245.3,583.5714285714286,232.47767857142856,2345.4,583.5714285714286,232.47767857142856,2450.6,583.5714285714286,232.47767857142856,2555,583.5714285714286,232.47767857142856,2659.6,583.5714285714286,232.47767857142856,2759.7,583.5714285714286,232.47767857142856,2860.5,583.5714285714286,232.47767857142856,2964.9,583.5714285714286,232.47767857142856,3070.5,583.5714285714286,232.47767857142856,3174.7,583.5714285714286,232.47767857142856,3275.1,583.5714285714286,232.47767857142856,3379.6,583.5714285714286,232.47767857142856,3479.7,583.5714285714286,232.47767857142856,3579.8,583.5714285714286,232.47767857142856,3680.7,583.5714285714286,232.47767857142856,3785.2,583.5714285714286,232.47767857142856,3885.2,583.5714285714286,232.47767857142856,3985.6,583.5714285714286,232.47767857142856,4089.6,583.5714285714286,232.47767857142856,4191.5,583.5714285714286,232.47767857142856,4295.5,583.5714285714286,232.47767857142856,4399.9,583.5714285714286,232.47767857142856,4500.2,583.5714285714286,232.47767857142856,4605,583.5714285714286,232.47767857142856,4709.7,583.5714285714286,232.47767857142856,4809.8,583.5714285714286,232.47767857142856,4910.4]","[1308.9,1308.9,1000,0,308.9,""oops"",""right"",""left"",""bad_move"",4205.6,2896.5,2616.7,1309.1,279.8,""oops"",""right"",""left"",""bad_move"",6659.7,2453.8,2148.1,4205.9,305.7,""smooth"",""right"",""right"",""good_move"",13084.6,6424.7,2488.7,10344,251.9,""smooth"",""right"",""right"",""good_move"",16133.6,3048.8,2801.5,13084.9,247.2,""smooth"",""right"",""right"",""good_move"",17805.8,1671.9,1304.3,16133.9,367.6,""oops"",""right"",""up"",""good_move"",20608.7,2802.6,2500.8,17806.1,301.8,""oops"",""right"",""left"",""bad_move"",27172.3,6563.2,2106.1,24708.4,357.8,""oops"",""right"",""up"",""good_move"",30496.8,3324.3,3076.8,27172.6,247.5,""smooth"",""right"",""right"",""good_move"",33537.2,3039.9,2784,30497.3,255.9,""smooth"",""right"",""right"",""good_move""]"
"1351","","<div style=""width:500px;"">
  <p>What determined the result of this run?</p>
  </div>","8","html-slider-response","39","1136353","0.0-7.0-1.5","63","1","2025-07-30 08:51:55","36c45c0696341be0efffe67d72a12abb","37.225.94.247","Mozilla/5.0 (Windows NT 10.0; Win64; x64) AppleWebKit/537.36 (KHTML, like Gecko) Chrome/138.0.0.0 Safari/537.36","WebKit","Chrome","138.0.0.0","Windows","10.0","https://app.prolific.com/","en-US,en;q=0.9,pl-PL;q=0.8,pl;q=0.7","603a293ee62ae15da2674441","687a19d2168e237449fb8af4","6889dc697f5ae051ce52bb67","0","603a293ee62ae15da2674441","0","2025-07-30T09:10:52.868Z","","","","AttribQ","","","","","","","","","","","50","","","","","","","","","","","","","","","","","","","","","","","","","","",""
"1194","","<div style=""width:500px;"">
  <p>How much control did you have over the ball?</p>
  </div>","9","html-slider-response","40","1137548","0.0-7.0-2.5","63","1","2025-07-30 08:51:55","36c45c0696341be0efffe67d72a12abb","37.225.94.247","Mozilla/5.0 (Windows NT 10.0; Win64; x64) AppleWebKit/537.36 (KHTML, like Gecko) Chrome/138.0.0.0 Safari/537.36","WebKit","Chrome","138.0.0.0","Windows","10.0","https://app.prolific.com/","en-US,en;q=0.9,pl-PL;q=0.8,pl;q=0.7","603a293ee62ae15da2674441","687a19d2168e237449fb8af4","6889dc697f5ae051ce52bb67","0","603a293ee62ae15da2674441","0","2025-07-30T09:10:54.063Z","","","","ControlQ","","","","","","","","","","","50","","","","","","","","","","","","","","","","","","","","","","","","","","",""
"3008","","<div style=""width:500px;"">
  <p>How would you describe your current emotional state?</p>
  </div>","63","html-slider-response","41","1140557","0.0-7.0-3.5","63","1","2025-07-30 08:51:55","36c45c0696341be0efffe67d72a12abb","37.225.94.247","Mozilla/5.0 (Windows NT 10.0; Win64; x64) AppleWebKit/537.36 (KHTML, like Gecko) Chrome/138.0.0.0 Safari/537.36","WebKit","Chrome","138.0.0.0","Windows","10.0","https://app.prolific.com/","en-US,en;q=0.9,pl-PL;q=0.8,pl;q=0.7","603a293ee62ae15da2674441","687a19d2168e237449fb8af4","6889dc697f5ae051ce52bb67","0","603a293ee62ae15da2674441","0","2025-07-30T09:10:57.072Z","","","","StressQ","","","","","","","","","","","50","","","","","","","","","","","","","","","","","","","","","","","","","","",""
"739","","<div style=""width:500px;"">
  <p>What best describes how you currently feel?</p>
  </div>","31","html-slider-response","42","1141297","0.0-7.0-4.5","63","1","2025-07-30 08:51:55","36c45c0696341be0efffe67d72a12abb","37.225.94.247","Mozilla/5.0 (Windows NT 10.0; Win64; x64) AppleWebKit/537.36 (KHTML, like Gecko) Chrome/138.0.0.0 Safari/537.36","WebKit","Chrome","138.0.0.0","Windows","10.0","https://app.prolific.com/","en-US,en;q=0.9,pl-PL;q=0.8,pl;q=0.7","603a293ee62ae15da2674441","687a19d2168e237449fb8af4","6889dc697f5ae051ce52bb67","0","603a293ee62ae15da2674441","0","2025-07-30T09:10:57.812Z","","","","MotivationQ","","","","","","","","","","","50","","","","","","","","","","","","","","","","","","","","","","","","","","",""
"","","","","ctl-task-cpt","43","1183453","0.0-7.0-0.6","63","1","2025-07-30 08:51:55","36c45c0696341be0efffe67d72a12abb","37.225.94.247","Mozilla/5.0 (Windows NT 10.0; Win64; x64) AppleWebKit/537.36 (KHTML, like Gecko) Chrome/138.0.0.0 Safari/537.36","WebKit","Chrome","138.0.0.0","Windows","10.0","https://app.prolific.com/","en-US,en;q=0.9,pl-PL;q=0.8,pl;q=0.7","603a293ee62ae15da2674441","687a19d2168e237449fb8af4","6889dc697f5ae051ce52bb67","0","603a293ee62ae15da2674441","0","2025-07-30T09:11:39.968Z","","","","","","","","","","","","","","","","win-only","2","g1:SE,g2:NW","0.4","7","0","1142989.4","849.5","5851.2","39130.3","1","4","8","6","2","-8","-10","0","9","0","724","3000","-2910","[""left"",""up""]","{""num_key_presses"":13,""num_perfect"":4,""num_errors"":2,""num_randdir"":6,""num_randdir_good_moves"":3,""num_whilered"":1,""num_whileblue"":0,""num_blue"":0,""num_good_moves"":7}","[407.57142857142856,415.47767857142856,0.4,407.57142857142856,415.47767857142856,102,407.57142857142856,416.47767857142856,206.9,497.57142857142856,532.4776785714286,308.8,559.5714285714286,575.4776785714286,411.6,344.57142857142856,284.47767857142856,517.6,137.57142857142856,117.47767857142857,621.8,116.57142857142857,109.47767857142857,721.9,116.57142857142857,109.47767857142857,821.9,147.57142857142856,212.47767857142856,921.9,284.57142857142856,412.47767857142856,1022,286.57142857142856,420.47767857142856,1122.8,286.57142857142856,410.47767857142856,1223,286.57142857142856,410.47767857142856,1326,286.57142857142856,410.47767857142856,1433.9,286.57142857142856,410.47767857142856,1536.1,286.57142857142856,410.47767857142856,1636.4,286.57142857142856,410.47767857142856,1741,286.57142857142856,410.47767857142856,1841.3,286.57142857142856,410.47767857142856,1941.6,286.57142857142856,410.47767857142856,2045.9,286.57142857142856,410.47767857142856,2145.9,286.57142857142856,410.47767857142856,2251.3,286.57142857142856,410.47767857142856,2351.6,286.57142857142856,410.47767857142856,2456.6,286.57142857142856,410.47767857142856,2561.2,286.57142857142856,410.47767857142856,2666.6,286.57142857142856,410.47767857142856,2770.9,286.57142857142856,410.47767857142856,2876.5,286.57142857142856,410.47767857142856,2980.8,286.57142857142856,410.47767857142856,3081,286.57142857142856,410.47767857142856,3186.4,286.57142857142856,410.47767857142856,3290.7,286.57142857142856,410.47767857142856,3391.8,286.57142857142856,410.47767857142856,3496,286.57142857142856,410.47767857142856,3600.8,286.57142857142856,410.47767857142856,3701.2,286.57142857142856,410.47767857142856,3801.8,286.57142857142856,410.47767857142856,3906.2,286.57142857142856,410.47767857142856,4006.3,286.57142857142856,410.47767857142856,4111.3,286.57142857142856,410.47767857142856,4211.9,286.57142857142856,410.47767857142856,4316.4,286.57142857142856,410.47767857142856,4421.9,286.57142857142856,410.47767857142856,4526.1,286.57142857142856,410.47767857142856,4631.4,286.57142857142856,410.47767857142856,4736.4,286.57142857142856,410.47767857142856,4836.7,286.57142857142856,410.47767857142856,4940.7]","[1364.8,1364.8,1000,0,364.8,""oops"",""left"",""left"",""good_move"",3546.7,2181.6,1919.9,1365.1,261.7,""oops"",""left"",""down"",""bad_move"",6693.3,3146.2,2803.7,3547.1,342.5,""smooth"",""left"",""left"",""good_move"",9144.1,2450.5,2157.1,6693.6,293.4,""oops"",""up"",""down"",""bad_move"",11817.1,2672.7,2370,9144.5,302.7,""smooth"",""up"",""up"",""good_move"",14893.6,3076.2,2808.4,11817.4,267.8,""oops"",""up"",""left"",""good_move"",15447.8,553.8,1996.7,14894,-1442.9,""error"",""-"",""-"",""no_move"",19271.9,3823.9,2533.1,16449.3,289.5,""smooth"",""up"",""up"",""good_move"",21855.1,2583,2299.1,19272.1,283.9,""smooth"",""up"",""up"",""good_move"",24895.9,3040.4,2768.9,21855.5,271.5,""oops"",""up"",""right"",""bad_move"",27401.9,2505.7,2219.1,24896.2,286.6,""oops"",""left"",""left"",""good_move"",29982.8,2580.8,2872.7,27402,-291.9,""error"",""-"",""-"",""no_move"",30353.8,370.8,2872.7,27402,79.1,""while_red"",""-"",""-"",""no_move""]"
"1137","","<div style=""width:500px;"">
  <p>What determined the result of this run?</p>
  </div>","0","html-slider-response","44","1184591","0.0-7.0-1.6","63","1","2025-07-30 08:51:55","36c45c0696341be0efffe67d72a12abb","37.225.94.247","Mozilla/5.0 (Windows NT 10.0; Win64; x64) AppleWebKit/537.36 (KHTML, like Gecko) Chrome/138.0.0.0 Safari/537.36","WebKit","Chrome","138.0.0.0","Windows","10.0","https://app.prolific.com/","en-US,en;q=0.9,pl-PL;q=0.8,pl;q=0.7","603a293ee62ae15da2674441","687a19d2168e237449fb8af4","6889dc697f5ae051ce52bb67","0","603a293ee62ae15da2674441","0","2025-07-30T09:11:41.106Z","","","","AttribQ","","","","","","","","","","","50","","","","","","","","","","","","","","","","","","","","","","","","","","",""
"1274","","<div style=""width:500px;"">
  <p>How much control did you have over the ball?</p>
  </div>","0","html-slider-response","45","1185866","0.0-7.0-2.6","63","1","2025-07-30 08:51:55","36c45c0696341be0efffe67d72a12abb","37.225.94.247","Mozilla/5.0 (Windows NT 10.0; Win64; x64) AppleWebKit/537.36 (KHTML, like Gecko) Chrome/138.0.0.0 Safari/537.36","WebKit","Chrome","138.0.0.0","Windows","10.0","https://app.prolific.com/","en-US,en;q=0.9,pl-PL;q=0.8,pl;q=0.7","603a293ee62ae15da2674441","687a19d2168e237449fb8af4","6889dc697f5ae051ce52bb67","0","603a293ee62ae15da2674441","0","2025-07-30T09:11:42.381Z","","","","ControlQ","","","","","","","","","","","50","","","","","","","","","","","","","","","","","","","","","","","","","","",""
"894","","<div style=""width:500px;"">
  <p>How would you describe your current emotional state?</p>
  </div>","100","html-slider-response","46","1186761","0.0-7.0-3.6","63","1","2025-07-30 08:51:55","36c45c0696341be0efffe67d72a12abb","37.225.94.247","Mozilla/5.0 (Windows NT 10.0; Win64; x64) AppleWebKit/537.36 (KHTML, like Gecko) Chrome/138.0.0.0 Safari/537.36","WebKit","Chrome","138.0.0.0","Windows","10.0","https://app.prolific.com/","en-US,en;q=0.9,pl-PL;q=0.8,pl;q=0.7","603a293ee62ae15da2674441","687a19d2168e237449fb8af4","6889dc697f5ae051ce52bb67","0","603a293ee62ae15da2674441","0","2025-07-30T09:11:43.276Z","","","","StressQ","","","","","","","","","","","50","","","","","","","","","","","","","","","","","","","","","","","","","","",""
"1726","","<div style=""width:500px;"">
  <p>What best describes how you currently feel?</p>
  </div>","37","html-slider-response","47","1188488","0.0-7.0-4.6","63","1","2025-07-30 08:51:55","36c45c0696341be0efffe67d72a12abb","37.225.94.247","Mozilla/5.0 (Windows NT 10.0; Win64; x64) AppleWebKit/537.36 (KHTML, like Gecko) Chrome/138.0.0.0 Safari/537.36","WebKit","Chrome","138.0.0.0","Windows","10.0","https://app.prolific.com/","en-US,en;q=0.9,pl-PL;q=0.8,pl;q=0.7","603a293ee62ae15da2674441","687a19d2168e237449fb8af4","6889dc697f5ae051ce52bb67","0","603a293ee62ae15da2674441","0","2025-07-30T09:11:45.003Z","","","","MotivationQ","","","","","","","","","","","50","","","","","","","","","","","","","","","","","","","","","","","","","","",""
"","","","","ctl-task-cpt","48","1241080","0.0-7.0-0.7","63","1","2025-07-30 08:51:55","36c45c0696341be0efffe67d72a12abb","37.225.94.247","Mozilla/5.0 (Windows NT 10.0; Win64; x64) AppleWebKit/537.36 (KHTML, like Gecko) Chrome/138.0.0.0 Safari/537.36","WebKit","Chrome","138.0.0.0","Windows","10.0","https://app.prolific.com/","en-US,en;q=0.9,pl-PL;q=0.8,pl;q=0.7","603a293ee62ae15da2674441","687a19d2168e237449fb8af4","6889dc697f5ae051ce52bb67","0","603a293ee62ae15da2674441","0","2025-07-30T09:12:37.595Z","","","","","","","","","","","","","","","","win-only","3","g1:SW,g2:NE","0.3","8","0","1190173.5","1101","6105.8","49566.1","1","4","4","6","2","-4","-6","0","0","0","961.5","3000","-3015","[""up"",""right""]","{""num_key_presses"":14,""num_perfect"":4,""num_errors"":2,""num_randdir"":8,""num_randdir_good_moves"":4,""num_whilered"":0,""num_whileblue"":2,""num_blue"":3,""num_good_moves"":9}","[418.57142857142856,420.47767857142856,0.2,418.57142857142856,420.47767857142856,104.4,418.57142857142856,420.47767857142856,209.7,418.57142857142856,420.47767857142856,314.7,411.57142857142856,433.47767857142856,415,391.57142857142856,483.47767857142856,515,450.57142857142856,391.47767857142856,615.1,651.5714285714286,112.47767857142857,715.1,691.5714285714286,81.47767857142857,819.3,737.5714285714286,88.47767857142857,919.3,738.5714285714286,88.47767857142857,1019.3,734.5714285714286,94.47767857142857,1120.4,560.5714285714286,325.47767857142856,1224.6,526.5714285714286,354.47767857142856,1324.9,526.5714285714286,354.47767857142856,1429.3,526.5714285714286,354.47767857142856,1529.7,526.5714285714286,354.47767857142856,1629.9,526.5714285714286,354.47767857142856,1735,526.5714285714286,354.47767857142856,1835.1,526.5714285714286,354.47767857142856,1939.2,526.5714285714286,354.47767857142856,2039.4,526.5714285714286,354.47767857142856,2139.5,526.5714285714286,354.47767857142856,2239.9,526.5714285714286,354.47767857142856,2344.3,526.5714285714286,354.47767857142856,2444.7,526.5714285714286,354.47767857142856,2549.2,526.5714285714286,354.47767857142856,2649.8,526.5714285714286,354.47767857142856,2755,526.5714285714286,354.47767857142856,2855.2,526.5714285714286,354.47767857142856,2960,526.5714285714286,354.47767857142856,3064.4,526.5714285714286,354.47767857142856,3164.6,526.5714285714286,354.47767857142856,3264.7,526.5714285714286,354.47767857142856,3364.8,526.5714285714286,354.47767857142856,3469.4,526.5714285714286,354.47767857142856,3570.3,526.5714285714286,354.47767857142856,3674.5,526.5714285714286,354.47767857142856,3774.5,526.5714285714286,354.47767857142856,3874.6,526.5714285714286,354.47767857142856,3979.4,526.5714285714286,354.47767857142856,4085.6,526.5714285714286,354.47767857142856,4189.8,526.5714285714286,354.47767857142856,4290.5,526.5714285714286,354.47767857142856,4394.5,526.5714285714286,354.47767857142856,4494.7,526.5714285714286,354.47767857142856,4595.2,526.5714285714286,354.47767857142856,4699.9,526.5714285714286,354.47767857142856,4799.9,526.5714285714286,354.47767857142856,4900.1]","[5064.1,5064.1,2817.5,2010.3,236.3,""oops"",""right"",""up"",""good_move"",8703.3,3638.8,3367.3,5064.5,271.5,""oops"",""right"",""down"",""bad_move"",11287.9,2584.4,2255.6,8703.5,328.8,""smooth"",""right"",""right"",""good_move"",14796.4,3508.1,3187.9,11288.3,320.2,""smooth"",""right"",""right"",""good_move"",17949.5,3152.9,2847.9,14796.6,305,""oops"",""up"",""up"",""good_move"",20544.5,2594.9,2284.1,17949.7,310.7,""oops"",""up"",""down"",""bad_move"",22890.5,2345.9,2030.3,20544.7,315.6,""oops"",""up"",""up"",""good_move"",26076.2,3185.4,2899.8,22890.8,285.6,""oops"",""up"",""left"",""bad_move"",28540.3,2463.7,2143.6,26076.6,320.1,""smooth"",""up"",""up"",""good_move"",31261.6,2721.1,2464,28540.5,257.1,""oops"",""right"",""right"",""good_move"",33179.5,1917.7,1604.1,31261.8,313.6,""oops"",""right"",""left"",""bad_move"",35783.5,2603.9,2400.7,33179.6,203.2,""while_blue"",""right"",""down"",""bad_move"",38363.3,2579.4,2302.6,35783.9,276.8,""smooth"",""up"",""up"",""good_move"",41791.5,3428.1,3197.6,38363.4,230.5,""while_blue"",""right"",""up"",""good_move""]"
"6668","","<div style=""width:500px;"">
  <p>What determined the result of this run?</p>
  </div>","0","html-slider-response","49","1247750","0.0-7.0-1.7","63","1","2025-07-30 08:51:55","36c45c0696341be0efffe67d72a12abb","37.225.94.247","Mozilla/5.0 (Windows NT 10.0; Win64; x64) AppleWebKit/537.36 (KHTML, like Gecko) Chrome/138.0.0.0 Safari/537.36","WebKit","Chrome","138.0.0.0","Windows","10.0","https://app.prolific.com/","en-US,en;q=0.9,pl-PL;q=0.8,pl;q=0.7","603a293ee62ae15da2674441","687a19d2168e237449fb8af4","6889dc697f5ae051ce52bb67","0","603a293ee62ae15da2674441","0","2025-07-30T09:12:44.265Z","","","","AttribQ","","","","","","","","","","","50","","","","","","","","","","","","","","","","","","","","","","","","","","",""
"1980","","<div style=""width:500px;"">
  <p>How much control did you have over the ball?</p>
  </div>","5","html-slider-response","50","1249731","0.0-7.0-2.7","63","1","2025-07-30 08:51:55","36c45c0696341be0efffe67d72a12abb","37.225.94.247","Mozilla/5.0 (Windows NT 10.0; Win64; x64) AppleWebKit/537.36 (KHTML, like Gecko) Chrome/138.0.0.0 Safari/537.36","WebKit","Chrome","138.0.0.0","Windows","10.0","https://app.prolific.com/","en-US,en;q=0.9,pl-PL;q=0.8,pl;q=0.7","603a293ee62ae15da2674441","687a19d2168e237449fb8af4","6889dc697f5ae051ce52bb67","0","603a293ee62ae15da2674441","0","2025-07-30T09:12:46.246Z","","","","ControlQ","","","","","","","","","","","50","","","","","","","","","","","","","","","","","","","","","","","","","","",""
"1611","","<div style=""width:500px;"">
  <p>How would you describe your current emotional state?</p>
  </div>","75","html-slider-response","51","1251344","0.0-7.0-3.7","63","1","2025-07-30 08:51:55","36c45c0696341be0efffe67d72a12abb","37.225.94.247","Mozilla/5.0 (Windows NT 10.0; Win64; x64) AppleWebKit/537.36 (KHTML, like Gecko) Chrome/138.0.0.0 Safari/537.36","WebKit","Chrome","138.0.0.0","Windows","10.0","https://app.prolific.com/","en-US,en;q=0.9,pl-PL;q=0.8,pl;q=0.7","603a293ee62ae15da2674441","687a19d2168e237449fb8af4","6889dc697f5ae051ce52bb67","0","603a293ee62ae15da2674441","0","2025-07-30T09:12:47.859Z","","","","StressQ","","","","","","","","","","","50","","","","","","","","","","","","","","","","","","","","","","","","","","",""
"986","","<div style=""width:500px;"">
  <p>What best describes how you currently feel?</p>
  </div>","21","html-slider-response","52","1252331","0.0-7.0-4.7","63","1","2025-07-30 08:51:55","36c45c0696341be0efffe67d72a12abb","37.225.94.247","Mozilla/5.0 (Windows NT 10.0; Win64; x64) AppleWebKit/537.36 (KHTML, like Gecko) Chrome/138.0.0.0 Safari/537.36","WebKit","Chrome","138.0.0.0","Windows","10.0","https://app.prolific.com/","en-US,en;q=0.9,pl-PL;q=0.8,pl;q=0.7","603a293ee62ae15da2674441","687a19d2168e237449fb8af4","6889dc697f5ae051ce52bb67","0","603a293ee62ae15da2674441","0","2025-07-30T09:12:48.846Z","","","","MotivationQ","","","","","","","","","","","50","","","","","","","","","","","","","","","","","","","","","","","","","","",""
"","","","","ctl-task-cpt","53","1305427","0.0-7.0-0.8","63","1","2025-07-30 08:51:55","36c45c0696341be0efffe67d72a12abb","37.225.94.247","Mozilla/5.0 (Windows NT 10.0; Win64; x64) AppleWebKit/537.36 (KHTML, like Gecko) Chrome/138.0.0.0 Safari/537.36","WebKit","Chrome","138.0.0.0","Windows","10.0","https://app.prolific.com/","en-US,en;q=0.9,pl-PL;q=0.8,pl;q=0.7","603a293ee62ae15da2674441","687a19d2168e237449fb8af4","6889dc697f5ae051ce52bb67","0","603a293ee62ae15da2674441","0","2025-07-30T09:13:41.942Z","","","","","","","","","","","","","","","","win-only","2","g1:SE,g2:NW","0.4","9","0","1254008.4","3574.6","8575.5","50070.4","1","4","4","6","2","-4","-4","0","0","0","728.8","3000","-2925","[""left"",""up""]","{""num_key_presses"":11,""num_perfect"":4,""num_errors"":0,""num_randdir"":7,""num_randdir_good_moves"":4,""num_whilered"":0,""num_whileblue"":0,""num_blue"":3,""num_good_moves"":8}","[421.57142857142856,414.47767857142856,0.2,421.57142857142856,414.47767857142856,101.6,421.57142857142856,414.47767857142856,205.8,437.57142857142856,479.47767857142856,306.2,169.57142857142856,300.47767857142856,406.3,65.57142857142857,108.47767857142857,506.7,67.57142857142857,84.47767857142857,610.9,60.57142857142857,84.47767857142857,711.2,60.57142857142857,87.47767857142857,812.4,332.57142857142856,408.47767857142856,916,389.57142857142856,448.47767857142856,1021.7,389.57142857142856,448.47767857142856,1122.2,389.57142857142856,448.47767857142856,1226.3,389.57142857142856,448.47767857142856,1326.5,389.57142857142856,448.47767857142856,1431.2,389.57142857142856,448.47767857142856,1532.1,389.57142857142856,448.47767857142856,1668.2,389.57142857142856,448.47767857142856,1776.2,389.57142857142856,448.47767857142856,1880.9,389.57142857142856,448.47767857142856,1986,389.57142857142856,448.47767857142856,2090.9,389.57142857142856,448.47767857142856,2191.8,389.57142857142856,448.47767857142856,2296.2,389.57142857142856,448.47767857142856,2401.9,389.57142857142856,448.47767857142856,2506.3,389.57142857142856,448.47767857142856,2635.5,389.57142857142856,448.47767857142856,2736.1,389.57142857142856,448.47767857142856,2840.9,389.57142857142856,448.47767857142856,2954.2,389.57142857142856,448.47767857142856,3056,389.57142857142856,448.47767857142856,3156.6,389.57142857142856,448.47767857142856,3262,389.57142857142856,448.47767857142856,3362,389.57142857142856,448.47767857142856,3462.2,389.57142857142856,448.47767857142856,3565.7,389.57142857142856,448.47767857142856,3665.8,382.57142857142856,447.47767857142856,3766.2,382.57142857142856,447.47767857142856,3872.4,382.57142857142856,447.47767857142856,3976.5,382.57142857142856,447.47767857142856,4081.9,382.57142857142856,447.47767857142856,4186,382.57142857142856,447.47767857142856,4290.8,382.57142857142856,447.47767857142856,4391.4,382.57142857142856,447.47767857142856,4496.1,382.57142857142856,447.47767857142856,4601.1,382.57142857142856,447.47767857142856,4701.2,382.57142857142856,447.47767857142856,4801.4,382.57142857142856,447.47767857142856,4905.8]","[1384.7,1384.7,1000,0,384.7,""oops"",""left"",""right"",""bad_move"",7528.6,6143.6,2824.6,4435.7,268.3,""oops"",""left"",""left"",""good_move"",10599.2,3070.3,2772.1,7528.9,298.2,""smooth"",""left"",""left"",""good_move"",13869.8,3270.4,2976,10599.4,294.4,""smooth"",""left"",""left"",""good_move"",16557.6,2687.4,2426.5,13870.2,260.9,""oops"",""up"",""right"",""bad_move"",21927.1,5369.2,1852.6,19799.5,275,""oops"",""up"",""left"",""good_move"",24620.3,2693.1,2395.9,21927.2,297.2,""oops"",""up"",""up"",""good_move"",31289.8,6669,2422.5,28609.4,257.9,""oops"",""up"",""right"",""bad_move"",33314.2,2024,1505.1,31290.2,518.9,""smooth"",""up"",""up"",""good_move"",36384.1,3069.8,2805.8,33314.4,263.9,""smooth"",""left"",""left"",""good_move"",39414.9,3030.6,2770.3,36384.4,260.2,""oops"",""left"",""left"",""good_move""]"
"1739","","<div style=""width:500px;"">
  <p>What determined the result of this run?</p>
  </div>","10","html-slider-response","54","1307168","0.0-7.0-1.8","63","1","2025-07-30 08:51:55","36c45c0696341be0efffe67d72a12abb","37.225.94.247","Mozilla/5.0 (Windows NT 10.0; Win64; x64) AppleWebKit/537.36 (KHTML, like Gecko) Chrome/138.0.0.0 Safari/537.36","WebKit","Chrome","138.0.0.0","Windows","10.0","https://app.prolific.com/","en-US,en;q=0.9,pl-PL;q=0.8,pl;q=0.7","603a293ee62ae15da2674441","687a19d2168e237449fb8af4","6889dc697f5ae051ce52bb67","0","603a293ee62ae15da2674441","0","2025-07-30T09:13:43.683Z","","","","AttribQ","","","","","","","","","","","50","","","","","","","","","","","","","","","","","","","","","","","","","","",""
"1179","","<div style=""width:500px;"">
  <p>How much control did you have over the ball?</p>
  </div>","13","html-slider-response","55","1308348","0.0-7.0-2.8","63","1","2025-07-30 08:51:55","36c45c0696341be0efffe67d72a12abb","37.225.94.247","Mozilla/5.0 (Windows NT 10.0; Win64; x64) AppleWebKit/537.36 (KHTML, like Gecko) Chrome/138.0.0.0 Safari/537.36","WebKit","Chrome","138.0.0.0","Windows","10.0","https://app.prolific.com/","en-US,en;q=0.9,pl-PL;q=0.8,pl;q=0.7","603a293ee62ae15da2674441","687a19d2168e237449fb8af4","6889dc697f5ae051ce52bb67","0","603a293ee62ae15da2674441","0","2025-07-30T09:13:44.863Z","","","","ControlQ","","","","","","","","","","","50","","","","","","","","","","","","","","","","","","","","","","","","","","",""
"1392","","<div style=""width:500px;"">
  <p>How would you describe your current emotional state?</p>
  </div>","28","html-slider-response","56","1309741","0.0-7.0-3.8","63","1","2025-07-30 08:51:55","36c45c0696341be0efffe67d72a12abb","37.225.94.247","Mozilla/5.0 (Windows NT 10.0; Win64; x64) AppleWebKit/537.36 (KHTML, like Gecko) Chrome/138.0.0.0 Safari/537.36","WebKit","Chrome","138.0.0.0","Windows","10.0","https://app.prolific.com/","en-US,en;q=0.9,pl-PL;q=0.8,pl;q=0.7","603a293ee62ae15da2674441","687a19d2168e237449fb8af4","6889dc697f5ae051ce52bb67","0","603a293ee62ae15da2674441","0","2025-07-30T09:13:46.256Z","","","","StressQ","","","","","","","","","","","50","","","","","","","","","","","","","","","","","","","","","","","","","","",""
"1910","","<div style=""width:500px;"">
  <p>What best describes how you currently feel?</p>
  </div>","26","html-slider-response","57","1311652","0.0-7.0-4.8","63","1","2025-07-30 08:51:55","36c45c0696341be0efffe67d72a12abb","37.225.94.247","Mozilla/5.0 (Windows NT 10.0; Win64; x64) AppleWebKit/537.36 (KHTML, like Gecko) Chrome/138.0.0.0 Safari/537.36","WebKit","Chrome","138.0.0.0","Windows","10.0","https://app.prolific.com/","en-US,en;q=0.9,pl-PL;q=0.8,pl;q=0.7","603a293ee62ae15da2674441","687a19d2168e237449fb8af4","6889dc697f5ae051ce52bb67","0","603a293ee62ae15da2674441","0","2025-07-30T09:13:48.167Z","","","","MotivationQ","","","","","","","","","","","50","","","","","","","","","","","","","","","","","","","","","","","","","","",""
"","","","","ctl-task-cpt","58","1351194","0.0-7.0-0.9","63","1","2025-07-30 08:51:55","36c45c0696341be0efffe67d72a12abb","37.225.94.247","Mozilla/5.0 (Windows NT 10.0; Win64; x64) AppleWebKit/537.36 (KHTML, like Gecko) Chrome/138.0.0.0 Safari/537.36","WebKit","Chrome","138.0.0.0","Windows","10.0","https://app.prolific.com/","en-US,en;q=0.9,pl-PL;q=0.8,pl;q=0.7","603a293ee62ae15da2674441","687a19d2168e237449fb8af4","6889dc697f5ae051ce52bb67","0","603a293ee62ae15da2674441","0","2025-07-30T09:14:27.709Z","","","","","","","","","","","","","","","","win-only","0","g1:NW,g2:SE","0.5","10","0","1313322.7","777.5","5780.8","36515.2","1","4","8","6","2","8","7","7","0","0.05303030303030303","750","3000","810","[""down"",""right""]","{""num_key_presses"":10,""num_perfect"":5,""num_errors"":1,""num_randdir"":4,""num_randdir_good_moves"":2,""num_whilered"":0,""num_whileblue"":1,""num_blue"":2,""num_good_moves"":8}","[409.57142857142856,425.47767857142856,0.2,409.57142857142856,425.47767857142856,102.8,418.57142857142856,429.47767857142856,203.3,512.5714285714286,480.47767857142856,307.7,416.57142857142856,470.47767857142856,408.1,538.5714285714286,551.4776785714286,512.7,669.5714285714286,695.4776785714286,613.4,717.5714285714286,750.4776785714286,717.7,717.5714285714286,750.4776785714286,818.1,716.5714285714286,744.4776785714286,923.2,561.5714285714286,626.4776785714286,1023.3,415.57142857142856,580.4776785714286,1123.5,417.57142857142856,579.4776785714286,1227.8,417.57142857142856,578.4776785714286,1328.1,417.57142857142856,578.4776785714286,1428.6,417.57142857142856,578.4776785714286,1529.2,417.57142857142856,578.4776785714286,1632.9,417.57142857142856,578.4776785714286,1738,417.57142857142856,578.4776785714286,1838.1,417.57142857142856,578.4776785714286,1942.7,417.57142857142856,578.4776785714286,2043.4,417.57142857142856,578.4776785714286,2143.5,417.57142857142856,578.4776785714286,2248.4,417.57142857142856,578.4776785714286,2352.9,417.57142857142856,578.4776785714286,2458.3,417.57142857142856,578.4776785714286,2558.5,417.57142857142856,578.4776785714286,2663.7,417.57142857142856,578.4776785714286,2767.8,417.57142857142856,578.4776785714286,2867.9,417.57142857142856,578.4776785714286,2968.8,417.57142857142856,578.4776785714286,3073.4,417.57142857142856,578.4776785714286,3173.5,417.57142857142856,578.4776785714286,3273.7,417.57142857142856,578.4776785714286,3378.6,417.57142857142856,578.4776785714286,3483.5,417.57142857142856,578.4776785714286,3588.1,417.57142857142856,578.4776785714286,3692.9,417.57142857142856,578.4776785714286,3793.7,417.57142857142856,578.4776785714286,3898.7,417.57142857142856,578.4776785714286,3998.8,417.57142857142856,578.4776785714286,4102.8,417.57142857142856,578.4776785714286,4203,417.57142857142856,578.4776785714286,4307.9,417.57142857142856,578.4776785714286,4408.2,417.57142857142856,578.4776785714286,4512.8,417.57142857142856,578.4776785714286,4612.8,417.57142857142856,578.4776785714286,4713.6,417.57142857142856,578.4776785714286,4817.9,417.57142857142856,578.4776785714286,4918.4]","[1324.5,1324.5,1000,0,324.5,""smooth"",""down"",""down"",""good_move"",4158.3,2833.5,2551.9,1324.8,281.7,""smooth"",""down"",""down"",""good_move"",7404.6,3245.9,2960.8,4158.7,285.1,""oops"",""right"",""left"",""bad_move"",10199.5,2794.5,2506.4,7405,288.1,""oops"",""right"",""right"",""good_move"",13831.6,3631.8,3358.3,10199.8,273.5,""smooth"",""right"",""right"",""good_move"",16127.4,2295.6,1963.8,13831.8,331.8,""while_blue"",""right"",""down"",""good_move"",18179.4,2051.8,1679.7,16127.6,372.1,""smooth"",""right"",""right"",""good_move"",25013.1,6833.6,2473.5,22245.2,294.4,""oops"",""right"",""left"",""bad_move"",27994,2980.7,2663,25013.3,317.7,""oops"",""right"",""right"",""good_move"",30490,2495.6,2080.2,27994.4,415.4,""smooth"",""right"",""right"",""good_move""]"
"28960","","<div style=""width:500px;"">
  <p>What determined the result of this run?</p>
  </div>","59","html-slider-response","59","1380155","0.0-7.0-1.9","63","1","2025-07-30 08:51:55","36c45c0696341be0efffe67d72a12abb","37.225.94.247","Mozilla/5.0 (Windows NT 10.0; Win64; x64) AppleWebKit/537.36 (KHTML, like Gecko) Chrome/138.0.0.0 Safari/537.36","WebKit","Chrome","138.0.0.0","Windows","10.0","https://app.prolific.com/","en-US,en;q=0.9,pl-PL;q=0.8,pl;q=0.7","603a293ee62ae15da2674441","687a19d2168e237449fb8af4","6889dc697f5ae051ce52bb67","0","603a293ee62ae15da2674441","0","2025-07-30T09:14:56.670Z","","","","AttribQ","","","","","","","","","","","50","","","","","","","","","","","","","","","","","","","","","","","","","","",""
"1144","","<div style=""width:500px;"">
  <p>How much control did you have over the ball?</p>
  </div>","60","html-slider-response","60","1381301","0.0-7.0-2.9","63","1","2025-07-30 08:51:55","36c45c0696341be0efffe67d72a12abb","37.225.94.247","Mozilla/5.0 (Windows NT 10.0; Win64; x64) AppleWebKit/537.36 (KHTML, like Gecko) Chrome/138.0.0.0 Safari/537.36","WebKit","Chrome","138.0.0.0","Windows","10.0","https://app.prolific.com/","en-US,en;q=0.9,pl-PL;q=0.8,pl;q=0.7","603a293ee62ae15da2674441","687a19d2168e237449fb8af4","6889dc697f5ae051ce52bb67","0","603a293ee62ae15da2674441","0","2025-07-30T09:14:57.816Z","","","","ControlQ","","","","","","","","","","","50","","","","","","","","","","","","","","","","","","","","","","","","","","",""
"979","","<div style=""width:500px;"">
  <p>How would you describe your current emotional state?</p>
  </div>","29","html-slider-response","61","1382281","0.0-7.0-3.9","63","1","2025-07-30 08:51:55","36c45c0696341be0efffe67d72a12abb","37.225.94.247","Mozilla/5.0 (Windows NT 10.0; Win64; x64) AppleWebKit/537.36 (KHTML, like Gecko) Chrome/138.0.0.0 Safari/537.36","WebKit","Chrome","138.0.0.0","Windows","10.0","https://app.prolific.com/","en-US,en;q=0.9,pl-PL;q=0.8,pl;q=0.7","603a293ee62ae15da2674441","687a19d2168e237449fb8af4","6889dc697f5ae051ce52bb67","0","603a293ee62ae15da2674441","0","2025-07-30T09:14:58.796Z","","","","StressQ","","","","","","","","","","","50","","","","","","","","","","","","","","","","","","","","","","","","","","",""
"1872","","<div style=""width:500px;"">
  <p>What best describes how you currently feel?</p>
  </div>","28","html-slider-response","62","1384154","0.0-7.0-4.9","63","1","2025-07-30 08:51:55","36c45c0696341be0efffe67d72a12abb","37.225.94.247","Mozilla/5.0 (Windows NT 10.0; Win64; x64) AppleWebKit/537.36 (KHTML, like Gecko) Chrome/138.0.0.0 Safari/537.36","WebKit","Chrome","138.0.0.0","Windows","10.0","https://app.prolific.com/","en-US,en;q=0.9,pl-PL;q=0.8,pl;q=0.7","603a293ee62ae15da2674441","687a19d2168e237449fb8af4","6889dc697f5ae051ce52bb67","0","603a293ee62ae15da2674441","0","2025-07-30T09:15:00.669Z","","","","MotivationQ","","","","","","","","","","","50","","","","","","","","","","","","","","","","","","","","","","","","","","",""
"","","","","ctl-task-cpt","63","1442700","0.0-7.0-0.10","63","1","2025-07-30 08:51:55","36c45c0696341be0efffe67d72a12abb","37.225.94.247","Mozilla/5.0 (Windows NT 10.0; Win64; x64) AppleWebKit/537.36 (KHTML, like Gecko) Chrome/138.0.0.0 Safari/537.36","WebKit","Chrome","138.0.0.0","Windows","10.0","https://app.prolific.com/","en-US,en;q=0.9,pl-PL;q=0.8,pl;q=0.7","603a293ee62ae15da2674441","687a19d2168e237449fb8af4","6889dc697f5ae051ce52bb67","0","603a293ee62ae15da2674441","0","2025-07-30T09:15:59.216Z","","","","","","","","","","","","","","","","win-only","2","g1:SE,g2:NW","0.6","11","0","1385817.2","993.5","5997.3","55520.4","1","4","8","6","2","8","7","14","7","0.10606060606060606","735.6","3000","65","[""left"",""up""]","{""num_key_presses"":12,""num_perfect"":6,""num_errors"":1,""num_randdir"":5,""num_randdir_good_moves"":3,""num_whilered"":0,""num_whileblue"":1,""num_blue"":6,""num_good_moves"":9}","[429.57142857142856,419.47767857142856,0.1,428.57142857142856,420.47767857142856,102.1,424.57142857142856,418.47767857142856,203.7,424.57142857142856,418.47767857142856,306.7,412.57142857142856,426.47767857142856,411.5,217.57142857142856,220.47767857142856,512.8,102.57142857142857,126.47767857142857,615.7,87.57142857142857,102.47767857142857,722.1,91.57142857142857,98.47767857142857,830.5,249.57142857142856,262.47767857142856,939.1,319.57142857142856,337.47767857142856,1042.3,319.57142857142856,337.47767857142856,1143.1,319.57142857142856,337.47767857142856,1244.7,319.57142857142856,337.47767857142856,1345.8,319.57142857142856,337.47767857142856,1446.4,319.57142857142856,337.47767857142856,1548.6,319.57142857142856,337.47767857142856,1657,319.57142857142856,337.47767857142856,1765.2,319.57142857142856,337.47767857142856,1866.4,319.57142857142856,337.47767857142856,1967.9,319.57142857142856,337.47767857142856,2070.6,319.57142857142856,337.47767857142856,2173.8,319.57142857142856,337.47767857142856,2275,319.57142857142856,337.47767857142856,2378.8,319.57142857142856,337.47767857142856,2481.7,319.57142857142856,337.47767857142856,2586.6,319.57142857142856,337.47767857142856,2687.4,319.57142857142856,337.47767857142856,2792.6,319.57142857142856,337.47767857142856,2899.3,319.57142857142856,337.47767857142856,3005.5,319.57142857142856,337.47767857142856,3110.8,319.57142857142856,337.47767857142856,3211.7,319.57142857142856,337.47767857142856,3311.9,319.57142857142856,337.47767857142856,3416.7,319.57142857142856,337.47767857142856,3520.7,319.57142857142856,337.47767857142856,3622.2,319.57142857142856,337.47767857142856,3727.7,319.57142857142856,337.47767857142856,3835,319.57142857142856,337.47767857142856,3936.5,319.57142857142856,337.47767857142856,4038.3,319.57142857142856,337.47767857142856,4146,319.57142857142856,337.47767857142856,4251.1,319.57142857142856,337.47767857142856,4355.7,319.57142857142856,337.47767857142856,4457.4,319.57142857142856,337.47767857142856,4565.9,319.57142857142856,337.47767857142856,4668.2,319.57142857142856,337.47767857142856,4771,319.57142857142856,337.47767857142856,4875.5,319.57142857142856,337.47767857142856,4979]","[8121.2,8121.2,2445.5,5383,292.7,""smooth"",""left"",""left"",""good_move"",10995.6,2873.9,2555.1,8121.7,318.8,""smooth"",""left"",""left"",""good_move"",17399.8,6404,2854.4,14234,311.4,""smooth"",""up"",""up"",""good_move"",19652.6,2252.6,1960.8,17400.1,291.8,""oops"",""up"",""left"",""good_move"",22514.7,2861.7,2564.4,19653,297.3,""oops"",""up"",""right"",""bad_move"",25599.6,3084.4,2782.9,22515.2,301.5,""smooth"",""up"",""up"",""good_move"",28674,3074,2800.2,25600,273.8,""oops"",""left"",""down"",""bad_move"",34351.8,5677.5,2944.8,31158.9,248.1,""while_blue"",""up"",""down"",""bad_move"",40525.8,6173.6,2335,37858.4,332.4,""smooth"",""up"",""up"",""good_move"",43431.1,2905.1,2588,40526,317.1,""oops"",""up"",""up"",""good_move"",46195.8,2764.7,2484.3,43431.3,280.3,""smooth"",""left"",""left"",""good_move"",49435.6,3239.4,3024.9,46196.2,214.6,""oops"",""up"",""up"",""good_move""]"
"10818","","<div style=""width:500px;"">
  <p>What determined the result of this run?</p>
  </div>","37","html-slider-response","64","1453528","0.0-7.0-1.10","63","1","2025-07-30 08:51:55","36c45c0696341be0efffe67d72a12abb","37.225.94.247","Mozilla/5.0 (Windows NT 10.0; Win64; x64) AppleWebKit/537.36 (KHTML, like Gecko) Chrome/138.0.0.0 Safari/537.36","WebKit","Chrome","138.0.0.0","Windows","10.0","https://app.prolific.com/","en-US,en;q=0.9,pl-PL;q=0.8,pl;q=0.7","603a293ee62ae15da2674441","687a19d2168e237449fb8af4","6889dc697f5ae051ce52bb67","0","603a293ee62ae15da2674441","0","2025-07-30T09:16:10.043Z","","","","AttribQ","","","","","","","","","","","50","","","","","","","","","","","","","","","","","","","","","","","","","","",""
"2189","","<div style=""width:500px;"">
  <p>How much control did you have over the ball?</p>
  </div>","65","html-slider-response","65","1455717","0.0-7.0-2.10","63","1","2025-07-30 08:51:55","36c45c0696341be0efffe67d72a12abb","37.225.94.247","Mozilla/5.0 (Windows NT 10.0; Win64; x64) AppleWebKit/537.36 (KHTML, like Gecko) Chrome/138.0.0.0 Safari/537.36","WebKit","Chrome","138.0.0.0","Windows","10.0","https://app.prolific.com/","en-US,en;q=0.9,pl-PL;q=0.8,pl;q=0.7","603a293ee62ae15da2674441","687a19d2168e237449fb8af4","6889dc697f5ae051ce52bb67","0","603a293ee62ae15da2674441","0","2025-07-30T09:16:12.232Z","","","","ControlQ","","","","","","","","","","","50","","","","","","","","","","","","","","","","","","","","","","","","","","",""
"1320","","<div style=""width:500px;"">
  <p>How would you describe your current emotional state?</p>
  </div>","18","html-slider-response","66","1457038","0.0-7.0-3.10","63","1","2025-07-30 08:51:55","36c45c0696341be0efffe67d72a12abb","37.225.94.247","Mozilla/5.0 (Windows NT 10.0; Win64; x64) AppleWebKit/537.36 (KHTML, like Gecko) Chrome/138.0.0.0 Safari/537.36","WebKit","Chrome","138.0.0.0","Windows","10.0","https://app.prolific.com/","en-US,en;q=0.9,pl-PL;q=0.8,pl;q=0.7","603a293ee62ae15da2674441","687a19d2168e237449fb8af4","6889dc697f5ae051ce52bb67","0","603a293ee62ae15da2674441","0","2025-07-30T09:16:13.554Z","","","","StressQ","","","","","","","","","","","50","","","","","","","","","","","","","","","","","","","","","","","","","","",""
"1222","","<div style=""width:500px;"">
  <p>What best describes how you currently feel?</p>
  </div>","41","html-slider-response","67","1458261","0.0-7.0-4.10","63","1","2025-07-30 08:51:55","36c45c0696341be0efffe67d72a12abb","37.225.94.247","Mozilla/5.0 (Windows NT 10.0; Win64; x64) AppleWebKit/537.36 (KHTML, like Gecko) Chrome/138.0.0.0 Safari/537.36","WebKit","Chrome","138.0.0.0","Windows","10.0","https://app.prolific.com/","en-US,en;q=0.9,pl-PL;q=0.8,pl;q=0.7","603a293ee62ae15da2674441","687a19d2168e237449fb8af4","6889dc697f5ae051ce52bb67","0","603a293ee62ae15da2674441","0","2025-07-30T09:16:14.776Z","","","","MotivationQ","","","","","","","","","","","50","","","","","","","","","","","","","","","","","","","","","","","","","","",""
"","","","","ctl-task-cpt","68","1492746","0.0-7.0-0.11","63","1","2025-07-30 08:51:55","36c45c0696341be0efffe67d72a12abb","37.225.94.247","Mozilla/5.0 (Windows NT 10.0; Win64; x64) AppleWebKit/537.36 (KHTML, like Gecko) Chrome/138.0.0.0 Safari/537.36","WebKit","Chrome","138.0.0.0","Windows","10.0","https://app.prolific.com/","en-US,en;q=0.9,pl-PL;q=0.8,pl;q=0.7","603a293ee62ae15da2674441","687a19d2168e237449fb8af4","6889dc697f5ae051ce52bb67","0","603a293ee62ae15da2674441","0","2025-07-30T09:16:49.261Z","","","","","","","","","","","","","","","","win-only","0","g1:NW,g2:SE","0.7","12","0","1459908.9","1586.3","6590.7","31466.3","1","4","4","6","2","4","3","17","14","0.12878787878787878","1209.4","3000","1220","[""down"",""right""]","{""num_key_presses"":9,""num_perfect"":6,""num_errors"":1,""num_randdir"":2,""num_randdir_good_moves"":1,""num_whilered"":0,""num_whileblue"":0,""num_blue"":0,""num_good_moves"":7}","[418.57142857142856,416.47767857142856,0.2,417.57142857142856,416.47767857142856,101.3,424.57142857142856,425.47767857142856,206.8,432.57142857142856,438.47767857142856,306.9,342.57142857142856,392.47767857142856,410.1,536.5714285714286,571.4776785714286,511.2,751.5714285714286,750.4776785714286,615.2,834.5714285714286,772.4776785714286,715.2,834.5714285714286,772.4776785714286,819.5,832.5714285714286,768.4776785714286,919.8,829.5714285714286,765.4776785714286,1020.3,813.5714285714286,756.4776785714286,1124.8,799.5714285714286,751.4776785714286,1229,787.5714285714286,743.4776785714286,1331.3,453.57142857142856,596.4776785714286,1431.8,360.57142857142856,555.4776785714286,1536.7,357.57142857142856,552.4776785714286,1638,353.57142857142856,551.4776785714286,1741.1,353.57142857142856,551.4776785714286,1844.5,353.57142857142856,551.4776785714286,1948.8,353.57142857142856,551.4776785714286,2055.5,353.57142857142856,551.4776785714286,2157.4,353.57142857142856,551.4776785714286,2263.5,353.57142857142856,551.4776785714286,2365.5,353.57142857142856,551.4776785714286,2471.1,353.57142857142856,551.4776785714286,2577.6,353.57142857142856,551.4776785714286,2687,353.57142857142856,551.4776785714286,2792.6,353.57142857142856,551.4776785714286,2893.3,353.57142857142856,551.4776785714286,2996.3,353.57142857142856,551.4776785714286,3101.4,353.57142857142856,551.4776785714286,3204.6,353.57142857142856,551.4776785714286,3311,353.57142857142856,551.4776785714286,3415.2,353.57142857142856,551.4776785714286,3516.9,353.57142857142856,551.4776785714286,3617.1,353.57142857142856,551.4776785714286,3719.9,353.57142857142856,551.4776785714286,3828.9,353.57142857142856,551.4776785714286,3929.2,353.57142857142856,551.4776785714286,4032.5,353.57142857142856,551.4776785714286,4134.8,353.57142857142856,551.4776785714286,4243.3,353.57142857142856,551.4776785714286,4348.8,353.57142857142856,551.4776785714286,4454.2,353.57142857142856,551.4776785714286,4554.7,353.57142857142856,551.4776785714286,4659.9,353.57142857142856,551.4776785714286,4760.8,353.57142857142856,551.4776785714286,4861.3,353.57142857142856,551.4776785714286,4968.7]","[1345.7,1345.7,1000,0,345.7,""oops"",""down"",""left"",""bad_move"",4879.7,3533.7,3197.3,1346,336.4,""smooth"",""down"",""down"",""good_move"",8016.6,3136.6,2831.7,4880.1,304.8,""smooth"",""right"",""right"",""good_move"",10792.9,2776,2510.5,8017,265.4,""smooth"",""down"",""down"",""good_move"",14376.6,3583.4,3288.2,10793.2,295.2,""smooth"",""right"",""right"",""good_move"",17342.8,2966,2671.4,14376.8,294.6,""oops"",""right"",""right"",""good_move"",20094.7,2751.8,2448.8,17342.9,303,""smooth"",""down"",""down"",""good_move"",20862,767,2762.5,20095,-1995.5,""error"",""-"",""-"",""no_move"",24786,3923.8,2615.5,21864.8,305.7,""smooth"",""right"",""right"",""good_move""]"
"1307","","<div style=""width:500px;"">
  <p>What determined the result of this run?</p>
  </div>","92","html-slider-response","69","1494056","0.0-7.0-1.11","63","1","2025-07-30 08:51:55","36c45c0696341be0efffe67d72a12abb","37.225.94.247","Mozilla/5.0 (Windows NT 10.0; Win64; x64) AppleWebKit/537.36 (KHTML, like Gecko) Chrome/138.0.0.0 Safari/537.36","WebKit","Chrome","138.0.0.0","Windows","10.0","https://app.prolific.com/","en-US,en;q=0.9,pl-PL;q=0.8,pl;q=0.7","603a293ee62ae15da2674441","687a19d2168e237449fb8af4","6889dc697f5ae051ce52bb67","0","603a293ee62ae15da2674441","0","2025-07-30T09:16:50.571Z","","","","AttribQ","","","","","","","","","","","50","","","","","","","","","","","","","","","","","","","","","","","","","","",""
"2467","","<div style=""width:500px;"">
  <p>How much control did you have over the ball?</p>
  </div>","96","html-slider-response","70","1496525","0.0-7.0-2.11","63","1","2025-07-30 08:51:55","36c45c0696341be0efffe67d72a12abb","37.225.94.247","Mozilla/5.0 (Windows NT 10.0; Win64; x64) AppleWebKit/537.36 (KHTML, like Gecko) Chrome/138.0.0.0 Safari/537.36","WebKit","Chrome","138.0.0.0","Windows","10.0","https://app.prolific.com/","en-US,en;q=0.9,pl-PL;q=0.8,pl;q=0.7","603a293ee62ae15da2674441","687a19d2168e237449fb8af4","6889dc697f5ae051ce52bb67","0","603a293ee62ae15da2674441","0","2025-07-30T09:16:53.040Z","","","","ControlQ","","","","","","","","","","","50","","","","","","","","","","","","","","","","","","","","","","","","","","",""
"995","","<div style=""width:500px;"">
  <p>How would you describe your current emotional state?</p>
  </div>","33","html-slider-response","71","1497522","0.0-7.0-3.11","63","1","2025-07-30 08:51:55","36c45c0696341be0efffe67d72a12abb","37.225.94.247","Mozilla/5.0 (Windows NT 10.0; Win64; x64) AppleWebKit/537.36 (KHTML, like Gecko) Chrome/138.0.0.0 Safari/537.36","WebKit","Chrome","138.0.0.0","Windows","10.0","https://app.prolific.com/","en-US,en;q=0.9,pl-PL;q=0.8,pl;q=0.7","603a293ee62ae15da2674441","687a19d2168e237449fb8af4","6889dc697f5ae051ce52bb67","0","603a293ee62ae15da2674441","0","2025-07-30T09:16:54.037Z","","","","StressQ","","","","","","","","","","","50","","","","","","","","","","","","","","","","","","","","","","","","","","",""
"865","","<div style=""width:500px;"">
  <p>What best describes how you currently feel?</p>
  </div>","45","html-slider-response","72","1498389","0.0-7.0-4.11","63","1","2025-07-30 08:51:55","36c45c0696341be0efffe67d72a12abb","37.225.94.247","Mozilla/5.0 (Windows NT 10.0; Win64; x64) AppleWebKit/537.36 (KHTML, like Gecko) Chrome/138.0.0.0 Safari/537.36","WebKit","Chrome","138.0.0.0","Windows","10.0","https://app.prolific.com/","en-US,en;q=0.9,pl-PL;q=0.8,pl;q=0.7","603a293ee62ae15da2674441","687a19d2168e237449fb8af4","6889dc697f5ae051ce52bb67","0","603a293ee62ae15da2674441","0","2025-07-30T09:16:54.904Z","","","","MotivationQ","","","","","","","","","","","50","","","","","","","","","","","","","","","","","","","","","","","","","","",""
"","","","","ctl-task-cpt","73","1534601","0.0-7.0-0.12","63","1","2025-07-30 08:51:55","36c45c0696341be0efffe67d72a12abb","37.225.94.247","Mozilla/5.0 (Windows NT 10.0; Win64; x64) AppleWebKit/537.36 (KHTML, like Gecko) Chrome/138.0.0.0 Safari/537.36","WebKit","Chrome","138.0.0.0","Windows","10.0","https://app.prolific.com/","en-US,en;q=0.9,pl-PL;q=0.8,pl;q=0.7","603a293ee62ae15da2674441","687a19d2168e237449fb8af4","6889dc697f5ae051ce52bb67","0","603a293ee62ae15da2674441","0","2025-07-30T09:17:31.116Z","","","","","","","","","","","","","","","","win-only","1","g1:NE,g2:SW","0.8","13","0","1500037.7","637.8","5650.4","33185.6","1","4","4","6","2","4","4","21","17","0.1590909090909091","720.6","3000","1060","[""down"",""left""]","{""num_key_presses"":10,""num_perfect"":8,""num_errors"":0,""num_randdir"":2,""num_randdir_good_moves"":0,""num_whilered"":0,""num_whileblue"":0,""num_blue"":1,""num_good_moves"":8}","[420.57142857142856,420.47767857142856,0.2,420.57142857142856,420.47767857142856,104.5,424.57142857142856,415.47767857142856,224.6,393.57142857142856,455.47767857142856,340.1,358.57142857142856,495.47767857142856,446.2,336.57142857142856,485.47767857142856,553.9,124.57142857142857,722.4776785714286,659.3,108.57142857142857,737.4776785714286,766.7,128.57142857142856,727.4776785714286,866.7,328.57142857142856,669.4776785714286,973.7,322.57142857142856,667.4776785714286,1093.1,310.57142857142856,650.4776785714286,1210.1,310.57142857142856,650.4776785714286,1342.4,310.57142857142856,650.4776785714286,1453.3,310.57142857142856,650.4776785714286,1553.5,310.57142857142856,650.4776785714286,1668.4,310.57142857142856,650.4776785714286,1783.9,310.57142857142856,650.4776785714286,1884.4,310.57142857142856,650.4776785714286,2003.3,310.57142857142856,650.4776785714286,2105.1,310.57142857142856,650.4776785714286,2207.8,310.57142857142856,650.4776785714286,2317.8,310.57142857142856,650.4776785714286,2424.5,310.57142857142856,650.4776785714286,2532.9,310.57142857142856,650.4776785714286,2639.3,310.57142857142856,650.4776785714286,2746.9,310.57142857142856,650.4776785714286,2855.4,310.57142857142856,650.4776785714286,2963.9,310.57142857142856,650.4776785714286,3073.7,310.57142857142856,650.4776785714286,3182.5,310.57142857142856,650.4776785714286,3291.7,310.57142857142856,650.4776785714286,3399.9,310.57142857142856,650.4776785714286,3510.7,310.57142857142856,650.4776785714286,3621.9,310.57142857142856,650.4776785714286,3730.6,310.57142857142856,650.4776785714286,3840.1,310.57142857142856,650.4776785714286,3951.3,310.57142857142856,650.4776785714286,4057.9,310.57142857142856,650.4776785714286,4181.3,310.57142857142856,650.4776785714286,4355.3,310.57142857142856,650.4776785714286,4459.7,310.57142857142856,650.4776785714286,4575.2,310.57142857142856,650.4776785714286,4691.3,310.57142857142856,650.4776785714286,4804.5,310.57142857142856,650.4776785714286,4920.4]","[1406.4,1406.4,1000,0,406.4,""oops"",""down"",""right"",""bad_move"",4004,2597.4,2217.3,1406.6,380.1,""smooth"",""down"",""down"",""good_move"",6198.7,2194.5,1887.5,4004.2,307,""smooth"",""left"",""left"",""good_move"",8754.4,2555.5,2283,6198.9,272.5,""smooth"",""left"",""left"",""good_move"",11118.4,2363.7,2077.4,8754.7,286.3,""smooth"",""down"",""down"",""good_move"",13270.3,2151.7,1862.1,11118.6,289.6,""oops"",""left"",""right"",""bad_move"",15863.5,2592.9,2327.7,13270.6,265.2,""smooth"",""left"",""left"",""good_move"",18716.6,2852.8,2569,15863.8,283.8,""smooth"",""left"",""left"",""good_move"",21251.8,2535,2203.9,18716.8,331.1,""smooth"",""down"",""down"",""good_move"",27449.5,6197.4,2889.9,24255.3,304.3,""smooth"",""left"",""left"",""good_move""]"
"2937","","<div style=""width:500px;"">
  <p>What determined the result of this run?</p>
