"rt","response_timestamp","stimulus","response","trial_type","trial_index","time_elapsed","internal_node_id","run_id","condition","recorded_at","source_code_version","ip","user_agent","device","browser","browser_version","platform","platform_version","referer","accept_language","PROLIFIC_PID","STUDY_ID","SESSION_ID","BATCH","prolific_id","batch","realtime","success","question_order","question_id","eventType","responses","item_order","radio_event_ids","radio_event_times","key_event_times","mouse_event_times","straightlining","zigzagging","honeypot","view_history","slider_start","which_type","canvas_config","goals_layout","control_level","trial_number","tutorial_trial_number","trial_start_time","phase1_start_time","phase2_start_time","phase3_start_time","goal_1_value","goal_1_distance","goal_2_value","goal_2_distance","goal_selected","outcome","outcome_total","participant_final_score","participant_initial_score","participant_final_score_prop","goal_choice_rt","allocated_time","allocated_time_remaining","goal_direction","counts","mouse_movements","key_presses"
"64177","1754470226450","<p style='font-size:40px;line-height:1.25'><strong>Welcome to the experiment!</strong></p><p style='font-size:1.1em;line-height:1.25'>Thank you for participanting in our experiment again! You will be asked to play the Dysfunctional Ball Game again. We will briefly recap the rules before we start.</p><p style='font-size:1.1em;line-height:1.25'>Press <strong>Next</strong> to continue.</p>","0","custom-html-button-response","0","64181","0.0-0.0","122","1","2025-08-06 08:49:19","36c45c0696341be0efffe67d72a12abb","102.222.12.73","Mozilla/5.0 (Windows NT 10.0; Win64; x64) AppleWebKit/537.36 (KHTML, like Gecko) Chrome/138.0.0.0 Safari/537.36","WebKit","Chrome","138.0.0.0","Windows","10.0","https://app.prolific.com/","en-ZA,en-GB;q=0.9,en-US;q=0.8,en;q=0.7,en-GB-oxendict;q=0.6","605b838b80f022835fc293fb","6877649eabb845cf142cd221","68931703670cfd61646f5480","1","605b838b80f022835fc293fb","1","2025-08-06T08:50:26.452Z","","","","","","","","","","","","","","","","","","","","","","","","","","","","","","","","","","","","","","","","","",""
"18991","","","","fullscreen","1","84191","0.0-1.0","122","1","2025-08-06 08:49:19","36c45c0696341be0efffe67d72a12abb","102.222.12.73","Mozilla/5.0 (Windows NT 10.0; Win64; x64) AppleWebKit/537.36 (KHTML, like Gecko) Chrome/138.0.0.0 Safari/537.36","WebKit","Chrome","138.0.0.0","Windows","10.0","https://app.prolific.com/","en-ZA,en-GB;q=0.9,en-US;q=0.8,en;q=0.7,en-GB-oxendict;q=0.6","605b838b80f022835fc293fb","6877649eabb845cf142cd221","68931703670cfd61646f5480","1","605b838b80f022835fc293fb","1","","true","","","","","","","","","","","","","","","","","","","","","","","","","","","","","","","","","","","","","","","","",""
"6943","1754470253408"," <p style='font-size:1.1em;line-height:1.25'>Thank you for closing all other tabs.</p><p style='font-size:1.1em;line-height:1.25'>We will now invite you to fill in some questionnaires, before starting the game.<br>This will take about 5 minutes.<br></p><p style='font-size:1.1em;line-height:1.25'>Press the <strong>Next</strong> button to continue.</p>","0","custom-html-button-response","2","91138","0.0-2.0","122","1","2025-08-06 08:49:19","36c45c0696341be0efffe67d72a12abb","102.222.12.73","Mozilla/5.0 (Windows NT 10.0; Win64; x64) AppleWebKit/537.36 (KHTML, like Gecko) Chrome/138.0.0.0 Safari/537.36","WebKit","Chrome","138.0.0.0","Windows","10.0","https://app.prolific.com/","en-ZA,en-GB;q=0.9,en-US;q=0.8,en;q=0.7,en-GB-oxendict;q=0.6","605b838b80f022835fc293fb","6877649eabb845cf142cd221","68931703670cfd61646f5480","1","605b838b80f022835fc293fb","1","2025-08-06T08:50:53.409Z","","","","","","","","","","","","","","","","","","","","","","","","","","","","","","","","","","","","","","","","","",""
"4149","","","{""assigned_sex"":""female""}","survey-multi-choice","3","95290","0.0-3.0-0.0","122","1","2025-08-06 08:49:19","36c45c0696341be0efffe67d72a12abb","102.222.12.73","Mozilla/5.0 (Windows NT 10.0; Win64; x64) AppleWebKit/537.36 (KHTML, like Gecko) Chrome/138.0.0.0 Safari/537.36","WebKit","Chrome","138.0.0.0","Windows","10.0","https://app.prolific.com/","en-ZA,en-GB;q=0.9,en-US;q=0.8,en;q=0.7,en-GB-oxendict;q=0.6","605b838b80f022835fc293fb","6877649eabb845cf142cd221","68931703670cfd61646f5480","1","605b838b80f022835fc293fb","1","","","[0]","0","demographics","","","","","","","","","","","","","","","","","","","","","","","","","","","","","","","","","","","","","",""
"8041","1754470265604","<p style='font-size:1.1em;line-height:1.25'>In the following, we will perform a baseline assessment. This means that we will ask you a few questions relating to your experiences over the past month.<br></p><p style='font-size:1.1em;line-height:1.25'>Press the <strong>Next</strong> button to continue.</p>","0","custom-html-button-response","4","103334","0.0-4.0-0.0","122","1","2025-08-06 08:49:19","36c45c0696341be0efffe67d72a12abb","102.222.12.73","Mozilla/5.0 (Windows NT 10.0; Win64; x64) AppleWebKit/537.36 (KHTML, like Gecko) Chrome/138.0.0.0 Safari/537.36","WebKit","Chrome","138.0.0.0","Windows","10.0","https://app.prolific.com/","en-ZA,en-GB;q=0.9,en-US;q=0.8,en;q=0.7,en-GB-oxendict;q=0.6","605b838b80f022835fc293fb","6877649eabb845cf142cd221","68931703670cfd61646f5480","1","605b838b80f022835fc293fb","1","2025-08-06T08:51:05.605Z","","","","","","","","","","","","","","","","","","","","","","","","","","","","","","","","","","","","","","","","","",""
"81817.09999996424","","","","survey-template","5","185157","0.0-4.0-1.0","122","1","2025-08-06 08:49:19","36c45c0696341be0efffe67d72a12abb","102.222.12.73","Mozilla/5.0 (Windows NT 10.0; Win64; x64) AppleWebKit/537.36 (KHTML, like Gecko) Chrome/138.0.0.0 Safari/537.36","WebKit","Chrome","138.0.0.0","Windows","10.0","https://app.prolific.com/","en-ZA,en-GB;q=0.9,en-US;q=0.8,en;q=0.7,en-GB-oxendict;q=0.6","605b838b80f022835fc293fb","6877649eabb845cf142cd221","68931703670cfd61646f5480","1","605b838b80f022835fc293fb","1","2025-08-06T08:52:27.428Z","","","","pss","{""Q01"":""2"",""Q02"":""2"",""Q03"":""2"",""Q04"":""1"",""Q05"":""2"",""Q06"":""1"",""Q07"":""2"",""Q08"":""2"",""Q09"":""1"",""Q10"":""2""}","[0,1,2,3,4,5,6,7,8,9]","[""Q01"",""Q02"",""Q03"",""Q03"",""Q04"",""Q05"",""Q06"",""Q07"",""Q08"",""Q09"",""Q10""]","[18127.299999952316,23958.399999976158,28757.799999952316,30158.799999952316,38606.19999998808,43105.39999997616,54385.19999998808,59101.59999996424,63258,72972.29999995232,80545.39999997616]","[]","[0.5999999642372131,18127.299999952316,23958.399999976158,28757.799999952316,30158.799999952316,38606.19999998808,43105.39999997616,51019.299999952316,52458.19999998808,54385.19999998808,59101.59999996424,63258,72972.29999995232,80545.39999997616,81812.69999998808]","0.7","0.6666666666666666","0","","","","","","","","","","","","","","","","","","","","","","","","","","","","",""
"5223","1754470352652","<p style='font-size:1.1em;line-height:1.25'>Thank you for your answers! Now we will ask you a few more questions relating to your feelings in the last 24 hours.<br></p><p style='font-size:1.1em;line-height:1.25'>Press the <strong>Next</strong> button to continue.</p>","0","custom-html-button-response","6","190382","0.0-4.0-2.0","122","1","2025-08-06 08:49:19","36c45c0696341be0efffe67d72a12abb","102.222.12.73","Mozilla/5.0 (Windows NT 10.0; Win64; x64) AppleWebKit/537.36 (KHTML, like Gecko) Chrome/138.0.0.0 Safari/537.36","WebKit","Chrome","138.0.0.0","Windows","10.0","https://app.prolific.com/","en-ZA,en-GB;q=0.9,en-US;q=0.8,en;q=0.7,en-GB-oxendict;q=0.6","605b838b80f022835fc293fb","6877649eabb845cf142cd221","68931703670cfd61646f5480","1","605b838b80f022835fc293fb","1","2025-08-06T08:52:32.653Z","","","","","","","","","","","","","","","","","","","","","","","","","","","","","","","","","","","","","","","","","",""
"84414.5","","","","survey-template","7","274806","0.0-4.0-3.0","122","1","2025-08-06 08:49:19","36c45c0696341be0efffe67d72a12abb","102.222.12.73","Mozilla/5.0 (Windows NT 10.0; Win64; x64) AppleWebKit/537.36 (KHTML, like Gecko) Chrome/138.0.0.0 Safari/537.36","WebKit","Chrome","138.0.0.0","Windows","10.0","https://app.prolific.com/","en-ZA,en-GB;q=0.9,en-US;q=0.8,en;q=0.7,en-GB-oxendict;q=0.6","605b838b80f022835fc293fb","6877649eabb845cf142cd221","68931703670cfd61646f5480","1","605b838b80f022835fc293fb","1","2025-08-06T08:53:57.077Z","","","","drsp","{""Q01"":""1"",""Q02"":""2"",""Q03"":""2"",""Q04"":""3"",""Q05"":""2"",""Q06"":""2"",""Q07"":""3"",""Q08"":""1"",""Q09"":""2"",""Q10"":""2"",""Q11"":""2"",""Q12"":""1"",""Q13"":""5"",""Q14"":""0"",""Q15"":""1"",""Q16"":""1"",""Q17"":""2"",""Q18"":""3"",""Q19"":""1"",""Q20"":""1"",""Q21"":""0"",""Q22"":""0""}","[0,1,2,3,4,5,6,7,8,9,10,11,12,13,14,15,16,17,18,19,20,21]","[""Q01"",""Q02"",""Q03"",""Q04"",""Q05"",""Q06"",""Q07"",""Q08"",""Q09"",""Q10"",""Q11"",""Q12"",""Q13"",""Q14"",""Q15"",""Q16"",""Q17"",""Q18"",""Q19"",""Q19"",""Q20"",""Q21"",""Q22""]","[6193,8560.900000035763,10325.900000035763,13623.699999988079,15055.800000011921,17973.5,20522.80000001192,24779.69999998808,28335.30000001192,30237.80000001192,36795.69999998808,39252.80000001192,43766.19999998808,47316.5,50232.69999998808,53682.10000002384,58747.10000002384,60480.80000001192,66529.19999998808,68271.90000003576,73125.5,77643.10000002384,83058.40000003576]","[]","[0.40000003576278687,6193,8560.900000035763,10325.900000035763,11875.900000035763,13623.699999988079,15055.800000011921,17973.5,20522.80000001192,23071.80000001192,24779.69999998808,28335.30000001192,30237.80000001192,36795.69999998808,39252.80000001192,42360.69999998808,43766.19999998808,47316.5,50232.69999998808,53682.10000002384,55715,58747.10000002384,60480.80000001192,66529.19999998808,68271.90000003576,73125.5,77643.10000002384,83058.40000003576,84407.60000002384]","0.36363636363636365","0.5238095238095238","0","","","","","","","","","","","","","","","","","","","","","","","","","","","","",""
"19582.19999998808","","","","survey-template","8","294392","0.0-4.0-4.0","122","1","2025-08-06 08:49:19","36c45c0696341be0efffe67d72a12abb","102.222.12.73","Mozilla/5.0 (Windows NT 10.0; Win64; x64) AppleWebKit/537.36 (KHTML, like Gecko) Chrome/138.0.0.0 Safari/537.36","WebKit","Chrome","138.0.0.0","Windows","10.0","https://app.prolific.com/","en-ZA,en-GB;q=0.9,en-US;q=0.8,en;q=0.7,en-GB-oxendict;q=0.6","605b838b80f022835fc293fb","6877649eabb845cf142cd221","68931703670cfd61646f5480","1","605b838b80f022835fc293fb","1","2025-08-06T08:54:16.663Z","","","","stress","{""Q01"":""2"",""Q02"":""4"",""Q03"":""1""}","[0,1,2]","[""Q01"",""Q02"",""Q03""]","[8167.400000035763,12599.600000023842,17914.400000035763]","[]","[8167.400000035763,11082.600000023842,12599.600000023842,16697.69999998808,17914.400000035763,19580.900000035763]","0.6666666666666666","0.5","0","","","","","","","","","","","","","","","","","","","","","","","","","","","","",""
"40353","","","","instructions","9","334747","0.0-5.0-0.0","122","1","2025-08-06 08:49:19","36c45c0696341be0efffe67d72a12abb","102.222.12.73","Mozilla/5.0 (Windows NT 10.0; Win64; x64) AppleWebKit/537.36 (KHTML, like Gecko) Chrome/138.0.0.0 Safari/537.36","WebKit","Chrome","138.0.0.0","Windows","10.0","https://app.prolific.com/","en-ZA,en-GB;q=0.9,en-US;q=0.8,en;q=0.7,en-GB-oxendict;q=0.6","605b838b80f022835fc293fb","6877649eabb845cf142cd221","68931703670cfd61646f5480","1","605b838b80f022835fc293fb","1","","","","","","","","","","","","","","","[{""page_index"":0,""viewing_time"":40352}]","","","","","","","","","","","","","","","","","","","","","","","","","","","",""
"22069","","<p>Before you start with this game please answer the following three questions yourself. </p>
  <p>Through this game, we measure several aspects of your cognitive performance, such as reaction times, multi-tasking capabilities </p>
  <p>and the ability to assess the situation you are in.</p>
  <p></p>
  <p><b>How good do you usually are in such tasks?</b></p>","86","html-slider-response","10","356817","0.0-6.0-0.0","122","1","2025-08-06 08:49:19","36c45c0696341be0efffe67d72a12abb","102.222.12.73","Mozilla/5.0 (Windows NT 10.0; Win64; x64) AppleWebKit/537.36 (KHTML, like Gecko) Chrome/138.0.0.0 Safari/537.36","WebKit","Chrome","138.0.0.0","Windows","10.0","https://app.prolific.com/","en-ZA,en-GB;q=0.9,en-US;q=0.8,en;q=0.7,en-GB-oxendict;q=0.6","605b838b80f022835fc293fb","6877649eabb845cf142cd221","68931703670cfd61646f5480","1","605b838b80f022835fc293fb","1","2025-08-06T08:55:19.088Z","","","","PreSkillQ","","","","","","","","","","","50","","","","","","","","","","","","","","","","","","","","","","","","","","",""
"7154","","<div style=""width:500px;"">
  <p>How well do you think you will perform in this task compared to other participants?</p>
  </div>","88","html-slider-response","11","363973","0.0-6.0-1.0","122","1","2025-08-06 08:49:19","36c45c0696341be0efffe67d72a12abb","102.222.12.73","Mozilla/5.0 (Windows NT 10.0; Win64; x64) AppleWebKit/537.36 (KHTML, like Gecko) Chrome/138.0.0.0 Safari/537.36","WebKit","Chrome","138.0.0.0","Windows","10.0","https://app.prolific.com/","en-ZA,en-GB;q=0.9,en-US;q=0.8,en;q=0.7,en-GB-oxendict;q=0.6","605b838b80f022835fc293fb","6877649eabb845cf142cd221","68931703670cfd61646f5480","1","605b838b80f022835fc293fb","1","2025-08-06T08:55:26.244Z","","","","PrePerfQ","","","","","","","","","","","50","","","","","","","","","","","","","","","","","","","","","","","","","","",""
"5530","","<div style=""width:500px;"">
  <p>What best describes how you currently feel?</p>
  </div>","97","html-slider-response","12","369504","0.0-6.0-2.0","122","1","2025-08-06 08:49:19","36c45c0696341be0efffe67d72a12abb","102.222.12.73","Mozilla/5.0 (Windows NT 10.0; Win64; x64) AppleWebKit/537.36 (KHTML, like Gecko) Chrome/138.0.0.0 Safari/537.36","WebKit","Chrome","138.0.0.0","Windows","10.0","https://app.prolific.com/","en-ZA,en-GB;q=0.9,en-US;q=0.8,en;q=0.7,en-GB-oxendict;q=0.6","605b838b80f022835fc293fb","6877649eabb845cf142cd221","68931703670cfd61646f5480","1","605b838b80f022835fc293fb","1","2025-08-06T08:55:31.776Z","","","","PreMotivationQ","","","","","","","","","","","50","","","","","","","","","","","","","","","","","","","","","","","","","","",""
"","","","","ctl-task-cpt","13","401176","0.0-7.0-0.0","122","1","2025-08-06 08:49:19","36c45c0696341be0efffe67d72a12abb","102.222.12.73","Mozilla/5.0 (Windows NT 10.0; Win64; x64) AppleWebKit/537.36 (KHTML, like Gecko) Chrome/138.0.0.0 Safari/537.36","WebKit","Chrome","138.0.0.0","Windows","10.0","https://app.prolific.com/","en-ZA,en-GB;q=0.9,en-US;q=0.8,en;q=0.7,en-GB-oxendict;q=0.6","605b838b80f022835fc293fb","6877649eabb845cf142cd221","68931703670cfd61646f5480","1","605b838b80f022835fc293fb","1","2025-08-06T08:56:03.447Z","","","","","","","","","","","","","","","","win-only","2","g1:SE,g2:NW","1","1","0","373272.8","2068.5","7074.7","28664.2","1","4","4","6","2","4","4","4","0","0.030303030303030304","1817","3000","670","[""left"",""up""]","{""num_key_presses"":6,""num_perfect"":6,""num_errors"":0,""num_randdir"":0,""num_randdir_good_moves"":0,""num_whilered"":0,""num_whileblue"":0,""num_blue"":2,""num_good_moves"":6}","[416.5714133126395,419.07142761775424,0.8,416.5714133126395,419.07142761775424,103.2,416.5714133126395,419.07142761775424,208.5,416.5714133126395,419.07142761775424,314,416.5714133126395,419.07142761775424,418.4,416.5714133126395,419.07142761775424,522.8,416.5714133126395,419.07142761775424,629.3,416.5714133126395,419.07142761775424,733.5,392.8214133126395,400.32142761775424,834.5,119.0714133126395,131.57142761775424,935.3,69.0714133126395,-43.42857238224575,1040,69.0714133126395,-72.17857238224575,1143.7,74.0714133126395,-45.92857238224575,1247.7,76.5714133126395,19.071427617754253,1347.8,81.5714133126395,50.32142761775425,1448.3,81.5714133126395,64.07142761775425,1551.2,81.5714133126395,64.07142761775425,1654.7,81.5714133126395,64.07142761775425,1757.8,81.5714133126395,64.07142761775425,1858.2,81.5714133126395,64.07142761775425,1962.2,81.5714133126395,64.07142761775425,2066.6,81.5714133126395,64.07142761775425,2167.2,81.5714133126395,64.07142761775425,2268.4,81.5714133126395,64.07142761775425,2372.3,81.5714133126395,64.07142761775425,2472.4,81.5714133126395,64.07142761775425,2572.5,447.8214133126395,354.07142761775424,2679.6,702.8214133126395,632.8214276177542,2783.8,710.3214133126395,646.5714276177542,2887.7,710.3214133126395,651.5714276177542,2987.8,704.0714133126395,657.8214276177542,3093.7,701.5714133126395,657.8214276177542,3193.9,701.5714133126395,657.8214276177542,3294,701.5714133126395,657.8214276177542,3395.4,701.5714133126395,657.8214276177542,3497.4,701.5714133126395,657.8214276177542,3597.5,701.5714133126395,657.8214276177542,3698.1,701.5714133126395,657.8214276177542,3798.5,701.5714133126395,657.8214276177542,3903.5,701.5714133126395,657.8214276177542,4007.5,701.5714133126395,657.8214276177542,4112.5,701.5714133126395,657.8214276177542,4217.8,701.5714133126395,657.8214276177542,4318,701.5714133126395,657.8214276177542,4423.1,701.5714133126395,657.8214276177542,4523.4,669.0714133126395,656.5714276177542,4628.6,561.5714133126395,614.0714276177542,4728.7,476.5714133126395,534.0714276177542,4828.8,411.5714133126395,462.82142761775424,4929]","[4824.6,4824.5,2473.9,2001.4,349.3,""smooth"",""left"",""left"",""good_move"",8088.7,3263.5,2902.8,4825.2,360.7,""smooth"",""left"",""left"",""good_move"",10357.3,2268,1793.5,8089.3,474.5,""smooth"",""left"",""left"",""good_move"",15978,5620.4,1999.9,13597.1,381,""smooth"",""up"",""up"",""good_move"",19053.7,3075.4,2656.2,15978.3,419.2,""smooth"",""up"",""up"",""good_move"",21498.8,2444.5,2058.2,19054.3,386.3,""smooth"",""up"",""up"",""good_move""]"
"3439","","<div style=""width:500px;"">
  <p>What determined the result of this run?</p>
  </div>","100","html-slider-response","14","404616","0.0-7.0-1.0","122","1","2025-08-06 08:49:19","36c45c0696341be0efffe67d72a12abb","102.222.12.73","Mozilla/5.0 (Windows NT 10.0; Win64; x64) AppleWebKit/537.36 (KHTML, like Gecko) Chrome/138.0.0.0 Safari/537.36","WebKit","Chrome","138.0.0.0","Windows","10.0","https://app.prolific.com/","en-ZA,en-GB;q=0.9,en-US;q=0.8,en;q=0.7,en-GB-oxendict;q=0.6","605b838b80f022835fc293fb","6877649eabb845cf142cd221","68931703670cfd61646f5480","1","605b838b80f022835fc293fb","1","2025-08-06T08:56:06.887Z","","","","AttribQ","","","","","","","","","","","50","","","","","","","","","","","","","","","","","","","","","","","","","","",""
"2840","","<div style=""width:500px;"">
  <p>How much control did you have over the ball?</p>
  </div>","100","html-slider-response","15","407457","0.0-7.0-2.0","122","1","2025-08-06 08:49:19","36c45c0696341be0efffe67d72a12abb","102.222.12.73","Mozilla/5.0 (Windows NT 10.0; Win64; x64) AppleWebKit/537.36 (KHTML, like Gecko) Chrome/138.0.0.0 Safari/537.36","WebKit","Chrome","138.0.0.0","Windows","10.0","https://app.prolific.com/","en-ZA,en-GB;q=0.9,en-US;q=0.8,en;q=0.7,en-GB-oxendict;q=0.6","605b838b80f022835fc293fb","6877649eabb845cf142cd221","68931703670cfd61646f5480","1","605b838b80f022835fc293fb","1","2025-08-06T08:56:09.728Z","","","","ControlQ","","","","","","","","","","","50","","","","","","","","","","","","","","","","","","","","","","","","","","",""
"2979","","<div style=""width:500px;"">
  <p>How would you describe your current emotional state?</p>
  </div>","0","html-slider-response","16","410438","0.0-7.0-3.0","122","1","2025-08-06 08:49:19","36c45c0696341be0efffe67d72a12abb","102.222.12.73","Mozilla/5.0 (Windows NT 10.0; Win64; x64) AppleWebKit/537.36 (KHTML, like Gecko) Chrome/138.0.0.0 Safari/537.36","WebKit","Chrome","138.0.0.0","Windows","10.0","https://app.prolific.com/","en-ZA,en-GB;q=0.9,en-US;q=0.8,en;q=0.7,en-GB-oxendict;q=0.6","605b838b80f022835fc293fb","6877649eabb845cf142cd221","68931703670cfd61646f5480","1","605b838b80f022835fc293fb","1","2025-08-06T08:56:12.709Z","","","","StressQ","","","","","","","","","","","50","","","","","","","","","","","","","","","","","","","","","","","","","","",""
"4660","","<div style=""width:500px;"">
  <p>What best describes how you currently feel?</p>
  </div>","100","html-slider-response","17","415100","0.0-7.0-4.0","122","1","2025-08-06 08:49:19","36c45c0696341be0efffe67d72a12abb","102.222.12.73","Mozilla/5.0 (Windows NT 10.0; Win64; x64) AppleWebKit/537.36 (KHTML, like Gecko) Chrome/138.0.0.0 Safari/537.36","WebKit","Chrome","138.0.0.0","Windows","10.0","https://app.prolific.com/","en-ZA,en-GB;q=0.9,en-US;q=0.8,en;q=0.7,en-GB-oxendict;q=0.6","605b838b80f022835fc293fb","6877649eabb845cf142cd221","68931703670cfd61646f5480","1","605b838b80f022835fc293fb","1","2025-08-06T08:56:17.371Z","","","","MotivationQ","","","","","","","","","","","50","","","","","","","","","","","","","","","","","","","","","","","","","","",""
"","","","","ctl-task-cpt","18","443378","0.0-7.0-0.1","122","1","2025-08-06 08:49:19","36c45c0696341be0efffe67d72a12abb","102.222.12.73","Mozilla/5.0 (Windows NT 10.0; Win64; x64) AppleWebKit/537.36 (KHTML, like Gecko) Chrome/138.0.0.0 Safari/537.36","WebKit","Chrome","138.0.0.0","Windows","10.0","https://app.prolific.com/","en-ZA,en-GB;q=0.9,en-US;q=0.8,en;q=0.7,en-GB-oxendict;q=0.6","605b838b80f022835fc293fb","6877649eabb845cf142cd221","68931703670cfd61646f5480","1","605b838b80f022835fc293fb","1","2025-08-06T08:56:45.649Z","","","","","","","","","","","","","","","","win-only","1","g1:NE,g2:SW","0.9","2","0","418865.4","1556","6561.4","25259","1","4","8","6","2","8","8","12","4","0.09090909090909091","1456.4","3000","385","[""down"",""left""]","{""num_key_presses"":6,""num_perfect"":6,""num_errors"":0,""num_randdir"":0,""num_randdir_good_moves"":0,""num_whilered"":0,""num_whileblue"":0,""num_blue"":1,""num_good_moves"":6}","[420.3214133126395,414.07142761775424,0.3,420.3214133126395,414.07142761775424,100.8,420.3214133126395,414.07142761775424,200.9,420.3214133126395,414.07142761775424,306.8,420.3214133126395,414.07142761775424,411.8,420.3214133126395,414.07142761775424,514.6,237.8214133126395,556.5714276177542,615.4,86.5714133126395,742.8214276177542,721.3,31.571413312639507,774.0714276177542,823.5,21.571413312639507,781.5714276177542,927.8,29.071413312639507,785.3214276177542,1029.5,70.3214133126395,757.8214276177542,1129.6,76.5714133126395,756.5714276177542,1230.6,76.5714133126395,756.5714276177542,1334.8,76.5714133126395,756.5714276177542,1437.3,76.5714133126395,756.5714276177542,1541.7,76.5714133126395,756.5714276177542,1641.8,76.5714133126395,756.5714276177542,1745.4,76.5714133126395,756.5714276177542,1851.1,76.5714133126395,756.5714276177542,1951.5,76.5714133126395,756.5714276177542,2056.6,76.5714133126395,756.5714276177542,2156.7,76.5714133126395,756.5714276177542,2258.5,76.5714133126395,756.5714276177542,2360.2,76.5714133126395,756.5714276177542,2465.1,76.5714133126395,756.5714276177542,2571.2,76.5714133126395,756.5714276177542,2673.1,76.5714133126395,756.5714276177542,2778.1,76.5714133126395,756.5714276177542,2880.3,76.5714133126395,756.5714276177542,2981.2,76.5714133126395,756.5714276177542,3086.8,76.5714133126395,756.5714276177542,3191,76.5714133126395,756.5714276177542,3295.9,76.5714133126395,756.5714276177542,3400.2,76.5714133126395,756.5714276177542,3501.1,76.5714133126395,756.5714276177542,3608.1,76.5714133126395,756.5714276177542,3710.4,76.5714133126395,756.5714276177542,3811.1,76.5714133126395,756.5714276177542,3915.7,76.5714133126395,756.5714276177542,4022.4,76.5714133126395,756.5714276177542,4125.1,76.5714133126395,756.5714276177542,4225.7,76.5714133126395,756.5714276177542,4326.1,76.5714133126395,756.5714276177542,4430.7,76.5714133126395,756.5714276177542,4530.8,76.5714133126395,756.5714276177542,4630.9,76.5714133126395,756.5714276177542,4737.2,76.5714133126395,756.5714276177542,4841.4,76.5714133126395,756.5714276177542,4944.7]","[1392,1392,1000,0,392,""smooth"",""down"",""down"",""good_move"",7069.2,5676.5,1940.2,4669.6,459.4,""smooth"",""down"",""down"",""good_move"",9808.1,2738.6,2272.7,7069.5,465.9,""smooth"",""down"",""down"",""good_move"",12869.2,3061,2673.4,9808.4,387.5,""smooth"",""left"",""left"",""good_move"",15670.6,2801.1,2337.9,12869.6,463.2,""smooth"",""left"",""left"",""good_move"",18597.3,2926.4,2437.1,15670.9,489.3,""smooth"",""left"",""left"",""good_move""]"
"4813","","<div style=""width:500px;"">
  <p>What determined the result of this run?</p>
  </div>","100","html-slider-response","19","448193","0.0-7.0-1.1","122","1","2025-08-06 08:49:19","36c45c0696341be0efffe67d72a12abb","102.222.12.73","Mozilla/5.0 (Windows NT 10.0; Win64; x64) AppleWebKit/537.36 (KHTML, like Gecko) Chrome/138.0.0.0 Safari/537.36","WebKit","Chrome","138.0.0.0","Windows","10.0","https://app.prolific.com/","en-ZA,en-GB;q=0.9,en-US;q=0.8,en;q=0.7,en-GB-oxendict;q=0.6","605b838b80f022835fc293fb","6877649eabb845cf142cd221","68931703670cfd61646f5480","1","605b838b80f022835fc293fb","1","2025-08-06T08:56:50.464Z","","","","AttribQ","","","","","","","","","","","50","","","","","","","","","","","","","","","","","","","","","","","","","","",""
"5132","","<div style=""width:500px;"">
  <p>How much control did you have over the ball?</p>
  </div>","100","html-slider-response","20","453327","0.0-7.0-2.1","122","1","2025-08-06 08:49:19","36c45c0696341be0efffe67d72a12abb","102.222.12.73","Mozilla/5.0 (Windows NT 10.0; Win64; x64) AppleWebKit/537.36 (KHTML, like Gecko) Chrome/138.0.0.0 Safari/537.36","WebKit","Chrome","138.0.0.0","Windows","10.0","https://app.prolific.com/","en-ZA,en-GB;q=0.9,en-US;q=0.8,en;q=0.7,en-GB-oxendict;q=0.6","605b838b80f022835fc293fb","6877649eabb845cf142cd221","68931703670cfd61646f5480","1","605b838b80f022835fc293fb","1","2025-08-06T08:56:55.598Z","","","","ControlQ","","","","","","","","","","","50","","","","","","","","","","","","","","","","","","","","","","","","","","",""
"4719","","<div style=""width:500px;"">
  <p>How would you describe your current emotional state?</p>
  </div>","1","html-slider-response","21","458048","0.0-7.0-3.1","122","1","2025-08-06 08:49:19","36c45c0696341be0efffe67d72a12abb","102.222.12.73","Mozilla/5.0 (Windows NT 10.0; Win64; x64) AppleWebKit/537.36 (KHTML, like Gecko) Chrome/138.0.0.0 Safari/537.36","WebKit","Chrome","138.0.0.0","Windows","10.0","https://app.prolific.com/","en-ZA,en-GB;q=0.9,en-US;q=0.8,en;q=0.7,en-GB-oxendict;q=0.6","605b838b80f022835fc293fb","6877649eabb845cf142cd221","68931703670cfd61646f5480","1","605b838b80f022835fc293fb","1","2025-08-06T08:57:00.319Z","","","","StressQ","","","","","","","","","","","50","","","","","","","","","","","","","","","","","","","","","","","","","","",""
"2997","","<div style=""width:500px;"">
  <p>What best describes how you currently feel?</p>
  </div>","100","html-slider-response","22","461047","0.0-7.0-4.1","122","1","2025-08-06 08:49:19","36c45c0696341be0efffe67d72a12abb","102.222.12.73","Mozilla/5.0 (Windows NT 10.0; Win64; x64) AppleWebKit/537.36 (KHTML, like Gecko) Chrome/138.0.0.0 Safari/537.36","WebKit","Chrome","138.0.0.0","Windows","10.0","https://app.prolific.com/","en-ZA,en-GB;q=0.9,en-US;q=0.8,en;q=0.7,en-GB-oxendict;q=0.6","605b838b80f022835fc293fb","6877649eabb845cf142cd221","68931703670cfd61646f5480","1","605b838b80f022835fc293fb","1","2025-08-06T08:57:03.318Z","","","","MotivationQ","","","","","","","","","","","50","","","","","","","","","","","","","","","","","","","","","","","","","","",""
"","","","","ctl-task-cpt","23","511463","0.0-7.0-0.2","122","1","2025-08-06 08:49:19","36c45c0696341be0efffe67d72a12abb","102.222.12.73","Mozilla/5.0 (Windows NT 10.0; Win64; x64) AppleWebKit/537.36 (KHTML, like Gecko) Chrome/138.0.0.0 Safari/537.36","WebKit","Chrome","138.0.0.0","Windows","10.0","https://app.prolific.com/","en-ZA,en-GB;q=0.9,en-US;q=0.8,en;q=0.7,en-GB-oxendict;q=0.6","605b838b80f022835fc293fb","6877649eabb845cf142cd221","68931703670cfd61646f5480","1","605b838b80f022835fc293fb","1","2025-08-06T08:57:53.734Z","","","","","","","","","","","","","","","","win-only","2","g1:SE,g2:NW","0.8","3","0","464814.8","2130.2","7133.5","47396.8","1","4","4","6","2","4","4","16","12","0.12121212121212122","1404.4","3000","270","[""left"",""up""]","{""num_key_presses"":6,""num_perfect"":6,""num_errors"":0,""num_randdir"":0,""num_randdir_good_moves"":0,""num_whilered"":0,""num_whileblue"":0,""num_blue"":7,""num_good_moves"":6}","[421.5714133126395,421.57142761775424,0.8,421.5714133126395,421.57142761775424,101.9,421.5714133126395,421.57142761775424,202.9,421.5714133126395,421.57142761775424,307.5,421.5714133126395,421.57142761775424,407.6,380.3214133126395,416.57142761775424,507.9,171.5714133126395,261.57142761775424,611,107.8214133126395,204.07142761775424,716.1,106.5714133126395,171.57142761775424,816.1,115.3214133126395,141.57142761775424,916.1,110.3214133126395,126.57142761775425,1023.3,91.5714133126395,115.32142761775425,1124.4,90.3214133126395,111.57142761775425,1228.6,90.3214133126395,111.57142761775425,1331.4,90.3214133126395,111.57142761775425,1438.1,90.3214133126395,111.57142761775425,1538.1,90.3214133126395,111.57142761775425,1639.1,90.3214133126395,111.57142761775425,1739.3,90.3214133126395,111.57142761775425,1842,90.3214133126395,111.57142761775425,1945.5,90.3214133126395,111.57142761775425,2045.6,90.3214133126395,111.57142761775425,2146.1,90.3214133126395,111.57142761775425,2253.8,152.8214133126395,232.82142761775424,2356,256.5714133126395,391.57142761775424,2460.4,291.5714133126395,437.82142761775424,2560.6,292.8214133126395,439.07142761775424,2661.2,292.8214133126395,439.07142761775424,2763.4,292.8214133126395,439.07142761775424,2865.5,292.8214133126395,439.07142761775424,2965.9,292.8214133126395,439.07142761775424,3066.3,292.8214133126395,439.07142761775424,3175.5,292.8214133126395,439.07142761775424,3278.8,292.8214133126395,439.07142761775424,3380.8,292.8214133126395,439.07142761775424,3481.9,292.8214133126395,439.07142761775424,3582.3,292.8214133126395,439.07142761775424,3690.5,292.8214133126395,439.07142761775424,3792.1,292.8214133126395,439.07142761775424,3896.7,292.8214133126395,439.07142761775424,4001.5,292.8214133126395,439.07142761775424,4103.5,292.8214133126395,439.07142761775424,4207.6,292.8214133126395,439.07142761775424,4309.2,292.8214133126395,439.07142761775424,4410.3,292.8214133126395,439.07142761775424,4510.8,292.8214133126395,439.07142761775424,4611.3,292.8214133126395,439.07142761775424,4715.3,292.8214133126395,439.07142761775424,4821.8,292.8214133126395,439.07142761775424,4923.3]","[8670.6,8670.6,2528.1,5733.6,408.9,""smooth"",""up"",""up"",""good_move"",18973.6,10302.6,2080.2,16271.7,621.7,""smooth"",""up"",""up"",""good_move"",22121.2,3147.3,2615.2,18973.9,532.1,""smooth"",""left"",""left"",""good_move"",25301.6,3179.8,2686.3,22121.8,493.5,""smooth"",""left"",""left"",""good_move"",31044.2,5742.2,2482.8,28137.8,423.6,""smooth"",""left"",""left"",""good_move"",40161.3,9116.7,2489.4,37243.5,428.4,""smooth"",""up"",""up"",""good_move""]"
"4458","","<div style=""width:500px;"">
  <p>What determined the result of this run?</p>
  </div>","100","html-slider-response","24","515922","0.0-7.0-1.2","122","1","2025-08-06 08:49:19","36c45c0696341be0efffe67d72a12abb","102.222.12.73","Mozilla/5.0 (Windows NT 10.0; Win64; x64) AppleWebKit/537.36 (KHTML, like Gecko) Chrome/138.0.0.0 Safari/537.36","WebKit","Chrome","138.0.0.0","Windows","10.0","https://app.prolific.com/","en-ZA,en-GB;q=0.9,en-US;q=0.8,en;q=0.7,en-GB-oxendict;q=0.6","605b838b80f022835fc293fb","6877649eabb845cf142cd221","68931703670cfd61646f5480","1","605b838b80f022835fc293fb","1","2025-08-06T08:57:58.193Z","","","","AttribQ","","","","","","","","","","","50","","","","","","","","","","","","","","","","","","","","","","","","","","",""
"3273","","<div style=""width:500px;"">
  <p>How much control did you have over the ball?</p>
  </div>","100","html-slider-response","25","519196","0.0-7.0-2.2","122","1","2025-08-06 08:49:19","36c45c0696341be0efffe67d72a12abb","102.222.12.73","Mozilla/5.0 (Windows NT 10.0; Win64; x64) AppleWebKit/537.36 (KHTML, like Gecko) Chrome/138.0.0.0 Safari/537.36","WebKit","Chrome","138.0.0.0","Windows","10.0","https://app.prolific.com/","en-ZA,en-GB;q=0.9,en-US;q=0.8,en;q=0.7,en-GB-oxendict;q=0.6","605b838b80f022835fc293fb","6877649eabb845cf142cd221","68931703670cfd61646f5480","1","605b838b80f022835fc293fb","1","2025-08-06T08:58:01.468Z","","","","ControlQ","","","","","","","","","","","50","","","","","","","","","","","","","","","","","","","","","","","","","","",""
"3757","","<div style=""width:500px;"">
  <p>How would you describe your current emotional state?</p>
  </div>","0","html-slider-response","26","522955","0.0-7.0-3.2","122","1","2025-08-06 08:49:19","36c45c0696341be0efffe67d72a12abb","102.222.12.73","Mozilla/5.0 (Windows NT 10.0; Win64; x64) AppleWebKit/537.36 (KHTML, like Gecko) Chrome/138.0.0.0 Safari/537.36","WebKit","Chrome","138.0.0.0","Windows","10.0","https://app.prolific.com/","en-ZA,en-GB;q=0.9,en-US;q=0.8,en;q=0.7,en-GB-oxendict;q=0.6","605b838b80f022835fc293fb","6877649eabb845cf142cd221","68931703670cfd61646f5480","1","605b838b80f022835fc293fb","1","2025-08-06T08:58:05.226Z","","","","StressQ","","","","","","","","","","","50","","","","","","","","","","","","","","","","","","","","","","","","","","",""
"4391","","<div style=""width:500px;"">
  <p>What best describes how you currently feel?</p>
  </div>","100","html-slider-response","27","527347","0.0-7.0-4.2","122","1","2025-08-06 08:49:19","36c45c0696341be0efffe67d72a12abb","102.222.12.73","Mozilla/5.0 (Windows NT 10.0; Win64; x64) AppleWebKit/537.36 (KHTML, like Gecko) Chrome/138.0.0.0 Safari/537.36","WebKit","Chrome","138.0.0.0","Windows","10.0","https://app.prolific.com/","en-ZA,en-GB;q=0.9,en-US;q=0.8,en;q=0.7,en-GB-oxendict;q=0.6","605b838b80f022835fc293fb","6877649eabb845cf142cd221","68931703670cfd61646f5480","1","605b838b80f022835fc293fb","1","2025-08-06T08:58:09.618Z","","","","MotivationQ","","","","","","","","","","","50","","","","","","","","","","","","","","","","","","","","","","","","","","",""
"","","","","ctl-task-cpt","28","570399","0.0-7.0-0.3","122","1","2025-08-06 08:49:19","36c45c0696341be0efffe67d72a12abb","102.222.12.73","Mozilla/5.0 (Windows NT 10.0; Win64; x64) AppleWebKit/537.36 (KHTML, like Gecko) Chrome/138.0.0.0 Safari/537.36","WebKit","Chrome","138.0.0.0","Windows","10.0","https://app.prolific.com/","en-ZA,en-GB;q=0.9,en-US;q=0.8,en;q=0.7,en-GB-oxendict;q=0.6","605b838b80f022835fc293fb","6877649eabb845cf142cd221","68931703670cfd61646f5480","1","605b838b80f022835fc293fb","1","2025-08-06T08:58:52.670Z","","","","","","","","","","","","","","","","win-only","1","g1:NE,g2:SW","0.7","4","0","531115.1","1706","6709","40036.6","1","4","8","6","2","-8","-8","8","16","0.06060606060606061","1647.5","3000","-2695","[""down"",""left""]","{""num_key_presses"":7,""num_perfect"":5,""num_errors"":0,""num_randdir"":2,""num_randdir_good_moves"":0,""num_whilered"":0,""num_whileblue"":0,""num_blue"":3,""num_good_moves"":5}","[415.3214133126395,406.57142761775424,0.6,415.3214133126395,406.57142761775424,105.4,415.3214133126395,406.57142761775424,205.5,415.3214133126395,406.57142761775424,312,415.3214133126395,406.57142761775424,417.4,415.3214133126395,406.57142761775424,519.6,415.3214133126395,406.57142761775424,622.3,371.5714133126395,414.07142761775424,728.6,94.0714133126395,681.5714276177542,835.8,51.57141331263951,741.5714276177542,941.2,35.32141331263951,764.0714276177542,1041.2,29.071413312639507,776.5714276177542,1151.4,57.82141331263951,759.0714276177542,1255.3,81.5714133126395,749.0714276177542,1356.7,85.3214133126395,749.0714276177542,1464.1,85.3214133126395,749.0714276177542,1568.6,85.3214133126395,749.0714276177542,1670.3,85.3214133126395,749.0714276177542,1778.2,85.3214133126395,749.0714276177542,1882.3,85.3214133126395,749.0714276177542,1984.9,85.3214133126395,749.0714276177542,2088.2,85.3214133126395,749.0714276177542,2190.1,85.3214133126395,749.0714276177542,2292.4,85.3214133126395,749.0714276177542,2398.7,85.3214133126395,749.0714276177542,2500.1,85.3214133126395,749.0714276177542,2600.6,85.3214133126395,749.0714276177542,2702.6,85.3214133126395,749.0714276177542,2802.9,85.3214133126395,749.0714276177542,2903.4,85.3214133126395,749.0714276177542,3006.2,85.3214133126395,749.0714276177542,3113.9,85.3214133126395,749.0714276177542,3215.6,85.3214133126395,749.0714276177542,3320.5,85.3214133126395,749.0714276177542,3420.5,85.3214133126395,749.0714276177542,3521.2,85.3214133126395,749.0714276177542,3621.4,85.3214133126395,749.0714276177542,3727.4,85.3214133126395,749.0714276177542,3827.5,85.3214133126395,749.0714276177542,3927.7,85.3214133126395,749.0714276177542,4034.6,85.3214133126395,749.0714276177542,4135.3,85.3214133126395,749.0714276177542,4235.4,85.3214133126395,749.0714276177542,4338.8,85.3214133126395,749.0714276177542,4440.7,85.3214133126395,749.0714276177542,4549.5,85.3214133126395,749.0714276177542,4650.3,85.3214133126395,749.0714276177542,4752.1,85.3214133126395,749.0714276177542,4852.6,85.3214133126395,749.0714276177542,4955.7]","[1380,1380,1000,0,380.1,""smooth"",""down"",""down"",""good_move"",4823.8,3443,3051.2,1380.8,391.8,""smooth"",""down"",""down"",""good_move"",11233.1,6408.9,2291.1,8477.9,464.1,""smooth"",""down"",""down"",""good_move"",14124.1,2890.7,2481.9,11233.4,408.8,""oops"",""left"",""right"",""bad_move"",16808.3,2683.2,2181.4,14125.1,501.8,""smooth"",""left"",""left"",""good_move"",20511.6,3702.4,3301.6,16809.2,400.8,""smooth"",""left"",""left"",""good_move"",23460.4,2948.6,2494,20511.8,454.6,""oops"",""left"",""right"",""bad_move""]"
"6922","","<div style=""width:500px;"">
  <p>What determined the result of this run?</p>
  </div>","52","html-slider-response","29","577322","0.0-7.0-1.3","122","1","2025-08-06 08:49:19","36c45c0696341be0efffe67d72a12abb","102.222.12.73","Mozilla/5.0 (Windows NT 10.0; Win64; x64) AppleWebKit/537.36 (KHTML, like Gecko) Chrome/138.0.0.0 Safari/537.36","WebKit","Chrome","138.0.0.0","Windows","10.0","https://app.prolific.com/","en-ZA,en-GB;q=0.9,en-US;q=0.8,en;q=0.7,en-GB-oxendict;q=0.6","605b838b80f022835fc293fb","6877649eabb845cf142cd221","68931703670cfd61646f5480","1","605b838b80f022835fc293fb","1","2025-08-06T08:58:59.593Z","","","","AttribQ","","","","","","","","","","","50","","","","","","","","","","","","","","","","","","","","","","","","","","",""
"3841","","<div style=""width:500px;"">
  <p>How much control did you have over the ball?</p>
  </div>","76","html-slider-response","30","581164","0.0-7.0-2.3","122","1","2025-08-06 08:49:19","36c45c0696341be0efffe67d72a12abb","102.222.12.73","Mozilla/5.0 (Windows NT 10.0; Win64; x64) AppleWebKit/537.36 (KHTML, like Gecko) Chrome/138.0.0.0 Safari/537.36","WebKit","Chrome","138.0.0.0","Windows","10.0","https://app.prolific.com/","en-ZA,en-GB;q=0.9,en-US;q=0.8,en;q=0.7,en-GB-oxendict;q=0.6","605b838b80f022835fc293fb","6877649eabb845cf142cd221","68931703670cfd61646f5480","1","605b838b80f022835fc293fb","1","2025-08-06T08:59:03.435Z","","","","ControlQ","","","","","","","","","","","50","","","","","","","","","","","","","","","","","","","","","","","","","","",""
"4927","","<div style=""width:500px;"">
  <p>How would you describe your current emotional state?</p>
  </div>","34","html-slider-response","31","586093","0.0-7.0-3.3","122","1","2025-08-06 08:49:19","36c45c0696341be0efffe67d72a12abb","102.222.12.73","Mozilla/5.0 (Windows NT 10.0; Win64; x64) AppleWebKit/537.36 (KHTML, like Gecko) Chrome/138.0.0.0 Safari/537.36","WebKit","Chrome","138.0.0.0","Windows","10.0","https://app.prolific.com/","en-ZA,en-GB;q=0.9,en-US;q=0.8,en;q=0.7,en-GB-oxendict;q=0.6","605b838b80f022835fc293fb","6877649eabb845cf142cd221","68931703670cfd61646f5480","1","605b838b80f022835fc293fb","1","2025-08-06T08:59:08.364Z","","","","StressQ","","","","","","","","","","","50","","","","","","","","","","","","","","","","","","","","","","","","","","",""
"4195","","<div style=""width:500px;"">
  <p>What best describes how you currently feel?</p>
  </div>","54","html-slider-response","32","590289","0.0-7.0-4.3","122","1","2025-08-06 08:49:19","36c45c0696341be0efffe67d72a12abb","102.222.12.73","Mozilla/5.0 (Windows NT 10.0; Win64; x64) AppleWebKit/537.36 (KHTML, like Gecko) Chrome/138.0.0.0 Safari/537.36","WebKit","Chrome","138.0.0.0","Windows","10.0","https://app.prolific.com/","en-ZA,en-GB;q=0.9,en-US;q=0.8,en;q=0.7,en-GB-oxendict;q=0.6","605b838b80f022835fc293fb","6877649eabb845cf142cd221","68931703670cfd61646f5480","1","605b838b80f022835fc293fb","1","2025-08-06T08:59:12.561Z","","","","MotivationQ","","","","","","","","","","","50","","","","","","","","","","","","","","","","","","","","","","","","","","",""
"","","","","ctl-task-cpt","33","638983","0.0-7.0-0.4","122","1","2025-08-06 08:49:19","36c45c0696341be0efffe67d72a12abb","102.222.12.73","Mozilla/5.0 (Windows NT 10.0; Win64; x64) AppleWebKit/537.36 (KHTML, like Gecko) Chrome/138.0.0.0 Safari/537.36","WebKit","Chrome","138.0.0.0","Windows","10.0","https://app.prolific.com/","en-ZA,en-GB;q=0.9,en-US;q=0.8,en;q=0.7,en-GB-oxendict;q=0.6","605b838b80f022835fc293fb","6877649eabb845cf142cd221","68931703670cfd61646f5480","1","605b838b80f022835fc293fb","1","2025-08-06T09:00:01.254Z","","","","","","","","","","","","","","","","win-only","2","g1:SE,g2:NW","0.6","5","0","594057.1","2490.2","7495.2","45669.9","1","4","4","6","2","-4","-4","4","8","0.030303030303030304","1200.7","3000","-2150","[""left"",""up""]","{""num_key_presses"":9,""num_perfect"":5,""num_errors"":0,""num_randdir"":4,""num_randdir_good_moves"":2,""num_whilered"":0,""num_whileblue"":0,""num_blue"":3,""num_good_moves"":7}","[416.5714133126395,424.07142761775424,1.1,416.5714133126395,424.07142761775424,109.8,416.5714133126395,424.07142761775424,211,416.5714133126395,424.07142761775424,321,416.5714133126395,424.07142761775424,430.9,259.0714133126395,376.57142761775424,538.6,106.5714133126395,172.82142761775424,646.7,96.5714133126395,127.82142761775425,749.8,96.5714133126395,117.82142761775425,855.7,96.5714133126395,116.57142761775425,956.9,96.5714133126395,116.57142761775425,1063,96.5714133126395,116.57142761775425,1163.3,96.5714133126395,116.57142761775425,1266,96.5714133126395,116.57142761775425,1367.4,96.5714133126395,116.57142761775425,1467.7,96.5714133126395,116.57142761775425,1571.3,96.5714133126395,116.57142761775425,1677.6,96.5714133126395,116.57142761775425,1782.4,96.5714133126395,116.57142761775425,1895,96.5714133126395,116.57142761775425,1997.8,96.5714133126395,116.57142761775425,2104.9,96.5714133126395,116.57142761775425,2207.2,96.5714133126395,116.57142761775425,2310.3,96.5714133126395,116.57142761775425,2411.1,96.5714133126395,116.57142761775425,2511.6,96.5714133126395,116.57142761775425,2615.3,96.5714133126395,116.57142761775425,2715.6,96.5714133126395,116.57142761775425,2825.1,96.5714133126395,116.57142761775425,2926.3,96.5714133126395,116.57142761775425,3028.5,96.5714133126395,116.57142761775425,3135.3,96.5714133126395,116.57142761775425,3240,96.5714133126395,116.57142761775425,3342.8,96.5714133126395,116.57142761775425,3445.1,96.5714133126395,116.57142761775425,3546,96.5714133126395,116.57142761775425,3646.4,96.5714133126395,116.57142761775425,3756.2,96.5714133126395,116.57142761775425,3861.4,96.5714133126395,116.57142761775425,3965.8,96.5714133126395,116.57142761775425,4070,96.5714133126395,116.57142761775425,4177.3,96.5714133126395,116.57142761775425,4278.3,96.5714133126395,116.57142761775425,4380.1,96.5714133126395,116.57142761775425,4481.7,96.5714133126395,116.57142761775425,4587.1,96.5714133126395,116.57142761775425,4692.5,96.5714133126395,116.57142761775425,4795.6,96.5714133126395,116.57142761775425,4903.8]","[4613.9,4614,2224.1,2006.1,383.8,""oops"",""up"",""up"",""good_move"",8240.3,3625.8,3205.1,4614.5,420.7,""smooth"",""up"",""up"",""good_move"",10720.7,2480.1,2020.6,8240.6,459.5,""smooth"",""left"",""left"",""good_move"",13833.2,3112,2750.8,10721.2,361.2,""oops"",""left"",""down"",""bad_move"",16771.2,2937.4,2469.8,13833.8,467.6,""oops"",""left"",""right"",""bad_move"",27714.8,10943.2,2956.7,24293.3,464.8,""smooth"",""up"",""up"",""good_move"",30129,2413.7,2089.5,27715.3,324.2,""smooth"",""left"",""left"",""good_move"",32998.4,2868.9,2499.5,30129.5,369.4,""oops"",""left"",""left"",""good_move"",35407.4,2408.6,1705.8,32998.8,702.8,""smooth"",""left"",""left"",""good_move""]"
"7557","","<div style=""width:500px;"">
  <p>What determined the result of this run?</p>
  </div>","41","html-slider-response","34","646542","0.0-7.0-1.4","122","1","2025-08-06 08:49:19","36c45c0696341be0efffe67d72a12abb","102.222.12.73","Mozilla/5.0 (Windows NT 10.0; Win64; x64) AppleWebKit/537.36 (KHTML, like Gecko) Chrome/138.0.0.0 Safari/537.36","WebKit","Chrome","138.0.0.0","Windows","10.0","https://app.prolific.com/","en-ZA,en-GB;q=0.9,en-US;q=0.8,en;q=0.7,en-GB-oxendict;q=0.6","605b838b80f022835fc293fb","6877649eabb845cf142cd221","68931703670cfd61646f5480","1","605b838b80f022835fc293fb","1","2025-08-06T09:00:08.813Z","","","","AttribQ","","","","","","","","","","","50","","","","","","","","","","","","","","","","","","","","","","","","","","",""
"5563","","<div style=""width:500px;"">
  <p>How much control did you have over the ball?</p>
  </div>","28","html-slider-response","35","652106","0.0-7.0-2.4","122","1","2025-08-06 08:49:19","36c45c0696341be0efffe67d72a12abb","102.222.12.73","Mozilla/5.0 (Windows NT 10.0; Win64; x64) AppleWebKit/537.36 (KHTML, like Gecko) Chrome/138.0.0.0 Safari/537.36","WebKit","Chrome","138.0.0.0","Windows","10.0","https://app.prolific.com/","en-ZA,en-GB;q=0.9,en-US;q=0.8,en;q=0.7,en-GB-oxendict;q=0.6","605b838b80f022835fc293fb","6877649eabb845cf142cd221","68931703670cfd61646f5480","1","605b838b80f022835fc293fb","1","2025-08-06T09:00:14.377Z","","","","ControlQ","","","","","","","","","","","50","","","","","","","","","","","","","","","","","","","","","","","","","","",""
"2868","","<div style=""width:500px;"">
  <p>How would you describe your current emotional state?</p>
  </div>","67","html-slider-response","36","654976","0.0-7.0-3.4","122","1","2025-08-06 08:49:19","36c45c0696341be0efffe67d72a12abb","102.222.12.73","Mozilla/5.0 (Windows NT 10.0; Win64; x64) AppleWebKit/537.36 (KHTML, like Gecko) Chrome/138.0.0.0 Safari/537.36","WebKit","Chrome","138.0.0.0","Windows","10.0","https://app.prolific.com/","en-ZA,en-GB;q=0.9,en-US;q=0.8,en;q=0.7,en-GB-oxendict;q=0.6","605b838b80f022835fc293fb","6877649eabb845cf142cd221","68931703670cfd61646f5480","1","605b838b80f022835fc293fb","1","2025-08-06T09:00:17.247Z","","","","StressQ","","","","","","","","","","","50","","","","","","","","","","","","","","","","","","","","","","","","","","",""
"5241","","<div style=""width:500px;"">
  <p>What best describes how you currently feel?</p>
  </div>","78","html-slider-response","37","660219","0.0-7.0-4.4","122","1","2025-08-06 08:49:19","36c45c0696341be0efffe67d72a12abb","102.222.12.73","Mozilla/5.0 (Windows NT 10.0; Win64; x64) AppleWebKit/537.36 (KHTML, like Gecko) Chrome/138.0.0.0 Safari/537.36","WebKit","Chrome","138.0.0.0","Windows","10.0","https://app.prolific.com/","en-ZA,en-GB;q=0.9,en-US;q=0.8,en;q=0.7,en-GB-oxendict;q=0.6","605b838b80f022835fc293fb","6877649eabb845cf142cd221","68931703670cfd61646f5480","1","605b838b80f022835fc293fb","1","2025-08-06T09:00:22.490Z","","","","MotivationQ","","","","","","","","","","","50","","","","","","","","","","","","","","","","","","","","","","","","","","",""
"","","","","ctl-task-cpt","38","703044","0.0-7.0-0.5","122","1","2025-08-06 08:49:19","36c45c0696341be0efffe67d72a12abb","102.222.12.73","Mozilla/5.0 (Windows NT 10.0; Win64; x64) AppleWebKit/537.36 (KHTML, like Gecko) Chrome/138.0.0.0 Safari/537.36","WebKit","Chrome","138.0.0.0","Windows","10.0","https://app.prolific.com/","en-ZA,en-GB;q=0.9,en-US;q=0.8,en;q=0.7,en-GB-oxendict;q=0.6","605b838b80f022835fc293fb","6877649eabb845cf142cd221","68931703670cfd61646f5480","1","605b838b80f022835fc293fb","1","2025-08-06T09:01:05.315Z","","","","","","","","","","","","","","","","win-only","1","g1:NE,g2:SW","0.5","6","0","663986.7","1367.1","6375.6","39809.6","1","4","8","6","2","8","8","12","4","0.09090909090909091","1476.5","3000","1055","[""down"",""left""]","{""num_key_presses"":10,""num_perfect"":5,""num_errors"":0,""num_randdir"":5,""num_randdir_good_moves"":3,""num_whilered"":0,""num_whileblue"":0,""num_blue"":1,""num_good_moves"":8}","[419.0714133126395,406.57142761775424,0.3,419.0714133126395,406.57142761775424,105.4,419.0714133126395,406.57142761775424,210.3,419.0714133126395,406.57142761775424,322.4,419.0714133126395,406.57142761775424,430.4,419.0714133126395,406.57142761775424,534.7,185.3214133126395,579.0714276177542,636.4,20.321413312639507,862.8214276177542,743.6,16.571413312639507,867.8214276177542,845.2,42.82141331263951,860.3214276177542,947.5,82.8214133126395,800.3214276177542,1049.2,89.0714133126395,786.5714276177542,1154.9,89.0714133126395,785.3214276177542,1263.8,89.0714133126395,785.3214276177542,1365.4,89.0714133126395,785.3214276177542,1474.7,89.0714133126395,785.3214276177542,1584.4,89.0714133126395,785.3214276177542,1689.9,89.0714133126395,785.3214276177542,1799,89.0714133126395,785.3214276177542,1906,89.0714133126395,785.3214276177542,2009.1,89.0714133126395,785.3214276177542,2119,89.0714133126395,785.3214276177542,2223.1,89.0714133126395,785.3214276177542,2329.5,89.0714133126395,785.3214276177542,2435.9,89.0714133126395,785.3214276177542,2542.3,89.0714133126395,785.3214276177542,2648.4,89.0714133126395,785.3214276177542,2754.9,89.0714133126395,785.3214276177542,2872.5,89.0714133126395,785.3214276177542,2976.1,89.0714133126395,785.3214276177542,3084.2,89.0714133126395,785.3214276177542,3189.7,89.0714133126395,785.3214276177542,3299.1,89.0714133126395,785.3214276177542,3407.2,89.0714133126395,785.3214276177542,3509.2,89.0714133126395,785.3214276177542,3613.1,89.0714133126395,785.3214276177542,3721.9,89.0714133126395,785.3214276177542,3830.2,89.0714133126395,785.3214276177542,3939.7,89.0714133126395,785.3214276177542,4049.7,89.0714133126395,785.3214276177542,4158.2,89.0714133126395,785.3214276177542,4264.7,89.0714133126395,785.3214276177542,4367.2,89.0714133126395,785.3214276177542,4473,89.0714133126395,785.3214276177542,4575.7,89.0714133126395,785.3214276177542,4686.1,89.0714133126395,785.3214276177542,4797.3,89.0714133126395,785.3214276177542,4898.4,89.0714133126395,785.3214276177542,4999.4]","[1415.6,1415.6,1000,0,415.6,""oops"",""down"",""up"",""bad_move"",5154.6,3738.6,3335.6,1416,403,""smooth"",""left"",""left"",""good_move"",8413.4,3258.4,2902.4,5155,356,""smooth"",""down"",""down"",""good_move"",11835.5,3421.5,2946.1,8414,475.4,""smooth"",""down"",""down"",""good_move"",15026.1,3190.5,2790.7,11835.6,399.8,""smooth"",""left"",""left"",""good_move"",18530.1,3503.7,3059.4,15026.5,444.2,""oops"",""down"",""left"",""good_move"",24056.7,5525.2,1953.3,21695.6,407.8,""smooth"",""down"",""down"",""good_move"",27418.7,3361.7,2838.8,24057,522.9,""oops"",""down"",""up"",""bad_move"",30460.1,3040.7,2557.9,27419.4,482.9,""oops"",""down"",""down"",""good_move"",33252.3,2789.3,2385.5,30463,403.8,""oops"",""down"",""down"",""good_move""]"
"3868","","<div style=""width:500px;"">
  <p>What determined the result of this run?</p>
  </div>","73","html-slider-response","39","706914","0.0-7.0-1.5","122","1","2025-08-06 08:49:19","36c45c0696341be0efffe67d72a12abb","102.222.12.73","Mozilla/5.0 (Windows NT 10.0; Win64; x64) AppleWebKit/537.36 (KHTML, like Gecko) Chrome/138.0.0.0 Safari/537.36","WebKit","Chrome","138.0.0.0","Windows","10.0","https://app.prolific.com/","en-ZA,en-GB;q=0.9,en-US;q=0.8,en;q=0.7,en-GB-oxendict;q=0.6","605b838b80f022835fc293fb","6877649eabb845cf142cd221","68931703670cfd61646f5480","1","605b838b80f022835fc293fb","1","2025-08-06T09:01:09.185Z","","","","AttribQ","","","","","","","","","","","50","","","","","","","","","","","","","","","","","","","","","","","","","","",""
"3389","","<div style=""width:500px;"">
  <p>How much control did you have over the ball?</p>
  </div>","64","html-slider-response","40","710304","0.0-7.0-2.5","122","1","2025-08-06 08:49:19","36c45c0696341be0efffe67d72a12abb","102.222.12.73","Mozilla/5.0 (Windows NT 10.0; Win64; x64) AppleWebKit/537.36 (KHTML, like Gecko) Chrome/138.0.0.0 Safari/537.36","WebKit","Chrome","138.0.0.0","Windows","10.0","https://app.prolific.com/","en-ZA,en-GB;q=0.9,en-US;q=0.8,en;q=0.7,en-GB-oxendict;q=0.6","605b838b80f022835fc293fb","6877649eabb845cf142cd221","68931703670cfd61646f5480","1","605b838b80f022835fc293fb","1","2025-08-06T09:01:12.576Z","","","","ControlQ","","","","","","","","","","","50","","","","","","","","","","","","","","","","","","","","","","","","","","",""
"3912","","<div style=""width:500px;"">
  <p>How would you describe your current emotional state?</p>
  </div>","47","html-slider-response","41","714218","0.0-7.0-3.5","122","1","2025-08-06 08:49:19","36c45c0696341be0efffe67d72a12abb","102.222.12.73","Mozilla/5.0 (Windows NT 10.0; Win64; x64) AppleWebKit/537.36 (KHTML, like Gecko) Chrome/138.0.0.0 Safari/537.36","WebKit","Chrome","138.0.0.0","Windows","10.0","https://app.prolific.com/","en-ZA,en-GB;q=0.9,en-US;q=0.8,en;q=0.7,en-GB-oxendict;q=0.6","605b838b80f022835fc293fb","6877649eabb845cf142cd221","68931703670cfd61646f5480","1","605b838b80f022835fc293fb","1","2025-08-06T09:01:16.489Z","","","","StressQ","","","","","","","","","","","50","","","","","","","","","","","","","","","","","","","","","","","","","","",""
"3404","","<div style=""width:500px;"">
  <p>What best describes how you currently feel?</p>
  </div>","93","html-slider-response","42","717625","0.0-7.0-4.5","122","1","2025-08-06 08:49:19","36c45c0696341be0efffe67d72a12abb","102.222.12.73","Mozilla/5.0 (Windows NT 10.0; Win64; x64) AppleWebKit/537.36 (KHTML, like Gecko) Chrome/138.0.0.0 Safari/537.36","WebKit","Chrome","138.0.0.0","Windows","10.0","https://app.prolific.com/","en-ZA,en-GB;q=0.9,en-US;q=0.8,en;q=0.7,en-GB-oxendict;q=0.6","605b838b80f022835fc293fb","6877649eabb845cf142cd221","68931703670cfd61646f5480","1","605b838b80f022835fc293fb","1","2025-08-06T09:01:19.896Z","","","","MotivationQ","","","","","","","","","","","50","","","","","","","","","","","","","","","","","","","","","","","","","","",""
"","","","","ctl-task-cpt","43","782944","0.0-7.0-0.6","122","1","2025-08-06 08:49:19","36c45c0696341be0efffe67d72a12abb","102.222.12.73","Mozilla/5.0 (Windows NT 10.0; Win64; x64) AppleWebKit/537.36 (KHTML, like Gecko) Chrome/138.0.0.0 Safari/537.36","WebKit","Chrome","138.0.0.0","Windows","10.0","https://app.prolific.com/","en-ZA,en-GB;q=0.9,en-US;q=0.8,en;q=0.7,en-GB-oxendict;q=0.6","605b838b80f022835fc293fb","6877649eabb845cf142cd221","68931703670cfd61646f5480","1","605b838b80f022835fc293fb","1","2025-08-06T09:02:25.215Z","","","","","","","","","","","","","","","","win-only","0","g1:NW,g2:SE","0.4","7","0","721392.5","2074.4","7078.6","62305","1","4","8","6","2","8","7","19","12","0.14393939393939395","1498.7","3000","965","[""down"",""right""]","{""num_key_presses"":13,""num_perfect"":6,""num_errors"":1,""num_randdir"":6,""num_randdir_good_moves"":3,""num_whilered"":0,""num_whileblue"":0,""num_blue"":5,""num_good_moves"":9}","[420.3214133126395,416.57142761775424,0.7,420.3214133126395,416.57142761775424,101.7,420.3214133126395,416.57142761775424,208.6,420.3214133126395,416.57142761775424,314.8,420.3214133126395,416.57142761775424,415.7,420.3214133126395,416.57142761775424,516.8,420.3214133126395,416.57142761775424,621.1,505.3214133126395,531.5714276177542,721.9,629.0714133126395,699.0714276177542,833.1,655.3214133126395,729.0714276177542,936.5,681.5714133126395,746.5714276177542,1036.5,714.0714133126395,749.0714276177542,1139.9,741.5714133126395,750.3214276177542,1247.6,741.5714133126395,750.3214276177542,1349,741.5714133126395,750.3214276177542,1459.7,741.5714133126395,750.3214276177542,1571.4,741.5714133126395,750.3214276177542,1682.8,741.5714133126395,750.3214276177542,1784.1,741.5714133126395,750.3214276177542,1890.7,741.5714133126395,750.3214276177542,1993.7,741.5714133126395,750.3214276177542,2099.6,741.5714133126395,750.3214276177542,2201.8,741.5714133126395,750.3214276177542,2302.7,741.5714133126395,750.3214276177542,2410.9,741.5714133126395,750.3214276177542,2519.6,741.5714133126395,750.3214276177542,2621.3,741.5714133126395,750.3214276177542,2721.7,741.5714133126395,750.3214276177542,2824.2,741.5714133126395,750.3214276177542,2931.6,741.5714133126395,750.3214276177542,3032.6,741.5714133126395,750.3214276177542,3141,741.5714133126395,750.3214276177542,3249.6,741.5714133126395,750.3214276177542,3353.3,741.5714133126395,750.3214276177542,3461.3,741.5714133126395,750.3214276177542,3563,741.5714133126395,750.3214276177542,3664.7,741.5714133126395,750.3214276177542,3765.7,741.5714133126395,750.3214276177542,3874.1,741.5714133126395,750.3214276177542,3975.9,741.5714133126395,750.3214276177542,4079.2,741.5714133126395,750.3214276177542,4188.4,741.5714133126395,750.3214276177542,4293.2,741.5714133126395,750.3214276177542,4400.9,741.5714133126395,750.3214276177542,4511.9,741.5714133126395,750.3214276177542,4620.9,741.5714133126395,750.3214276177542,4723.2,741.5714133126395,750.3214276177542,4825,741.5714133126395,750.3214276177542,4925]","[379.5,379.5,1000,0,-620.5,""error"",""-"",""-"",""no_move"",4951.3,4571,3129.1,1391,431.2,""oops"",""down"",""up"",""bad_move"",7897.7,2945.4,2929.8,4952.3,15.6,""smooth"",""down"",""down"",""good_move"",10712.9,2814.7,2480.7,7898.2,334,""smooth"",""down"",""down"",""good_move"",12985.2,2271.9,1848.9,10713.3,423.1,""oops"",""right"",""down"",""good_move"",16132.2,3146.5,2732.7,12985.7,413.8,""oops"",""right"",""left"",""bad_move"",22745.8,6613,2613.6,19723.4,408.8,""oops"",""right"",""down"",""good_move"",25826.8,3080.5,2639.4,22746.3,441.1,""oops"",""right"",""up"",""bad_move"",38750.7,12923.7,2834.4,35542.1,374.2,""smooth"",""right"",""right"",""good_move"",42031.3,3280.2,2752.4,38751.1,527.8,""smooth"",""right"",""right"",""good_move"",45104.9,3073.4,2696.7,42031.5,376.8,""oops"",""down"",""right"",""good_move"",48313,3207.8,2866.8,45105.2,341,""smooth"",""down"",""down"",""good_move"",54998,6684.5,2795.3,51811.5,391.2,""smooth"",""right"",""right"",""good_move""]"
"3919","","<div style=""width:500px;"">
  <p>What determined the result of this run?</p>
  </div>","50","html-slider-response","44","786864","0.0-7.0-1.6","122","1","2025-08-06 08:49:19","36c45c0696341be0efffe67d72a12abb","102.222.12.73","Mozilla/5.0 (Windows NT 10.0; Win64; x64) AppleWebKit/537.36 (KHTML, like Gecko) Chrome/138.0.0.0 Safari/537.36","WebKit","Chrome","138.0.0.0","Windows","10.0","https://app.prolific.com/","en-ZA,en-GB;q=0.9,en-US;q=0.8,en;q=0.7,en-GB-oxendict;q=0.6","605b838b80f022835fc293fb","6877649eabb845cf142cd221","68931703670cfd61646f5480","1","605b838b80f022835fc293fb","1","2025-08-06T09:02:29.135Z","","","","AttribQ","","","","","","","","","","","50","","","","","","","","","","","","","","","","","","","","","","","","","","",""
"2550","","<div style=""width:500px;"">
  <p>How much control did you have over the ball?</p>
  </div>","50","html-slider-response","45","789416","0.0-7.0-2.6","122","1","2025-08-06 08:49:19","36c45c0696341be0efffe67d72a12abb","102.222.12.73","Mozilla/5.0 (Windows NT 10.0; Win64; x64) AppleWebKit/537.36 (KHTML, like Gecko) Chrome/138.0.0.0 Safari/537.36","WebKit","Chrome","138.0.0.0","Windows","10.0","https://app.prolific.com/","en-ZA,en-GB;q=0.9,en-US;q=0.8,en;q=0.7,en-GB-oxendict;q=0.6","605b838b80f022835fc293fb","6877649eabb845cf142cd221","68931703670cfd61646f5480","1","605b838b80f022835fc293fb","1","2025-08-06T09:02:31.687Z","","","","ControlQ","","","","","","","","","","","50","","","","","","","","","","","","","","","","","","","","","","","","","","",""
"3221","","<div style=""width:500px;"">
  <p>How would you describe your current emotional state?</p>
  </div>","33","html-slider-response","46","792639","0.0-7.0-3.6","122","1","2025-08-06 08:49:19","36c45c0696341be0efffe67d72a12abb","102.222.12.73","Mozilla/5.0 (Windows NT 10.0; Win64; x64) AppleWebKit/537.36 (KHTML, like Gecko) Chrome/138.0.0.0 Safari/537.36","WebKit","Chrome","138.0.0.0","Windows","10.0","https://app.prolific.com/","en-ZA,en-GB;q=0.9,en-US;q=0.8,en;q=0.7,en-GB-oxendict;q=0.6","605b838b80f022835fc293fb","6877649eabb845cf142cd221","68931703670cfd61646f5480","1","605b838b80f022835fc293fb","1","2025-08-06T09:02:34.910Z","","","","StressQ","","","","","","","","","","","50","","","","","","","","","","","","","","","","","","","","","","","","","","",""
"2833","","<div style=""width:500px;"">
  <p>What best describes how you currently feel?</p>
  </div>","79","html-slider-response","47","795474","0.0-7.0-4.6","122","1","2025-08-06 08:49:19","36c45c0696341be0efffe67d72a12abb","102.222.12.73","Mozilla/5.0 (Windows NT 10.0; Win64; x64) AppleWebKit/537.36 (KHTML, like Gecko) Chrome/138.0.0.0 Safari/537.36","WebKit","Chrome","138.0.0.0","Windows","10.0","https://app.prolific.com/","en-ZA,en-GB;q=0.9,en-US;q=0.8,en;q=0.7,en-GB-oxendict;q=0.6","605b838b80f022835fc293fb","6877649eabb845cf142cd221","68931703670cfd61646f5480","1","605b838b80f022835fc293fb","1","2025-08-06T09:02:37.745Z","","","","MotivationQ","","","","","","","","","","","50","","","","","","","","","","","","","","","","","","","","","","","","","","",""
"","","","","ctl-task-cpt","48","865599","0.0-7.0-0.7","122","1","2025-08-06 08:49:19","36c45c0696341be0efffe67d72a12abb","102.222.12.73","Mozilla/5.0 (Windows NT 10.0; Win64; x64) AppleWebKit/537.36 (KHTML, like Gecko) Chrome/138.0.0.0 Safari/537.36","WebKit","Chrome","138.0.0.0","Windows","10.0","https://app.prolific.com/","en-ZA,en-GB;q=0.9,en-US;q=0.8,en;q=0.7,en-GB-oxendict;q=0.6","605b838b80f022835fc293fb","6877649eabb845cf142cd221","68931703670cfd61646f5480","1","605b838b80f022835fc293fb","1","2025-08-06T09:03:47.870Z","","","","","","","","","","","","","","","","win-only","1","g1:NE,g2:SW","0.3","8","0","799241.7","1366.6","6375.6","67105.5","1","4","4","6","2","4","3","22","19","0.16666666666666666","1343.2","3000","730","[""down"",""left""]","{""num_key_presses"":14,""num_perfect"":3,""num_errors"":1,""num_randdir"":10,""num_randdir_good_moves"":6,""num_whilered"":0,""num_whileblue"":1,""num_blue"":7,""num_good_moves"":10}","[416.5714133126395,405.32142761775424,0.2,416.5714133126395,405.32142761775424,102,416.5714133126395,405.32142761775424,205.3,416.5714133126395,405.32142761775424,311.8,416.5714133126395,405.32142761775424,418.5,416.5714133126395,405.32142761775424,530.1,416.5714133126395,405.32142761775424,630.7,67.8214133126395,667.8214276177542,739.9,26.571413312639507,701.5714276177542,846.9,34.07141331263951,716.5714276177542,956.7,61.57141331263951,727.8214276177542,1069.1,65.3214133126395,729.0714276177542,1179.5,65.3214133126395,729.0714276177542,1290.6,65.3214133126395,729.0714276177542,1404.2,65.3214133126395,729.0714276177542,1510.4,65.3214133126395,729.0714276177542,1622.6,65.3214133126395,729.0714276177542,1728.6,65.3214133126395,729.0714276177542,1838.2,65.3214133126395,729.0714276177542,1945.9,65.3214133126395,729.0714276177542,2056.8,65.3214133126395,729.0714276177542,2168.4,65.3214133126395,729.0714276177542,2279.5,65.3214133126395,729.0714276177542,2380.3,65.3214133126395,729.0714276177542,2486.1,65.3214133126395,729.0714276177542,2588.2,65.3214133126395,729.0714276177542,2695.1,65.3214133126395,729.0714276177542,2795.9,65.3214133126395,729.0714276177542,2901.9,65.3214133126395,729.0714276177542,3005.5,65.3214133126395,729.0714276177542,3110.6,65.3214133126395,729.0714276177542,3214.2,65.3214133126395,729.0714276177542,3319.6,65.3214133126395,729.0714276177542,3425.8,65.3214133126395,729.0714276177542,3535.4,65.3214133126395,729.0714276177542,3637.9,65.3214133126395,729.0714276177542,3748.3,65.3214133126395,729.0714276177542,3855.9,65.3214133126395,729.0714276177542,3955.9,65.3214133126395,729.0714276177542,4056.3,65.3214133126395,729.0714276177542,4169.2,65.3214133126395,729.0714276177542,4271.2,65.3214133126395,729.0714276177542,4383.9,65.3214133126395,729.0714276177542,4498.7,65.3214133126395,729.0714276177542,4603.6,65.3214133126395,729.0714276177542,4711.2,65.3214133126395,729.0714276177542,4812.6,65.3214133126395,729.0714276177542,4914.6]","[1429.2,1429.2,1000,0,429.2,""smooth"",""down"",""down"",""good_move"",11100.2,9670.6,2642.6,8042.7,414.9,""oops"",""left"",""down"",""good_move"",13881.8,2781.3,2348.8,11100.5,432.5,""smooth"",""left"",""left"",""good_move"",16539.3,2657.1,2255.7,13882.2,401.4,""oops"",""left"",""up"",""bad_move"",21942.9,5402.4,1848.3,19764.2,330.4,""while_blue"",""down"",""left"",""good_move"",24956.4,3012.3,2581.6,21944.1,430.7,""oops"",""down"",""right"",""bad_move"",27917.3,2960.5,2520,24956.8,440.5,""oops"",""down"",""down"",""good_move"",30273.1,2355.2,1918.7,27918,436.5,""oops"",""left"",""down"",""good_move"",37759.3,7484.8,3038.8,34268.9,451.6,""smooth"",""left"",""left"",""good_move"",44234.1,6474.5,2630.8,41235.1,368.2,""oops"",""left"",""up"",""bad_move"",46897.3,2662.6,2185.7,44234.7,476.9,""oops"",""down"",""up"",""bad_move"",49969.2,3071.5,2679.5,46897.7,392,""oops"",""left"",""left"",""good_move"",56771.8,6800.4,2576.7,53700.7,494.4,""oops"",""down"",""down"",""good_move"",60535.7,3763.5,3410.3,56772.3,353.2,""oops"",""down"",""down"",""good_move""]"
"3743","","<div style=""width:500px;"">
  <p>What determined the result of this run?</p>
  </div>","52","html-slider-response","49","869344","0.0-7.0-1.7","122","1","2025-08-06 08:49:19","36c45c0696341be0efffe67d72a12abb","102.222.12.73","Mozilla/5.0 (Windows NT 10.0; Win64; x64) AppleWebKit/537.36 (KHTML, like Gecko) Chrome/138.0.0.0 Safari/537.36","WebKit","Chrome","138.0.0.0","Windows","10.0","https://app.prolific.com/","en-ZA,en-GB;q=0.9,en-US;q=0.8,en;q=0.7,en-GB-oxendict;q=0.6","605b838b80f022835fc293fb","6877649eabb845cf142cd221","68931703670cfd61646f5480","1","605b838b80f022835fc293fb","1","2025-08-06T09:03:51.615Z","","","","AttribQ","","","","","","","","","","","50","","","","","","","","","","","","","","","","","","","","","","","","","","",""
"5336","","<div style=""width:500px;"">
  <p>How much control did you have over the ball?</p>
  </div>","50","html-slider-response","50","874682","0.0-7.0-2.7","122","1","2025-08-06 08:49:19","36c45c0696341be0efffe67d72a12abb","102.222.12.73","Mozilla/5.0 (Windows NT 10.0; Win64; x64) AppleWebKit/537.36 (KHTML, like Gecko) Chrome/138.0.0.0 Safari/537.36","WebKit","Chrome","138.0.0.0","Windows","10.0","https://app.prolific.com/","en-ZA,en-GB;q=0.9,en-US;q=0.8,en;q=0.7,en-GB-oxendict;q=0.6","605b838b80f022835fc293fb","6877649eabb845cf142cd221","68931703670cfd61646f5480","1","605b838b80f022835fc293fb","1","2025-08-06T09:03:56.953Z","","","","ControlQ","","","","","","","","","","","50","","","","","","","","","","","","","","","","","","","","","","","","","","",""
"3918","","<div style=""width:500px;"">
  <p>How would you describe your current emotional state?</p>
  </div>","34","html-slider-response","51","878601","0.0-7.0-3.7","122","1","2025-08-06 08:49:19","36c45c0696341be0efffe67d72a12abb","102.222.12.73","Mozilla/5.0 (Windows NT 10.0; Win64; x64) AppleWebKit/537.36 (KHTML, like Gecko) Chrome/138.0.0.0 Safari/537.36","WebKit","Chrome","138.0.0.0","Windows","10.0","https://app.prolific.com/","en-ZA,en-GB;q=0.9,en-US;q=0.8,en;q=0.7,en-GB-oxendict;q=0.6","605b838b80f022835fc293fb","6877649eabb845cf142cd221","68931703670cfd61646f5480","1","605b838b80f022835fc293fb","1","2025-08-06T09:04:00.872Z","","","","StressQ","","","","","","","","","","","50","","","","","","","","","","","","","","","","","","","","","","","","","","",""
"5631","","<div style=""width:500px;"">
  <p>What best describes how you currently feel?</p>
  </div>","75","html-slider-response","52","884234","0.0-7.0-4.7","122","1","2025-08-06 08:49:19","36c45c0696341be0efffe67d72a12abb","102.222.12.73","Mozilla/5.0 (Windows NT 10.0; Win64; x64) AppleWebKit/537.36 (KHTML, like Gecko) Chrome/138.0.0.0 Safari/537.36","WebKit","Chrome","138.0.0.0","Windows","10.0","https://app.prolific.com/","en-ZA,en-GB;q=0.9,en-US;q=0.8,en;q=0.7,en-GB-oxendict;q=0.6","605b838b80f022835fc293fb","6877649eabb845cf142cd221","68931703670cfd61646f5480","1","605b838b80f022835fc293fb","1","2025-08-06T09:04:06.505Z","","","","MotivationQ","","","","","","","","","","","50","","","","","","","","","","","","","","","","","","","","","","","","","","",""
"","","","","ctl-task-cpt","53","944673","0.0-7.0-0.8","122","1","2025-08-06 08:49:19","36c45c0696341be0efffe67d72a12abb","102.222.12.73","Mozilla/5.0 (Windows NT 10.0; Win64; x64) AppleWebKit/537.36 (KHTML, like Gecko) Chrome/138.0.0.0 Safari/537.36","WebKit","Chrome","138.0.0.0","Windows","10.0","https://app.prolific.com/","en-ZA,en-GB;q=0.9,en-US;q=0.8,en;q=0.7,en-GB-oxendict;q=0.6","605b838b80f022835fc293fb","6877649eabb845cf142cd221","68931703670cfd61646f5480","1","605b838b80f022835fc293fb","1","2025-08-06T09:05:06.944Z","","","","","","","","","","","","","","","","win-only","0","g1:NW,g2:SE","0.4","9","0","888003","3010.5","8020.3","57407.5","1","4","4","6","2","4","4","26","22","0.19696969696969696","1369","3000","1130","[""down"",""right""]","{""num_key_presses"":12,""num_perfect"":6,""num_errors"":0,""num_randdir"":6,""num_randdir_good_moves"":3,""num_whilered"":0,""num_whileblue"":0,""num_blue"":4,""num_good_moves"":9}","[414.0714133126395,406.57142761775424,0.3,414.0714133126395,406.57142761775424,110.9,414.0714133126395,406.57142761775424,224.6,414.0714133126395,406.57142761775424,336.6,414.0714133126395,406.57142761775424,445.8,414.0714133126395,406.57142761775424,558.2,482.8214133126395,480.32142761775424,669.9,674.0714133126395,684.0714276177542,778.2,721.5714133126395,727.8214276177542,886,749.0714133126395,760.3214276177542,995.8,749.0714133126395,756.5714276177542,1102.7,747.8214133126395,755.3214276177542,1206.4,747.8214133126395,755.3214276177542,1318.6,747.8214133126395,755.3214276177542,1423.6,747.8214133126395,755.3214276177542,1533.6,747.8214133126395,755.3214276177542,1648.1,747.8214133126395,755.3214276177542,1755,747.8214133126395,755.3214276177542,1856.2,747.8214133126395,755.3214276177542,1960.5,747.8214133126395,755.3214276177542,2062.4,747.8214133126395,755.3214276177542,2168.4,747.8214133126395,755.3214276177542,2277.3,747.8214133126395,755.3214276177542,2386.5,747.8214133126395,755.3214276177542,2496.6,747.8214133126395,755.3214276177542,2604.6,747.8214133126395,755.3214276177542,2712.2,747.8214133126395,755.3214276177542,2817.2,747.8214133126395,755.3214276177542,2925.3,747.8214133126395,755.3214276177542,3041.9,747.8214133126395,755.3214276177542,3145.6,747.8214133126395,755.3214276177542,3251.5,747.8214133126395,755.3214276177542,3351.5,747.8214133126395,755.3214276177542,3462.7,747.8214133126395,755.3214276177542,3562.9,747.8214133126395,755.3214276177542,3667.7,747.8214133126395,755.3214276177542,3768.2,747.8214133126395,755.3214276177542,3868.6,747.8214133126395,755.3214276177542,3981,747.8214133126395,755.3214276177542,4082,747.8214133126395,755.3214276177542,4190.7,747.8214133126395,755.3214276177542,4299.2,747.8214133126395,755.3214276177542,4410.1,747.8214133126395,755.3214276177542,4512.7,747.8214133126395,755.3214276177542,4621.3,747.8214133126395,755.3214276177542,4722,747.8214133126395,755.3214276177542,4827.7,747.8214133126395,755.3214276177542,4933.7]","[1432,1432,1000,0,432,""smooth"",""right"",""right"",""good_move"",4670.4,3237.5,2811.1,1432.9,426.4,""smooth"",""down"",""down"",""good_move"",8497.3,3825.6,3388.2,4671.8,437.4,""oops"",""down"",""down"",""good_move"",11786.2,3288.5,2861.9,8497.7,426.6,""oops"",""down"",""right"",""good_move"",14479,2692.5,2271.5,11786.5,421,""smooth"",""down"",""down"",""good_move"",20878.5,6399.2,2111.4,18349.7,417.4,""oops"",""right"",""up"",""bad_move"",27895.5,7016.7,2962,24462.5,471.1,""smooth"",""down"",""down"",""good_move"",34267,6370.6,2702.7,31189.5,374.8,""oops"",""right"",""left"",""bad_move"",37132.8,2865.4,2437.9,34267.4,427.5,""oops"",""right"",""left"",""bad_move"",43523.3,6390.3,2499.3,40585,439,""oops"",""right"",""right"",""good_move"",46418.1,2894.4,2378.8,43523.7,515.6,""smooth"",""right"",""right"",""good_move"",49105.4,2686.8,2260.5,46418.6,426.3,""smooth"",""right"",""right"",""good_move""]"
"4451","","<div style=""width:500px;"">
  <p>What determined the result of this run?</p>
  </div>","72","html-slider-response","54","949125","0.0-7.0-1.8","122","1","2025-08-06 08:49:19","36c45c0696341be0efffe67d72a12abb","102.222.12.73","Mozilla/5.0 (Windows NT 10.0; Win64; x64) AppleWebKit/537.36 (KHTML, like Gecko) Chrome/138.0.0.0 Safari/537.36","WebKit","Chrome","138.0.0.0","Windows","10.0","https://app.prolific.com/","en-ZA,en-GB;q=0.9,en-US;q=0.8,en;q=0.7,en-GB-oxendict;q=0.6","605b838b80f022835fc293fb","6877649eabb845cf142cd221","68931703670cfd61646f5480","1","605b838b80f022835fc293fb","1","2025-08-06T09:05:11.397Z","","","","AttribQ","","","","","","","","","","","50","","","","","","","","","","","","","","","","","","","","","","","","","","",""
"3658","","<div style=""width:500px;"">
  <p>How much control did you have over the ball?</p>
  </div>","64","html-slider-response","55","952785","0.0-7.0-2.8","122","1","2025-08-06 08:49:19","36c45c0696341be0efffe67d72a12abb","102.222.12.73","Mozilla/5.0 (Windows NT 10.0; Win64; x64) AppleWebKit/537.36 (KHTML, like Gecko) Chrome/138.0.0.0 Safari/537.36","WebKit","Chrome","138.0.0.0","Windows","10.0","https://app.prolific.com/","en-ZA,en-GB;q=0.9,en-US;q=0.8,en;q=0.7,en-GB-oxendict;q=0.6","605b838b80f022835fc293fb","6877649eabb845cf142cd221","68931703670cfd61646f5480","1","605b838b80f022835fc293fb","1","2025-08-06T09:05:15.056Z","","","","ControlQ","","","","","","","","","","","50","","","","","","","","","","","","","","","","","","","","","","","","","","",""
"3102","","<div style=""width:500px;"">
  <p>How would you describe your current emotional state?</p>
  </div>","29","html-slider-response","56","955890","0.0-7.0-3.8","122","1","2025-08-06 08:49:19","36c45c0696341be0efffe67d72a12abb","102.222.12.73","Mozilla/5.0 (Windows NT 10.0; Win64; x64) AppleWebKit/537.36 (KHTML, like Gecko) Chrome/138.0.0.0 Safari/537.36","WebKit","Chrome","138.0.0.0","Windows","10.0","https://app.prolific.com/","en-ZA,en-GB;q=0.9,en-US;q=0.8,en;q=0.7,en-GB-oxendict;q=0.6","605b838b80f022835fc293fb","6877649eabb845cf142cd221","68931703670cfd61646f5480","1","605b838b80f022835fc293fb","1","2025-08-06T09:05:18.161Z","","","","StressQ","","","","","","","","","","","50","","","","","","","","","","","","","","","","","","","","","","","","","","",""
"5194","","<div style=""width:500px;"">
  <p>What best describes how you currently feel?</p>
  </div>","59","html-slider-response","57","961086","0.0-7.0-4.8","122","1","2025-08-06 08:49:19","36c45c0696341be0efffe67d72a12abb","102.222.12.73","Mozilla/5.0 (Windows NT 10.0; Win64; x64) AppleWebKit/537.36 (KHTML, like Gecko) Chrome/138.0.0.0 Safari/537.36","WebKit","Chrome","138.0.0.0","Windows","10.0","https://app.prolific.com/","en-ZA,en-GB;q=0.9,en-US;q=0.8,en;q=0.7,en-GB-oxendict;q=0.6","605b838b80f022835fc293fb","6877649eabb845cf142cd221","68931703670cfd61646f5480","1","605b838b80f022835fc293fb","1","2025-08-06T09:05:23.357Z","","","","MotivationQ","","","","","","","","","","","50","","","","","","","","","","","","","","","","","","","","","","","","","","",""
"","","","","ctl-task-cpt","58","1019611","0.0-7.0-0.9","122","1","2025-08-06 08:49:19","36c45c0696341be0efffe67d72a12abb","102.222.12.73","Mozilla/5.0 (Windows NT 10.0; Win64; x64) AppleWebKit/537.36 (KHTML, like Gecko) Chrome/138.0.0.0 Safari/537.36","WebKit","Chrome","138.0.0.0","Windows","10.0","https://app.prolific.com/","en-ZA,en-GB;q=0.9,en-US;q=0.8,en;q=0.7,en-GB-oxendict;q=0.6","605b838b80f022835fc293fb","6877649eabb845cf142cd221","68931703670cfd61646f5480","1","605b838b80f022835fc293fb","1","2025-08-06T09:06:21.882Z","","","","","","","","","","","","","","","","win-only","2","g1:SE,g2:NW","0.5","10","0","964854.7","3399.1","8406.1","55495.9","1","4","8","6","2","8","8","34","26","0.25757575757575757","1537.8","3000","775","[""left"",""up""]","{""num_key_presses"":14,""num_perfect"":7,""num_errors"":0,""num_randdir"":7,""num_randdir_good_moves"":3,""num_whilered"":0,""num_whileblue"":0,""num_blue"":2,""num_good_moves"":10}","[414.0714133126395,412.82142761775424,0.3,414.0714133126395,412.82142761775424,107.5,414.0714133126395,412.82142761775424,214,414.0714133126395,412.82142761775424,316.6,414.0714133126395,412.82142761775424,429.6,414.0714133126395,412.82142761775424,544.3,414.0714133126395,412.82142761775424,648.7,169.0714133126395,115.32142761775425,758.9,106.5714133126395,-3.428572382245747,863.1,106.5714133126395,-4.678572382245747,969.6,102.8214133126395,30.321427617754253,1075.9,79.0714133126395,71.57142761775425,1184.5,76.5714133126395,87.82142761775425,1293,76.5714133126395,87.82142761775425,1394.5,76.5714133126395,87.82142761775425,1495.6,76.5714133126395,87.82142761775425,1610.8,76.5714133126395,87.82142761775425,1724.7,76.5714133126395,87.82142761775425,1835.6,76.5714133126395,87.82142761775425,1945.3,76.5714133126395,87.82142761775425,2046.6,76.5714133126395,87.82142761775425,2148.3,76.5714133126395,87.82142761775425,2249.8,76.5714133126395,87.82142761775425,2361.6,76.5714133126395,87.82142761775425,2463.6,76.5714133126395,87.82142761775425,2566.6,152.8214133126395,196.57142761775424,2677.5,364.0714133126395,392.82142761775424,2782.6,381.5714133126395,411.57142761775424,2896.9,381.5714133126395,411.57142761775424,3009,381.5714133126395,411.57142761775424,3110,381.5714133126395,411.57142761775424,3213.5,381.5714133126395,411.57142761775424,3323.9,381.5714133126395,411.57142761775424,3434.2,381.5714133126395,411.57142761775424,3536.7,381.5714133126395,411.57142761775424,3643.3,381.5714133126395,411.57142761775424,3748.9,381.5714133126395,411.57142761775424,3857.2,381.5714133126395,411.57142761775424,3961.7,381.5714133126395,411.57142761775424,4074.7,381.5714133126395,411.57142761775424,4179.7,381.5714133126395,411.57142761775424,4292.2,381.5714133126395,411.57142761775424,4393.7,381.5714133126395,411.57142761775424,4494.6,381.5714133126395,411.57142761775424,4594.7,381.5714133126395,411.57142761775424,4704,381.5714133126395,411.57142761775424,4815.7,381.5714133126395,411.57142761775424,4917]","[1500,1500,1000,0,500,""smooth"",""left"",""left"",""good_move"",7664.4,6164,2301.4,4929.8,433.2,""smooth"",""up"",""up"",""good_move"",10763.7,3098.1,2594.3,7665.6,503.8,""oops"",""left"",""up"",""good_move"",16982.2,6217.8,2546.7,14077.1,358.4,""oops"",""left"",""down"",""bad_move"",19496,2513.4,1916.1,16982.7,597.2,""smooth"",""up"",""up"",""good_move"",22547.5,3051,2251.5,19496.5,799.5,""smooth"",""up"",""up"",""good_move"",25188.9,2641.2,2262.9,22547.7,378.3,""oops"",""left"",""left"",""good_move"",28428.6,3239.2,2807.2,25189.4,432,""oops"",""left"",""down"",""bad_move"",31184.6,2755.7,2263.9,28428.9,491.8,""smooth"",""up"",""up"",""good_move"",34285.2,3100.3,2577.6,31185,522.6,""oops"",""left"",""right"",""bad_move"",37217.8,2932.1,2524.3,34285.7,407.8,""oops"",""left"",""right"",""bad_move"",40578.8,3360.1,2572.9,37218.7,787.2,""smooth"",""left"",""left"",""good_move"",43824.7,3245.6,1779.5,40579.1,1466.2,""smooth"",""left"",""left"",""good_move"",46864.3,3038.6,2580.5,43825.7,458.1,""oops"",""left"",""left"",""good_move""]"
"5333","","<div style=""width:500px;"">
  <p>What determined the result of this run?</p>
  </div>","50","html-slider-response","59","1024945","0.0-7.0-1.9","122","1","2025-08-06 08:49:19","36c45c0696341be0efffe67d72a12abb","102.222.12.73","Mozilla/5.0 (Windows NT 10.0; Win64; x64) AppleWebKit/537.36 (KHTML, like Gecko) Chrome/138.0.0.0 Safari/537.36","WebKit","Chrome","138.0.0.0","Windows","10.0","https://app.prolific.com/","en-ZA,en-GB;q=0.9,en-US;q=0.8,en;q=0.7,en-GB-oxendict;q=0.6","605b838b80f022835fc293fb","6877649eabb845cf142cd221","68931703670cfd61646f5480","1","605b838b80f022835fc293fb","1","2025-08-06T09:06:27.216Z","","","","AttribQ","","","","","","","","","","","50","","","","","","","","","","","","","","","","","","","","","","","","","","",""
"3269","","<div style=""width:500px;"">
  <p>How much control did you have over the ball?</p>
  </div>","74","html-slider-response","60","1028215","0.0-7.0-2.9","122","1","2025-08-06 08:49:19","36c45c0696341be0efffe67d72a12abb","102.222.12.73","Mozilla/5.0 (Windows NT 10.0; Win64; x64) AppleWebKit/537.36 (KHTML, like Gecko) Chrome/138.0.0.0 Safari/537.36","WebKit","Chrome","138.0.0.0","Windows","10.0","https://app.prolific.com/","en-ZA,en-GB;q=0.9,en-US;q=0.8,en;q=0.7,en-GB-oxendict;q=0.6","605b838b80f022835fc293fb","6877649eabb845cf142cd221","68931703670cfd61646f5480","1","605b838b80f022835fc293fb","1","2025-08-06T09:06:30.486Z","","","","ControlQ","","","","","","","","","","","50","","","","","","","","","","","","","","","","","","","","","","","","","","",""
"3432","","<div style=""width:500px;"">
  <p>How would you describe your current emotional state?</p>
  </div>","24","html-slider-response","61","1031649","0.0-7.0-3.9","122","1","2025-08-06 08:49:19","36c45c0696341be0efffe67d72a12abb","102.222.12.73","Mozilla/5.0 (Windows NT 10.0; Win64; x64) AppleWebKit/537.36 (KHTML, like Gecko) Chrome/138.0.0.0 Safari/537.36","WebKit","Chrome","138.0.0.0","Windows","10.0","https://app.prolific.com/","en-ZA,en-GB;q=0.9,en-US;q=0.8,en;q=0.7,en-GB-oxendict;q=0.6","605b838b80f022835fc293fb","6877649eabb845cf142cd221","68931703670cfd61646f5480","1","605b838b80f022835fc293fb","1","2025-08-06T09:06:33.920Z","","","","StressQ","","","","","","","","","","","50","","","","","","","","","","","","","","","","","","","","","","","","","","",""
"3363","","<div style=""width:500px;"">
  <p>What best describes how you currently feel?</p>
  </div>","77","html-slider-response","62","1035014","0.0-7.0-4.9","122","1","2025-08-06 08:49:19","36c45c0696341be0efffe67d72a12abb","102.222.12.73","Mozilla/5.0 (Windows NT 10.0; Win64; x64) AppleWebKit/537.36 (KHTML, like Gecko) Chrome/138.0.0.0 Safari/537.36","WebKit","Chrome","138.0.0.0","Windows","10.0","https://app.prolific.com/","en-ZA,en-GB;q=0.9,en-US;q=0.8,en;q=0.7,en-GB-oxendict;q=0.6","605b838b80f022835fc293fb","6877649eabb845cf142cd221","68931703670cfd61646f5480","1","605b838b80f022835fc293fb","1","2025-08-06T09:06:37.285Z","","","","MotivationQ","","","","","","","","","","","50","","","","","","","","","","","","","","","","","","","","","","","","","","",""
"","","","","ctl-task-cpt","63","1088310","0.0-7.0-0.10","122","1","2025-08-06 08:49:19","36c45c0696341be0efffe67d72a12abb","102.222.12.73","Mozilla/5.0 (Windows NT 10.0; Win64; x64) AppleWebKit/537.36 (KHTML, like Gecko) Chrome/138.0.0.0 Safari/537.36","WebKit","Chrome","138.0.0.0","Windows","10.0","https://app.prolific.com/","en-ZA,en-GB;q=0.9,en-US;q=0.8,en;q=0.7,en-GB-oxendict;q=0.6","605b838b80f022835fc293fb","6877649eabb845cf142cd221","68931703670cfd61646f5480","1","605b838b80f022835fc293fb","1","2025-08-06T09:07:30.581Z","","","","","","","","","","","","","","","","win-only","1","g1:NE,g2:SW","0.6","11","0","1038784.4","3477.1","8482.3","50262.9","1","4","4","6","2","4","4","38","34","0.2878787878787879","2309.5","3000","1380","[""down"",""left""]","{""num_key_presses"":12,""num_perfect"":8,""num_errors"":0,""num_randdir"":4,""num_randdir_good_moves"":1,""num_whilered"":0,""num_whileblue"":0,""num_blue"":2,""num_good_moves"":9}","[414.0714133126395,416.57142761775424,0.3,414.0714133126395,416.57142761775424,100.5,414.0714133126395,416.57142761775424,217.2,414.0714133126395,416.57142761775424,330,414.0714133126395,416.57142761775424,434.4,414.0714133126395,416.57142761775424,547,414.0714133126395,416.57142761775424,649.9,414.0714133126395,416.57142761775424,758,414.0714133126395,416.57142761775424,870.4,414.0714133126395,416.57142761775424,977,414.0714133126395,416.57142761775424,1082.2,414.0714133126395,416.57142761775424,1187.4,414.0714133126395,416.57142761775424,1295.6,414.0714133126395,416.57142761775424,1397.3,419.0714133126395,362.82142761775424,1503.1,325.3214133126395,601.5714276177542,1617.5,149.0714133126395,809.0714276177542,1725.5,126.5714133126395,779.0714276177542,1834.7,124.0714133126395,770.3214276177542,1946.8,122.8214133126395,770.3214276177542,2055.9,122.8214133126395,770.3214276177542,2157.4,122.8214133126395,770.3214276177542,2263.4,122.8214133126395,770.3214276177542,2370.1,122.8214133126395,770.3214276177542,2483.7,122.8214133126395,770.3214276177542,2588.9,122.8214133126395,770.3214276177542,2692.6,122.8214133126395,770.3214276177542,2797.2,122.8214133126395,770.3214276177542,2904.2,122.8214133126395,770.3214276177542,3012.7,122.8214133126395,770.3214276177542,3128.1,122.8214133126395,770.3214276177542,3246.7,122.8214133126395,770.3214276177542,3350.6,122.8214133126395,770.3214276177542,3452.5,122.8214133126395,770.3214276177542,3559,122.8214133126395,770.3214276177542,3659.1,122.8214133126395,770.3214276177542,3765.8,122.8214133126395,770.3214276177542,3873.9,122.8214133126395,770.3214276177542,3977.1,122.8214133126395,770.3214276177542,4087.9,122.8214133126395,770.3214276177542,4194.8,122.8214133126395,770.3214276177542,4310.3,122.8214133126395,770.3214276177542,4420.9,122.8214133126395,770.3214276177542,4530.8,122.8214133126395,770.3214276177542,4631.7,122.8214133126395,770.3214276177542,4734.1,122.8214133126395,770.3214276177542,4839.6,122.8214133126395,770.3214276177542,4941.2]","[4482.5,4482.5,1989.2,2023.9,469.4,""smooth"",""down"",""down"",""good_move"",6682.6,2199.7,1689.8,4482.9,509.9,""oops"",""left"",""up"",""bad_move"",10487.5,3804.2,3167.9,6683.5,636.1,""smooth"",""down"",""down"",""good_move"",16799.3,6310.6,2973.9,13457.1,368.3,""smooth"",""down"",""down"",""good_move"",20128.4,3328.8,2969.6,16799.6,359.2,""smooth"",""left"",""left"",""good_move"",23005.7,2876.9,1672.1,20128.9,1204.7,""oops"",""left"",""up"",""bad_move"",26404.2,3398.3,2974.2,23006,424,""smooth"",""down"",""down"",""good_move"",29082.7,2678.3,2351.2,26404.5,327,""oops"",""down"",""down"",""good_move"",32212.6,3127.7,2617.7,29085,509.9,""oops"",""left"",""up"",""bad_move"",35593.7,3380.6,2446.7,32213.1,933.9,""smooth"",""left"",""left"",""good_move"",38539.4,2945.4,2316.9,35594,628.5,""smooth"",""down"",""down"",""good_move"",41468.5,2928.8,2510.6,38539.7,418.2,""smooth"",""left"",""left"",""good_move""]"
"3685","","<div style=""width:500px;"">
  <p>What determined the result of this run?</p>
  </div>","74","html-slider-response","64","1091996","0.0-7.0-1.10","122","1","2025-08-06 08:49:19","36c45c0696341be0efffe67d72a12abb","102.222.12.73","Mozilla/5.0 (Windows NT 10.0; Win64; x64) AppleWebKit/537.36 (KHTML, like Gecko) Chrome/138.0.0.0 Safari/537.36","WebKit","Chrome","138.0.0.0","Windows","10.0","https://app.prolific.com/","en-ZA,en-GB;q=0.9,en-US;q=0.8,en;q=0.7,en-GB-oxendict;q=0.6","605b838b80f022835fc293fb","6877649eabb845cf142cd221","68931703670cfd61646f5480","1","605b838b80f022835fc293fb","1","2025-08-06T09:07:34.268Z","","","","AttribQ","","","","","","","","","","","50","","","","","","","","","","","","","","","","","","","","","","","","","","",""
"2795","","<div style=""width:500px;"">
  <p>How much control did you have over the ball?</p>
  </div>","67","html-slider-response","65","1094794","0.0-7.0-2.10","122","1","2025-08-06 08:49:19","36c45c0696341be0efffe67d72a12abb","102.222.12.73","Mozilla/5.0 (Windows NT 10.0; Win64; x64) AppleWebKit/537.36 (KHTML, like Gecko) Chrome/138.0.0.0 Safari/537.36","WebKit","Chrome","138.0.0.0","Windows","10.0","https://app.prolific.com/","en-ZA,en-GB;q=0.9,en-US;q=0.8,en;q=0.7,en-GB-oxendict;q=0.6","605b838b80f022835fc293fb","6877649eabb845cf142cd221","68931703670cfd61646f5480","1","605b838b80f022835fc293fb","1","2025-08-06T09:07:37.065Z","","","","ControlQ","","","","","","","","","","","50","","","","","","","","","","","","","","","","","","","","","","","","","","",""
"3955","","<div style=""width:500px;"">
  <p>How would you describe your current emotional state?</p>
  </div>","27","html-slider-response","66","1098750","0.0-7.0-3.10","122","1","2025-08-06 08:49:19","36c45c0696341be0efffe67d72a12abb","102.222.12.73","Mozilla/5.0 (Windows NT 10.0; Win64; x64) AppleWebKit/537.36 (KHTML, like Gecko) Chrome/138.0.0.0 Safari/537.36","WebKit","Chrome","138.0.0.0","Windows","10.0","https://app.prolific.com/","en-ZA,en-GB;q=0.9,en-US;q=0.8,en;q=0.7,en-GB-oxendict;q=0.6","605b838b80f022835fc293fb","6877649eabb845cf142cd221","68931703670cfd61646f5480","1","605b838b80f022835fc293fb","1","2025-08-06T09:07:41.021Z","","","","StressQ","","","","","","","","","","","50","","","","","","","","","","","","","","","","","","","","","","","","","","",""
"4763","","<div style=""width:500px;"">
  <p>What best describes how you currently feel?</p>
  </div>","56","html-slider-response","67","1103515","0.0-7.0-4.10","122","1","2025-08-06 08:49:19","36c45c0696341be0efffe67d72a12abb","102.222.12.73","Mozilla/5.0 (Windows NT 10.0; Win64; x64) AppleWebKit/537.36 (KHTML, like Gecko) Chrome/138.0.0.0 Safari/537.36","WebKit","Chrome","138.0.0.0","Windows","10.0","https://app.prolific.com/","en-ZA,en-GB;q=0.9,en-US;q=0.8,en;q=0.7,en-GB-oxendict;q=0.6","605b838b80f022835fc293fb","6877649eabb845cf142cd221","68931703670cfd61646f5480","1","605b838b80f022835fc293fb","1","2025-08-06T09:07:45.786Z","","","","MotivationQ","","","","","","","","","","","50","","","","","","","","","","","","","","","","","","","","","","","","","","",""
"","","","","ctl-task-cpt","68","1156132","0.0-7.0-0.11","122","1","2025-08-06 08:49:19","36c45c0696341be0efffe67d72a12abb","102.222.12.73","Mozilla/5.0 (Windows NT 10.0; Win64; x64) AppleWebKit/537.36 (KHTML, like Gecko) Chrome/138.0.0.0 Safari/537.36","WebKit","Chrome","138.0.0.0","Windows","10.0","https://app.prolific.com/","en-ZA,en-GB;q=0.9,en-US;q=0.8,en;q=0.7,en-GB-oxendict;q=0.6","605b838b80f022835fc293fb","6877649eabb845cf142cd221","68931703670cfd61646f5480","1","605b838b80f022835fc293fb","1","2025-08-06T09:08:38.403Z","","","","","","","","","","","","","","","","win-only","1","g1:NE,g2:SW","0.7","12","0","1107284.5","1315.5","6323.2","49582.1","1","4","8","6","2","8","8","46","38","0.3484848484848485","1214.6","3000","1340","[""down"",""left""]","{""num_key_presses"":12,""num_perfect"":9,""num_errors"":0,""num_randdir"":3,""num_randdir_good_moves"":0,""num_whilered"":0,""num_whileblue"":0,""num_blue"":2,""num_good_moves"":9}","[412.8214133126395,406.57142761775424,0.3,412.8214133126395,406.57142761775424,116.2,412.8214133126395,406.57142761775424,224.1,412.8214133126395,406.57142761775424,330,412.8214133126395,406.57142761775424,439.3,196.5714133126395,567.8214276177542,560.8,76.5714133126395,687.8214276177542,664,76.5714133126395,726.5714276177542,782.1,89.0714133126395,747.8214276177542,885.1,91.5714133126395,751.5714276177542,1004.4,91.5714133126395,751.5714276177542,1115.8,91.5714133126395,751.5714276177542,1232.8,91.5714133126395,751.5714276177542,1338.1,91.5714133126395,751.5714276177542,1451.9,91.5714133126395,751.5714276177542,1553.3,91.5714133126395,751.5714276177542,1664.7,91.5714133126395,751.5714276177542,1777.7,91.5714133126395,751.5714276177542,1885.5,91.5714133126395,751.5714276177542,1989.1,91.5714133126395,751.5714276177542,2101.5,91.5714133126395,751.5714276177542,2217.5,91.5714133126395,751.5714276177542,2324.2,91.5714133126395,751.5714276177542,2438.5,91.5714133126395,751.5714276177542,2546.4,91.5714133126395,751.5714276177542,2653.6,91.5714133126395,751.5714276177542,2763.1,91.5714133126395,751.5714276177542,2867.8,91.5714133126395,751.5714276177542,2979.5,91.5714133126395,751.5714276177542,3097.9,91.5714133126395,751.5714276177542,3217.9,91.5714133126395,751.5714276177542,3322.6,91.5714133126395,751.5714276177542,3434.4,91.5714133126395,751.5714276177542,3550.8,91.5714133126395,751.5714276177542,3651.3,91.5714133126395,751.5714276177542,3759.1,91.5714133126395,751.5714276177542,3865.4,91.5714133126395,751.5714276177542,3977.9,91.5714133126395,751.5714276177542,4084.4,91.5714133126395,751.5714276177542,4193.4,91.5714133126395,751.5714276177542,4304.1,91.5714133126395,751.5714276177542,4411.3,91.5714133126395,751.5714276177542,4520.4,91.5714133126395,751.5714276177542,4633.7,91.5714133126395,751.5714276177542,4743.3,91.5714133126395,751.5714276177542,4855.9,91.5714133126395,751.5714276177542,4961.7]","[1432.3,1432.3,1000,0,432.3,""smooth"",""down"",""down"",""good_move"",4553.4,3117.6,2737.1,1435.8,380.5,""smooth"",""down"",""down"",""good_move"",7186.3,2632.7,2104.2,4553.7,528.5,""smooth"",""down"",""down"",""good_move"",10341.1,3154.5,2792.2,7186.6,362.3,""oops"",""left"",""right"",""bad_move"",13451.4,3109.8,2647.5,10341.6,462.3,""smooth"",""left"",""left"",""good_move"",16951.4,3499.2,2288.1,13452.2,1211.1,""oops"",""left"",""right"",""bad_move"",20293.4,3341.5,2903.9,16951.9,437.6,""smooth"",""left"",""left"",""good_move"",26836.9,6542.6,2256.2,24103.3,477.4,""smooth"",""left"",""left"",""good_move"",33566.9,6729.5,2296.5,30847.3,423.1,""smooth"",""left"",""left"",""good_move"",36543,2976,1819.1,33567.1,1156.9,""oops"",""left"",""right"",""bad_move"",39512.8,2968.4,2345.7,36544.4,622.7,""smooth"",""left"",""left"",""good_move"",42879.4,3366.3,2391.2,39513.1,975.1,""smooth"",""left"",""left"",""good_move""]"
"3917","","<div style=""width:500px;"">
  <p>What determined the result of this run?</p>
  </div>","49","html-slider-response","69","1160052","0.0-7.0-1.11","122","1","2025-08-06 08:49:19","36c45c0696341be0efffe67d72a12abb","102.222.12.73","Mozilla/5.0 (Windows NT 10.0; Win64; x64) AppleWebKit/537.36 (KHTML, like Gecko) Chrome/138.0.0.0 Safari/537.36","WebKit","Chrome","138.0.0.0","Windows","10.0","https://app.prolific.com/","en-ZA,en-GB;q=0.9,en-US;q=0.8,en;q=0.7,en-GB-oxendict;q=0.6","605b838b80f022835fc293fb","6877649eabb845cf142cd221","68931703670cfd61646f5480","1","605b838b80f022835fc293fb","1","2025-08-06T09:08:42.323Z","","","","AttribQ","","","","","","","","","","","50","","","","","","","","","","","","","","","","","","","","","","","","","","",""
"2714","","<div style=""width:500px;"">
  <p>How much control did you have over the ball?</p>
  </div>","61","html-slider-response","70","1162768","0.0-7.0-2.11","122","1","2025-08-06 08:49:19","36c45c0696341be0efffe67d72a12abb","102.222.12.73","Mozilla/5.0 (Windows NT 10.0; Win64; x64) AppleWebKit/537.36 (KHTML, like Gecko) Chrome/138.0.0.0 Safari/537.36","WebKit","Chrome","138.0.0.0","Windows","10.0","https://app.prolific.com/","en-ZA,en-GB;q=0.9,en-US;q=0.8,en;q=0.7,en-GB-oxendict;q=0.6","605b838b80f022835fc293fb","6877649eabb845cf142cd221","68931703670cfd61646f5480","1","605b838b80f022835fc293fb","1","2025-08-06T09:08:45.039Z","","","","ControlQ","","","","","","","","","","","50","","","","","","","","","","","","","","","","","","","","","","","","","","",""
"2925","","<div style=""width:500px;"">
  <p>How would you describe your current emotional state?</p>
  </div>","34","html-slider-response","71","1165696","0.0-7.0-3.11","122","1","2025-08-06 08:49:19","36c45c0696341be0efffe67d72a12abb","102.222.12.73","Mozilla/5.0 (Windows NT 10.0; Win64; x64) AppleWebKit/537.36 (KHTML, like Gecko) Chrome/138.0.0.0 Safari/537.36","WebKit","Chrome","138.0.0.0","Windows","10.0","https://app.prolific.com/","en-ZA,en-GB;q=0.9,en-US;q=0.8,en;q=0.7,en-GB-oxendict;q=0.6","605b838b80f022835fc293fb","6877649eabb845cf142cd221","68931703670cfd61646f5480","1","605b838b80f022835fc293fb","1","2025-08-06T09:08:47.967Z","","","","StressQ","","","","","","","","","","","50","","","","","","","","","","","","","","","","","","","","","","","","","","",""
"3341","","<div style=""width:500px;"">
  <p>What best describes how you currently feel?</p>
  </div>","60","html-slider-response","72","1169038","0.0-7.0-4.11","122","1","2025-08-06 08:49:19","36c45c0696341be0efffe67d72a12abb","102.222.12.73","Mozilla/5.0 (Windows NT 10.0; Win64; x64) AppleWebKit/537.36 (KHTML, like Gecko) Chrome/138.0.0.0 Safari/537.36","WebKit","Chrome","138.0.0.0","Windows","10.0","https://app.prolific.com/","en-ZA,en-GB;q=0.9,en-US;q=0.8,en;q=0.7,en-GB-oxendict;q=0.6","605b838b80f022835fc293fb","6877649eabb845cf142cd221","68931703670cfd61646f5480","1","605b838b80f022835fc293fb","1","2025-08-06T09:08:51.309Z","","","","MotivationQ","","","","","","","","","","","50","","","","","","","","","","","","","","","","","","","","","","","","","","",""
"","","","","ctl-task-cpt","73","1198016","0.0-7.0-0.12","122","1","2025-08-06 08:49:19","36c45c0696341be0efffe67d72a12abb","102.222.12.73","Mozilla/5.0 (Windows NT 10.0; Win64; x64) AppleWebKit/537.36 (KHTML, like Gecko) Chrome/138.0.0.0 Safari/537.36","WebKit","Chrome","138.0.0.0","Windows","10.0","https://app.prolific.com/","en-ZA,en-GB;q=0.9,en-US;q=0.8,en;q=0.7,en-GB-oxendict;q=0.6","605b838b80f022835fc293fb","6877649eabb845cf142cd221","68931703670cfd61646f5480","1","605b838b80f022835fc293fb","1","2025-08-06T09:09:20.287Z","","","","","","","","","","","","","","","","win-only","2","g1:SE,g2:NW","0.8","13","0","1172805.9","1344","6347.7","25948","1","4","4","6","2","4","4","50","46","0.3787878787878788","2072.5","3000","2205","[""left"",""up""]","{""num_key_presses"":6,""num_perfect"":6,""num_errors"":0,""num_randdir"":0,""num_randdir_good_moves"":0,""num_whilered"":0,""num_whileblue"":0,""num_blue"":0,""num_good_moves"":6}","[420.3214133126395,416.57142761775424,0.2,420.3214133126395,416.57142761775424,107.3,420.3214133126395,416.57142761775424,230.9,420.3214133126395,416.57142761775424,339.4,420.3214133126395,416.57142761775424,439.4,420.3214133126395,416.57142761775424,539.7,420.3214133126395,416.57142761775424,654.4,331.5714133126395,345.32142761775424,758.7,259.0714133126395,222.82142761775424,868.1,237.8214133126395,154.07142761775424,982.8,101.5714133126395,145.32142761775424,1091.5,-153.4285866873605,214.07142761775424,1200.8,-88.4285866873605,151.57142761775424,1313.2,-4.678586687360493,144.07142761775424,1426,36.57141331263951,139.07142761775424,1541.3,56.57141331263951,131.57142761775424,1641.4,71.5714133126395,116.57142761775425,1751.2,75.3214133126395,112.82142761775425,1859.3,75.3214133126395,112.82142761775425,1974.2,75.3214133126395,112.82142761775425,2086.9,75.3214133126395,112.82142761775425,2190.9,75.3214133126395,112.82142761775425,2313.1,75.3214133126395,112.82142761775425,2419.8,75.3214133126395,112.82142761775425,2522.6,75.3214133126395,112.82142761775425,2624.8,75.3214133126395,112.82142761775425,2744.1,75.3214133126395,112.82142761775425,2855.9,75.3214133126395,112.82142761775425,2970.2,75.3214133126395,112.82142761775425,3070.4,75.3214133126395,112.82142761775425,3190.7,75.3214133126395,112.82142761775425,3305.8,75.3214133126395,112.82142761775425,3421.1,75.3214133126395,112.82142761775425,3537.4,75.3214133126395,112.82142761775425,3651,75.3214133126395,112.82142761775425,3753.8,75.3214133126395,112.82142761775425,3871.4,75.3214133126395,112.82142761775425,3973.8,75.3214133126395,112.82142761775425,4080.7,75.3214133126395,112.82142761775425,4188.1,75.3214133126395,112.82142761775425,4301.6,75.3214133126395,112.82142761775425,4414.3,75.3214133126395,112.82142761775425,4516.7,75.3214133126395,112.82142761775425,4630.3,75.3214133126395,112.82142761775425,4742,75.3214133126395,112.82142761775425,4848.9,75.3214133126395,112.82142761775425,4953.9]","[1581.5,1581.5,1000,0,581.5,""smooth"",""up"",""up"",""good_move"",4953.3,3371.4,2337.4,1581.9,1034,""smooth"",""left"",""left"",""good_move"",8732.2,3777.1,2493.1,4955.2,1283.9,""smooth"",""left"",""left"",""good_move"",12166.5,3434,3084.3,8732.5,349.7,""smooth"",""up"",""up"",""good_move"",15953.7,3787,2629.1,12166.7,1157.9,""smooth"",""left"",""left"",""good_move"",19288,3333.9,1859,15954.1,1474.9,""smooth"",""up"",""up"",""good_move""]"
"3308","","<div style=""width:500px;"">
  <p>What determined the result of this run?</p>
