"rt","response_timestamp","stimulus","response","trial_type","trial_index","time_elapsed","internal_node_id","run_id","condition","recorded_at","source_code_version","ip","user_agent","device","browser","browser_version","platform","platform_version","referer","accept_language","PROLIFIC_PID","STUDY_ID","SESSION_ID","BATCH","prolific_id","batch","realtime","success","question_order","question_id","eventType","responses","item_order","radio_event_ids","radio_event_times","key_event_times","mouse_event_times","straightlining","zigzagging","honeypot","view_history","slider_start","which_type","canvas_config","goals_layout","control_level","trial_number","tutorial_trial_number","trial_start_time","phase1_start_time","phase2_start_time","phase3_start_time","goal_1_value","goal_1_distance","goal_2_value","goal_2_distance","goal_selected","outcome","outcome_total","participant_final_score","participant_initial_score","participant_final_score_prop","goal_choice_rt","allocated_time","allocated_time_remaining","goal_direction","counts","mouse_movements","key_presses"
"12311","1754507958432","<p style='font-size:40px;line-height:1.25'><strong>Welcome to the experiment!</strong></p><p style='font-size:1.1em;line-height:1.25'>Thank you for participanting in our experiment again! You will be asked to play the Dysfunctional Ball Game again. We will briefly recap the rules before we start.</p><p style='font-size:1.1em;line-height:1.25'>Press <strong>Next</strong> to continue.</p>","0","custom-html-button-response","0","12316","0.0-0.0","216","1","2025-08-06 19:19:03","36c45c0696341be0efffe67d72a12abb","102.221.201.8","Mozilla/5.0 (Windows NT 10.0; Win64; x64) AppleWebKit/537.36 (KHTML, like Gecko) Chrome/138.0.0.0 Safari/537.36 Edg/138.0.0.0","WebKit","Edge","138.0.0.0","Windows","10.0","https://app.prolific.com/","en-US,en;q=0.9,en-ZA;q=0.8","606e3cce02e2e8a8c965ca75","6877649eabb845cf142cd221","6893aa9a6eca4cb6274a6c99","1","606e3cce02e2e8a8c965ca75","1","2025-08-06T19:19:18.434Z","","","","","","","","","","","","","","","","","","","","","","","","","","","","","","","","","","","","","","","","","",""
"1455","","","","fullscreen","1","14782","0.0-1.0","216","1","2025-08-06 19:19:03","36c45c0696341be0efffe67d72a12abb","102.221.201.8","Mozilla/5.0 (Windows NT 10.0; Win64; x64) AppleWebKit/537.36 (KHTML, like Gecko) Chrome/138.0.0.0 Safari/537.36 Edg/138.0.0.0","WebKit","Edge","138.0.0.0","Windows","10.0","https://app.prolific.com/","en-US,en;q=0.9,en-ZA;q=0.8","606e3cce02e2e8a8c965ca75","6877649eabb845cf142cd221","6893aa9a6eca4cb6274a6c99","1","606e3cce02e2e8a8c965ca75","1","","true","","","","","","","","","","","","","","","","","","","","","","","","","","","","","","","","","","","","","","","","",""
"32176","1754507993077"," <p style='font-size:1.1em;line-height:1.25'>Thank you for closing all other tabs.</p><p style='font-size:1.1em;line-height:1.25'>We will now invite you to fill in some questionnaires, before starting the game.<br>This will take about 5 minutes.<br></p><p style='font-size:1.1em;line-height:1.25'>Press the <strong>Next</strong> button to continue.</p>","0","custom-html-button-response","2","46959","0.0-2.0","216","1","2025-08-06 19:19:03","36c45c0696341be0efffe67d72a12abb","102.221.201.8","Mozilla/5.0 (Windows NT 10.0; Win64; x64) AppleWebKit/537.36 (KHTML, like Gecko) Chrome/138.0.0.0 Safari/537.36 Edg/138.0.0.0","WebKit","Edge","138.0.0.0","Windows","10.0","https://app.prolific.com/","en-US,en;q=0.9,en-ZA;q=0.8","606e3cce02e2e8a8c965ca75","6877649eabb845cf142cd221","6893aa9a6eca4cb6274a6c99","1","606e3cce02e2e8a8c965ca75","1","2025-08-06T19:19:53.077Z","","","","","","","","","","","","","","","","","","","","","","","","","","","","","","","","","","","","","","","","","",""
"183744","","","{""assigned_sex"":""female""}","survey-multi-choice","3","230707","0.0-3.0-0.0","216","1","2025-08-06 19:19:03","36c45c0696341be0efffe67d72a12abb","102.221.201.8","Mozilla/5.0 (Windows NT 10.0; Win64; x64) AppleWebKit/537.36 (KHTML, like Gecko) Chrome/138.0.0.0 Safari/537.36 Edg/138.0.0.0","WebKit","Edge","138.0.0.0","Windows","10.0","https://app.prolific.com/","en-US,en;q=0.9,en-ZA;q=0.8","606e3cce02e2e8a8c965ca75","6877649eabb845cf142cd221","6893aa9a6eca4cb6274a6c99","1","606e3cce02e2e8a8c965ca75","1","","","[0]","0","demographics","","","","","","","","","","","","","","","","","","","","","","","","","","","","","","","","","","","","","",""
"2244","1754508179071","<p style='font-size:1.1em;line-height:1.25'>In the following, we will perform a baseline assessment. This means that we will ask you a few questions relating to your experiences over the past month.<br></p><p style='font-size:1.1em;line-height:1.25'>Press the <strong>Next</strong> button to continue.</p>","0","custom-html-button-response","4","232953","0.0-4.0-0.0","216","1","2025-08-06 19:19:03","36c45c0696341be0efffe67d72a12abb","102.221.201.8","Mozilla/5.0 (Windows NT 10.0; Win64; x64) AppleWebKit/537.36 (KHTML, like Gecko) Chrome/138.0.0.0 Safari/537.36 Edg/138.0.0.0","WebKit","Edge","138.0.0.0","Windows","10.0","https://app.prolific.com/","en-US,en;q=0.9,en-ZA;q=0.8","606e3cce02e2e8a8c965ca75","6877649eabb845cf142cd221","6893aa9a6eca4cb6274a6c99","1","606e3cce02e2e8a8c965ca75","1","2025-08-06T19:22:59.071Z","","","","","","","","","","","","","","","","","","","","","","","","","","","","","","","","","","","","","","","","","",""
"240305.1000000015","","","","survey-template","5","473264","0.0-4.0-1.0","216","1","2025-08-06 19:19:03","36c45c0696341be0efffe67d72a12abb","102.221.201.8","Mozilla/5.0 (Windows NT 10.0; Win64; x64) AppleWebKit/537.36 (KHTML, like Gecko) Chrome/138.0.0.0 Safari/537.36 Edg/138.0.0.0","WebKit","Edge","138.0.0.0","Windows","10.0","https://app.prolific.com/","en-US,en;q=0.9,en-ZA;q=0.8","606e3cce02e2e8a8c965ca75","6877649eabb845cf142cd221","6893aa9a6eca4cb6274a6c99","1","606e3cce02e2e8a8c965ca75","1","2025-08-06T19:26:59.382Z","","","","pss","{""Q01"":""2"",""Q02"":""1"",""Q03"":""2"",""Q04"":""1"",""Q05"":""1"",""Q06"":""2"",""Q07"":""3"",""Q08"":""1"",""Q09"":""1"",""Q10"":""1""}","[0,1,2,3,4,5,6,7,8,9]","[""Q01"",""Q02"",""Q03"",""Q04"",""Q05"",""Q06"",""Q07"",""Q09"",""Q10"",""Q08""]","[11016.89999999851,20776.5,153369.20000000298,158728,168290,181105.6000000015,184008.5,197460.29999999702,203884.3999999985,237177.6000000015]","[]","[0,11016.89999999851,19326.29999999702,20776.5,152267.5,153369.20000000298,158728,166113,168290,181105.6000000015,184008.5,196334.79999999702,197460.29999999702,202578.5,203884.3999999985,230409.79999999702,237177.6000000015,240302.29999999702]","0.4","0.5555555555555556","0","","","","","","","","","","","","","","","","","","","","","","","","","","","","",""
"5342","1754508424726","<p style='font-size:1.1em;line-height:1.25'>Thank you for your answers! Now we will ask you a few more questions relating to your feelings in the last 24 hours.<br></p><p style='font-size:1.1em;line-height:1.25'>Press the <strong>Next</strong> button to continue.</p>","0","custom-html-button-response","6","478608","0.0-4.0-2.0","216","1","2025-08-06 19:19:03","36c45c0696341be0efffe67d72a12abb","102.221.201.8","Mozilla/5.0 (Windows NT 10.0; Win64; x64) AppleWebKit/537.36 (KHTML, like Gecko) Chrome/138.0.0.0 Safari/537.36 Edg/138.0.0.0","WebKit","Edge","138.0.0.0","Windows","10.0","https://app.prolific.com/","en-US,en;q=0.9,en-ZA;q=0.8","606e3cce02e2e8a8c965ca75","6877649eabb845cf142cd221","6893aa9a6eca4cb6274a6c99","1","606e3cce02e2e8a8c965ca75","1","2025-08-06T19:27:04.727Z","","","","","","","","","","","","","","","","","","","","","","","","","","","","","","","","","","","","","","","","","",""
"112442.09999999404","","","","survey-template","7","591057","0.0-4.0-3.0","216","1","2025-08-06 19:19:03","36c45c0696341be0efffe67d72a12abb","102.221.201.8","Mozilla/5.0 (Windows NT 10.0; Win64; x64) AppleWebKit/537.36 (KHTML, like Gecko) Chrome/138.0.0.0 Safari/537.36 Edg/138.0.0.0","WebKit","Edge","138.0.0.0","Windows","10.0","https://app.prolific.com/","en-US,en;q=0.9,en-ZA;q=0.8","606e3cce02e2e8a8c965ca75","6877649eabb845cf142cd221","6893aa9a6eca4cb6274a6c99","1","606e3cce02e2e8a8c965ca75","1","2025-08-06T19:28:57.175Z","","","","drsp","{""Q01"":""0"",""Q02"":""0"",""Q03"":""0"",""Q04"":""1"",""Q05"":""2"",""Q06"":""2"",""Q07"":""1"",""Q08"":""0"",""Q09"":""1"",""Q10"":""1"",""Q11"":""2"",""Q12"":""4"",""Q13"":""5"",""Q14"":""4"",""Q15"":""2"",""Q16"":""1"",""Q17"":""1"",""Q18"":""0"",""Q19"":""3"",""Q20"":""1"",""Q21"":""0"",""Q22"":""0""}","[0,1,2,3,4,5,6,7,8,9,10,11,12,13,14,15,16,17,18,19,20,21]","[""Q01"",""Q02"",""Q03"",""Q04"",""Q05"",""Q06"",""Q07"",""Q08"",""Q08"",""Q09"",""Q10"",""Q11"",""Q12"",""Q13"",""Q14"",""Q15"",""Q16"",""Q17"",""Q18"",""Q19"",""Q19"",""Q20"",""Q21"",""Q22""]","[12595.79999999702,13946.29999999702,19424,20760.09999999404,22820.09999999404,27716.69999999553,29114.69999999553,30759.5,32885.69999999553,38943.29999999702,42875,46237,49140.89999999851,55298.89999999851,59376.19999999553,62251.89999999851,77109.59999999404,78932.89999999851,80988,88066,91998.5,99196.79999999702,105549.89999999851,110528.79999999702]","[]","[0,12595.79999999702,13946.29999999702,15251.19999999553,17916.09999999404,19424,20760.09999999404,22820.09999999404,25450.29999999702,27716.69999999553,29114.69999999553,30759.5,32885.69999999553,37550.79999999702,38943.29999999702,42875,46237,49140.89999999851,55298.89999999851,59376.19999999553,62251.89999999851,77109.59999999404,78932.89999999851,80988,88066,91998.5,97498.19999999553,99196.79999999702,105549.89999999851,110528.79999999702,112436.69999999553]","0.3181818181818182","0.5238095238095238","0","","","","","","","","","","","","","","","","","","","","","","","","","","","","",""
"15944.5","","","","survey-template","8","607004","0.0-4.0-4.0","216","1","2025-08-06 19:19:03","36c45c0696341be0efffe67d72a12abb","102.221.201.8","Mozilla/5.0 (Windows NT 10.0; Win64; x64) AppleWebKit/537.36 (KHTML, like Gecko) Chrome/138.0.0.0 Safari/537.36 Edg/138.0.0.0","WebKit","Edge","138.0.0.0","Windows","10.0","https://app.prolific.com/","en-US,en;q=0.9,en-ZA;q=0.8","606e3cce02e2e8a8c965ca75","6877649eabb845cf142cd221","6893aa9a6eca4cb6274a6c99","1","606e3cce02e2e8a8c965ca75","1","2025-08-06T19:29:13.123Z","","","","stress","{""Q01"":""0"",""Q02"":""1"",""Q03"":""1""}","[0,1,2]","[""Q01"",""Q02"",""Q03""]","[4501.89999999851,9755.29999999702,14392.10000000149]","[]","[4501.89999999851,8904.89999999851,9755.29999999702,14392.10000000149,15942.69999999553]","0.3333333333333333","0","0","","","","","","","","","","","","","","","","","","","","","","","","","","","","",""
"10553","","","","instructions","9","617559","0.0-5.0-0.0","216","1","2025-08-06 19:19:03","36c45c0696341be0efffe67d72a12abb","102.221.201.8","Mozilla/5.0 (Windows NT 10.0; Win64; x64) AppleWebKit/537.36 (KHTML, like Gecko) Chrome/138.0.0.0 Safari/537.36 Edg/138.0.0.0","WebKit","Edge","138.0.0.0","Windows","10.0","https://app.prolific.com/","en-US,en;q=0.9,en-ZA;q=0.8","606e3cce02e2e8a8c965ca75","6877649eabb845cf142cd221","6893aa9a6eca4cb6274a6c99","1","606e3cce02e2e8a8c965ca75","1","","","","","","","","","","","","","","","[{""page_index"":0,""viewing_time"":10553}]","","","","","","","","","","","","","","","","","","","","","","","","","","","",""
"51881","","<p>Before you start with this game please answer the following three questions yourself. </p>
  <p>Through this game, we measure several aspects of your cognitive performance, such as reaction times, multi-tasking capabilities </p>
  <p>and the ability to assess the situation you are in.</p>
  <p></p>
  <p><b>How good do you usually are in such tasks?</b></p>","96","html-slider-response","10","669444","0.0-6.0-0.0","216","1","2025-08-06 19:19:03","36c45c0696341be0efffe67d72a12abb","102.221.201.8","Mozilla/5.0 (Windows NT 10.0; Win64; x64) AppleWebKit/537.36 (KHTML, like Gecko) Chrome/138.0.0.0 Safari/537.36 Edg/138.0.0.0","WebKit","Edge","138.0.0.0","Windows","10.0","https://app.prolific.com/","en-US,en;q=0.9,en-ZA;q=0.8","606e3cce02e2e8a8c965ca75","6877649eabb845cf142cd221","6893aa9a6eca4cb6274a6c99","1","606e3cce02e2e8a8c965ca75","1","2025-08-06T19:30:15.562Z","","","","PreSkillQ","","","","","","","","","","","50","","","","","","","","","","","","","","","","","","","","","","","","","","",""
"29100","","<div style=""width:500px;"">
  <p>How well do you think you will perform in this task compared to other participants?</p>
  </div>","91","html-slider-response","11","698547","0.0-6.0-1.0","216","1","2025-08-06 19:19:03","36c45c0696341be0efffe67d72a12abb","102.221.201.8","Mozilla/5.0 (Windows NT 10.0; Win64; x64) AppleWebKit/537.36 (KHTML, like Gecko) Chrome/138.0.0.0 Safari/537.36 Edg/138.0.0.0","WebKit","Edge","138.0.0.0","Windows","10.0","https://app.prolific.com/","en-US,en;q=0.9,en-ZA;q=0.8","606e3cce02e2e8a8c965ca75","6877649eabb845cf142cd221","6893aa9a6eca4cb6274a6c99","1","606e3cce02e2e8a8c965ca75","1","2025-08-06T19:30:44.665Z","","","","PrePerfQ","","","","","","","","","","","50","","","","","","","","","","","","","","","","","","","","","","","","","","",""
"3670","","<div style=""width:500px;"">
  <p>What best describes how you currently feel?</p>
  </div>","90","html-slider-response","12","702219","0.0-6.0-2.0","216","1","2025-08-06 19:19:03","36c45c0696341be0efffe67d72a12abb","102.221.201.8","Mozilla/5.0 (Windows NT 10.0; Win64; x64) AppleWebKit/537.36 (KHTML, like Gecko) Chrome/138.0.0.0 Safari/537.36 Edg/138.0.0.0","WebKit","Edge","138.0.0.0","Windows","10.0","https://app.prolific.com/","en-US,en;q=0.9,en-ZA;q=0.8","606e3cce02e2e8a8c965ca75","6877649eabb845cf142cd221","6893aa9a6eca4cb6274a6c99","1","606e3cce02e2e8a8c965ca75","1","2025-08-06T19:30:48.337Z","","","","PreMotivationQ","","","","","","","","","","","50","","","","","","","","","","","","","","","","","","","","","","","","","","",""
"","","","","ctl-task-cpt","13","721485","0.0-7.0-0.0","216","1","2025-08-06 19:19:03","36c45c0696341be0efffe67d72a12abb","102.221.201.8","Mozilla/5.0 (Windows NT 10.0; Win64; x64) AppleWebKit/537.36 (KHTML, like Gecko) Chrome/138.0.0.0 Safari/537.36 Edg/138.0.0.0","WebKit","Edge","138.0.0.0","Windows","10.0","https://app.prolific.com/","en-US,en;q=0.9,en-ZA;q=0.8","606e3cce02e2e8a8c965ca75","6877649eabb845cf142cd221","6893aa9a6eca4cb6274a6c99","1","606e3cce02e2e8a8c965ca75","1","2025-08-06T19:31:07.603Z","","","","","","","","","","","","","","","","win-only","0","g1:NW,g2:SE","1","1","0","704564.6","1315.9","6316.7","16257.4","1","4","8","6","2","-8","-8","0","0","0","5000.7","3000","-2235","[""down"",""right""]","{""num_key_presses"":2,""num_perfect"":2,""num_errors"":0,""num_randdir"":0,""num_randdir_good_moves"":0,""num_whilered"":0,""num_whileblue"":0,""num_blue"":0,""num_good_moves"":2}","[420.3214133126395,421.57142761775424,0.3,420.3214133126395,421.57142761775424,104.1,420.3214133126395,421.57142761775424,208.2,420.3214133126395,421.57142761775424,311.4,420.3214133126395,421.57142761775424,415.7,420.3214133126395,421.57142761775424,516.6,420.3214133126395,421.57142761775424,617.5,420.3214133126395,421.57142761775424,724.7,420.3214133126395,421.57142761775424,828.2,420.3214133126395,421.57142761775424,932.8,420.3214133126395,421.57142761775424,1041,420.3214133126395,421.57142761775424,1144.9,420.3214133126395,421.57142761775424,1245,420.3214133126395,421.57142761775424,1353.9,420.3214133126395,421.57142761775424,1457.2,420.3214133126395,421.57142761775424,1561.5,420.3214133126395,421.57142761775424,1668.7,420.3214133126395,421.57142761775424,1773.1,420.3214133126395,421.57142761775424,1874.6,420.3214133126395,421.57142761775424,1974.7,420.3214133126395,421.57142761775424,2079.8,420.3214133126395,421.57142761775424,2182,420.3214133126395,421.57142761775424,2285.3,420.3214133126395,421.57142761775424,2389.2,420.3214133126395,421.57142761775424,2489.5,420.3214133126395,421.57142761775424,2589.7,420.3214133126395,421.57142761775424,2690.4,420.3214133126395,421.57142761775424,2803.7,420.3214133126395,421.57142761775424,2905.7,420.3214133126395,421.57142761775424,3010.2,420.3214133126395,421.57142761775424,3111.2,420.3214133126395,421.57142761775424,3218.3,420.3214133126395,421.57142761775424,3321.5,420.3214133126395,421.57142761775424,3424.8,420.3214133126395,421.57142761775424,3527.2,420.3214133126395,421.57142761775424,3631.2,420.3214133126395,421.57142761775424,3733.8,420.3214133126395,421.57142761775424,3835.4,420.3214133126395,421.57142761775424,3935.6,420.3214133126395,421.57142761775424,4037.5,420.3214133126395,421.57142761775424,4139.6,420.3214133126395,421.57142761775424,4244.6,420.3214133126395,421.57142761775424,4346,420.3214133126395,421.57142761775424,4452.6,420.3214133126395,421.57142761775424,4554.5,420.3214133126395,421.57142761775424,4654.5,420.3214133126395,421.57142761775424,4755,420.3214133126395,421.57142761775424,4855.8,420.3214133126395,421.57142761775424,4960.4]","[3273.6,3273.6,1000,0,2273.6,""smooth"",""down"",""down"",""good_move"",6764.8,3490.6,2499.7,3274.2,990.9,""smooth"",""down"",""down"",""good_move""]"
"4816","","<div style=""width:500px;"">
  <p>What determined the result of this run?</p>
  </div>","93","html-slider-response","14","726303","0.0-7.0-1.0","216","1","2025-08-06 19:19:03","36c45c0696341be0efffe67d72a12abb","102.221.201.8","Mozilla/5.0 (Windows NT 10.0; Win64; x64) AppleWebKit/537.36 (KHTML, like Gecko) Chrome/138.0.0.0 Safari/537.36 Edg/138.0.0.0","WebKit","Edge","138.0.0.0","Windows","10.0","https://app.prolific.com/","en-US,en;q=0.9,en-ZA;q=0.8","606e3cce02e2e8a8c965ca75","6877649eabb845cf142cd221","6893aa9a6eca4cb6274a6c99","1","606e3cce02e2e8a8c965ca75","1","2025-08-06T19:31:12.421Z","","","","AttribQ","","","","","","","","","","","50","","","","","","","","","","","","","","","","","","","","","","","","","","",""
"5064","","<div style=""width:500px;"">
  <p>How much control did you have over the ball?</p>
  </div>","93","html-slider-response","15","731368","0.0-7.0-2.0","216","1","2025-08-06 19:19:03","36c45c0696341be0efffe67d72a12abb","102.221.201.8","Mozilla/5.0 (Windows NT 10.0; Win64; x64) AppleWebKit/537.36 (KHTML, like Gecko) Chrome/138.0.0.0 Safari/537.36 Edg/138.0.0.0","WebKit","Edge","138.0.0.0","Windows","10.0","https://app.prolific.com/","en-US,en;q=0.9,en-ZA;q=0.8","606e3cce02e2e8a8c965ca75","6877649eabb845cf142cd221","6893aa9a6eca4cb6274a6c99","1","606e3cce02e2e8a8c965ca75","1","2025-08-06T19:31:17.486Z","","","","ControlQ","","","","","","","","","","","50","","","","","","","","","","","","","","","","","","","","","","","","","","",""
"6168","","<div style=""width:500px;"">
  <p>How would you describe your current emotional state?</p>
  </div>","8","html-slider-response","16","737540","0.0-7.0-3.0","216","1","2025-08-06 19:19:03","36c45c0696341be0efffe67d72a12abb","102.221.201.8","Mozilla/5.0 (Windows NT 10.0; Win64; x64) AppleWebKit/537.36 (KHTML, like Gecko) Chrome/138.0.0.0 Safari/537.36 Edg/138.0.0.0","WebKit","Edge","138.0.0.0","Windows","10.0","https://app.prolific.com/","en-US,en;q=0.9,en-ZA;q=0.8","606e3cce02e2e8a8c965ca75","6877649eabb845cf142cd221","6893aa9a6eca4cb6274a6c99","1","606e3cce02e2e8a8c965ca75","1","2025-08-06T19:31:23.658Z","","","","StressQ","","","","","","","","","","","50","","","","","","","","","","","","","","","","","","","","","","","","","","",""
"3378","","<div style=""width:500px;"">
  <p>What best describes how you currently feel?</p>
  </div>","98","html-slider-response","17","740920","0.0-7.0-4.0","216","1","2025-08-06 19:19:03","36c45c0696341be0efffe67d72a12abb","102.221.201.8","Mozilla/5.0 (Windows NT 10.0; Win64; x64) AppleWebKit/537.36 (KHTML, like Gecko) Chrome/138.0.0.0 Safari/537.36 Edg/138.0.0.0","WebKit","Edge","138.0.0.0","Windows","10.0","https://app.prolific.com/","en-US,en;q=0.9,en-ZA;q=0.8","606e3cce02e2e8a8c965ca75","6877649eabb845cf142cd221","6893aa9a6eca4cb6274a6c99","1","606e3cce02e2e8a8c965ca75","1","2025-08-06T19:31:27.038Z","","","","MotivationQ","","","","","","","","","","","50","","","","","","","","","","","","","","","","","","","","","","","","","","",""
"","","","","ctl-task-cpt","18","776951","0.0-7.0-0.1","216","1","2025-08-06 19:19:03","36c45c0696341be0efffe67d72a12abb","102.221.201.8","Mozilla/5.0 (Windows NT 10.0; Win64; x64) AppleWebKit/537.36 (KHTML, like Gecko) Chrome/138.0.0.0 Safari/537.36 Edg/138.0.0.0","WebKit","Edge","138.0.0.0","Windows","10.0","https://app.prolific.com/","en-US,en;q=0.9,en-ZA;q=0.8","606e3cce02e2e8a8c965ca75","6877649eabb845cf142cd221","6893aa9a6eca4cb6274a6c99","1","606e3cce02e2e8a8c965ca75","1","2025-08-06T19:32:03.069Z","","","","","","","","","","","","","","","","win-only","2","g1:SE,g2:NW","0.9","2","0","743263.7","1298.2","6301","33017","1","4","4","6","2","-4","-4","0","0","0","5002.8","3000","-2390","[""left"",""up""]","{""num_key_presses"":5,""num_perfect"":5,""num_errors"":0,""num_randdir"":0,""num_randdir_good_moves"":0,""num_whilered"":0,""num_whileblue"":0,""num_blue"":2,""num_good_moves"":5}","[412.8214133126395,410.32142761775424,0.3,412.8214133126395,410.32142761775424,104.5,412.8214133126395,410.32142761775424,204.9,412.8214133126395,410.32142761775424,305.8,412.8214133126395,410.32142761775424,412.6,412.8214133126395,410.32142761775424,514.9,412.8214133126395,410.32142761775424,619.9,412.8214133126395,410.32142761775424,722,412.8214133126395,410.32142761775424,822.7,412.8214133126395,410.32142761775424,929.5,412.8214133126395,410.32142761775424,1037.7,412.8214133126395,410.32142761775424,1144.5,412.8214133126395,410.32142761775424,1245.2,412.8214133126395,410.32142761775424,1355.3,412.8214133126395,410.32142761775424,1461,412.8214133126395,410.32142761775424,1563.6,412.8214133126395,410.32142761775424,1672.1,412.8214133126395,410.32142761775424,1779.5,412.8214133126395,410.32142761775424,1880.1,412.8214133126395,410.32142761775424,1986.1,412.8214133126395,410.32142761775424,2089.8,412.8214133126395,410.32142761775424,2194.8,412.8214133126395,410.32142761775424,2295.7,412.8214133126395,410.32142761775424,2398.8,412.8214133126395,410.32142761775424,2503.9,412.8214133126395,410.32142761775424,2605.3,412.8214133126395,410.32142761775424,2714.5,412.8214133126395,410.32142761775424,2818.5,412.8214133126395,410.32142761775424,2926.3,412.8214133126395,410.32142761775424,3027.4,412.8214133126395,410.32142761775424,3129.1,412.8214133126395,410.32142761775424,3229.2,412.8214133126395,410.32142761775424,3336.4,412.8214133126395,410.32142761775424,3437.8,412.8214133126395,410.32142761775424,3542.2,412.8214133126395,410.32142761775424,3644,412.8214133126395,410.32142761775424,3750.5,412.8214133126395,410.32142761775424,3851.1,412.8214133126395,410.32142761775424,3952.8,412.8214133126395,410.32142761775424,4053.4,412.8214133126395,410.32142761775424,4153.7,412.8214133126395,410.32142761775424,4260.2,412.8214133126395,410.32142761775424,4361.1,412.8214133126395,410.32142761775424,4469.5,412.8214133126395,410.32142761775424,4569.9,412.8214133126395,410.32142761775424,4674.5,412.8214133126395,410.32142761775424,4776.9,412.8214133126395,410.32142761775424,4879.2,412.8214133126395,410.32142761775424,4986.3]","[1990.8,1990.8,1000,0,990.8,""smooth"",""up"",""up"",""good_move"",6278.4,4287.3,3404,1991.2,883.2,""smooth"",""up"",""up"",""good_move"",17127.9,10849.3,2629.2,14069.6,429.1,""smooth"",""up"",""up"",""good_move"",20534.5,3406.3,2722.8,17128.2,683.5,""smooth"",""left"",""left"",""good_move"",23779.9,3244.3,2859.3,20535.7,384.9,""smooth"",""left"",""left"",""good_move""]"
"21269","","<div style=""width:500px;"">
  <p>What determined the result of this run?</p>
  </div>","100","html-slider-response","19","798222","0.0-7.0-1.1","216","1","2025-08-06 19:19:03","36c45c0696341be0efffe67d72a12abb","102.221.201.8","Mozilla/5.0 (Windows NT 10.0; Win64; x64) AppleWebKit/537.36 (KHTML, like Gecko) Chrome/138.0.0.0 Safari/537.36 Edg/138.0.0.0","WebKit","Edge","138.0.0.0","Windows","10.0","https://app.prolific.com/","en-US,en;q=0.9,en-ZA;q=0.8","606e3cce02e2e8a8c965ca75","6877649eabb845cf142cd221","6893aa9a6eca4cb6274a6c99","1","606e3cce02e2e8a8c965ca75","1","2025-08-06T19:32:24.340Z","","","","AttribQ","","","","","","","","","","","50","","","","","","","","","","","","","","","","","","","","","","","","","","",""
"28138","","<div style=""width:500px;"">
  <p>How much control did you have over the ball?</p>
  </div>","95","html-slider-response","20","826362","0.0-7.0-2.1","216","1","2025-08-06 19:19:03","36c45c0696341be0efffe67d72a12abb","102.221.201.8","Mozilla/5.0 (Windows NT 10.0; Win64; x64) AppleWebKit/537.36 (KHTML, like Gecko) Chrome/138.0.0.0 Safari/537.36 Edg/138.0.0.0","WebKit","Edge","138.0.0.0","Windows","10.0","https://app.prolific.com/","en-US,en;q=0.9,en-ZA;q=0.8","606e3cce02e2e8a8c965ca75","6877649eabb845cf142cd221","6893aa9a6eca4cb6274a6c99","1","606e3cce02e2e8a8c965ca75","1","2025-08-06T19:32:52.480Z","","","","ControlQ","","","","","","","","","","","50","","","","","","","","","","","","","","","","","","","","","","","","","","",""
"6166","","<div style=""width:500px;"">
  <p>How would you describe your current emotional state?</p>
  </div>","0","html-slider-response","21","832530","0.0-7.0-3.1","216","1","2025-08-06 19:19:03","36c45c0696341be0efffe67d72a12abb","102.221.201.8","Mozilla/5.0 (Windows NT 10.0; Win64; x64) AppleWebKit/537.36 (KHTML, like Gecko) Chrome/138.0.0.0 Safari/537.36 Edg/138.0.0.0","WebKit","Edge","138.0.0.0","Windows","10.0","https://app.prolific.com/","en-US,en;q=0.9,en-ZA;q=0.8","606e3cce02e2e8a8c965ca75","6877649eabb845cf142cd221","6893aa9a6eca4cb6274a6c99","1","606e3cce02e2e8a8c965ca75","1","2025-08-06T19:32:58.648Z","","","","StressQ","","","","","","","","","","","50","","","","","","","","","","","","","","","","","","","","","","","","","","",""
"13199","","<div style=""width:500px;"">
  <p>What best describes how you currently feel?</p>
  </div>","100","html-slider-response","22","845730","0.0-7.0-4.1","216","1","2025-08-06 19:19:03","36c45c0696341be0efffe67d72a12abb","102.221.201.8","Mozilla/5.0 (Windows NT 10.0; Win64; x64) AppleWebKit/537.36 (KHTML, like Gecko) Chrome/138.0.0.0 Safari/537.36 Edg/138.0.0.0","WebKit","Edge","138.0.0.0","Windows","10.0","https://app.prolific.com/","en-US,en;q=0.9,en-ZA;q=0.8","606e3cce02e2e8a8c965ca75","6877649eabb845cf142cd221","6893aa9a6eca4cb6274a6c99","1","606e3cce02e2e8a8c965ca75","1","2025-08-06T19:33:11.849Z","","","","MotivationQ","","","","","","","","","","","50","","","","","","","","","","","","","","","","","","","","","","","","","","",""
"","","","","ctl-task-cpt","23","891934","0.0-7.0-0.2","216","1","2025-08-06 19:19:03","36c45c0696341be0efffe67d72a12abb","102.221.201.8","Mozilla/5.0 (Windows NT 10.0; Win64; x64) AppleWebKit/537.36 (KHTML, like Gecko) Chrome/138.0.0.0 Safari/537.36 Edg/138.0.0.0","WebKit","Edge","138.0.0.0","Windows","10.0","https://app.prolific.com/","en-US,en;q=0.9,en-ZA;q=0.8","606e3cce02e2e8a8c965ca75","6877649eabb845cf142cd221","6893aa9a6eca4cb6274a6c99","1","606e3cce02e2e8a8c965ca75","1","2025-08-06T19:33:58.052Z","","","","","","","","","","","","","","","","win-only","3","g1:SW,g2:NE","0.8","3","0","848073.9","11848.3","16854.2","43198.2","1","4","4","6","2","-4","-4","0","0","0","5005.9","3000","-2250","[""up"",""right""]","{""num_key_presses"":4,""num_perfect"":3,""num_errors"":0,""num_randdir"":1,""num_randdir_good_moves"":1,""num_whilered"":0,""num_whileblue"":0,""num_blue"":3,""num_good_moves"":4}","[414.0714133126395,421.57142761775424,0.1,414.0714133126395,421.57142761775424,103.1,414.0714133126395,421.57142761775424,208.2,414.0714133126395,421.57142761775424,311.8,414.0714133126395,421.57142761775424,411.9,414.0714133126395,421.57142761775424,512.4,414.0714133126395,421.57142761775424,618.9,414.0714133126395,421.57142761775424,720.8,414.0714133126395,421.57142761775424,822.9,414.0714133126395,421.57142761775424,929.8,414.0714133126395,421.57142761775424,1036.8,414.0714133126395,421.57142761775424,1137.7,414.0714133126395,421.57142761775424,1248.7,414.0714133126395,421.57142761775424,1354.4,414.0714133126395,421.57142761775424,1462.1,414.0714133126395,421.57142761775424,1562.2,414.0714133126395,421.57142761775424,1665.5,414.0714133126395,421.57142761775424,1770,414.0714133126395,421.57142761775424,1875.1,414.0714133126395,421.57142761775424,1979.6,414.0714133126395,421.57142761775424,2086.4,414.0714133126395,421.57142761775424,2186.4,414.0714133126395,421.57142761775424,2287.2,414.0714133126395,421.57142761775424,2394.5,414.0714133126395,421.57142761775424,2501.1,414.0714133126395,421.57142761775424,2604,414.0714133126395,421.57142761775424,2712.7,414.0714133126395,421.57142761775424,2819.9,421.5714133126395,406.57142761775424,2926.1,429.0714133126395,399.07142761775424,3028.9,437.8214133126395,392.82142761775424,3135.3,447.8214133126395,391.57142761775424,3242.5,455.3214133126395,391.57142761775424,3349.8,456.5714133126395,392.82142761775424,3450,451.5714133126395,397.82142761775424,3552.6,440.3214133126395,406.57142761775424,3654.1,437.8214133126395,406.57142761775424,3757,426.5714133126395,409.07142761775424,3863.3,405.3214133126395,431.57142761775424,3963.9,394.0714133126395,451.57142761775424,4066.8,385.3214133126395,462.82142761775424,4167.1,379.0714133126395,469.07142761775424,4268.6,379.0714133126395,469.07142761775424,4380.4,379.0714133126395,469.07142761775424,4481.9,379.0714133126395,469.07142761775424,4582.1,379.0714133126395,469.07142761775424,4684.6,379.0714133126395,469.07142761775424,4792.1,379.0714133126395,469.07142761775424,4895.3,379.0714133126395,469.07142761775424,4999.4]","[5099.6,5099.6,2672.7,2015.5,411.4,""smooth"",""up"",""up"",""good_move"",9576.1,4476,2793.9,5100.1,1682.1,""smooth"",""up"",""up"",""good_move"",19755,10178.5,2806.5,16475,473.5,""smooth"",""up"",""up"",""good_move"",24084.9,4329.7,2949.8,19755.2,1379.9,""oops"",""right"",""right"",""good_move""]"
"24658","","<div style=""width:500px;"">
  <p>What determined the result of this run?</p>
  </div>","0","html-slider-response","24","916593","0.0-7.0-1.2","216","1","2025-08-06 19:19:03","36c45c0696341be0efffe67d72a12abb","102.221.201.8","Mozilla/5.0 (Windows NT 10.0; Win64; x64) AppleWebKit/537.36 (KHTML, like Gecko) Chrome/138.0.0.0 Safari/537.36 Edg/138.0.0.0","WebKit","Edge","138.0.0.0","Windows","10.0","https://app.prolific.com/","en-US,en;q=0.9,en-ZA;q=0.8","606e3cce02e2e8a8c965ca75","6877649eabb845cf142cd221","6893aa9a6eca4cb6274a6c99","1","606e3cce02e2e8a8c965ca75","1","2025-08-06T19:34:22.711Z","","","","AttribQ","","","","","","","","","","","50","","","","","","","","","","","","","","","","","","","","","","","","","","",""
"8883","","<div style=""width:500px;"">
  <p>How much control did you have over the ball?</p>
  </div>","92","html-slider-response","25","925477","0.0-7.0-2.2","216","1","2025-08-06 19:19:03","36c45c0696341be0efffe67d72a12abb","102.221.201.8","Mozilla/5.0 (Windows NT 10.0; Win64; x64) AppleWebKit/537.36 (KHTML, like Gecko) Chrome/138.0.0.0 Safari/537.36 Edg/138.0.0.0","WebKit","Edge","138.0.0.0","Windows","10.0","https://app.prolific.com/","en-US,en;q=0.9,en-ZA;q=0.8","606e3cce02e2e8a8c965ca75","6877649eabb845cf142cd221","6893aa9a6eca4cb6274a6c99","1","606e3cce02e2e8a8c965ca75","1","2025-08-06T19:34:31.596Z","","","","ControlQ","","","","","","","","","","","50","","","","","","","","","","","","","","","","","","","","","","","","","","",""
"3246","","<div style=""width:500px;"">
  <p>How would you describe your current emotional state?</p>
  </div>","0","html-slider-response","26","928726","0.0-7.0-3.2","216","1","2025-08-06 19:19:03","36c45c0696341be0efffe67d72a12abb","102.221.201.8","Mozilla/5.0 (Windows NT 10.0; Win64; x64) AppleWebKit/537.36 (KHTML, like Gecko) Chrome/138.0.0.0 Safari/537.36 Edg/138.0.0.0","WebKit","Edge","138.0.0.0","Windows","10.0","https://app.prolific.com/","en-US,en;q=0.9,en-ZA;q=0.8","606e3cce02e2e8a8c965ca75","6877649eabb845cf142cd221","6893aa9a6eca4cb6274a6c99","1","606e3cce02e2e8a8c965ca75","1","2025-08-06T19:34:34.844Z","","","","StressQ","","","","","","","","","","","50","","","","","","","","","","","","","","","","","","","","","","","","","","",""
"5447","","<div style=""width:500px;"">
  <p>What best describes how you currently feel?</p>
  </div>","98","html-slider-response","27","934175","0.0-7.0-4.2","216","1","2025-08-06 19:19:03","36c45c0696341be0efffe67d72a12abb","102.221.201.8","Mozilla/5.0 (Windows NT 10.0; Win64; x64) AppleWebKit/537.36 (KHTML, like Gecko) Chrome/138.0.0.0 Safari/537.36 Edg/138.0.0.0","WebKit","Edge","138.0.0.0","Windows","10.0","https://app.prolific.com/","en-US,en;q=0.9,en-ZA;q=0.8","606e3cce02e2e8a8c965ca75","6877649eabb845cf142cd221","6893aa9a6eca4cb6274a6c99","1","606e3cce02e2e8a8c965ca75","1","2025-08-06T19:34:40.293Z","","","","MotivationQ","","","","","","","","","","","50","","","","","","","","","","","","","","","","","","","","","","","","","","",""
"","","","","ctl-task-cpt","28","968723","0.0-7.0-0.3","216","1","2025-08-06 19:19:03","36c45c0696341be0efffe67d72a12abb","102.221.201.8","Mozilla/5.0 (Windows NT 10.0; Win64; x64) AppleWebKit/537.36 (KHTML, like Gecko) Chrome/138.0.0.0 Safari/537.36 Edg/138.0.0.0","WebKit","Edge","138.0.0.0","Windows","10.0","https://app.prolific.com/","en-US,en;q=0.9,en-ZA;q=0.8","606e3cce02e2e8a8c965ca75","6877649eabb845cf142cd221","6893aa9a6eca4cb6274a6c99","1","606e3cce02e2e8a8c965ca75","1","2025-08-06T19:35:14.841Z","","","","","","","","","","","","","","","","win-only","3","g1:SW,g2:NE","0.7","4","0","936519","5251.8","10258.7","31528.1","1","4","8","6","1","1","1","1","0","0.007575757575757576","5006.9","3000","1590","[""down"",""left""]","{""num_key_presses"":4,""num_perfect"":4,""num_errors"":0,""num_randdir"":0,""num_randdir_good_moves"":0,""num_whilered"":0,""num_whileblue"":0,""num_blue"":3,""num_good_moves"":4}","[420.3214133126395,415.32142761775424,0.7,420.3214133126395,415.32142761775424,103.7,420.3214133126395,415.32142761775424,208.4,420.3214133126395,415.32142761775424,310.5,420.3214133126395,415.32142761775424,412.3,420.3214133126395,415.32142761775424,517.4,420.3214133126395,415.32142761775424,618,420.3214133126395,415.32142761775424,723.5,420.3214133126395,415.32142761775424,825.1,420.3214133126395,415.32142761775424,929.6,420.3214133126395,415.32142761775424,1030.2,420.3214133126395,415.32142761775424,1136.7,420.3214133126395,415.32142761775424,1236.9,420.3214133126395,415.32142761775424,1342.9,420.3214133126395,415.32142761775424,1452.6,420.3214133126395,415.32142761775424,1554.1,420.3214133126395,415.32142761775424,1661.4,420.3214133126395,415.32142761775424,1761.5,420.3214133126395,415.32142761775424,1867.9,420.3214133126395,415.32142761775424,1970,420.3214133126395,415.32142761775424,2077.2,420.3214133126395,415.32142761775424,2178,420.3214133126395,415.32142761775424,2285.5,420.3214133126395,415.32142761775424,2390.2,420.3214133126395,415.32142761775424,2492.3,420.3214133126395,415.32142761775424,2594,420.3214133126395,415.32142761775424,2702.1,420.3214133126395,415.32142761775424,2805.3,420.3214133126395,415.32142761775424,2907.3,420.3214133126395,415.32142761775424,3010.4,420.3214133126395,415.32142761775424,3116.3,420.3214133126395,415.32142761775424,3217.4,420.3214133126395,415.32142761775424,3318.6,420.3214133126395,415.32142761775424,3427.3,420.3214133126395,415.32142761775424,3529,420.3214133126395,415.32142761775424,3635.1,420.3214133126395,415.32142761775424,3737.7,420.3214133126395,415.32142761775424,3843.8,420.3214133126395,415.32142761775424,3944.3,420.3214133126395,415.32142761775424,4054.5,420.3214133126395,415.32142761775424,4161,420.3214133126395,415.32142761775424,4267.6,420.3214133126395,415.32142761775424,4376.1,420.3214133126395,415.32142761775424,4482.6,420.3214133126395,415.32142761775424,4583.5,420.3214133126395,415.32142761775424,4691.7,420.3214133126395,415.32142761775424,4795.1,420.3214133126395,415.32142761775424,4900.5]","[1544.2,1544.2,1000,0,544.2,""smooth"",""down"",""down"",""good_move"",11682,10137.4,2709.5,8510.5,462,""smooth"",""down"",""down"",""good_move"",18428.5,6746.3,3023,14902.3,503.3,""smooth"",""left"",""left"",""good_move"",21140.4,2711.4,2234.7,18429,476.7,""smooth"",""left"",""left"",""good_move""]"
"8524","","<div style=""width:500px;"">
  <p>What determined the result of this run?</p>
  </div>","100","html-slider-response","29","977251","0.0-7.0-1.3","216","1","2025-08-06 19:19:03","36c45c0696341be0efffe67d72a12abb","102.221.201.8","Mozilla/5.0 (Windows NT 10.0; Win64; x64) AppleWebKit/537.36 (KHTML, like Gecko) Chrome/138.0.0.0 Safari/537.36 Edg/138.0.0.0","WebKit","Edge","138.0.0.0","Windows","10.0","https://app.prolific.com/","en-US,en;q=0.9,en-ZA;q=0.8","606e3cce02e2e8a8c965ca75","6877649eabb845cf142cd221","6893aa9a6eca4cb6274a6c99","1","606e3cce02e2e8a8c965ca75","1","2025-08-06T19:35:23.370Z","","","","AttribQ","","","","","","","","","","","50","","","","","","","","","","","","","","","","","","","","","","","","","","",""
"14350","","<div style=""width:500px;"">
  <p>How much control did you have over the ball?</p>
  </div>","100","html-slider-response","30","991611","0.0-7.0-2.3","216","1","2025-08-06 19:19:03","36c45c0696341be0efffe67d72a12abb","102.221.201.8","Mozilla/5.0 (Windows NT 10.0; Win64; x64) AppleWebKit/537.36 (KHTML, like Gecko) Chrome/138.0.0.0 Safari/537.36 Edg/138.0.0.0","WebKit","Edge","138.0.0.0","Windows","10.0","https://app.prolific.com/","en-US,en;q=0.9,en-ZA;q=0.8","606e3cce02e2e8a8c965ca75","6877649eabb845cf142cd221","6893aa9a6eca4cb6274a6c99","1","606e3cce02e2e8a8c965ca75","1","2025-08-06T19:35:37.729Z","","","","ControlQ","","","","","","","","","","","50","","","","","","","","","","","","","","","","","","","","","","","","","","",""
"8800","","<div style=""width:500px;"">
  <p>How would you describe your current emotional state?</p>
  </div>","0","html-slider-response","31","1000412","0.0-7.0-3.3","216","1","2025-08-06 19:19:03","36c45c0696341be0efffe67d72a12abb","102.221.201.8","Mozilla/5.0 (Windows NT 10.0; Win64; x64) AppleWebKit/537.36 (KHTML, like Gecko) Chrome/138.0.0.0 Safari/537.36 Edg/138.0.0.0","WebKit","Edge","138.0.0.0","Windows","10.0","https://app.prolific.com/","en-US,en;q=0.9,en-ZA;q=0.8","606e3cce02e2e8a8c965ca75","6877649eabb845cf142cd221","6893aa9a6eca4cb6274a6c99","1","606e3cce02e2e8a8c965ca75","1","2025-08-06T19:35:46.531Z","","","","StressQ","","","","","","","","","","","50","","","","","","","","","","","","","","","","","","","","","","","","","","",""
"3387","","<div style=""width:500px;"">
  <p>What best describes how you currently feel?</p>
  </div>","100","html-slider-response","32","1003801","0.0-7.0-4.3","216","1","2025-08-06 19:19:03","36c45c0696341be0efffe67d72a12abb","102.221.201.8","Mozilla/5.0 (Windows NT 10.0; Win64; x64) AppleWebKit/537.36 (KHTML, like Gecko) Chrome/138.0.0.0 Safari/537.36 Edg/138.0.0.0","WebKit","Edge","138.0.0.0","Windows","10.0","https://app.prolific.com/","en-US,en;q=0.9,en-ZA;q=0.8","606e3cce02e2e8a8c965ca75","6877649eabb845cf142cd221","6893aa9a6eca4cb6274a6c99","1","606e3cce02e2e8a8c965ca75","1","2025-08-06T19:35:49.919Z","","","","MotivationQ","","","","","","","","","","","50","","","","","","","","","","","","","","","","","","","","","","","","","","",""
"","","","","ctl-task-cpt","33","1023390","0.0-7.0-0.4","216","1","2025-08-06 19:19:03","36c45c0696341be0efffe67d72a12abb","102.221.201.8","Mozilla/5.0 (Windows NT 10.0; Win64; x64) AppleWebKit/537.36 (KHTML, like Gecko) Chrome/138.0.0.0 Safari/537.36 Edg/138.0.0.0","WebKit","Edge","138.0.0.0","Windows","10.0","https://app.prolific.com/","en-US,en;q=0.9,en-ZA;q=0.8","606e3cce02e2e8a8c965ca75","6877649eabb845cf142cd221","6893aa9a6eca4cb6274a6c99","1","606e3cce02e2e8a8c965ca75","1","2025-08-06T19:36:09.508Z","","","","","","","","","","","","","","","","win-only","2","g1:SE,g2:NW","0.6","5","0","1006145.8","2726","7733.1","16579.3","1","4","4","6","2","-4","-4","0","1","0","5007.1","3000","-2220","[""left"",""up""]","{""num_key_presses"":2,""num_perfect"":0,""num_errors"":0,""num_randdir"":2,""num_randdir_good_moves"":1,""num_whilered"":0,""num_whileblue"":0,""num_blue"":0,""num_good_moves"":1}","[429.0714133126395,414.07142761775424,0.2,429.0714133126395,414.07142761775424,106.4,429.0714133126395,414.07142761775424,206.4,429.0714133126395,414.07142761775424,308.3,429.0714133126395,414.07142761775424,410.4,429.0714133126395,414.07142761775424,511.5,429.0714133126395,414.07142761775424,614.5,429.0714133126395,414.07142761775424,715.2,429.0714133126395,414.07142761775424,825.9,429.0714133126395,414.07142761775424,930.5,429.0714133126395,414.07142761775424,1031.1,429.0714133126395,414.07142761775424,1140.2,429.0714133126395,414.07142761775424,1246,429.0714133126395,414.07142761775424,1357.3,429.0714133126395,414.07142761775424,1461.4,429.0714133126395,414.07142761775424,1575,429.0714133126395,414.07142761775424,1687.4,429.0714133126395,414.07142761775424,1789.8,429.0714133126395,414.07142761775424,1891.8,429.0714133126395,414.07142761775424,1996.2,429.0714133126395,414.07142761775424,2097.9,429.0714133126395,414.07142761775424,2203.9,429.0714133126395,414.07142761775424,2305,429.0714133126395,414.07142761775424,2411.6,429.0714133126395,414.07142761775424,2515.1,429.0714133126395,414.07142761775424,2615.6,429.0714133126395,414.07142761775424,2721.7,429.0714133126395,414.07142761775424,2822.9,429.0714133126395,414.07142761775424,2924.5,429.0714133126395,414.07142761775424,3028.6,429.0714133126395,414.07142761775424,3140.3,429.0714133126395,414.07142761775424,3244,429.0714133126395,414.07142761775424,3344.2,429.0714133126395,414.07142761775424,3444.4,429.0714133126395,414.07142761775424,3551.8,429.0714133126395,414.07142761775424,3652.8,429.0714133126395,414.07142761775424,3756,429.0714133126395,414.07142761775424,3863.2,429.0714133126395,414.07142761775424,3967,429.0714133126395,414.07142761775424,4070.6,429.0714133126395,414.07142761775424,4170.7,429.0714133126395,414.07142761775424,4282.4,429.0714133126395,414.07142761775424,4392.2,429.0714133126395,414.07142761775424,4493.6,429.0714133126395,414.07142761775424,4594.2,429.0714133126395,414.07142761775424,4695.1,429.0714133126395,414.07142761775424,4804,429.0714133126395,414.07142761775424,4904.2]","[1896.4,1896.4,1000,0,896.4,""oops"",""up"",""left"",""good_move"",5423.1,3526.3,1576.6,1896.8,1949.7,""oops"",""up"",""down"",""bad_move""]"
"7884","","<div style=""width:500px;"">
  <p>What determined the result of this run?</p>
  </div>","100","html-slider-response","34","1031277","0.0-7.0-1.4","216","1","2025-08-06 19:19:03","36c45c0696341be0efffe67d72a12abb","102.221.201.8","Mozilla/5.0 (Windows NT 10.0; Win64; x64) AppleWebKit/537.36 (KHTML, like Gecko) Chrome/138.0.0.0 Safari/537.36 Edg/138.0.0.0","WebKit","Edge","138.0.0.0","Windows","10.0","https://app.prolific.com/","en-US,en;q=0.9,en-ZA;q=0.8","606e3cce02e2e8a8c965ca75","6877649eabb845cf142cd221","6893aa9a6eca4cb6274a6c99","1","606e3cce02e2e8a8c965ca75","1","2025-08-06T19:36:17.397Z","","","","AttribQ","","","","","","","","","","","50","","","","","","","","","","","","","","","","","","","","","","","","","","",""
"6319","","<div style=""width:500px;"">
  <p>How much control did you have over the ball?</p>
  </div>","100","html-slider-response","35","1037607","0.0-7.0-2.4","216","1","2025-08-06 19:19:03","36c45c0696341be0efffe67d72a12abb","102.221.201.8","Mozilla/5.0 (Windows NT 10.0; Win64; x64) AppleWebKit/537.36 (KHTML, like Gecko) Chrome/138.0.0.0 Safari/537.36 Edg/138.0.0.0","WebKit","Edge","138.0.0.0","Windows","10.0","https://app.prolific.com/","en-US,en;q=0.9,en-ZA;q=0.8","606e3cce02e2e8a8c965ca75","6877649eabb845cf142cd221","6893aa9a6eca4cb6274a6c99","1","606e3cce02e2e8a8c965ca75","1","2025-08-06T19:36:23.725Z","","","","ControlQ","","","","","","","","","","","50","","","","","","","","","","","","","","","","","","","","","","","","","","",""
"7069","","<div style=""width:500px;"">
  <p>How would you describe your current emotional state?</p>
  </div>","0","html-slider-response","36","1044680","0.0-7.0-3.4","216","1","2025-08-06 19:19:03","36c45c0696341be0efffe67d72a12abb","102.221.201.8","Mozilla/5.0 (Windows NT 10.0; Win64; x64) AppleWebKit/537.36 (KHTML, like Gecko) Chrome/138.0.0.0 Safari/537.36 Edg/138.0.0.0","WebKit","Edge","138.0.0.0","Windows","10.0","https://app.prolific.com/","en-US,en;q=0.9,en-ZA;q=0.8","606e3cce02e2e8a8c965ca75","6877649eabb845cf142cd221","6893aa9a6eca4cb6274a6c99","1","606e3cce02e2e8a8c965ca75","1","2025-08-06T19:36:30.799Z","","","","StressQ","","","","","","","","","","","50","","","","","","","","","","","","","","","","","","","","","","","","","","",""
"17062","","<div style=""width:500px;"">
  <p>What best describes how you currently feel?</p>
  </div>","98","html-slider-response","37","1061751","0.0-7.0-4.4","216","1","2025-08-06 19:19:03","36c45c0696341be0efffe67d72a12abb","102.221.201.8","Mozilla/5.0 (Windows NT 10.0; Win64; x64) AppleWebKit/537.36 (KHTML, like Gecko) Chrome/138.0.0.0 Safari/537.36 Edg/138.0.0.0","WebKit","Edge","138.0.0.0","Windows","10.0","https://app.prolific.com/","en-US,en;q=0.9,en-ZA;q=0.8","606e3cce02e2e8a8c965ca75","6877649eabb845cf142cd221","6893aa9a6eca4cb6274a6c99","1","606e3cce02e2e8a8c965ca75","1","2025-08-06T19:36:47.869Z","","","","MotivationQ","","","","","","","","","","","50","","","","","","","","","","","","","","","","","","","","","","","","","","",""
"","","","","ctl-task-cpt","38","1100976","0.0-7.0-0.5","216","1","2025-08-06 19:19:03","36c45c0696341be0efffe67d72a12abb","102.221.201.8","Mozilla/5.0 (Windows NT 10.0; Win64; x64) AppleWebKit/537.36 (KHTML, like Gecko) Chrome/138.0.0.0 Safari/537.36 Edg/138.0.0.0","WebKit","Edge","138.0.0.0","Windows","10.0","https://app.prolific.com/","en-US,en;q=0.9,en-ZA;q=0.8","606e3cce02e2e8a8c965ca75","6877649eabb845cf142cd221","6893aa9a6eca4cb6274a6c99","1","606e3cce02e2e8a8c965ca75","1","2025-08-06T19:37:27.094Z","","","","","","","","","","","","","","","","win-only","1","g1:NE,g2:SW","0.5","6","0","1064093.7","3319.3","8329.8","36220.5","1","4","8","6","2","-8","-9","0","0","0","5010.5","3000","-2090","[""down"",""left""]","{""num_key_presses"":6,""num_perfect"":2,""num_errors"":1,""num_randdir"":3,""num_randdir_good_moves"":2,""num_whilered"":0,""num_whileblue"":0,""num_blue"":2,""num_good_moves"":4}","[416.5714133126395,420.32142761775424,0.3,416.5714133126395,420.32142761775424,113,416.5714133126395,420.32142761775424,213.8,416.5714133126395,420.32142761775424,317.6,416.5714133126395,420.32142761775424,419.2,416.5714133126395,420.32142761775424,525.5,416.5714133126395,420.32142761775424,626.6,416.5714133126395,420.32142761775424,731.6,416.5714133126395,420.32142761775424,834.1,416.5714133126395,420.32142761775424,934.3,416.5714133126395,420.32142761775424,1036.7,416.5714133126395,420.32142761775424,1145.6,416.5714133126395,420.32142761775424,1246.1,416.5714133126395,420.32142761775424,1346.4,416.5714133126395,420.32142761775424,1447.1,416.5714133126395,420.32142761775424,1551.2,416.5714133126395,420.32142761775424,1652,416.5714133126395,420.32142761775424,1762.7,416.5714133126395,420.32142761775424,1864,416.5714133126395,420.32142761775424,1967.5,416.5714133126395,420.32142761775424,2067.8,416.5714133126395,420.32142761775424,2179.6,416.5714133126395,420.32142761775424,2284.9,416.5714133126395,420.32142761775424,2388.1,416.5714133126395,420.32142761775424,2492.6,416.5714133126395,420.32142761775424,2594,416.5714133126395,420.32142761775424,2694.7,416.5714133126395,420.32142761775424,2795.5,416.5714133126395,420.32142761775424,2909.4,416.5714133126395,420.32142761775424,3010.9,416.5714133126395,420.32142761775424,3111,416.5714133126395,420.32142761775424,3211.3,416.5714133126395,420.32142761775424,3311.6,416.5714133126395,420.32142761775424,3412.4,416.5714133126395,420.32142761775424,3514.8,416.5714133126395,420.32142761775424,3616.9,416.5714133126395,420.32142761775424,3726.1,416.5714133126395,420.32142761775424,3830.6,416.5714133126395,420.32142761775424,3932.3,416.5714133126395,420.32142761775424,4042.3,416.5714133126395,420.32142761775424,4143.2,416.5714133126395,420.32142761775424,4249.4,416.5714133126395,420.32142761775424,4361,416.5714133126395,420.32142761775424,4461.1,416.5714133126395,420.32142761775424,4565.4,416.5714133126395,420.32142761775424,4665.4,416.5714133126395,420.32142761775424,4766.3,416.5714133126395,420.32142761775424,4867.6,416.5714133126395,420.32142761775424,4976.2]","[4709.1,4709.1,2319,2011.7,378.4,""smooth"",""down"",""down"",""good_move"",7475.7,2766.2,2275.1,4709.6,491,""smooth"",""down"",""down"",""good_move"",10204.9,2729,2294.8,7475.9,434.2,""oops"",""down"",""right"",""bad_move"",13367.1,3161.8,2663.3,10205.3,498.5,""oops"",""down"",""left"",""good_move"",19226.6,5858.9,2670.4,16889.8,-333.6,""error"",""-"",""-"",""no_move"",24178.3,4951.4,2382.5,20230.5,1565.3,""oops"",""down"",""left"",""good_move""]"
"17035","","<div style=""width:500px;"">
  <p>What determined the result of this run?</p>
  </div>","3","html-slider-response","39","1118012","0.0-7.0-1.5","216","1","2025-08-06 19:19:03","36c45c0696341be0efffe67d72a12abb","102.221.201.8","Mozilla/5.0 (Windows NT 10.0; Win64; x64) AppleWebKit/537.36 (KHTML, like Gecko) Chrome/138.0.0.0 Safari/537.36 Edg/138.0.0.0","WebKit","Edge","138.0.0.0","Windows","10.0","https://app.prolific.com/","en-US,en;q=0.9,en-ZA;q=0.8","606e3cce02e2e8a8c965ca75","6877649eabb845cf142cd221","6893aa9a6eca4cb6274a6c99","1","606e3cce02e2e8a8c965ca75","1","2025-08-06T19:37:44.130Z","","","","AttribQ","","","","","","","","","","","50","","","","","","","","","","","","","","","","","","","","","","","","","","",""
"20822","","<div style=""width:500px;"">
  <p>How much control did you have over the ball?</p>
  </div>","100","html-slider-response","40","1138839","0.0-7.0-2.5","216","1","2025-08-06 19:19:03","36c45c0696341be0efffe67d72a12abb","102.221.201.8","Mozilla/5.0 (Windows NT 10.0; Win64; x64) AppleWebKit/537.36 (KHTML, like Gecko) Chrome/138.0.0.0 Safari/537.36 Edg/138.0.0.0","WebKit","Edge","138.0.0.0","Windows","10.0","https://app.prolific.com/","en-US,en;q=0.9,en-ZA;q=0.8","606e3cce02e2e8a8c965ca75","6877649eabb845cf142cd221","6893aa9a6eca4cb6274a6c99","1","606e3cce02e2e8a8c965ca75","1","2025-08-06T19:38:04.958Z","","","","ControlQ","","","","","","","","","","","50","","","","","","","","","","","","","","","","","","","","","","","","","","",""
"4783","","<div style=""width:500px;"">
  <p>How would you describe your current emotional state?</p>
  </div>","0","html-slider-response","41","1143634","0.0-7.0-3.5","216","1","2025-08-06 19:19:03","36c45c0696341be0efffe67d72a12abb","102.221.201.8","Mozilla/5.0 (Windows NT 10.0; Win64; x64) AppleWebKit/537.36 (KHTML, like Gecko) Chrome/138.0.0.0 Safari/537.36 Edg/138.0.0.0","WebKit","Edge","138.0.0.0","Windows","10.0","https://app.prolific.com/","en-US,en;q=0.9,en-ZA;q=0.8","606e3cce02e2e8a8c965ca75","6877649eabb845cf142cd221","6893aa9a6eca4cb6274a6c99","1","606e3cce02e2e8a8c965ca75","1","2025-08-06T19:38:09.753Z","","","","StressQ","","","","","","","","","","","50","","","","","","","","","","","","","","","","","","","","","","","","","","",""
"6577","","<div style=""width:500px;"">
  <p>What best describes how you currently feel?</p>
  </div>","78","html-slider-response","42","1150218","0.0-7.0-4.5","216","1","2025-08-06 19:19:03","36c45c0696341be0efffe67d72a12abb","102.221.201.8","Mozilla/5.0 (Windows NT 10.0; Win64; x64) AppleWebKit/537.36 (KHTML, like Gecko) Chrome/138.0.0.0 Safari/537.36 Edg/138.0.0.0","WebKit","Edge","138.0.0.0","Windows","10.0","https://app.prolific.com/","en-US,en;q=0.9,en-ZA;q=0.8","606e3cce02e2e8a8c965ca75","6877649eabb845cf142cd221","6893aa9a6eca4cb6274a6c99","1","606e3cce02e2e8a8c965ca75","1","2025-08-06T19:38:16.336Z","","","","MotivationQ","","","","","","","","","","","50","","","","","","","","","","","","","","","","","","","","","","","","","","",""
"","","","","ctl-task-cpt","43","1190827","0.0-7.0-0.6","216","1","2025-08-06 19:19:03","36c45c0696341be0efffe67d72a12abb","102.221.201.8","Mozilla/5.0 (Windows NT 10.0; Win64; x64) AppleWebKit/537.36 (KHTML, like Gecko) Chrome/138.0.0.0 Safari/537.36 Edg/138.0.0.0","WebKit","Edge","138.0.0.0","Windows","10.0","https://app.prolific.com/","en-US,en;q=0.9,en-ZA;q=0.8","606e3cce02e2e8a8c965ca75","6877649eabb845cf142cd221","6893aa9a6eca4cb6274a6c99","1","606e3cce02e2e8a8c965ca75","1","2025-08-06T19:38:56.946Z","","","","","","","","","","","","","","","","win-only","0","g1:NW,g2:SE","0.4","7","0","1152560.7","2132.7","7137.2","37591.1","1","4","4","6","1","1","0","0","0","0","5004.4","3000","650","[""left"",""up""]","{""num_key_presses"":6,""num_perfect"":3,""num_errors"":1,""num_randdir"":2,""num_randdir_good_moves"":1,""num_whilered"":0,""num_whileblue"":1,""num_blue"":4,""num_good_moves"":5}","[417.8214133126395,412.82142761775424,0.4,417.8214133126395,412.82142761775424,105.9,417.8214133126395,412.82142761775424,212.6,417.8214133126395,412.82142761775424,320.5,417.8214133126395,412.82142761775424,421.6,417.8214133126395,412.82142761775424,524.8,417.8214133126395,412.82142761775424,637.5,417.8214133126395,412.82142761775424,740,417.8214133126395,412.82142761775424,840.5,387.8214133126395,384.07142761775424,947.1,376.5714133126395,374.07142761775424,1050,369.0714133126395,371.57142761775424,1152,366.5714133126395,371.57142761775424,1257,366.5714133126395,371.57142761775424,1357.7,366.5714133126395,371.57142761775424,1461.3,366.5714133126395,371.57142761775424,1568.1,359.0714133126395,356.57142761775424,1674.2,354.0714133126395,347.82142761775424,1776.6,354.0714133126395,347.82142761775424,1887,354.0714133126395,347.82142761775424,1997.7,354.0714133126395,347.82142761775424,2097.7,354.0714133126395,347.82142761775424,2200.6,354.0714133126395,347.82142761775424,2301.5,354.0714133126395,347.82142761775424,2403.1,354.0714133126395,347.82142761775424,2505.3,354.0714133126395,347.82142761775424,2615.9,354.0714133126395,347.82142761775424,2718.7,354.0714133126395,347.82142761775424,2820.9,354.0714133126395,347.82142761775424,2922.2,354.0714133126395,347.82142761775424,3023.3,354.0714133126395,347.82142761775424,3125.5,354.0714133126395,347.82142761775424,3231.2,354.0714133126395,347.82142761775424,3332.5,354.0714133126395,347.82142761775424,3437.3,354.0714133126395,347.82142761775424,3549.8,354.0714133126395,347.82142761775424,3651.6,354.0714133126395,347.82142761775424,3755.3,354.0714133126395,347.82142761775424,3867.3,354.0714133126395,347.82142761775424,3967.7,354.0714133126395,347.82142761775424,4067.9,354.0714133126395,347.82142761775424,4180.1,354.0714133126395,347.82142761775424,4286.3,354.0714133126395,347.82142761775424,4391.5,354.0714133126395,347.82142761775424,4493.7,354.0714133126395,347.82142761775424,4597.5,354.0714133126395,347.82142761775424,4701.9,354.0714133126395,347.82142761775424,4806.2,354.0714133126395,347.82142761775424,4910.2]","[9302.3,9302.3,2611.6,6137.7,553,""oops"",""up"",""up"",""good_move"",12375.4,3072.6,2557.5,9302.8,515.2,""smooth"",""up"",""up"",""good_move"",15665.6,3289.3,2762.6,12376.4,526.6,""smooth"",""left"",""left"",""good_move"",19087.8,3421.7,2953.9,15666.1,467.8,""oops"",""left"",""down"",""bad_move"",26165.2,7077.1,2838.2,22832.6,494.4,""while_blue"",""up"",""up"",""good_move"",30311.7,4145.8,2533.5,26165.9,1612.3,""smooth"",""left"",""left"",""good_move""]"
"20204","","<div style=""width:500px;"">
  <p>What determined the result of this run?</p>
  </div>","5","html-slider-response","44","1211035","0.0-7.0-1.6","216","1","2025-08-06 19:19:03","36c45c0696341be0efffe67d72a12abb","102.221.201.8","Mozilla/5.0 (Windows NT 10.0; Win64; x64) AppleWebKit/537.36 (KHTML, like Gecko) Chrome/138.0.0.0 Safari/537.36 Edg/138.0.0.0","WebKit","Edge","138.0.0.0","Windows","10.0","https://app.prolific.com/","en-US,en;q=0.9,en-ZA;q=0.8","606e3cce02e2e8a8c965ca75","6877649eabb845cf142cd221","6893aa9a6eca4cb6274a6c99","1","606e3cce02e2e8a8c965ca75","1","2025-08-06T19:39:17.154Z","","","","AttribQ","","","","","","","","","","","50","","","","","","","","","","","","","","","","","","","","","","","","","","",""
"4441","","<div style=""width:500px;"">
  <p>How much control did you have over the ball?</p>
  </div>","85","html-slider-response","45","1215480","0.0-7.0-2.6","216","1","2025-08-06 19:19:03","36c45c0696341be0efffe67d72a12abb","102.221.201.8","Mozilla/5.0 (Windows NT 10.0; Win64; x64) AppleWebKit/537.36 (KHTML, like Gecko) Chrome/138.0.0.0 Safari/537.36 Edg/138.0.0.0","WebKit","Edge","138.0.0.0","Windows","10.0","https://app.prolific.com/","en-US,en;q=0.9,en-ZA;q=0.8","606e3cce02e2e8a8c965ca75","6877649eabb845cf142cd221","6893aa9a6eca4cb6274a6c99","1","606e3cce02e2e8a8c965ca75","1","2025-08-06T19:39:21.598Z","","","","ControlQ","","","","","","","","","","","50","","","","","","","","","","","","","","","","","","","","","","","","","","",""
"5349","","<div style=""width:500px;"">
  <p>How would you describe your current emotional state?</p>
  </div>","12","html-slider-response","46","1220835","0.0-7.0-3.6","216","1","2025-08-06 19:19:03","36c45c0696341be0efffe67d72a12abb","102.221.201.8","Mozilla/5.0 (Windows NT 10.0; Win64; x64) AppleWebKit/537.36 (KHTML, like Gecko) Chrome/138.0.0.0 Safari/537.36 Edg/138.0.0.0","WebKit","Edge","138.0.0.0","Windows","10.0","https://app.prolific.com/","en-US,en;q=0.9,en-ZA;q=0.8","606e3cce02e2e8a8c965ca75","6877649eabb845cf142cd221","6893aa9a6eca4cb6274a6c99","1","606e3cce02e2e8a8c965ca75","1","2025-08-06T19:39:26.953Z","","","","StressQ","","","","","","","","","","","50","","","","","","","","","","","","","","","","","","","","","","","","","","",""
"6412","","<div style=""width:500px;"">
  <p>What best describes how you currently feel?</p>
  </div>","91","html-slider-response","47","1227253","0.0-7.0-4.6","216","1","2025-08-06 19:19:03","36c45c0696341be0efffe67d72a12abb","102.221.201.8","Mozilla/5.0 (Windows NT 10.0; Win64; x64) AppleWebKit/537.36 (KHTML, like Gecko) Chrome/138.0.0.0 Safari/537.36 Edg/138.0.0.0","WebKit","Edge","138.0.0.0","Windows","10.0","https://app.prolific.com/","en-US,en;q=0.9,en-ZA;q=0.8","606e3cce02e2e8a8c965ca75","6877649eabb845cf142cd221","6893aa9a6eca4cb6274a6c99","1","606e3cce02e2e8a8c965ca75","1","2025-08-06T19:39:33.371Z","","","","MotivationQ","","","","","","","","","","","50","","","","","","","","","","","","","","","","","","","","","","","","","","",""
"","","","","ctl-task-cpt","48","1269119","0.0-7.0-0.7","216","1","2025-08-06 19:19:03","36c45c0696341be0efffe67d72a12abb","102.221.201.8","Mozilla/5.0 (Windows NT 10.0; Win64; x64) AppleWebKit/537.36 (KHTML, like Gecko) Chrome/138.0.0.0 Safari/537.36 Edg/138.0.0.0","WebKit","Edge","138.0.0.0","Windows","10.0","https://app.prolific.com/","en-US,en;q=0.9,en-ZA;q=0.8","606e3cce02e2e8a8c965ca75","6877649eabb845cf142cd221","6893aa9a6eca4cb6274a6c99","1","606e3cce02e2e8a8c965ca75","1","2025-08-06T19:40:15.237Z","","","","","","","","","","","","","","","","win-only","1","g1:NE,g2:SW","0.3","8","0","1229597.3","3543.2","8553.9","38846.8","1","4","8","6","2","-8","-8","0","0","0","5010.7","3000","-1975","[""down"",""left""]","{""num_key_presses"":5,""num_perfect"":2,""num_errors"":0,""num_randdir"":3,""num_randdir_good_moves"":1,""num_whilered"":0,""num_whileblue"":0,""num_blue"":3,""num_good_moves"":3}","[417.8214133126395,421.57142761775424,0.2,417.8214133126395,421.57142761775424,100.9,417.8214133126395,421.57142761775424,203.2,417.8214133126395,421.57142761775424,306.4,417.8214133126395,421.57142761775424,413.5,417.8214133126395,421.57142761775424,519.8,417.8214133126395,421.57142761775424,620.5,417.8214133126395,421.57142761775424,732.4,417.8214133126395,421.57142761775424,835,417.8214133126395,421.57142761775424,937.3,417.8214133126395,421.57142761775424,1046.3,417.8214133126395,421.57142761775424,1151.4,417.8214133126395,421.57142761775424,1252.1,417.8214133126395,421.57142761775424,1352.2,417.8214133126395,421.57142761775424,1466.2,417.8214133126395,421.57142761775424,1567.5,417.8214133126395,421.57142761775424,1678.8,417.8214133126395,421.57142761775424,1779.5,417.8214133126395,421.57142761775424,1884,417.8214133126395,421.57142761775424,1984.6,417.8214133126395,421.57142761775424,2091.3,417.8214133126395,421.57142761775424,2192.9,417.8214133126395,421.57142761775424,2294.7,417.8214133126395,421.57142761775424,2399.3,417.8214133126395,421.57142761775424,2503.3,417.8214133126395,421.57142761775424,2607.2,417.8214133126395,421.57142761775424,2707.8,420.3214133126395,414.07142761775424,2811.8,430.3214133126395,395.32142761775424,2912.8,440.3214133126395,391.57142761775424,3020.5,442.8214133126395,390.32142761775424,3122.2,442.8214133126395,390.32142761775424,3229.2,442.8214133126395,390.32142761775424,3330.9,442.8214133126395,390.32142761775424,3433.6,442.8214133126395,389.07142761775424,3534,442.8214133126395,389.07142761775424,3647.1,442.8214133126395,389.07142761775424,3747.1,442.8214133126395,389.07142761775424,3847.2,442.8214133126395,389.07142761775424,3951.6,442.8214133126395,389.07142761775424,4053.8,442.8214133126395,389.07142761775424,4161.4,442.8214133126395,389.07142761775424,4264.1,442.8214133126395,389.07142761775424,4365.5,442.8214133126395,389.07142761775424,4468.7,442.8214133126395,389.07142761775424,4578.8,442.8214133126395,389.07142761775424,4681.6,442.8214133126395,389.07142761775424,4784,442.8214133126395,389.07142761775424,4892.6,442.8214133126395,389.07142761775424,4995.8]","[4943.5,4943.5,2388.3,2002.5,552.7,""oops"",""down"",""down"",""good_move"",9424.7,4479.2,2930.3,4945.5,1548.9,""smooth"",""down"",""down"",""good_move"",12937.9,3512.9,2721.8,9425.1,791.1,""oops"",""down"",""right"",""bad_move"",16120.3,3182.1,2587,12938.2,595.1,""smooth"",""down"",""down"",""good_move"",27062.6,10942,1979.5,24594.3,488.8,""oops"",""left"",""up"",""bad_move""]"
"6874","","<div style=""width:500px;"">
  <p>What determined the result of this run?</p>
  </div>","4","html-slider-response","49","1275996","0.0-7.0-1.7","216","1","2025-08-06 19:19:03","36c45c0696341be0efffe67d72a12abb","102.221.201.8","Mozilla/5.0 (Windows NT 10.0; Win64; x64) AppleWebKit/537.36 (KHTML, like Gecko) Chrome/138.0.0.0 Safari/537.36 Edg/138.0.0.0","WebKit","Edge","138.0.0.0","Windows","10.0","https://app.prolific.com/","en-US,en;q=0.9,en-ZA;q=0.8","606e3cce02e2e8a8c965ca75","6877649eabb845cf142cd221","6893aa9a6eca4cb6274a6c99","1","606e3cce02e2e8a8c965ca75","1","2025-08-06T19:40:22.115Z","","","","AttribQ","","","","","","","","","","","50","","","","","","","","","","","","","","","","","","","","","","","","","","",""
"15971","","<div style=""width:500px;"">
  <p>How much control did you have over the ball?</p>
  </div>","91","html-slider-response","50","1291973","0.0-7.0-2.7","216","1","2025-08-06 19:19:03","36c45c0696341be0efffe67d72a12abb","102.221.201.8","Mozilla/5.0 (Windows NT 10.0; Win64; x64) AppleWebKit/537.36 (KHTML, like Gecko) Chrome/138.0.0.0 Safari/537.36 Edg/138.0.0.0","WebKit","Edge","138.0.0.0","Windows","10.0","https://app.prolific.com/","en-US,en;q=0.9,en-ZA;q=0.8","606e3cce02e2e8a8c965ca75","6877649eabb845cf142cd221","6893aa9a6eca4cb6274a6c99","1","606e3cce02e2e8a8c965ca75","1","2025-08-06T19:40:38.092Z","","","","ControlQ","","","","","","","","","","","50","","","","","","","","","","","","","","","","","","","","","","","","","","",""
"6658","","<div style=""width:500px;"">
  <p>How would you describe your current emotional state?</p>
  </div>","7","html-slider-response","51","1298636","0.0-7.0-3.7","216","1","2025-08-06 19:19:03","36c45c0696341be0efffe67d72a12abb","102.221.201.8","Mozilla/5.0 (Windows NT 10.0; Win64; x64) AppleWebKit/537.36 (KHTML, like Gecko) Chrome/138.0.0.0 Safari/537.36 Edg/138.0.0.0","WebKit","Edge","138.0.0.0","Windows","10.0","https://app.prolific.com/","en-US,en;q=0.9,en-ZA;q=0.8","606e3cce02e2e8a8c965ca75","6877649eabb845cf142cd221","6893aa9a6eca4cb6274a6c99","1","606e3cce02e2e8a8c965ca75","1","2025-08-06T19:40:44.755Z","","","","StressQ","","","","","","","","","","","50","","","","","","","","","","","","","","","","","","","","","","","","","","",""
"19249","","<div style=""width:500px;"">
  <p>What best describes how you currently feel?</p>
  </div>","95","html-slider-response","52","1317893","0.0-7.0-4.7","216","1","2025-08-06 19:19:03","36c45c0696341be0efffe67d72a12abb","102.221.201.8","Mozilla/5.0 (Windows NT 10.0; Win64; x64) AppleWebKit/537.36 (KHTML, like Gecko) Chrome/138.0.0.0 Safari/537.36 Edg/138.0.0.0","WebKit","Edge","138.0.0.0","Windows","10.0","https://app.prolific.com/","en-US,en;q=0.9,en-ZA;q=0.8","606e3cce02e2e8a8c965ca75","6877649eabb845cf142cd221","6893aa9a6eca4cb6274a6c99","1","606e3cce02e2e8a8c965ca75","1","2025-08-06T19:41:04.011Z","","","","MotivationQ","","","","","","","","","","","50","","","","","","","","","","","","","","","","","","","","","","","","","","",""
"","","","","ctl-task-cpt","53","1349919","0.0-7.0-0.8","216","1","2025-08-06 19:19:03","36c45c0696341be0efffe67d72a12abb","102.221.201.8","Mozilla/5.0 (Windows NT 10.0; Win64; x64) AppleWebKit/537.36 (KHTML, like Gecko) Chrome/138.0.0.0 Safari/537.36 Edg/138.0.0.0","WebKit","Edge","138.0.0.0","Windows","10.0","https://app.prolific.com/","en-US,en;q=0.9,en-ZA;q=0.8","606e3cce02e2e8a8c965ca75","6877649eabb845cf142cd221","6893aa9a6eca4cb6274a6c99","1","606e3cce02e2e8a8c965ca75","1","2025-08-06T19:41:36.038Z","","","","","","","","","","","","","","","","win-only","2","g1:SE,g2:NW","0.4","9","0","1320237.7","1723.8","6732.4","29015.2","1","4","8","6","2","-8","-8","0","0","0","5008.6","3000","-1775","[""left"",""up""]","{""num_key_presses"":4,""num_perfect"":1,""num_errors"":0,""num_randdir"":3,""num_randdir_good_moves"":1,""num_whilered"":0,""num_whileblue"":0,""num_blue"":2,""num_good_moves"":2}","[421.5714133126395,426.57142761775424,0.3,421.5714133126395,426.57142761775424,105.5,421.5714133126395,426.57142761775424,208.9,421.5714133126395,426.57142761775424,314.1,421.5714133126395,426.57142761775424,418.5,421.5714133126395,426.57142761775424,524,421.5714133126395,426.57142761775424,632.5,421.5714133126395,426.57142761775424,745.7,421.5714133126395,426.57142761775424,848,421.5714133126395,426.57142761775424,966.2,421.5714133126395,426.57142761775424,1078.7,421.5714133126395,426.57142761775424,1178.7,421.5714133126395,426.57142761775424,1281.7,421.5714133126395,426.57142761775424,1393.1,421.5714133126395,426.57142761775424,1494.7,421.5714133126395,426.57142761775424,1597.8,421.5714133126395,426.57142761775424,1710,421.5714133126395,426.57142761775424,1811.7,421.5714133126395,426.57142761775424,1913,421.5714133126395,426.57142761775424,2018.3,421.5714133126395,426.57142761775424,2118.8,421.5714133126395,426.57142761775424,2224.3,421.5714133126395,426.57142761775424,2332.6,421.5714133126395,426.57142761775424,2435.4,421.5714133126395,426.57142761775424,2536.4,421.5714133126395,426.57142761775424,2636.5,421.5714133126395,426.57142761775424,2739.1,421.5714133126395,426.57142761775424,2846.8,421.5714133126395,426.57142761775424,2949.6,421.5714133126395,426.57142761775424,3054.1,421.5714133126395,426.57142761775424,3158,421.5714133126395,426.57142761775424,3262.5,421.5714133126395,426.57142761775424,3362.7,421.5714133126395,426.57142761775424,3465.9,421.5714133126395,426.57142761775424,3568.1,421.5714133126395,426.57142761775424,3668.3,421.5714133126395,426.57142761775424,3774.3,421.5714133126395,426.57142761775424,3879.5,421.5714133126395,426.57142761775424,3988.1,421.5714133126395,426.57142761775424,4092.4,421.5714133126395,426.57142761775424,4192.5,421.5714133126395,426.57142761775424,4294.7,421.5714133126395,426.57142761775424,4409.1,421.5714133126395,426.57142761775424,4509.9,421.5714133126395,426.57142761775424,4610.2,421.5714133126395,426.57142761775424,4714.8,421.5714133126395,426.57142761775424,4824.1,421.5714133126395,426.57142761775424,4927]","[1425.8,1425.8,1000,0,425.8,""oops"",""up"",""up"",""good_move"",7411.5,5985.4,2245.9,4414.3,751.4,""smooth"",""up"",""up"",""good_move"",10007,2595,2115.6,7412,479.4,""oops"",""up"",""down"",""bad_move"",17259.3,7252,3041.5,13681.2,536.6,""oops"",""up"",""down"",""bad_move""]"
"6480","","<div style=""width:500px;"">
  <p>What determined the result of this run?</p>
  </div>","0","html-slider-response","54","1356407","0.0-7.0-1.8","216","1","2025-08-06 19:19:03","36c45c0696341be0efffe67d72a12abb","102.221.201.8","Mozilla/5.0 (Windows NT 10.0; Win64; x64) AppleWebKit/537.36 (KHTML, like Gecko) Chrome/138.0.0.0 Safari/537.36 Edg/138.0.0.0","WebKit","Edge","138.0.0.0","Windows","10.0","https://app.prolific.com/","en-US,en;q=0.9,en-ZA;q=0.8","606e3cce02e2e8a8c965ca75","6877649eabb845cf142cd221","6893aa9a6eca4cb6274a6c99","1","606e3cce02e2e8a8c965ca75","1","2025-08-06T19:41:42.525Z","","","","AttribQ","","","","","","","","","","","50","","","","","","","","","","","","","","","","","","","","","","","","","","",""
"14954","","<div style=""width:500px;"">
  <p>How much control did you have over the ball?</p>
  </div>","93","html-slider-response","55","1371366","0.0-7.0-2.8","216","1","2025-08-06 19:19:03","36c45c0696341be0efffe67d72a12abb","102.221.201.8","Mozilla/5.0 (Windows NT 10.0; Win64; x64) AppleWebKit/537.36 (KHTML, like Gecko) Chrome/138.0.0.0 Safari/537.36 Edg/138.0.0.0","WebKit","Edge","138.0.0.0","Windows","10.0","https://app.prolific.com/","en-US,en;q=0.9,en-ZA;q=0.8","606e3cce02e2e8a8c965ca75","6877649eabb845cf142cd221","6893aa9a6eca4cb6274a6c99","1","606e3cce02e2e8a8c965ca75","1","2025-08-06T19:41:57.485Z","","","","ControlQ","","","","","","","","","","","50","","","","","","","","","","","","","","","","","","","","","","","","","","",""
"23733","","<div style=""width:500px;"">
  <p>How would you describe your current emotional state?</p>
  </div>","9","html-slider-response","56","1395113","0.0-7.0-3.8","216","1","2025-08-06 19:19:03","36c45c0696341be0efffe67d72a12abb","102.221.201.8","Mozilla/5.0 (Windows NT 10.0; Win64; x64) AppleWebKit/537.36 (KHTML, like Gecko) Chrome/138.0.0.0 Safari/537.36 Edg/138.0.0.0","WebKit","Edge","138.0.0.0","Windows","10.0","https://app.prolific.com/","en-US,en;q=0.9,en-ZA;q=0.8","606e3cce02e2e8a8c965ca75","6877649eabb845cf142cd221","6893aa9a6eca4cb6274a6c99","1","606e3cce02e2e8a8c965ca75","1","2025-08-06T19:42:21.231Z","","","","StressQ","","","","","","","","","","","50","","","","","","","","","","","","","","","","","","","","","","","","","","",""
"4668","","<div style=""width:500px;"">
  <p>What best describes how you currently feel?</p>
  </div>","85","html-slider-response","57","1399782","0.0-7.0-4.8","216","1","2025-08-06 19:19:03","36c45c0696341be0efffe67d72a12abb","102.221.201.8","Mozilla/5.0 (Windows NT 10.0; Win64; x64) AppleWebKit/537.36 (KHTML, like Gecko) Chrome/138.0.0.0 Safari/537.36 Edg/138.0.0.0","WebKit","Edge","138.0.0.0","Windows","10.0","https://app.prolific.com/","en-US,en;q=0.9,en-ZA;q=0.8","606e3cce02e2e8a8c965ca75","6877649eabb845cf142cd221","6893aa9a6eca4cb6274a6c99","1","606e3cce02e2e8a8c965ca75","1","2025-08-06T19:42:25.901Z","","","","MotivationQ","","","","","","","","","","","50","","","","","","","","","","","","","","","","","","","","","","","","","","",""
"","","","","ctl-task-cpt","58","1431102","0.0-7.0-0.9","216","1","2025-08-06 19:19:03","36c45c0696341be0efffe67d72a12abb","102.221.201.8","Mozilla/5.0 (Windows NT 10.0; Win64; x64) AppleWebKit/537.36 (KHTML, like Gecko) Chrome/138.0.0.0 Safari/537.36 Edg/138.0.0.0","WebKit","Edge","138.0.0.0","Windows","10.0","https://app.prolific.com/","en-US,en;q=0.9,en-ZA;q=0.8","606e3cce02e2e8a8c965ca75","6877649eabb845cf142cd221","6893aa9a6eca4cb6274a6c99","1","606e3cce02e2e8a8c965ca75","1","2025-08-06T19:42:57.220Z","","","","","","","","","","","","","","","","win-only","1","g1:NE,g2:SW","0.5","10","0","1402125.9","3505.8","8514.5","28290.8","1","4","4","6","1","1","1","1","0","0.007575757575757576","5008.7","3000","740","[""up"",""right""]","{""num_key_presses"":6,""num_perfect"":4,""num_errors"":0,""num_randdir"":2,""num_randdir_good_moves"":1,""num_whilered"":0,""num_whileblue"":0,""num_blue"":0,""num_good_moves"":5}","[411.5714133126395,419.07142761775424,0.5,411.5714133126395,419.07142761775424,105.2,411.5714133126395,419.07142761775424,212.4,411.5714133126395,419.07142761775424,313.3,411.5714133126395,419.07142761775424,415.6,411.5714133126395,419.07142761775424,517.6,411.5714133126395,419.07142761775424,628.9,411.5714133126395,419.07142761775424,740,411.5714133126395,419.07142761775424,840.4,411.5714133126395,419.07142761775424,947.9,411.5714133126395,419.07142761775424,1057.1,411.5714133126395,419.07142761775424,1169.4,411.5714133126395,419.07142761775424,1283.2,411.5714133126395,419.07142761775424,1385,411.5714133126395,419.07142761775424,1495.7,411.5714133126395,419.07142761775424,1595.9,411.5714133126395,419.07142761775424,1696.5,411.5714133126395,419.07142761775424,1802.4,411.5714133126395,419.07142761775424,1908.5,411.5714133126395,419.07142761775424,2015.1,411.5714133126395,419.07142761775424,2124.8,411.5714133126395,419.07142761775424,2228.1,411.5714133126395,419.07142761775424,2336.8,411.5714133126395,419.07142761775424,2446.4,411.5714133126395,419.07142761775424,2554.3,411.5714133126395,419.07142761775424,2667.5,411.5714133126395,419.07142761775424,2769.3,411.5714133126395,419.07142761775424,2873.9,411.5714133126395,419.07142761775424,2982.1,411.5714133126395,419.07142761775424,3084.3,411.5714133126395,419.07142761775424,3194,411.5714133126395,419.07142761775424,3303.9,411.5714133126395,419.07142761775424,3412.2,411.5714133126395,419.07142761775424,3512.9,411.5714133126395,419.07142761775424,3624.1,411.5714133126395,419.07142761775424,3724.1,411.5714133126395,419.07142761775424,3833.5,411.5714133126395,419.07142761775424,3933.5,411.5714133126395,419.07142761775424,4043,411.5714133126395,419.07142761775424,4143.3,411.5714133126395,419.07142761775424,4245.8,411.5714133126395,419.07142761775424,4347.1,411.5714133126395,419.07142761775424,4454.7,411.5714133126395,419.07142761775424,4556.1,411.5714133126395,419.07142761775424,4660.4,411.5714133126395,419.07142761775424,4764.6,411.5714133126395,419.07142761775424,4875.3,411.5714133126395,419.07142761775424,4981.7]","[1528,1528,1000,0,528,""oops"",""up"",""right"",""good_move"",4471,2942.2,2330,1528.8,612.2,""smooth"",""up"",""up"",""good_move"",7741.7,3270.2,2739.5,4471.5,530.7,""smooth"",""up"",""up"",""good_move"",12539,4797.2,2450.9,7741.8,2346.3,""oops"",""right"",""down"",""bad_move"",16677.2,4137.7,2031.4,12539.5,2106.3,""smooth"",""right"",""right"",""good_move"",19558.6,2881.4,2462.3,16677.4,419.1,""smooth"",""up"",""up"",""good_move""]"
"10249","","<div style=""width:500px;"">
  <p>What determined the result of this run?</p>
  </div>","2","html-slider-response","59","1441353","0.0-7.0-1.9","216","1","2025-08-06 19:19:03","36c45c0696341be0efffe67d72a12abb","102.221.201.8","Mozilla/5.0 (Windows NT 10.0; Win64; x64) AppleWebKit/537.36 (KHTML, like Gecko) Chrome/138.0.0.0 Safari/537.36 Edg/138.0.0.0","WebKit","Edge","138.0.0.0","Windows","10.0","https://app.prolific.com/","en-US,en;q=0.9,en-ZA;q=0.8","606e3cce02e2e8a8c965ca75","6877649eabb845cf142cd221","6893aa9a6eca4cb6274a6c99","1","606e3cce02e2e8a8c965ca75","1","2025-08-06T19:43:07.471Z","","","","AttribQ","","","","","","","","","","","50","","","","","","","","","","","","","","","","","","","","","","","","","","",""
"4949","","<div style=""width:500px;"">
  <p>How much control did you have over the ball?</p>
  </div>","87","html-slider-response","60","1446303","0.0-7.0-2.9","216","1","2025-08-06 19:19:03","36c45c0696341be0efffe67d72a12abb","102.221.201.8","Mozilla/5.0 (Windows NT 10.0; Win64; x64) AppleWebKit/537.36 (KHTML, like Gecko) Chrome/138.0.0.0 Safari/537.36 Edg/138.0.0.0","WebKit","Edge","138.0.0.0","Windows","10.0","https://app.prolific.com/","en-US,en;q=0.9,en-ZA;q=0.8","606e3cce02e2e8a8c965ca75","6877649eabb845cf142cd221","6893aa9a6eca4cb6274a6c99","1","606e3cce02e2e8a8c965ca75","1","2025-08-06T19:43:12.421Z","","","","ControlQ","","","","","","","","","","","50","","","","","","","","","","","","","","","","","","","","","","","","","","",""
"4071","","<div style=""width:500px;"">
  <p>How would you describe your current emotional state?</p>
  </div>","16","html-slider-response","61","1450375","0.0-7.0-3.9","216","1","2025-08-06 19:19:03","36c45c0696341be0efffe67d72a12abb","102.221.201.8","Mozilla/5.0 (Windows NT 10.0; Win64; x64) AppleWebKit/537.36 (KHTML, like Gecko) Chrome/138.0.0.0 Safari/537.36 Edg/138.0.0.0","WebKit","Edge","138.0.0.0","Windows","10.0","https://app.prolific.com/","en-US,en;q=0.9,en-ZA;q=0.8","606e3cce02e2e8a8c965ca75","6877649eabb845cf142cd221","6893aa9a6eca4cb6274a6c99","1","606e3cce02e2e8a8c965ca75","1","2025-08-06T19:43:16.493Z","","","","StressQ","","","","","","","","","","","50","","","","","","","","","","","","","","","","","","","","","","","","","","",""
"12345","","<div style=""width:500px;"">
  <p>What best describes how you currently feel?</p>
  </div>","95","html-slider-response","62","1462722","0.0-7.0-4.9","216","1","2025-08-06 19:19:03","36c45c0696341be0efffe67d72a12abb","102.221.201.8","Mozilla/5.0 (Windows NT 10.0; Win64; x64) AppleWebKit/537.36 (KHTML, like Gecko) Chrome/138.0.0.0 Safari/537.36 Edg/138.0.0.0","WebKit","Edge","138.0.0.0","Windows","10.0","https://app.prolific.com/","en-US,en;q=0.9,en-ZA;q=0.8","606e3cce02e2e8a8c965ca75","6877649eabb845cf142cd221","6893aa9a6eca4cb6274a6c99","1","606e3cce02e2e8a8c965ca75","1","2025-08-06T19:43:28.840Z","","","","MotivationQ","","","","","","","","","","","50","","","","","","","","","","","","","","","","","","","","","","","","","","",""
"","","","","ctl-task-cpt","63","1580290","0.0-7.0-0.10","216","1","2025-08-06 19:19:03","36c45c0696341be0efffe67d72a12abb","102.221.201.8","Mozilla/5.0 (Windows NT 10.0; Win64; x64) AppleWebKit/537.36 (KHTML, like Gecko) Chrome/138.0.0.0 Safari/537.36 Edg/138.0.0.0","WebKit","Edge","138.0.0.0","Windows","10.0","https://app.prolific.com/","en-US,en;q=0.9,en-ZA;q=0.8","606e3cce02e2e8a8c965ca75","6877649eabb845cf142cd221","6893aa9a6eca4cb6274a6c99","1","606e3cce02e2e8a8c965ca75","1","2025-08-06T19:45:26.408Z","","","","","","","","","","","","","","","","win-only","2","g1:SE,g2:NW","0.6","11","0","1465064.9","65243.2","70245.5","114547.3","1","4","8","6","2","-8","-9","0","1","0","5002.3","3000","-1060","[""left"",""up""]","{""num_key_presses"":10,""num_perfect"":5,""num_errors"":1,""num_randdir"":4,""num_randdir_good_moves"":1,""num_whilered"":0,""num_whileblue"":0,""num_blue"":3,""num_good_moves"":6}","[419.0714133126395,426.57142761775424,0.2,419.0714133126395,426.57142761775424,102.1,419.0714133126395,426.57142761775424,220,419.0714133126395,426.57142761775424,326.7,419.0714133126395,426.57142761775424,440.2,419.0714133126395,426.57142761775424,544.5,419.0714133126395,426.57142761775424,645.9,419.0714133126395,426.57142761775424,757.6,419.0714133126395,426.57142761775424,860.2,419.0714133126395,426.57142761775424,961.3,419.0714133126395,426.57142761775424,1062.8,419.0714133126395,426.57142761775424,1167.2,419.0714133126395,426.57142761775424,1281.8,419.0714133126395,426.57142761775424,1392.6,419.0714133126395,426.57142761775424,1501.7,419.0714133126395,426.57142761775424,1613.8,419.0714133126395,426.57142761775424,1717.5,419.0714133126395,426.57142761775424,1823.4,419.0714133126395,426.57142761775424,1930.4,419.0714133126395,426.57142761775424,2031.4,419.0714133126395,426.57142761775424,2141,419.0714133126395,426.57142761775424,2242.6,419.0714133126395,426.57142761775424,2353.7,419.0714133126395,426.57142761775424,2458.9,419.0714133126395,426.57142761775424,2561.9,419.0714133126395,426.57142761775424,2669.7,419.0714133126395,426.57142761775424,2780.2,419.0714133126395,426.57142761775424,2880.7,419.0714133126395,426.57142761775424,2992.4,419.0714133126395,426.57142761775424,3099.4,419.0714133126395,426.57142761775424,3203.2,419.0714133126395,426.57142761775424,3310.5,419.0714133126395,426.57142761775424,3423.2,419.0714133126395,426.57142761775424,3539.9,419.0714133126395,426.57142761775424,3652.8,419.0714133126395,426.57142761775424,3757,419.0714133126395,426.57142761775424,3869.6,419.0714133126395,426.57142761775424,3970.9,419.0714133126395,426.57142761775424,4076.2,419.0714133126395,426.57142761775424,4179.5,419.0714133126395,426.57142761775424,4286.6,419.0714133126395,426.57142761775424,4392.1,419.0714133126395,426.57142761775424,4499.7,419.0714133126395,426.57142761775424,4608.3,419.0714133126395,426.57142761775424,4720.6,419.0714133126395,426.57142761775424,4832.3,419.0714133126395,426.57142761775424,4941.2]","[3040.7,3040.7,1000,0,2040.7,""smooth"",""up"",""up"",""good_move"",6220.9,3179.6,2517.1,3041.3,662.5,""smooth"",""up"",""up"",""good_move"",9404.2,3183,1901.4,6221.2,1281.6,""oops"",""up"",""right"",""bad_move"",12280.9,2876.2,2338.1,9404.7,538.1,""smooth"",""up"",""up"",""good_move"",19228.4,6947.3,2592.3,16041.7,594.4,""oops"",""left"",""right"",""bad_move"",25837.4,6608.8,2503.3,22362.5,971.6,""oops"",""right"",""up"",""good_move"",27418.9,1581.3,2190.5,25837.6,-609.2,""error"",""-"",""-"",""no_move"",34480.4,7061.2,2057.4,31987,436,""oops"",""down"",""down"",""bad_move"",37790.4,3309.7,2192.6,34480.7,1117.1,""smooth"",""left"",""left"",""good_move"",41802,4011,1905.6,37791,2105.4,""smooth"",""left"",""left"",""good_move""]"
"10474","","<div style=""width:500px;"">
  <p>What determined the result of this run?</p>
  </div>","98","html-slider-response","64","1590765","0.0-7.0-1.10","216","1","2025-08-06 19:19:03","36c45c0696341be0efffe67d72a12abb","102.221.201.8","Mozilla/5.0 (Windows NT 10.0; Win64; x64) AppleWebKit/537.36 (KHTML, like Gecko) Chrome/138.0.0.0 Safari/537.36 Edg/138.0.0.0","WebKit","Edge","138.0.0.0","Windows","10.0","https://app.prolific.com/","en-US,en;q=0.9,en-ZA;q=0.8","606e3cce02e2e8a8c965ca75","6877649eabb845cf142cd221","6893aa9a6eca4cb6274a6c99","1","606e3cce02e2e8a8c965ca75","1","2025-08-06T19:45:36.883Z","","","","AttribQ","","","","","","","","","","","50","","","","","","","","","","","","","","","","","","","","","","","","","","",""
"12851","","<div style=""width:500px;"">
  <p>How much control did you have over the ball?</p>
  </div>","95","html-slider-response","65","1603617","0.0-7.0-2.10","216","1","2025-08-06 19:19:03","36c45c0696341be0efffe67d72a12abb","102.221.201.8","Mozilla/5.0 (Windows NT 10.0; Win64; x64) AppleWebKit/537.36 (KHTML, like Gecko) Chrome/138.0.0.0 Safari/537.36 Edg/138.0.0.0","WebKit","Edge","138.0.0.0","Windows","10.0","https://app.prolific.com/","en-US,en;q=0.9,en-ZA;q=0.8","606e3cce02e2e8a8c965ca75","6877649eabb845cf142cd221","6893aa9a6eca4cb6274a6c99","1","606e3cce02e2e8a8c965ca75","1","2025-08-06T19:45:49.735Z","","","","ControlQ","","","","","","","","","","","50","","","","","","","","","","","","","","","","","","","","","","","","","","",""
"3377","","<div style=""width:500px;"">
  <p>How would you describe your current emotional state?</p>
  </div>","8","html-slider-response","66","1606994","0.0-7.0-3.10","216","1","2025-08-06 19:19:03","36c45c0696341be0efffe67d72a12abb","102.221.201.8","Mozilla/5.0 (Windows NT 10.0; Win64; x64) AppleWebKit/537.36 (KHTML, like Gecko) Chrome/138.0.0.0 Safari/537.36 Edg/138.0.0.0","WebKit","Edge","138.0.0.0","Windows","10.0","https://app.prolific.com/","en-US,en;q=0.9,en-ZA;q=0.8","606e3cce02e2e8a8c965ca75","6877649eabb845cf142cd221","6893aa9a6eca4cb6274a6c99","1","606e3cce02e2e8a8c965ca75","1","2025-08-06T19:45:53.113Z","","","","StressQ","","","","","","","","","","","50","","","","","","","","","","","","","","","","","","","","","","","","","","",""
"5086","","<div style=""width:500px;"">
  <p>What best describes how you currently feel?</p>
  </div>","85","html-slider-response","67","1612081","0.0-7.0-4.10","216","1","2025-08-06 19:19:03","36c45c0696341be0efffe67d72a12abb","102.221.201.8","Mozilla/5.0 (Windows NT 10.0; Win64; x64) AppleWebKit/537.36 (KHTML, like Gecko) Chrome/138.0.0.0 Safari/537.36 Edg/138.0.0.0","WebKit","Edge","138.0.0.0","Windows","10.0","https://app.prolific.com/","en-US,en;q=0.9,en-ZA;q=0.8","606e3cce02e2e8a8c965ca75","6877649eabb845cf142cd221","6893aa9a6eca4cb6274a6c99","1","606e3cce02e2e8a8c965ca75","1","2025-08-06T19:45:58.199Z","","","","MotivationQ","","","","","","","","","","","50","","","","","","","","","","","","","","","","","","","","","","","","","","",""
"","","","","ctl-task-cpt","68","1662070","0.0-7.0-0.11","216","1","2025-08-06 19:19:03","36c45c0696341be0efffe67d72a12abb","102.221.201.8","Mozilla/5.0 (Windows NT 10.0; Win64; x64) AppleWebKit/537.36 (KHTML, like Gecko) Chrome/138.0.0.0 Safari/537.36 Edg/138.0.0.0","WebKit","Edge","138.0.0.0","Windows","10.0","https://app.prolific.com/","en-US,en;q=0.9,en-ZA;q=0.8","606e3cce02e2e8a8c965ca75","6877649eabb845cf142cd221","6893aa9a6eca4cb6274a6c99","1","606e3cce02e2e8a8c965ca75","1","2025-08-06T19:46:48.188Z","","","","","","","","","","","","","","","","win-only","0","g1:NW,g2:SE","0.7","12","0","1614424.2","19835.7","24843","46948.7","1","4","4","6","1","1","1","1","0","0.007575757575757576","5007.3","3000","1880","[""left"",""up""]","{""num_key_presses"":6,""num_perfect"":5,""num_errors"":0,""num_randdir"":1,""num_randdir_good_moves"":0,""num_whilered"":0,""num_whileblue"":0,""num_blue"":1,""num_good_moves"":5}","[416.5714133126395,426.57142761775424,0.3,416.5714133126395,426.57142761775424,114.1,416.5714133126395,426.57142761775424,217.6,416.5714133126395,426.57142761775424,327.2,416.5714133126395,426.57142761775424,427.7,416.5714133126395,426.57142761775424,530.4,416.5714133126395,426.57142761775424,636.2,416.5714133126395,426.57142761775424,748.4,416.5714133126395,426.57142761775424,860,416.5714133126395,426.57142761775424,970.4,416.5714133126395,426.57142761775424,1075.7,416.5714133126395,426.57142761775424,1187.7,416.5714133126395,426.57142761775424,1296.2,416.5714133126395,426.57142761775424,1407.5,416.5714133126395,426.57142761775424,1516.5,416.5714133126395,426.57142761775424,1624.2,416.5714133126395,426.57142761775424,1731.7,416.5714133126395,426.57142761775424,1842.7,416.5714133126395,426.57142761775424,1954.1,416.5714133126395,426.57142761775424,2069.1,416.5714133126395,426.57142761775424,2173.5,479.0714133126395,366.57142761775424,2282.3,477.8214133126395,349.07142761775424,2397.9,404.0714133126395,316.57142761775424,2512,387.8214133126395,321.57142761775424,2627.6,386.5714133126395,340.32142761775424,2740.5,389.0714133126395,346.57142761775424,2850,391.5714133126395,347.82142761775424,2954.7,391.5714133126395,347.82142761775424,3062.7,391.5714133126395,347.82142761775424,3171,391.5714133126395,347.82142761775424,3285.8,391.5714133126395,347.82142761775424,3401.5,391.5714133126395,347.82142761775424,3505.9,391.5714133126395,347.82142761775424,3610.8,391.5714133126395,347.82142761775424,3722.2,391.5714133126395,347.82142761775424,3838,391.5714133126395,347.82142761775424,3940.5,391.5714133126395,347.82142761775424,4049.6,391.5714133126395,347.82142761775424,4163.4,391.5714133126395,347.82142761775424,4264.4,391.5714133126395,347.82142761775424,4367.7,391.5714133126395,347.82142761775424,4472.2,391.5714133126395,347.82142761775424,4573.1,391.5714133126395,347.82142761775424,4679.8,391.5714133126395,347.82142761775424,4786.8,391.5714133126395,347.82142761775424,4900.7]","[4971.4,4971.4,2424.4,2017.6,529.4,""smooth"",""left"",""left"",""good_move"",8313.2,3341.4,2842.8,4971.8,498.6,""smooth"",""left"",""left"",""good_move"",12121.4,3808,2941.1,8313.4,866.9,""smooth"",""up"",""up"",""good_move"",15252.6,3130.6,2604.8,12122,525.8,""oops"",""up"",""down"",""bad_move"",18205.9,2952.9,2424.3,15253,528.6,""smooth"",""up"",""up"",""good_move"",21839.3,3633.2,3078,18206.1,555.2,""smooth"",""up"",""up"",""good_move""]"
"87729","","<div style=""width:500px;"">
  <p>What determined the result of this run?</p>
  </div>","95","html-slider-response","69","1749801","0.0-7.0-1.11","216","1","2025-08-06 19:19:03","36c45c0696341be0efffe67d72a12abb","102.221.201.8","Mozilla/5.0 (Windows NT 10.0; Win64; x64) AppleWebKit/537.36 (KHTML, like Gecko) Chrome/138.0.0.0 Safari/537.36 Edg/138.0.0.0","WebKit","Edge","138.0.0.0","Windows","10.0","https://app.prolific.com/","en-US,en;q=0.9,en-ZA;q=0.8","606e3cce02e2e8a8c965ca75","6877649eabb845cf142cd221","6893aa9a6eca4cb6274a6c99","1","606e3cce02e2e8a8c965ca75","1","2025-08-06T19:48:15.919Z","","","","AttribQ","","","","","","","","","","","50","","","","","","","","","","","","","","","","","","","","","","","","","","",""
"6543","","<div style=""width:500px;"">
  <p>How much control did you have over the ball?</p>
  </div>","90","html-slider-response","70","1756344","0.0-7.0-2.11","216","1","2025-08-06 19:19:03","36c45c0696341be0efffe67d72a12abb","102.221.201.8","Mozilla/5.0 (Windows NT 10.0; Win64; x64) AppleWebKit/537.36 (KHTML, like Gecko) Chrome/138.0.0.0 Safari/537.36 Edg/138.0.0.0","WebKit","Edge","138.0.0.0","Windows","10.0","https://app.prolific.com/","en-US,en;q=0.9,en-ZA;q=0.8","606e3cce02e2e8a8c965ca75","6877649eabb845cf142cd221","6893aa9a6eca4cb6274a6c99","1","606e3cce02e2e8a8c965ca75","1","2025-08-06T19:48:22.462Z","","","","ControlQ","","","","","","","","","","","50","","","","","","","","","","","","","","","","","","","","","","","","","","",""
"3723","","<div style=""width:500px;"">
  <p>How would you describe your current emotional state?</p>
  </div>","6","html-slider-response","71","1760068","0.0-7.0-3.11","216","1","2025-08-06 19:19:03","36c45c0696341be0efffe67d72a12abb","102.221.201.8","Mozilla/5.0 (Windows NT 10.0; Win64; x64) AppleWebKit/537.36 (KHTML, like Gecko) Chrome/138.0.0.0 Safari/537.36 Edg/138.0.0.0","WebKit","Edge","138.0.0.0","Windows","10.0","https://app.prolific.com/","en-US,en;q=0.9,en-ZA;q=0.8","606e3cce02e2e8a8c965ca75","6877649eabb845cf142cd221","6893aa9a6eca4cb6274a6c99","1","606e3cce02e2e8a8c965ca75","1","2025-08-06T19:48:26.186Z","","","","StressQ","","","","","","","","","","","50","","","","","","","","","","","","","","","","","","","","","","","","","","",""
"7027","","<div style=""width:500px;"">
  <p>What best describes how you currently feel?</p>
  </div>","77","html-slider-response","72","1767097","0.0-7.0-4.11","216","1","2025-08-06 19:19:03","36c45c0696341be0efffe67d72a12abb","102.221.201.8","Mozilla/5.0 (Windows NT 10.0; Win64; x64) AppleWebKit/537.36 (KHTML, like Gecko) Chrome/138.0.0.0 Safari/537.36 Edg/138.0.0.0","WebKit","Edge","138.0.0.0","Windows","10.0","https://app.prolific.com/","en-US,en;q=0.9,en-ZA;q=0.8","606e3cce02e2e8a8c965ca75","6877649eabb845cf142cd221","6893aa9a6eca4cb6274a6c99","1","606e3cce02e2e8a8c965ca75","1","2025-08-06T19:48:33.215Z","","","","MotivationQ","","","","","","","","","","","50","","","","","","","","","","","","","","","","","","","","","","","","","","",""
"","","","","ctl-task-cpt","73","1792355","0.0-7.0-0.12","216","1","2025-08-06 19:19:03","36c45c0696341be0efffe67d72a12abb","102.221.201.8","Mozilla/5.0 (Windows NT 10.0; Win64; x64) AppleWebKit/537.36 (KHTML, like Gecko) Chrome/138.0.0.0 Safari/537.36 Edg/138.0.0.0","WebKit","Edge","138.0.0.0","Windows","10.0","https://app.prolific.com/","en-US,en;q=0.9,en-ZA;q=0.8","606e3cce02e2e8a8c965ca75","6877649eabb845cf142cd221","6893aa9a6eca4cb6274a6c99","1","606e3cce02e2e8a8c965ca75","1","2025-08-06T19:48:58.473Z","","","","","","","","","","","","","","","","win-only","0","g1:NW,g2:SE","0.8","13","0","1769439.9","1077.7","6078.7","22227.4","1","4","8","6","1","1","1","2","1","0.015151515151515152","5001","3000","2195","[""left"",""up""]","{""num_key_presses"":4,""num_perfect"":4,""num_errors"":0,""num_randdir"":0,""num_randdir_good_moves"":0,""num_whilered"":0,""num_whileblue"":0,""num_blue"":1,""num_good_moves"":4}","[421.5714133126395,409.07142761775424,0.2,421.5714133126395,409.07142761775424,113.7,421.5714133126395,409.07142761775424,221.5,421.5714133126395,409.07142761775424,325.7,421.5714133126395,409.07142761775424,430.5,421.5714133126395,409.07142761775424,542.2,421.5714133126395,409.07142761775424,648,421.5714133126395,409.07142761775424,753.2,421.5714133126395,409.07142761775424,856.8,421.5714133126395,409.07142761775424,958,421.5714133126395,409.07142761775424,1058.1,421.5714133126395,409.07142761775424,1169.1,421.5714133126395,409.07142761775424,1276.3,421.5714133126395,409.07142761775424,1377.1,421.5714133126395,409.07142761775424,1483.9,421.5714133126395,409.07142761775424,1587.4,421.5714133126395,409.07142761775424,1700,421.5714133126395,409.07142761775424,1804.2,421.5714133126395,409.07142761775424,1917,421.5714133126395,409.07142761775424,2019.6,421.5714133126395,409.07142761775424,2128.2,421.5714133126395,409.07142761775424,2233.9,421.5714133126395,409.07142761775424,2339.8,421.5714133126395,409.07142761775424,2452.1,421.5714133126395,409.07142761775424,2568.6,421.5714133126395,409.07142761775424,2676.5,421.5714133126395,409.07142761775424,2791.1,421.5714133126395,409.07142761775424,2905.8,421.5714133126395,409.07142761775424,3019.7,421.5714133126395,409.07142761775424,3128.8,421.5714133126395,409.07142761775424,3243.3,421.5714133126395,409.07142761775424,3347.2,421.5714133126395,409.07142761775424,3457.2,421.5714133126395,409.07142761775424,3559.2,421.5714133126395,409.07142761775424,3664.2,421.5714133126395,409.07142761775424,3768.1,421.5714133126395,409.07142761775424,3870.1,421.5714133126395,409.07142761775424,3984.5,421.5714133126395,409.07142761775424,4089.2,421.5714133126395,409.07142761775424,4194,421.5714133126395,409.07142761775424,4298.3,421.5714133126395,409.07142761775424,4412.3,421.5714133126395,409.07142761775424,4525,421.5714133126395,409.07142761775424,4631.5,421.5714133126395,409.07142761775424,4737.4,421.5714133126395,409.07142761775424,4838.4,421.5714133126395,409.07142761775424,4946.7]","[1933.7,1933.7,1000,0,933.7,""smooth"",""left"",""left"",""good_move"",9671.6,7737.1,3402.4,5553.3,715.9,""smooth"",""left"",""left"",""good_move"",12846,3174.1,2696.3,9671.9,477.8,""smooth"",""up"",""up"",""good_move"",15874,3027.5,1853.4,12846.5,1174.1,""smooth"",""up"",""up"",""good_move""]"
"5087","","<div style=""width:500px;"">
  <p>What determined the result of this run?</p>
  </div>","100","html-slider-response","74","1797443","0.0-7.0-1.12","216","1","2025-08-06 19:19:03","36c45c0696341be0efffe67d72a12abb","102.221.201.8","Mozilla/5.0 (Windows NT 10.0; Win64; x64) AppleWebKit/537.36 (KHTML, like Gecko) Chrome/138.0.0.0 Safari/537.36 Edg/138.0.0.0","WebKit","Edge","138.0.0.0","Windows","10.0","https://app.prolific.com/","en-US,en;q=0.9,en-ZA;q=0.8","606e3cce02e2e8a8c965ca75","6877649eabb845cf142cd221","6893aa9a6eca4cb6274a6c99","1","606e3cce02e2e8a8c965ca75","1","2025-08-06T19:49:03.561Z","","","","AttribQ","","","","","","","","","","","50","","","","","","","","","","","","","","","","","","","","","","","","","","",""
"4570","","<div style=""width:500px;"">
  <p>How much control did you have over the ball?</p>
  </div>","87","html-slider-response","75","1802014","0.0-7.0-2.12","216","1","2025-08-06 19:19:03","36c45c0696341be0efffe67d72a12abb","102.221.201.8","Mozilla/5.0 (Windows NT 10.0; Win64; x64) AppleWebKit/537.36 (KHTML, like Gecko) Chrome/138.0.0.0 Safari/537.36 Edg/138.0.0.0","WebKit","Edge","138.0.0.0","Windows","10.0","https://app.prolific.com/","en-US,en;q=0.9,en-ZA;q=0.8","606e3cce02e2e8a8c965ca75","6877649eabb845cf142cd221","6893aa9a6eca4cb6274a6c99","1","606e3cce02e2e8a8c965ca75","1","2025-08-06T19:49:08.132Z","","","","ControlQ","","","","","","","","","","","50","","","","","","","","","","","","","","","","","","","","","","","","","","",""
"3812","","<div style=""width:500px;"">
  <p>How would you describe your current emotional state?</p>
  </div>","11","html-slider-response","76","1805827","0.0-7.0-3.12","216","1","2025-08-06 19:19:03","36c45c0696341be0efffe67d72a12abb","102.221.201.8","Mozilla/5.0 (Windows NT 10.0; Win64; x64) AppleWebKit/537.36 (KHTML, like Gecko) Chrome/138.0.0.0 Safari/537.36 Edg/138.0.0.0","WebKit","Edge","138.0.0.0","Windows","10.0","https://app.prolific.com/","en-US,en;q=0.9,en-ZA;q=0.8","606e3cce02e2e8a8c965ca75","6877649eabb845cf142cd221","6893aa9a6eca4cb6274a6c99","1","606e3cce02e2e8a8c965ca75","1","2025-08-06T19:49:11.945Z","","","","StressQ","","","","","","","","","","","50","","","","","","","","","","","","","","","","","","","","","","","","","","",""
"4829","","<div style=""width:500px;"">
  <p>What best describes how you currently feel?</p>
  </div>","79","html-slider-response","77","1810657","0.0-7.0-4.12","216","1","2025-08-06 19:19:03","36c45c0696341be0efffe67d72a12abb","102.221.201.8","Mozilla/5.0 (Windows NT 10.0; Win64; x64) AppleWebKit/537.36 (KHTML, like Gecko) Chrome/138.0.0.0 Safari/537.36 Edg/138.0.0.0","WebKit","Edge","138.0.0.0","Windows","10.0","https://app.prolific.com/","en-US,en;q=0.9,en-ZA;q=0.8","606e3cce02e2e8a8c965ca75","6877649eabb845cf142cd221","6893aa9a6eca4cb6274a6c99","1","606e3cce02e2e8a8c965ca75","1","2025-08-06T19:49:16.775Z","","","","MotivationQ","","","","","","","","","","","50","","","","","","","","","","","","","","","","","","","","","","","","","","",""
