"rt","response_timestamp","stimulus","response","trial_type","trial_index","time_elapsed","internal_node_id","run_id","condition","recorded_at","source_code_version","ip","user_agent","device","browser","browser_version","platform","platform_version","referer","accept_language","PROLIFIC_PID","STUDY_ID","SESSION_ID","BATCH","prolific_id","batch","realtime","success","question_order","question_id","eventType","responses","item_order","radio_event_ids","radio_event_times","key_event_times","mouse_event_times","straightlining","zigzagging","honeypot","view_history","slider_start","which_type","canvas_config","goals_layout","control_level","trial_number","tutorial_trial_number","trial_start_time","phase1_start_time","phase2_start_time","phase3_start_time","goal_1_value","goal_1_distance","goal_2_value","goal_2_distance","goal_selected","outcome","outcome_total","participant_final_score","participant_initial_score","participant_final_score_prop","goal_choice_rt","allocated_time","allocated_time_remaining","goal_direction","counts","mouse_movements","key_presses"
"21843","1753865156187","<p style='font-size:40px;line-height:1.25'><strong>Welcome to the experiment!</strong></p><p style='font-size:1.1em;line-height:1.25'>Thank you for participanting in our experiment again! You will be asked to play the Dysfunctional Ball Game again. We will briefly recap the rules before we start.</p><p style='font-size:1.1em;line-height:1.25'>Press <strong>Next</strong> to continue.</p>","0","custom-html-button-response","0","21857","0.0-0.0","50","1","2025-07-30 08:45:33","36c45c0696341be0efffe67d72a12abb","160.19.36.2","Mozilla/5.0 (Windows NT 10.0; Win64; x64) AppleWebKit/537.36 (KHTML, like Gecko) Chrome/109.0.0.0 Safari/537.36","WebKit","Chrome","109.0.0.0","Windows","10.0","https://app.prolific.com/","en-US,en;q=0.9","609b9e5b48f112f4cc38fb76","687a360dabe5252b5ada7185","6889da9d37f868e8c58f6be8","0","609b9e5b48f112f4cc38fb76","0","2025-07-30T08:45:56.195Z","","","","","","","","","","","","","","","","","","","","","","","","","","","","","","","","","","","","","","","","","",""
"28716","","","","fullscreen","1","51598","0.0-1.0","50","1","2025-07-30 08:45:33","36c45c0696341be0efffe67d72a12abb","160.19.36.2","Mozilla/5.0 (Windows NT 10.0; Win64; x64) AppleWebKit/537.36 (KHTML, like Gecko) Chrome/109.0.0.0 Safari/537.36","WebKit","Chrome","109.0.0.0","Windows","10.0","https://app.prolific.com/","en-US,en;q=0.9","609b9e5b48f112f4cc38fb76","687a360dabe5252b5ada7185","6889da9d37f868e8c58f6be8","0","609b9e5b48f112f4cc38fb76","0","","true","","","","","","","","","","","","","","","","","","","","","","","","","","","","","","","","","","","","","","","","",""
"9444","1753865195379"," <p style='font-size:1.1em;line-height:1.25'>Thank you for closing all other tabs.</p><p style='font-size:1.1em;line-height:1.25'>We will now invite you to fill in some questionnaires, before starting the game.<br>This will take about 5 minutes.<br></p><p style='font-size:1.1em;line-height:1.25'>Press the <strong>Next</strong> button to continue.</p>","0","custom-html-button-response","2","61042","0.0-2.0","50","1","2025-07-30 08:45:33","36c45c0696341be0efffe67d72a12abb","160.19.36.2","Mozilla/5.0 (Windows NT 10.0; Win64; x64) AppleWebKit/537.36 (KHTML, like Gecko) Chrome/109.0.0.0 Safari/537.36","WebKit","Chrome","109.0.0.0","Windows","10.0","https://app.prolific.com/","en-US,en;q=0.9","609b9e5b48f112f4cc38fb76","687a360dabe5252b5ada7185","6889da9d37f868e8c58f6be8","0","609b9e5b48f112f4cc38fb76","0","2025-07-30T08:46:35.380Z","","","","","","","","","","","","","","","","","","","","","","","","","","","","","","","","","","","","","","","","","",""
"4359","","","{""assigned_sex"":""female""}","survey-multi-choice","3","65412","0.0-3.0-0.0","50","1","2025-07-30 08:45:33","36c45c0696341be0efffe67d72a12abb","160.19.36.2","Mozilla/5.0 (Windows NT 10.0; Win64; x64) AppleWebKit/537.36 (KHTML, like Gecko) Chrome/109.0.0.0 Safari/537.36","WebKit","Chrome","109.0.0.0","Windows","10.0","https://app.prolific.com/","en-US,en;q=0.9","609b9e5b48f112f4cc38fb76","687a360dabe5252b5ada7185","6889da9d37f868e8c58f6be8","0","609b9e5b48f112f4cc38fb76","0","","","[0]","0","demographics","","","","","","","","","","","","","","","","","","","","","","","","","","","","","","","","","","","","","",""
"5984","1753865205744","<p style='font-size:1.1em;line-height:1.25'>In the following, we will perform a baseline assessment. This means that we will ask you a few questions relating to your experiences over the past month.<br></p><p style='font-size:1.1em;line-height:1.25'>Press the <strong>Next</strong> button to continue.</p>","0","custom-html-button-response","4","71408","0.0-4.0-0.0","50","1","2025-07-30 08:45:33","36c45c0696341be0efffe67d72a12abb","160.19.36.2","Mozilla/5.0 (Windows NT 10.0; Win64; x64) AppleWebKit/537.36 (KHTML, like Gecko) Chrome/109.0.0.0 Safari/537.36","WebKit","Chrome","109.0.0.0","Windows","10.0","https://app.prolific.com/","en-US,en;q=0.9","609b9e5b48f112f4cc38fb76","687a360dabe5252b5ada7185","6889da9d37f868e8c58f6be8","0","609b9e5b48f112f4cc38fb76","0","2025-07-30T08:46:45.746Z","","","","","","","","","","","","","","","","","","","","","","","","","","","","","","","","","","","","","","","","","",""
"109808.59999999776","","","","survey-template","5","181233","0.0-4.0-1.0","50","1","2025-07-30 08:45:33","36c45c0696341be0efffe67d72a12abb","160.19.36.2","Mozilla/5.0 (Windows NT 10.0; Win64; x64) AppleWebKit/537.36 (KHTML, like Gecko) Chrome/109.0.0.0 Safari/537.36","WebKit","Chrome","109.0.0.0","Windows","10.0","https://app.prolific.com/","en-US,en;q=0.9","609b9e5b48f112f4cc38fb76","687a360dabe5252b5ada7185","6889da9d37f868e8c58f6be8","0","609b9e5b48f112f4cc38fb76","0","2025-07-30T08:48:35.571Z","","","","pss","{""Q01"":""2"",""Q02"":""2"",""Q03"":""2"",""Q04"":""0"",""Q05"":""1"",""Q06"":""2"",""Q07"":""2"",""Q08"":""1"",""Q09"":""2"",""Q10"":""2""}","[0,1,2,3,4,5,6,7,8,9]","[""Q01"",""Q02"",""Q03"",""Q03"",""Q04"",""Q04"",""Q05"",""Q06"",""Q07"",""Q07"",""Q08"",""Q09"",""Q09"",""Q10""]","[14277.5,19826.5,26565.599999997765,31465.099999997765,33196.599999997765,36382.599999997765,43089.099999997765,60423.89999999851,67020.39999999851,74699.89999999851,80540.09999999776,92621.39999999851,95957.09999999776,107675.59999999776]","[]","[0.30000000074505806,14277.5,19826.5,26565.599999997765,31465.099999997765,33196.599999997765,36382.599999997765,43089.099999997765,60423.89999999851,67020.39999999851,74699.89999999851,80540.09999999776,92621.39999999851,95957.09999999776,107675.59999999776,109804.30000000075]","0.7","0.4444444444444444","0","","","","","","","","","","","","","","","","","","","","","","","","","","","","",""
"4758","1753865320344","<p style='font-size:1.1em;line-height:1.25'>Thank you for your answers! Now we will ask you a few more questions relating to your feelings in the last 24 hours.<br></p><p style='font-size:1.1em;line-height:1.25'>Press the <strong>Next</strong> button to continue.</p>","0","custom-html-button-response","6","186007","0.0-4.0-2.0","50","1","2025-07-30 08:45:33","36c45c0696341be0efffe67d72a12abb","160.19.36.2","Mozilla/5.0 (Windows NT 10.0; Win64; x64) AppleWebKit/537.36 (KHTML, like Gecko) Chrome/109.0.0.0 Safari/537.36","WebKit","Chrome","109.0.0.0","Windows","10.0","https://app.prolific.com/","en-US,en;q=0.9","609b9e5b48f112f4cc38fb76","687a360dabe5252b5ada7185","6889da9d37f868e8c58f6be8","0","609b9e5b48f112f4cc38fb76","0","2025-07-30T08:48:40.345Z","","","","","","","","","","","","","","","","","","","","","","","","","","","","","","","","","","","","","","","","","",""
"170546","","","","survey-template","7","356561","0.0-4.0-3.0","50","1","2025-07-30 08:45:33","36c45c0696341be0efffe67d72a12abb","160.19.36.2","Mozilla/5.0 (Windows NT 10.0; Win64; x64) AppleWebKit/537.36 (KHTML, like Gecko) Chrome/109.0.0.0 Safari/537.36","WebKit","Chrome","109.0.0.0","Windows","10.0","https://app.prolific.com/","en-US,en;q=0.9","609b9e5b48f112f4cc38fb76","687a360dabe5252b5ada7185","6889da9d37f868e8c58f6be8","0","609b9e5b48f112f4cc38fb76","0","2025-07-30T08:51:30.899Z","","","","drsp","{""Q01"":""1"",""Q02"":""1"",""Q03"":""0"",""Q04"":""0"",""Q05"":""1"",""Q06"":""1"",""Q07"":""1"",""Q08"":""1"",""Q09"":""0"",""Q10"":""0"",""Q11"":""2"",""Q12"":""0"",""Q13"":""5"",""Q14"":""3"",""Q15"":""2"",""Q16"":""0"",""Q17"":""0"",""Q18"":""0"",""Q19"":""2"",""Q20"":""1"",""Q21"":""1"",""Q22"":""0""}","[0,1,2,3,4,5,6,7,8,9,10,11,12,13,14,15,16,17,18,19,20,21]","[""Q01"",""Q02"",""Q03"",""Q04"",""Q05"",""Q06"",""Q07"",""Q08"",""Q09"",""Q10"",""Q11"",""Q12"",""Q13"",""Q14"",""Q15"",""Q15"",""Q16"",""Q17"",""Q18"",""Q19"",""Q20"",""Q21"",""Q22""]","[5515.89999999851,10256.099999997765,19410,25316.099999997765,30459.599999997765,48209.5,50845.29999999702,58629.599999997765,61352.79999999702,63853.39999999851,68845.39999999851,74930.19999999925,78251.29999999702,81694.19999999925,104008.09999999776,105369,111563.79999999702,117073.09999999776,119275,129082,149392.3999999985,156243.29999999702,164055.29999999702]","[]","[0.09999999776482582,5515.89999999851,10256.099999997765,19410,25316.099999997765,30459.599999997765,48209.5,50845.29999999702,58629.599999997765,61352.79999999702,63853.39999999851,68845.39999999851,74930.19999999925,78251.29999999702,81694.19999999925,104008.09999999776,105369,111563.79999999702,117073.09999999776,119275,129082,149392.3999999985,156243.29999999702,164055.29999999702,170536.3999999985]","0.4090909090909091","0.3333333333333333","0","","","","","","","","","","","","","","","","","","","","","","","","","","","","",""
"33265.5","","","","survey-template","8","389844","0.0-4.0-4.0","50","1","2025-07-30 08:45:33","36c45c0696341be0efffe67d72a12abb","160.19.36.2","Mozilla/5.0 (Windows NT 10.0; Win64; x64) AppleWebKit/537.36 (KHTML, like Gecko) Chrome/109.0.0.0 Safari/537.36","WebKit","Chrome","109.0.0.0","Windows","10.0","https://app.prolific.com/","en-US,en;q=0.9","609b9e5b48f112f4cc38fb76","687a360dabe5252b5ada7185","6889da9d37f868e8c58f6be8","0","609b9e5b48f112f4cc38fb76","0","2025-07-30T08:52:04.182Z","","","","stress","{""Q01"":""1"",""Q02"":""1"",""Q03"":""1""}","[0,1,2]","[""Q01"",""Q02"",""Q03""]","[10774.300000000745,21625.10000000149,30997.89999999851]","[]","[10774.300000000745,21625.10000000149,30997.89999999851,33264.300000000745]","0.6666666666666666","0","0","","","","","","","","","","","","","","","","","","","","","","","","","","","","",""
"81961","","","","instructions","9","471816","0.0-5.0-0.0","50","1","2025-07-30 08:45:33","36c45c0696341be0efffe67d72a12abb","160.19.36.2","Mozilla/5.0 (Windows NT 10.0; Win64; x64) AppleWebKit/537.36 (KHTML, like Gecko) Chrome/109.0.0.0 Safari/537.36","WebKit","Chrome","109.0.0.0","Windows","10.0","https://app.prolific.com/","en-US,en;q=0.9","609b9e5b48f112f4cc38fb76","687a360dabe5252b5ada7185","6889da9d37f868e8c58f6be8","0","609b9e5b48f112f4cc38fb76","0","","","","","","","","","","","","","","","[{""page_index"":0,""viewing_time"":81957}]","","","","","","","","","","","","","","","","","","","","","","","","","","","",""
"25392","","<p>Before you start with this game please answer the following three questions yourself. </p>
  <p>Through this game, we measure several aspects of your cognitive performance, such as reaction times, multi-tasking capabilities </p>
  <p>and the ability to assess the situation you are in.</p>
  <p></p>
  <p><b>How good do you usually are in such tasks?</b></p>","76","html-slider-response","10","497213","0.0-6.0-0.0","50","1","2025-07-30 08:45:33","36c45c0696341be0efffe67d72a12abb","160.19.36.2","Mozilla/5.0 (Windows NT 10.0; Win64; x64) AppleWebKit/537.36 (KHTML, like Gecko) Chrome/109.0.0.0 Safari/537.36","WebKit","Chrome","109.0.0.0","Windows","10.0","https://app.prolific.com/","en-US,en;q=0.9","609b9e5b48f112f4cc38fb76","687a360dabe5252b5ada7185","6889da9d37f868e8c58f6be8","0","609b9e5b48f112f4cc38fb76","0","2025-07-30T08:53:51.551Z","","","","PreSkillQ","","","","","","","","","","","50","","","","","","","","","","","","","","","","","","","","","","","","","","",""
"13019","","<div style=""width:500px;"">
  <p>How well do you think you will perform in this task compared to other participants?</p>
  </div>","72","html-slider-response","11","510236","0.0-6.0-1.0","50","1","2025-07-30 08:45:33","36c45c0696341be0efffe67d72a12abb","160.19.36.2","Mozilla/5.0 (Windows NT 10.0; Win64; x64) AppleWebKit/537.36 (KHTML, like Gecko) Chrome/109.0.0.0 Safari/537.36","WebKit","Chrome","109.0.0.0","Windows","10.0","https://app.prolific.com/","en-US,en;q=0.9","609b9e5b48f112f4cc38fb76","687a360dabe5252b5ada7185","6889da9d37f868e8c58f6be8","0","609b9e5b48f112f4cc38fb76","0","2025-07-30T08:54:04.574Z","","","","PrePerfQ","","","","","","","","","","","50","","","","","","","","","","","","","","","","","","","","","","","","","","",""
"8162","","<div style=""width:500px;"">
  <p>What best describes how you currently feel?</p>
  </div>","100","html-slider-response","12","518402","0.0-6.0-2.0","50","1","2025-07-30 08:45:33","36c45c0696341be0efffe67d72a12abb","160.19.36.2","Mozilla/5.0 (Windows NT 10.0; Win64; x64) AppleWebKit/537.36 (KHTML, like Gecko) Chrome/109.0.0.0 Safari/537.36","WebKit","Chrome","109.0.0.0","Windows","10.0","https://app.prolific.com/","en-US,en;q=0.9","609b9e5b48f112f4cc38fb76","687a360dabe5252b5ada7185","6889da9d37f868e8c58f6be8","0","609b9e5b48f112f4cc38fb76","0","2025-07-30T08:54:12.740Z","","","","PreMotivationQ","","","","","","","","","","","50","","","","","","","","","","","","","","","","","","","","","","","","","","",""
"","","","","ctl-task-cpt","13","542674","0.0-7.0-0.0","50","1","2025-07-30 08:45:33","36c45c0696341be0efffe67d72a12abb","160.19.36.2","Mozilla/5.0 (Windows NT 10.0; Win64; x64) AppleWebKit/537.36 (KHTML, like Gecko) Chrome/109.0.0.0 Safari/537.36","WebKit","Chrome","109.0.0.0","Windows","10.0","https://app.prolific.com/","en-US,en;q=0.9","609b9e5b48f112f4cc38fb76","687a360dabe5252b5ada7185","6889da9d37f868e8c58f6be8","0","609b9e5b48f112f4cc38fb76","0","2025-07-30T08:54:37.012Z","","","","","","","","","","","","","","","","win-only","2","g1:SE,g2:NW","1","1","0","521465.5","11836.4","16843.9","21238.5","1","4","8","6","1","-1","-1","0","0","0","5007.4","3000","-2580","[""down"",""right""]","{""num_key_presses"":0,""num_perfect"":0,""num_errors"":0,""num_randdir"":0,""num_randdir_good_moves"":0,""num_whilered"":0,""num_whileblue"":0,""num_blue"":0,""num_good_moves"":0}","[293.22232142857143,294.12857142857143,0.7,293.22232142857143,294.12857142857143,100.3,293.22232142857143,294.12857142857143,204.2,293.22232142857143,294.12857142857143,306.7,293.22232142857143,294.12857142857143,406.8,293.22232142857143,294.12857142857143,510.2,293.22232142857143,294.12857142857143,612.3,293.22232142857143,294.12857142857143,716.1,293.22232142857143,294.12857142857143,820.7,293.22232142857143,294.12857142857143,923.5,293.22232142857143,294.12857142857143,1026.8,293.22232142857143,294.12857142857143,1131.8,293.22232142857143,294.12857142857143,1235,293.22232142857143,294.12857142857143,1337.3,293.22232142857143,294.12857142857143,1439.8,293.22232142857143,294.12857142857143,1548.4,293.22232142857143,294.12857142857143,1652.4,293.22232142857143,294.12857142857143,1754.9,293.22232142857143,294.12857142857143,1856.6,293.22232142857143,294.12857142857143,1956.9,293.22232142857143,294.12857142857143,2060.8,293.22232142857143,294.12857142857143,2165.1,293.22232142857143,294.12857142857143,2265.1,314.22232142857143,303.12857142857143,2366.1,345.22232142857143,332.12857142857143,2466.5,359.22232142857143,357.12857142857143,2572.3,359.22232142857143,357.12857142857143,2673.7,357.22232142857143,355.12857142857143,2776.2,343.22232142857143,352.12857142857143,2877.6,328.22232142857143,344.12857142857143,2981.8,328.22232142857143,344.12857142857143,3089.6,328.22232142857143,344.12857142857143,3191.6,328.22232142857143,344.12857142857143,3294.5,327.22232142857143,343.12857142857143,3396.2,327.22232142857143,344.12857142857143,3500.2,327.22232142857143,344.12857142857143,3604.1,327.22232142857143,344.12857142857143,3707.9,327.22232142857143,344.12857142857143,3812.3,325.22232142857143,320.12857142857143,3914.3,333.22232142857143,271.12857142857143,4016.6,333.22232142857143,271.12857142857143,4122.8,333.22232142857143,271.12857142857143,4228.3,333.22232142857143,271.12857142857143,4330,333.22232142857143,271.12857142857143,4432.1,333.22232142857143,271.12857142857143,4540.9,333.22232142857143,271.12857142857143,4652.2,333.22232142857143,271.12857142857143,4756.4,340.22232142857143,320.12857142857143,4859.9,340.22232142857143,322.12857142857143,4967.6]","[]"
"8218","","<div style=""width:500px;"">
  <p>What determined the result of this run?</p>
  </div>","71","html-slider-response","14","550896","0.0-7.0-1.0","50","1","2025-07-30 08:45:33","36c45c0696341be0efffe67d72a12abb","160.19.36.2","Mozilla/5.0 (Windows NT 10.0; Win64; x64) AppleWebKit/537.36 (KHTML, like Gecko) Chrome/109.0.0.0 Safari/537.36","WebKit","Chrome","109.0.0.0","Windows","10.0","https://app.prolific.com/","en-US,en;q=0.9","609b9e5b48f112f4cc38fb76","687a360dabe5252b5ada7185","6889da9d37f868e8c58f6be8","0","609b9e5b48f112f4cc38fb76","0","2025-07-30T08:54:45.234Z","","","","AttribQ","","","","","","","","","","","50","","","","","","","","","","","","","","","","","","","","","","","","","","",""
"9814","","<div style=""width:500px;"">
  <p>How much control did you have over the ball?</p>
  </div>","38","html-slider-response","15","560716","0.0-7.0-2.0","50","1","2025-07-30 08:45:33","36c45c0696341be0efffe67d72a12abb","160.19.36.2","Mozilla/5.0 (Windows NT 10.0; Win64; x64) AppleWebKit/537.36 (KHTML, like Gecko) Chrome/109.0.0.0 Safari/537.36","WebKit","Chrome","109.0.0.0","Windows","10.0","https://app.prolific.com/","en-US,en;q=0.9","609b9e5b48f112f4cc38fb76","687a360dabe5252b5ada7185","6889da9d37f868e8c58f6be8","0","609b9e5b48f112f4cc38fb76","0","2025-07-30T08:54:55.054Z","","","","ControlQ","","","","","","","","","","","50","","","","","","","","","","","","","","","","","","","","","","","","","","",""
"6982","","<div style=""width:500px;"">
  <p>How would you describe your current emotional state?</p>
  </div>","17","html-slider-response","16","567702","0.0-7.0-3.0","50","1","2025-07-30 08:45:33","36c45c0696341be0efffe67d72a12abb","160.19.36.2","Mozilla/5.0 (Windows NT 10.0; Win64; x64) AppleWebKit/537.36 (KHTML, like Gecko) Chrome/109.0.0.0 Safari/537.36","WebKit","Chrome","109.0.0.0","Windows","10.0","https://app.prolific.com/","en-US,en;q=0.9","609b9e5b48f112f4cc38fb76","687a360dabe5252b5ada7185","6889da9d37f868e8c58f6be8","0","609b9e5b48f112f4cc38fb76","0","2025-07-30T08:55:02.040Z","","","","StressQ","","","","","","","","","","","50","","","","","","","","","","","","","","","","","","","","","","","","","","",""
"5712","","<div style=""width:500px;"">
  <p>What best describes how you currently feel?</p>
  </div>","100","html-slider-response","17","573418","0.0-7.0-4.0","50","1","2025-07-30 08:45:33","36c45c0696341be0efffe67d72a12abb","160.19.36.2","Mozilla/5.0 (Windows NT 10.0; Win64; x64) AppleWebKit/537.36 (KHTML, like Gecko) Chrome/109.0.0.0 Safari/537.36","WebKit","Chrome","109.0.0.0","Windows","10.0","https://app.prolific.com/","en-US,en;q=0.9","609b9e5b48f112f4cc38fb76","687a360dabe5252b5ada7185","6889da9d37f868e8c58f6be8","0","609b9e5b48f112f4cc38fb76","0","2025-07-30T08:55:07.756Z","","","","MotivationQ","","","","","","","","","","","50","","","","","","","","","","","","","","","","","","","","","","","","","","",""
"","","","","ctl-task-cpt","18","608357","0.0-7.0-0.1","50","1","2025-07-30 08:45:33","36c45c0696341be0efffe67d72a12abb","160.19.36.2","Mozilla/5.0 (Windows NT 10.0; Win64; x64) AppleWebKit/537.36 (KHTML, like Gecko) Chrome/109.0.0.0 Safari/537.36","WebKit","Chrome","109.0.0.0","Windows","10.0","https://app.prolific.com/","en-US,en;q=0.9","609b9e5b48f112f4cc38fb76","687a360dabe5252b5ada7185","6889da9d37f868e8c58f6be8","0","609b9e5b48f112f4cc38fb76","0","2025-07-30T08:55:42.694Z","","","","","","","","","","","","","","","","win-only","2","g1:SE,g2:NW","0.9","2","0","576460.2","3401.1","8407.6","31926.5","1","4","4","6","1","-1","-1","0","0","0","5006.5","3000","-2855","[""down"",""right""]","{""num_key_presses"":6,""num_perfect"":5,""num_errors"":0,""num_randdir"":1,""num_randdir_good_moves"":0,""num_whilered"":0,""num_whileblue"":0,""num_blue"":1,""num_good_moves"":0}","[299.22232142857143,299.12857142857143,0.3,299.22232142857143,299.12857142857143,105.3,299.22232142857143,299.12857142857143,206.8,299.22232142857143,299.12857142857143,312.2,299.22232142857143,299.12857142857143,412.3,299.22232142857143,299.12857142857143,517.1,299.22232142857143,299.12857142857143,620.2,299.22232142857143,299.12857142857143,722.4,299.22232142857143,299.12857142857143,823.6,299.22232142857143,299.12857142857143,925.3,299.22232142857143,299.12857142857143,1037.4,299.22232142857143,299.12857142857143,1141.4,299.22232142857143,299.12857142857143,1244.9,299.22232142857143,299.12857142857143,1344.9,299.22232142857143,299.12857142857143,1445,299.22232142857143,299.12857142857143,1550.2,299.22232142857143,299.12857142857143,1650.7,299.22232142857143,299.12857142857143,1751,299.22232142857143,299.12857142857143,1854.9,299.22232142857143,299.12857142857143,1962.1,299.22232142857143,299.12857142857143,2066,299.22232142857143,299.12857142857143,2167,299.22232142857143,299.12857142857143,2270.3,299.22232142857143,299.12857142857143,2370.7,299.22232142857143,299.12857142857143,2471,299.22232142857143,299.12857142857143,2577.8,299.22232142857143,299.12857142857143,2680.4,299.22232142857143,299.12857142857143,2782.8,299.22232142857143,299.12857142857143,2885.4,299.22232142857143,299.12857142857143,2986.9,299.22232142857143,299.12857142857143,3090.7,299.22232142857143,299.12857142857143,3195,299.22232142857143,299.12857142857143,3297.6,299.22232142857143,299.12857142857143,3399.7,299.22232142857143,299.12857142857143,3500.5,299.22232142857143,299.12857142857143,3605.6,299.22232142857143,299.12857142857143,3711,299.22232142857143,299.12857142857143,3811,299.22232142857143,299.12857142857143,3911,299.22232142857143,299.12857142857143,4016,299.22232142857143,299.12857142857143,4116.3,299.22232142857143,299.12857142857143,4221.4,299.22232142857143,299.12857142857143,4325.5,299.22232142857143,299.12857142857143,4428,299.22232142857143,299.12857142857143,4530.5,299.22232142857143,299.12857142857143,4632.8,299.22232142857143,299.12857142857143,4735.8,299.22232142857143,299.12857142857143,4837,299.22232142857143,299.12857142857143,4941.7]","[1552,1552.1,1000,0,552.1,""smooth"",""up"",""up"",""bad_move"",4151.5,2597.6,2180.6,1554,416.9,""smooth"",""up"",""up"",""bad_move"",7577.8,3426,3021.7,4152,404.2,""smooth"",""left"",""left"",""bad_move"",10886,3306.5,2873,7579.7,433.4,""smooth"",""left"",""left"",""bad_move"",17012.6,6125.9,2493.2,14181.6,337.9,""smooth"",""left"",""left"",""bad_move"",20595.5,3582.2,3102.1,17013.3,480.1,""oops"",""up"",""up"",""bad_move""]"
"7801","","<div style=""width:500px;"">
  <p>What determined the result of this run?</p>
  </div>","69","html-slider-response","19","616163","0.0-7.0-1.1","50","1","2025-07-30 08:45:33","36c45c0696341be0efffe67d72a12abb","160.19.36.2","Mozilla/5.0 (Windows NT 10.0; Win64; x64) AppleWebKit/537.36 (KHTML, like Gecko) Chrome/109.0.0.0 Safari/537.36","WebKit","Chrome","109.0.0.0","Windows","10.0","https://app.prolific.com/","en-US,en;q=0.9","609b9e5b48f112f4cc38fb76","687a360dabe5252b5ada7185","6889da9d37f868e8c58f6be8","0","609b9e5b48f112f4cc38fb76","0","2025-07-30T08:55:50.500Z","","","","AttribQ","","","","","","","","","","","50","","","","","","","","","","","","","","","","","","","","","","","","","","",""
"8248","","<div style=""width:500px;"">
  <p>How much control did you have over the ball?</p>
  </div>","67","html-slider-response","20","624415","0.0-7.0-2.1","50","1","2025-07-30 08:45:33","36c45c0696341be0efffe67d72a12abb","160.19.36.2","Mozilla/5.0 (Windows NT 10.0; Win64; x64) AppleWebKit/537.36 (KHTML, like Gecko) Chrome/109.0.0.0 Safari/537.36","WebKit","Chrome","109.0.0.0","Windows","10.0","https://app.prolific.com/","en-US,en;q=0.9","609b9e5b48f112f4cc38fb76","687a360dabe5252b5ada7185","6889da9d37f868e8c58f6be8","0","609b9e5b48f112f4cc38fb76","0","2025-07-30T08:55:58.752Z","","","","ControlQ","","","","","","","","","","","50","","","","","","","","","","","","","","","","","","","","","","","","","","",""
"4675","","<div style=""width:500px;"">
  <p>How would you describe your current emotional state?</p>
  </div>","18","html-slider-response","21","629093","0.0-7.0-3.1","50","1","2025-07-30 08:45:33","36c45c0696341be0efffe67d72a12abb","160.19.36.2","Mozilla/5.0 (Windows NT 10.0; Win64; x64) AppleWebKit/537.36 (KHTML, like Gecko) Chrome/109.0.0.0 Safari/537.36","WebKit","Chrome","109.0.0.0","Windows","10.0","https://app.prolific.com/","en-US,en;q=0.9","609b9e5b48f112f4cc38fb76","687a360dabe5252b5ada7185","6889da9d37f868e8c58f6be8","0","609b9e5b48f112f4cc38fb76","0","2025-07-30T08:56:03.430Z","","","","StressQ","","","","","","","","","","","50","","","","","","","","","","","","","","","","","","","","","","","","","","",""
"4462","","<div style=""width:500px;"">
  <p>What best describes how you currently feel?</p>
  </div>","96","html-slider-response","22","633557","0.0-7.0-4.1","50","1","2025-07-30 08:45:33","36c45c0696341be0efffe67d72a12abb","160.19.36.2","Mozilla/5.0 (Windows NT 10.0; Win64; x64) AppleWebKit/537.36 (KHTML, like Gecko) Chrome/109.0.0.0 Safari/537.36","WebKit","Chrome","109.0.0.0","Windows","10.0","https://app.prolific.com/","en-US,en;q=0.9","609b9e5b48f112f4cc38fb76","687a360dabe5252b5ada7185","6889da9d37f868e8c58f6be8","0","609b9e5b48f112f4cc38fb76","0","2025-07-30T08:56:07.894Z","","","","MotivationQ","","","","","","","","","","","50","","","","","","","","","","","","","","","","","","","","","","","","","","",""
"","","","","ctl-task-cpt","23","664845","0.0-7.0-0.2","50","1","2025-07-30 08:45:33","36c45c0696341be0efffe67d72a12abb","160.19.36.2","Mozilla/5.0 (Windows NT 10.0; Win64; x64) AppleWebKit/537.36 (KHTML, like Gecko) Chrome/109.0.0.0 Safari/537.36","WebKit","Chrome","109.0.0.0","Windows","10.0","https://app.prolific.com/","en-US,en;q=0.9","609b9e5b48f112f4cc38fb76","687a360dabe5252b5ada7185","6889da9d37f868e8c58f6be8","0","609b9e5b48f112f4cc38fb76","0","2025-07-30T08:56:39.182Z","","","","","","","","","","","","","","","","win-only","2","g1:SE,g2:NW","0.8","3","0","636592.4","2091.4","7093.2","28278.7","1","4","8","6","2","8","8","8","0","0.06060606060606061","2191.8","3000","1100","[""left"",""up""]","{""num_key_presses"":6,""num_perfect"":5,""num_errors"":0,""num_randdir"":1,""num_randdir_good_moves"":1,""num_whilered"":0,""num_whileblue"":0,""num_blue"":2,""num_good_moves"":6}","[296.22232142857143,294.12857142857143,0.4,296.22232142857143,294.12857142857143,100.8,296.22232142857143,294.12857142857143,210.1,296.22232142857143,294.12857142857143,313.4,296.22232142857143,294.12857142857143,423.3,296.22232142857143,294.12857142857143,528,296.22232142857143,294.12857142857143,628.9,296.22232142857143,294.12857142857143,734,296.22232142857143,294.12857142857143,841,299.22232142857143,295.12857142857143,944.5,299.22232142857143,295.12857142857143,1045.5,299.22232142857143,295.12857142857143,1146.7,212.22232142857143,166.12857142857143,1252.6,190.22232142857143,101.12857142857143,1356.5,190.22232142857143,101.12857142857143,1460.5,179.22232142857143,101.12857142857143,1561,64.22232142857143,43.128571428571426,1665.8,45.222321428571426,33.128571428571426,1766.5,45.222321428571426,30.128571428571426,1869.6,47.222321428571426,30.128571428571426,1975,47.222321428571426,30.128571428571426,2078.3,47.222321428571426,30.128571428571426,2189.1,47.222321428571426,30.128571428571426,2298.8,47.222321428571426,30.128571428571426,2406,47.222321428571426,30.128571428571426,2510.3,137.22232142857143,59.128571428571426,2615.1,294.22232142857143,241.12857142857143,2722.3,283.22232142857143,239.12857142857143,2830.2,276.22232142857143,235.12857142857143,2940.7,311.22232142857143,285.12857142857143,3048.1,326.22232142857143,327.12857142857143,3154.9,326.22232142857143,327.12857142857143,3260.2,326.22232142857143,327.12857142857143,3365.9,326.22232142857143,327.12857142857143,3472.4,326.22232142857143,327.12857142857143,3577.7,326.22232142857143,327.12857142857143,3687.3,330.22232142857143,324.12857142857143,3788,334.22232142857143,320.12857142857143,3892.8,337.22232142857143,315.12857142857143,4002.2,337.22232142857143,315.12857142857143,4110.4,337.22232142857143,315.12857142857143,4211.1,337.22232142857143,315.12857142857143,4311.7,337.22232142857143,315.12857142857143,4417.2,337.22232142857143,315.12857142857143,4520.3,337.22232142857143,315.12857142857143,4627.6,337.22232142857143,315.12857142857143,4733.4,337.22232142857143,315.12857142857143,4837.7,337.22232142857143,315.12857142857143,4943.9]","[1600,1600,1000,0,600,""oops"",""up"",""up"",""good_move"",4080.7,2480.2,2015.7,1600.6,464.4,""smooth"",""up"",""up"",""good_move"",7231.9,3150.8,2771.5,4081.2,379.2,""smooth"",""up"",""up"",""good_move"",12835.9,5603.5,2453.9,9969.8,412.3,""smooth"",""left"",""left"",""good_move"",15462.6,2626.2,2237.8,12836.4,388.4,""smooth"",""left"",""left"",""good_move"",21076.7,5613.7,2321.3,18338.4,417.1,""smooth"",""left"",""left"",""good_move""]"
"7726","","<div style=""width:500px;"">
  <p>What determined the result of this run?</p>
  </div>","97","html-slider-response","24","672574","0.0-7.0-1.2","50","1","2025-07-30 08:45:33","36c45c0696341be0efffe67d72a12abb","160.19.36.2","Mozilla/5.0 (Windows NT 10.0; Win64; x64) AppleWebKit/537.36 (KHTML, like Gecko) Chrome/109.0.0.0 Safari/537.36","WebKit","Chrome","109.0.0.0","Windows","10.0","https://app.prolific.com/","en-US,en;q=0.9","609b9e5b48f112f4cc38fb76","687a360dabe5252b5ada7185","6889da9d37f868e8c58f6be8","0","609b9e5b48f112f4cc38fb76","0","2025-07-30T08:56:46.911Z","","","","AttribQ","","","","","","","","","","","50","","","","","","","","","","","","","","","","","","","","","","","","","","",""
"4748","","<div style=""width:500px;"">
  <p>How much control did you have over the ball?</p>
  </div>","89","html-slider-response","25","677325","0.0-7.0-2.2","50","1","2025-07-30 08:45:33","36c45c0696341be0efffe67d72a12abb","160.19.36.2","Mozilla/5.0 (Windows NT 10.0; Win64; x64) AppleWebKit/537.36 (KHTML, like Gecko) Chrome/109.0.0.0 Safari/537.36","WebKit","Chrome","109.0.0.0","Windows","10.0","https://app.prolific.com/","en-US,en;q=0.9","609b9e5b48f112f4cc38fb76","687a360dabe5252b5ada7185","6889da9d37f868e8c58f6be8","0","609b9e5b48f112f4cc38fb76","0","2025-07-30T08:56:51.662Z","","","","ControlQ","","","","","","","","","","","50","","","","","","","","","","","","","","","","","","","","","","","","","","",""
"4306","","<div style=""width:500px;"">
  <p>How would you describe your current emotional state?</p>
  </div>","4","html-slider-response","26","681633","0.0-7.0-3.2","50","1","2025-07-30 08:45:33","36c45c0696341be0efffe67d72a12abb","160.19.36.2","Mozilla/5.0 (Windows NT 10.0; Win64; x64) AppleWebKit/537.36 (KHTML, like Gecko) Chrome/109.0.0.0 Safari/537.36","WebKit","Chrome","109.0.0.0","Windows","10.0","https://app.prolific.com/","en-US,en;q=0.9","609b9e5b48f112f4cc38fb76","687a360dabe5252b5ada7185","6889da9d37f868e8c58f6be8","0","609b9e5b48f112f4cc38fb76","0","2025-07-30T08:56:55.970Z","","","","StressQ","","","","","","","","","","","50","","","","","","","","","","","","","","","","","","","","","","","","","","",""
"3907","","<div style=""width:500px;"">
  <p>What best describes how you currently feel?</p>
  </div>","94","html-slider-response","27","685542","0.0-7.0-4.2","50","1","2025-07-30 08:45:33","36c45c0696341be0efffe67d72a12abb","160.19.36.2","Mozilla/5.0 (Windows NT 10.0; Win64; x64) AppleWebKit/537.36 (KHTML, like Gecko) Chrome/109.0.0.0 Safari/537.36","WebKit","Chrome","109.0.0.0","Windows","10.0","https://app.prolific.com/","en-US,en;q=0.9","609b9e5b48f112f4cc38fb76","687a360dabe5252b5ada7185","6889da9d37f868e8c58f6be8","0","609b9e5b48f112f4cc38fb76","0","2025-07-30T08:56:59.879Z","","","","MotivationQ","","","","","","","","","","","50","","","","","","","","","","","","","","","","","","","","","","","","","","",""
"","","","","ctl-task-cpt","28","732998","0.0-7.0-0.3","50","1","2025-07-30 08:45:33","36c45c0696341be0efffe67d72a12abb","160.19.36.2","Mozilla/5.0 (Windows NT 10.0; Win64; x64) AppleWebKit/537.36 (KHTML, like Gecko) Chrome/109.0.0.0 Safari/537.36","WebKit","Chrome","109.0.0.0","Windows","10.0","https://app.prolific.com/","en-US,en;q=0.9","609b9e5b48f112f4cc38fb76","687a360dabe5252b5ada7185","6889da9d37f868e8c58f6be8","0","609b9e5b48f112f4cc38fb76","0","2025-07-30T08:57:47.335Z","","","","","","","","","","","","","","","","win-only","0","g1:NW,g2:SE","0.7","4","0","688576.4","1706.8","6714.6","44446","1","4","4","6","2","-4","-5","3","8","0.022727272727272728","1772.4","3000","-2205","[""down"",""right""]","{""num_key_presses"":11,""num_perfect"":7,""num_errors"":1,""num_randdir"":3,""num_randdir_good_moves"":0,""num_whilered"":0,""num_whileblue"":1,""num_blue"":2,""num_good_moves"":8}","[299.22232142857143,293.12857142857143,0.5,299.22232142857143,293.12857142857143,105.1,299.22232142857143,293.12857142857143,213.6,299.22232142857143,293.12857142857143,316.6,299.22232142857143,293.12857142857143,426.9,299.22232142857143,293.12857142857143,535.1,299.22232142857143,293.12857142857143,641.8,308.22232142857143,294.12857142857143,746.1,526.2223214285714,432.12857142857143,847,552.2223214285714,469.12857142857143,948.4,552.2223214285714,469.12857142857143,1055.3,553.2223214285714,472.12857142857143,1163.2,553.2223214285714,493.12857142857143,1267.7,552.2223214285714,513.1285714285714,1379.2,551.2223214285714,519.1285714285714,1481.7,551.2223214285714,519.1285714285714,1584,551.2223214285714,519.1285714285714,1688.6,551.2223214285714,519.1285714285714,1795,551.2223214285714,519.1285714285714,1899.5,551.2223214285714,519.1285714285714,2004.6,551.2223214285714,519.1285714285714,2107.7,551.2223214285714,519.1285714285714,2208.5,551.2223214285714,519.1285714285714,2314.5,551.2223214285714,519.1285714285714,2417.7,551.2223214285714,519.1285714285714,2527,521.2223214285714,498.12857142857143,2631.3,357.22232142857143,415.12857142857143,2735.7,356.22232142857143,415.12857142857143,2840.6,356.22232142857143,415.12857142857143,2946.9,356.22232142857143,415.12857142857143,3048.4,356.22232142857143,415.12857142857143,3152.8,356.22232142857143,415.12857142857143,3252.8,356.22232142857143,415.12857142857143,3361.5,356.22232142857143,415.12857142857143,3468.9,356.22232142857143,415.12857142857143,3571,356.22232142857143,415.12857142857143,3677.7,356.22232142857143,415.12857142857143,3779.8,356.22232142857143,415.12857142857143,3888.4,356.22232142857143,415.12857142857143,3990.8,356.22232142857143,415.12857142857143,4092.3,356.22232142857143,415.12857142857143,4193.3,356.22232142857143,415.12857142857143,4297.7,356.22232142857143,415.12857142857143,4403.5,356.22232142857143,415.12857142857143,4509.2,356.22232142857143,415.12857142857143,4616.7,356.22232142857143,415.12857142857143,4723.2,356.22232142857143,415.12857142857143,4825.9,356.22232142857143,415.12857142857143,4933.9]","[1501.5,1501.5,1000,0,501.6,""oops"",""down"",""left"",""bad_move"",4765.8,3263.8,2814.8,1502,449,""smooth"",""down"",""down"",""good_move"",7554.2,2786.8,2332.4,4767.4,454.4,""smooth"",""down"",""down"",""good_move"",10698,3143.4,2747.7,7554.6,395.7,""oops"",""right"",""up"",""bad_move"",13579.7,2881.2,2492.1,10698.5,389.1,""smooth"",""down"",""down"",""good_move"",16852.7,3272.6,2915,13580.2,357.5,""oops"",""down"",""left"",""bad_move"",22883.3,6030.2,2599.8,19933,350.5,""smooth"",""down"",""down"",""good_move"",26092.7,3209.1,2815.5,22883.6,393.7,""smooth"",""right"",""right"",""good_move"",29220.9,3126.7,2763,26094.3,363.6,""smooth"",""right"",""right"",""good_move"",32109,2887.8,2510.9,29221.2,376.9,""smooth"",""right"",""right"",""good_move"",35107.7,2998.3,2647.1,32109.6,351.1,""while_blue"",""right"",""right"",""good_move""]"
"9813","","<div style=""width:500px;"">
  <p>What determined the result of this run?</p>
  </div>","36","html-slider-response","29","742813","0.0-7.0-1.3","50","1","2025-07-30 08:45:33","36c45c0696341be0efffe67d72a12abb","160.19.36.2","Mozilla/5.0 (Windows NT 10.0; Win64; x64) AppleWebKit/537.36 (KHTML, like Gecko) Chrome/109.0.0.0 Safari/537.36","WebKit","Chrome","109.0.0.0","Windows","10.0","https://app.prolific.com/","en-US,en;q=0.9","609b9e5b48f112f4cc38fb76","687a360dabe5252b5ada7185","6889da9d37f868e8c58f6be8","0","609b9e5b48f112f4cc38fb76","0","2025-07-30T08:57:57.150Z","","","","AttribQ","","","","","","","","","","","50","","","","","","","","","","","","","","","","","","","","","","","","","","",""
"4939","","<div style=""width:500px;"">
  <p>How much control did you have over the ball?</p>
  </div>","45","html-slider-response","30","747755","0.0-7.0-2.3","50","1","2025-07-30 08:45:33","36c45c0696341be0efffe67d72a12abb","160.19.36.2","Mozilla/5.0 (Windows NT 10.0; Win64; x64) AppleWebKit/537.36 (KHTML, like Gecko) Chrome/109.0.0.0 Safari/537.36","WebKit","Chrome","109.0.0.0","Windows","10.0","https://app.prolific.com/","en-US,en;q=0.9","609b9e5b48f112f4cc38fb76","687a360dabe5252b5ada7185","6889da9d37f868e8c58f6be8","0","609b9e5b48f112f4cc38fb76","0","2025-07-30T08:58:02.092Z","","","","ControlQ","","","","","","","","","","","50","","","","","","","","","","","","","","","","","","","","","","","","","","",""
"4925","","<div style=""width:500px;"">
  <p>How would you describe your current emotional state?</p>
  </div>","22","html-slider-response","31","752682","0.0-7.0-3.3","50","1","2025-07-30 08:45:33","36c45c0696341be0efffe67d72a12abb","160.19.36.2","Mozilla/5.0 (Windows NT 10.0; Win64; x64) AppleWebKit/537.36 (KHTML, like Gecko) Chrome/109.0.0.0 Safari/537.36","WebKit","Chrome","109.0.0.0","Windows","10.0","https://app.prolific.com/","en-US,en;q=0.9","609b9e5b48f112f4cc38fb76","687a360dabe5252b5ada7185","6889da9d37f868e8c58f6be8","0","609b9e5b48f112f4cc38fb76","0","2025-07-30T08:58:07.019Z","","","","StressQ","","","","","","","","","","","50","","","","","","","","","","","","","","","","","","","","","","","","","","",""
"6269","","<div style=""width:500px;"">
  <p>What best describes how you currently feel?</p>
  </div>","99","html-slider-response","32","758954","0.0-7.0-4.3","50","1","2025-07-30 08:45:33","36c45c0696341be0efffe67d72a12abb","160.19.36.2","Mozilla/5.0 (Windows NT 10.0; Win64; x64) AppleWebKit/537.36 (KHTML, like Gecko) Chrome/109.0.0.0 Safari/537.36","WebKit","Chrome","109.0.0.0","Windows","10.0","https://app.prolific.com/","en-US,en;q=0.9","609b9e5b48f112f4cc38fb76","687a360dabe5252b5ada7185","6889da9d37f868e8c58f6be8","0","609b9e5b48f112f4cc38fb76","0","2025-07-30T08:58:13.291Z","","","","MotivationQ","","","","","","","","","","","50","","","","","","","","","","","","","","","","","","","","","","","","","","",""
"","","","","ctl-task-cpt","33","792037","0.0-7.0-0.4","50","1","2025-07-30 08:45:33","36c45c0696341be0efffe67d72a12abb","160.19.36.2","Mozilla/5.0 (Windows NT 10.0; Win64; x64) AppleWebKit/537.36 (KHTML, like Gecko) Chrome/109.0.0.0 Safari/537.36","WebKit","Chrome","109.0.0.0","Windows","10.0","https://app.prolific.com/","en-US,en;q=0.9","609b9e5b48f112f4cc38fb76","687a360dabe5252b5ada7185","6889da9d37f868e8c58f6be8","0","609b9e5b48f112f4cc38fb76","0","2025-07-30T08:58:46.374Z","","","","","","","","","","","","","","","","win-only","2","g1:SE,g2:NW","0.6","5","0","761986.8","1706.5","6720.5","30070.3","1","4","4","6","2","4","4","7","3","0.05303030303030303","1971","3000","1835","[""left"",""up""]","{""num_key_presses"":6,""num_perfect"":5,""num_errors"":0,""num_randdir"":1,""num_randdir_good_moves"":1,""num_whilered"":0,""num_whileblue"":0,""num_blue"":2,""num_good_moves"":6}","[293.22232142857143,297.12857142857143,0.8,293.22232142857143,297.12857142857143,103.8,293.22232142857143,297.12857142857143,216.3,293.22232142857143,297.12857142857143,318.3,293.22232142857143,297.12857142857143,422.3,293.22232142857143,297.12857142857143,532.1,293.22232142857143,297.12857142857143,639.3,293.22232142857143,297.12857142857143,742.6,268.22232142857143,280.12857142857143,850,137.22232142857143,76.12857142857143,962.7,137.22232142857143,76.12857142857143,1066.8,137.22232142857143,76.12857142857143,1172.7,137.22232142857143,76.12857142857143,1280.2,115.22232142857143,78.12857142857143,1389.9,95.22232142857143,70.12857142857143,1504.1,90.22232142857143,69.12857142857143,1606.6,72.22232142857143,68.12857142857143,1716.8,72.22232142857143,68.12857142857143,1830.5,72.22232142857143,68.12857142857143,1936.4,72.22232142857143,68.12857142857143,2046.7,72.22232142857143,68.12857142857143,2152.2,72.22232142857143,68.12857142857143,2254.5,72.22232142857143,68.12857142857143,2368.2,72.22232142857143,68.12857142857143,2482.1,72.22232142857143,68.12857142857143,2584.9,72.22232142857143,68.12857142857143,2688.1,72.22232142857143,68.12857142857143,2800.7,72.22232142857143,68.12857142857143,2906.1,72.22232142857143,68.12857142857143,3015,72.22232142857143,68.12857142857143,3126.1,72.22232142857143,68.12857142857143,3231.6,72.22232142857143,68.12857142857143,3344.8,72.22232142857143,68.12857142857143,3449.8,72.22232142857143,68.12857142857143,3555.9,72.22232142857143,68.12857142857143,3660.4,72.22232142857143,68.12857142857143,3763.4,72.22232142857143,68.12857142857143,3864.7,72.22232142857143,68.12857142857143,3969.8,72.22232142857143,68.12857142857143,4077.4,72.22232142857143,68.12857142857143,4182.3,72.22232142857143,68.12857142857143,4287.5,72.22232142857143,68.12857142857143,4393.4,72.22232142857143,68.12857142857143,4493.9,72.22232142857143,68.12857142857143,4599.3,72.22232142857143,68.12857142857143,4702.4,72.22232142857143,68.12857142857143,4805.5,72.22232142857143,68.12857142857143,4911]","[1530.7,1530.7,1000,0,530.8,""smooth"",""up"",""up"",""good_move"",7396.4,5865.1,2348.4,4674,374,""oops"",""up"",""left"",""good_move"",10056.1,2659.2,2169.2,7396.9,490,""smooth"",""up"",""up"",""good_move"",13203.5,3146.9,2697.6,10056.8,449.2,""smooth"",""up"",""up"",""good_move"",20423.5,7219.5,3023.6,16999.7,400.3,""smooth"",""left"",""left"",""good_move"",23155.6,2731.6,2295.8,20424,435.8,""smooth"",""left"",""left"",""good_move""]"
"10689","","<div style=""width:500px;"">
  <p>What determined the result of this run?</p>
  </div>","75","html-slider-response","34","802729","0.0-7.0-1.4","50","1","2025-07-30 08:45:33","36c45c0696341be0efffe67d72a12abb","160.19.36.2","Mozilla/5.0 (Windows NT 10.0; Win64; x64) AppleWebKit/537.36 (KHTML, like Gecko) Chrome/109.0.0.0 Safari/537.36","WebKit","Chrome","109.0.0.0","Windows","10.0","https://app.prolific.com/","en-US,en;q=0.9","609b9e5b48f112f4cc38fb76","687a360dabe5252b5ada7185","6889da9d37f868e8c58f6be8","0","609b9e5b48f112f4cc38fb76","0","2025-07-30T08:58:57.066Z","","","","AttribQ","","","","","","","","","","","50","","","","","","","","","","","","","","","","","","","","","","","","","","",""
"4885","","<div style=""width:500px;"">
  <p>How much control did you have over the ball?</p>
  </div>","64","html-slider-response","35","807617","0.0-7.0-2.4","50","1","2025-07-30 08:45:33","36c45c0696341be0efffe67d72a12abb","160.19.36.2","Mozilla/5.0 (Windows NT 10.0; Win64; x64) AppleWebKit/537.36 (KHTML, like Gecko) Chrome/109.0.0.0 Safari/537.36","WebKit","Chrome","109.0.0.0","Windows","10.0","https://app.prolific.com/","en-US,en;q=0.9","609b9e5b48f112f4cc38fb76","687a360dabe5252b5ada7185","6889da9d37f868e8c58f6be8","0","609b9e5b48f112f4cc38fb76","0","2025-07-30T08:59:01.954Z","","","","ControlQ","","","","","","","","","","","50","","","","","","","","","","","","","","","","","","","","","","","","","","",""
"5616","","<div style=""width:500px;"">
  <p>How would you describe your current emotional state?</p>
  </div>","12","html-slider-response","36","813235","0.0-7.0-3.4","50","1","2025-07-30 08:45:33","36c45c0696341be0efffe67d72a12abb","160.19.36.2","Mozilla/5.0 (Windows NT 10.0; Win64; x64) AppleWebKit/537.36 (KHTML, like Gecko) Chrome/109.0.0.0 Safari/537.36","WebKit","Chrome","109.0.0.0","Windows","10.0","https://app.prolific.com/","en-US,en;q=0.9","609b9e5b48f112f4cc38fb76","687a360dabe5252b5ada7185","6889da9d37f868e8c58f6be8","0","609b9e5b48f112f4cc38fb76","0","2025-07-30T08:59:07.572Z","","","","StressQ","","","","","","","","","","","50","","","","","","","","","","","","","","","","","","","","","","","","","","",""
"6875","","<div style=""width:500px;"">
  <p>What best describes how you currently feel?</p>
  </div>","96","html-slider-response","37","820112","0.0-7.0-4.4","50","1","2025-07-30 08:45:33","36c45c0696341be0efffe67d72a12abb","160.19.36.2","Mozilla/5.0 (Windows NT 10.0; Win64; x64) AppleWebKit/537.36 (KHTML, like Gecko) Chrome/109.0.0.0 Safari/537.36","WebKit","Chrome","109.0.0.0","Windows","10.0","https://app.prolific.com/","en-US,en;q=0.9","609b9e5b48f112f4cc38fb76","687a360dabe5252b5ada7185","6889da9d37f868e8c58f6be8","0","609b9e5b48f112f4cc38fb76","0","2025-07-30T08:59:14.449Z","","","","MotivationQ","","","","","","","","","","","50","","","","","","","","","","","","","","","","","","","","","","","","","","",""
"","","","","ctl-task-cpt","38","876324","0.0-7.0-0.5","50","1","2025-07-30 08:45:33","36c45c0696341be0efffe67d72a12abb","160.19.36.2","Mozilla/5.0 (Windows NT 10.0; Win64; x64) AppleWebKit/537.36 (KHTML, like Gecko) Chrome/109.0.0.0 Safari/537.36","WebKit","Chrome","109.0.0.0","Windows","10.0","https://app.prolific.com/","en-US,en;q=0.9","609b9e5b48f112f4cc38fb76","687a360dabe5252b5ada7185","6889da9d37f868e8c58f6be8","0","609b9e5b48f112f4cc38fb76","0","2025-07-30T09:00:10.662Z","","","","","","","","","","","","","","","","win-only","2","g1:SE,g2:NW","0.5","6","0","823142.3","2362.8","7367.7","53202.4","1","4","8","6","2","8","8","15","7","0.11363636363636363","1669","3000","430","[""left"",""up""]","{""num_key_presses"":12,""num_perfect"":7,""num_errors"":0,""num_randdir"":5,""num_randdir_good_moves"":2,""num_whilered"":0,""num_whileblue"":0,""num_blue"":4,""num_good_moves"":9}","[296.22232142857143,300.12857142857143,0.3,296.22232142857143,300.12857142857143,102.1,296.22232142857143,300.12857142857143,202.1,296.22232142857143,300.12857142857143,308.7,296.22232142857143,300.12857142857143,419.1,296.22232142857143,300.12857142857143,519.9,296.22232142857143,300.12857142857143,621.4,296.22232142857143,300.12857142857143,735.3,114.22232142857143,118.12857142857143,838.5,98.22232142857143,110.12857142857143,943.1,98.22232142857143,110.12857142857143,1048.8,98.22232142857143,110.12857142857143,1159.9,79.22232142857143,70.12857142857143,1265.3,73.22232142857143,65.12857142857143,1373.9,73.22232142857143,63.128571428571426,1477.9,73.22232142857143,62.128571428571426,1585.3,73.22232142857143,62.128571428571426,1685.4,73.22232142857143,62.128571428571426,1791,73.22232142857143,62.128571428571426,1891,73.22232142857143,62.128571428571426,1991.8,73.22232142857143,62.128571428571426,2092.5,73.22232142857143,62.128571428571426,2200.9,73.22232142857143,62.128571428571426,2309.3,73.22232142857143,62.128571428571426,2413.8,73.22232142857143,62.128571428571426,2522.5,73.22232142857143,62.128571428571426,2631.8,73.22232142857143,62.128571428571426,2741.6,73.22232142857143,62.128571428571426,2849.2,73.22232142857143,62.128571428571426,2954.8,73.22232142857143,62.128571428571426,3064.5,73.22232142857143,62.128571428571426,3170.2,73.22232142857143,62.128571428571426,3274.5,73.22232142857143,62.128571428571426,3377.6,73.22232142857143,62.128571428571426,3485.8,73.22232142857143,62.128571428571426,3585.9,73.22232142857143,62.128571428571426,3686.9,73.22232142857143,62.128571428571426,3795.2,73.22232142857143,62.128571428571426,3898.7,73.22232142857143,62.128571428571426,4004.3,73.22232142857143,62.128571428571426,4114.2,73.22232142857143,62.128571428571426,4225.5,73.22232142857143,62.128571428571426,4331.6,73.22232142857143,62.128571428571426,4438.9,73.22232142857143,62.128571428571426,4545.5,73.22232142857143,62.128571428571426,4648.5,73.22232142857143,62.128571428571426,4750.5,73.22232142857143,62.128571428571426,4859.2,73.22232142857143,62.128571428571426,4961.1]","[4927.8,4927.7,2517.2,2008.4,402.2,""oops"",""up"",""right"",""bad_move"",7773.1,2844,2368.9,4929.1,475.1,""smooth"",""up"",""up"",""good_move"",10285.4,2512.1,2082.8,7773.4,429.3,""smooth"",""up"",""up"",""good_move"",12614.7,2328.8,1904.2,10285.9,424.6,""smooth"",""up"",""up"",""good_move"",19349.3,6734.3,2251.9,16570,527.4,""oops"",""left"",""left"",""good_move"",21932.4,2582.6,2081,19349.8,501.6,""smooth"",""left"",""left"",""good_move"",28312.1,6379.3,2428.8,25454.2,429.2,""oops"",""left"",""right"",""bad_move"",35227.9,6915.3,2550.4,32276.7,400.9,""oops"",""left"",""right"",""bad_move"",37760.3,2532,2106.6,35228.3,425.4,""smooth"",""left"",""left"",""good_move"",40166.5,2405.8,1963.5,37760.7,442.3,""oops"",""left"",""left"",""good_move"",42759.1,2592.1,2166.3,40167,425.8,""smooth"",""left"",""left"",""good_move"",45667.2,2907.8,2494.5,42759.5,413.2,""smooth"",""left"",""left"",""good_move""]"
"11536","","<div style=""width:500px;"">
  <p>What determined the result of this run?</p>
  </div>","62","html-slider-response","39","887863","0.0-7.0-1.5","50","1","2025-07-30 08:45:33","36c45c0696341be0efffe67d72a12abb","160.19.36.2","Mozilla/5.0 (Windows NT 10.0; Win64; x64) AppleWebKit/537.36 (KHTML, like Gecko) Chrome/109.0.0.0 Safari/537.36","WebKit","Chrome","109.0.0.0","Windows","10.0","https://app.prolific.com/","en-US,en;q=0.9","609b9e5b48f112f4cc38fb76","687a360dabe5252b5ada7185","6889da9d37f868e8c58f6be8","0","609b9e5b48f112f4cc38fb76","0","2025-07-30T09:00:22.200Z","","","","AttribQ","","","","","","","","","","","50","","","","","","","","","","","","","","","","","","","","","","","","","","",""
"7190","","<div style=""width:500px;"">
  <p>How much control did you have over the ball?</p>
  </div>","73","html-slider-response","40","895056","0.0-7.0-2.5","50","1","2025-07-30 08:45:33","36c45c0696341be0efffe67d72a12abb","160.19.36.2","Mozilla/5.0 (Windows NT 10.0; Win64; x64) AppleWebKit/537.36 (KHTML, like Gecko) Chrome/109.0.0.0 Safari/537.36","WebKit","Chrome","109.0.0.0","Windows","10.0","https://app.prolific.com/","en-US,en;q=0.9","609b9e5b48f112f4cc38fb76","687a360dabe5252b5ada7185","6889da9d37f868e8c58f6be8","0","609b9e5b48f112f4cc38fb76","0","2025-07-30T09:00:29.393Z","","","","ControlQ","","","","","","","","","","","50","","","","","","","","","","","","","","","","","","","","","","","","","","",""
"5008","","<div style=""width:500px;"">
  <p>How would you describe your current emotional state?</p>
  </div>","6","html-slider-response","41","900065","0.0-7.0-3.5","50","1","2025-07-30 08:45:33","36c45c0696341be0efffe67d72a12abb","160.19.36.2","Mozilla/5.0 (Windows NT 10.0; Win64; x64) AppleWebKit/537.36 (KHTML, like Gecko) Chrome/109.0.0.0 Safari/537.36","WebKit","Chrome","109.0.0.0","Windows","10.0","https://app.prolific.com/","en-US,en;q=0.9","609b9e5b48f112f4cc38fb76","687a360dabe5252b5ada7185","6889da9d37f868e8c58f6be8","0","609b9e5b48f112f4cc38fb76","0","2025-07-30T09:00:34.402Z","","","","StressQ","","","","","","","","","","","50","","","","","","","","","","","","","","","","","","","","","","","","","","",""
"5068","","<div style=""width:500px;"">
  <p>What best describes how you currently feel?</p>
  </div>","93","html-slider-response","42","905135","0.0-7.0-4.5","50","1","2025-07-30 08:45:33","36c45c0696341be0efffe67d72a12abb","160.19.36.2","Mozilla/5.0 (Windows NT 10.0; Win64; x64) AppleWebKit/537.36 (KHTML, like Gecko) Chrome/109.0.0.0 Safari/537.36","WebKit","Chrome","109.0.0.0","Windows","10.0","https://app.prolific.com/","en-US,en;q=0.9","609b9e5b48f112f4cc38fb76","687a360dabe5252b5ada7185","6889da9d37f868e8c58f6be8","0","609b9e5b48f112f4cc38fb76","0","2025-07-30T09:00:39.472Z","","","","MotivationQ","","","","","","","","","","","50","","","","","","","","","","","","","","","","","","","","","","","","","","",""
"","","","","ctl-task-cpt","43","949357","0.0-7.0-0.6","50","1","2025-07-30 08:45:33","36c45c0696341be0efffe67d72a12abb","160.19.36.2","Mozilla/5.0 (Windows NT 10.0; Win64; x64) AppleWebKit/537.36 (KHTML, like Gecko) Chrome/109.0.0.0 Safari/537.36","WebKit","Chrome","109.0.0.0","Windows","10.0","https://app.prolific.com/","en-US,en;q=0.9","609b9e5b48f112f4cc38fb76","687a360dabe5252b5ada7185","6889da9d37f868e8c58f6be8","0","609b9e5b48f112f4cc38fb76","0","2025-07-30T09:01:23.694Z","","","","","","","","","","","","","","","","win-only","1","g1:NE,g2:SW","0.4","7","0","908163.7","1915.6","6921.3","41211.3","1","4","4","6","2","4","4","19","15","0.14393939393939395","1948.1","3000","1310","[""down"",""left""]","{""num_key_presses"":8,""num_perfect"":3,""num_errors"":0,""num_randdir"":5,""num_randdir_good_moves"":4,""num_whilered"":0,""num_whileblue"":0,""num_blue"":3,""num_good_moves"":7}","[296.22232142857143,293.12857142857143,0.4,296.22232142857143,293.12857142857143,102.7,296.22232142857143,293.12857142857143,205,296.22232142857143,293.12857142857143,320.2,296.22232142857143,293.12857142857143,424.1,296.22232142857143,293.12857142857143,535.3,296.22232142857143,293.12857142857143,647.8,293.22232142857143,295.12857142857143,752.2,102.22232142857143,498.12857142857143,853.9,12.222321428571426,614.1285714285714,966.2,-26.777678571428574,654.1285714285714,1082,-14.777678571428574,624.1285714285714,1196.1,25.222321428571426,563.1285714285714,1308.4,28.222321428571426,562.1285714285714,1423.2,37.222321428571426,558.1285714285714,1531.6,43.222321428571426,553.1285714285714,1641.7,44.222321428571426,553.1285714285714,1755.8,44.222321428571426,553.1285714285714,1867.9,44.222321428571426,553.1285714285714,1968.2,44.222321428571426,553.1285714285714,2076.3,44.222321428571426,553.1285714285714,2190.5,44.222321428571426,553.1285714285714,2295,44.222321428571426,553.1285714285714,2406.8,44.222321428571426,553.1285714285714,2516.7,47.222321428571426,547.1285714285714,2619.4,235.22232142857143,361.12857142857143,2728.5,283.22232142857143,322.12857142857143,2831,291.22232142857143,318.12857142857143,2942.7,196.22232142857143,432.12857142857143,3044.5,134.22232142857143,468.12857142857143,3155.5,150.22232142857143,493.12857142857143,3262.3,150.22232142857143,493.12857142857143,3366.2,150.22232142857143,493.12857142857143,3474.2,150.22232142857143,493.12857142857143,3574.5,150.22232142857143,493.12857142857143,3684.7,150.22232142857143,493.12857142857143,3786.7,150.22232142857143,493.12857142857143,3889,150.22232142857143,493.12857142857143,3989.9,150.22232142857143,493.12857142857143,4103.3,150.22232142857143,493.12857142857143,4212.8,150.22232142857143,493.12857142857143,4315.2,150.22232142857143,493.12857142857143,4415.3,150.22232142857143,493.12857142857143,4515.3,150.22232142857143,493.12857142857143,4625,150.22232142857143,493.12857142857143,4725.3,150.22232142857143,493.12857142857143,4832.5,150.22232142857143,493.12857142857143,4935.7]","[1483.9,1483.9,1000,0,483.9,""oops"",""down"",""left"",""good_move"",8524.1,7039.2,2411.8,5657.4,454.9,""smooth"",""down"",""down"",""good_move"",11758.1,3232.9,2475,8525.2,757.9,""smooth"",""left"",""left"",""good_move"",18359.4,6600.8,3125,14784.1,450.3,""oops"",""down"",""left"",""good_move"",21992.9,3633.2,3154.4,18359.7,478.8,""smooth"",""down"",""down"",""good_move"",27973.7,5980.4,2111,25464.3,398.5,""oops"",""down"",""up"",""bad_move"",30992.4,3018.3,2588.3,27974.1,430,""oops"",""down"",""down"",""good_move"",34079.6,3086.8,2687,30992.8,399.8,""oops"",""down"",""down"",""good_move""]"
"5775","","<div style=""width:500px;"">
  <p>What determined the result of this run?</p>
  </div>","70","html-slider-response","44","955136","0.0-7.0-1.6","50","1","2025-07-30 08:45:33","36c45c0696341be0efffe67d72a12abb","160.19.36.2","Mozilla/5.0 (Windows NT 10.0; Win64; x64) AppleWebKit/537.36 (KHTML, like Gecko) Chrome/109.0.0.0 Safari/537.36","WebKit","Chrome","109.0.0.0","Windows","10.0","https://app.prolific.com/","en-US,en;q=0.9","609b9e5b48f112f4cc38fb76","687a360dabe5252b5ada7185","6889da9d37f868e8c58f6be8","0","609b9e5b48f112f4cc38fb76","0","2025-07-30T09:01:29.473Z","","","","AttribQ","","","","","","","","","","","50","","","","","","","","","","","","","","","","","","","","","","","","","","",""
"4712","","<div style=""width:500px;"">
  <p>How much control did you have over the ball?</p>
  </div>","68","html-slider-response","45","959849","0.0-7.0-2.6","50","1","2025-07-30 08:45:33","36c45c0696341be0efffe67d72a12abb","160.19.36.2","Mozilla/5.0 (Windows NT 10.0; Win64; x64) AppleWebKit/537.36 (KHTML, like Gecko) Chrome/109.0.0.0 Safari/537.36","WebKit","Chrome","109.0.0.0","Windows","10.0","https://app.prolific.com/","en-US,en;q=0.9","609b9e5b48f112f4cc38fb76","687a360dabe5252b5ada7185","6889da9d37f868e8c58f6be8","0","609b9e5b48f112f4cc38fb76","0","2025-07-30T09:01:34.186Z","","","","ControlQ","","","","","","","","","","","50","","","","","","","","","","","","","","","","","","","","","","","","","","",""
"4963","","<div style=""width:500px;"">
  <p>How would you describe your current emotional state?</p>
  </div>","11","html-slider-response","46","964814","0.0-7.0-3.6","50","1","2025-07-30 08:45:33","36c45c0696341be0efffe67d72a12abb","160.19.36.2","Mozilla/5.0 (Windows NT 10.0; Win64; x64) AppleWebKit/537.36 (KHTML, like Gecko) Chrome/109.0.0.0 Safari/537.36","WebKit","Chrome","109.0.0.0","Windows","10.0","https://app.prolific.com/","en-US,en;q=0.9","609b9e5b48f112f4cc38fb76","687a360dabe5252b5ada7185","6889da9d37f868e8c58f6be8","0","609b9e5b48f112f4cc38fb76","0","2025-07-30T09:01:39.151Z","","","","StressQ","","","","","","","","","","","50","","","","","","","","","","","","","","","","","","","","","","","","","","",""
"7334","","<div style=""width:500px;"">
  <p>What best describes how you currently feel?</p>
  </div>","100","html-slider-response","47","972149","0.0-7.0-4.6","50","1","2025-07-30 08:45:33","36c45c0696341be0efffe67d72a12abb","160.19.36.2","Mozilla/5.0 (Windows NT 10.0; Win64; x64) AppleWebKit/537.36 (KHTML, like Gecko) Chrome/109.0.0.0 Safari/537.36","WebKit","Chrome","109.0.0.0","Windows","10.0","https://app.prolific.com/","en-US,en;q=0.9","609b9e5b48f112f4cc38fb76","687a360dabe5252b5ada7185","6889da9d37f868e8c58f6be8","0","609b9e5b48f112f4cc38fb76","0","2025-07-30T09:01:46.486Z","","","","MotivationQ","","","","","","","","","","","50","","","","","","","","","","","","","","","","","","","","","","","","","","",""
"","","","","ctl-task-cpt","48","1060847","0.0-7.0-0.7","50","1","2025-07-30 08:45:33","36c45c0696341be0efffe67d72a12abb","160.19.36.2","Mozilla/5.0 (Windows NT 10.0; Win64; x64) AppleWebKit/537.36 (KHTML, like Gecko) Chrome/109.0.0.0 Safari/537.36","WebKit","Chrome","109.0.0.0","Windows","10.0","https://app.prolific.com/","en-US,en;q=0.9","609b9e5b48f112f4cc38fb76","687a360dabe5252b5ada7185","6889da9d37f868e8c58f6be8","0","609b9e5b48f112f4cc38fb76","0","2025-07-30T09:03:15.185Z","","","","","","","","","","","","","","","","win-only","1","g1:NE,g2:SW","0.3","8","0","975176.6","1546.6","6550.5","85685.3","1","4","8","6","2","-8","-8","11","19","0.08333333333333333","1411","3000","-1255","[""down"",""left""]","{""num_key_presses"":18,""num_perfect"":6,""num_errors"":0,""num_randdir"":12,""num_randdir_good_moves"":4,""num_whilered"":0,""num_whileblue"":0,""num_blue"":6,""num_good_moves"":10}","[293.22232142857143,290.12857142857143,0.4,293.22232142857143,290.12857142857143,104.6,293.22232142857143,290.12857142857143,207.8,293.22232142857143,290.12857142857143,311.4,293.22232142857143,290.12857142857143,416.6,293.22232142857143,290.12857142857143,526.7,213.22232142857143,362.12857142857143,633.4,109.22232142857143,480.12857142857143,740,98.22232142857143,495.12857142857143,845.6,67.22232142857143,531.1285714285714,955.9,56.222321428571426,537.1285714285714,1057.7,49.222321428571426,537.1285714285714,1160,49.222321428571426,537.1285714285714,1261.8,49.222321428571426,537.1285714285714,1366.9,49.222321428571426,537.1285714285714,1477.5,49.222321428571426,537.1285714285714,1578.8,49.222321428571426,537.1285714285714,1681.9,49.222321428571426,537.1285714285714,1786,49.222321428571426,537.1285714285714,1888.6,49.222321428571426,537.1285714285714,1994.8,49.222321428571426,537.1285714285714,2103.3,49.222321428571426,537.1285714285714,2207,49.222321428571426,537.1285714285714,2311.8,49.222321428571426,537.1285714285714,2417.8,49.222321428571426,537.1285714285714,2519.7,49.222321428571426,537.1285714285714,2625.2,49.222321428571426,537.1285714285714,2728.5,49.222321428571426,537.1285714285714,2830.7,49.222321428571426,537.1285714285714,2935.4,49.222321428571426,537.1285714285714,3044.4,49.222321428571426,537.1285714285714,3147.1,49.222321428571426,537.1285714285714,3263.6,49.222321428571426,537.1285714285714,3380.6,49.222321428571426,537.1285714285714,3482.4,49.222321428571426,537.1285714285714,3586.9,49.222321428571426,537.1285714285714,3689.5,49.222321428571426,537.1285714285714,3791.7,49.222321428571426,537.1285714285714,3894,49.222321428571426,537.1285714285714,3997.6,49.222321428571426,537.1285714285714,4103.6,49.222321428571426,537.1285714285714,4207,49.222321428571426,537.1285714285714,4315.3,49.222321428571426,537.1285714285714,4427.3,49.222321428571426,537.1285714285714,4527.3,49.222321428571426,537.1285714285714,4630.8,49.222321428571426,537.1285714285714,4731.5,49.222321428571426,537.1285714285714,4834.8,49.222321428571426,537.1285714285714,4936.4]","[1471.1,1471.1,1000,0,471.1,""oops"",""down"",""left"",""good_move"",4315.9,2844.4,2198.2,1471.5,646.2,""oops"",""down"",""up"",""bad_move"",7748.6,3432.3,2145.3,4316.3,1287,""oops"",""down"",""right"",""bad_move"",10906,3155.6,2712.1,7750.4,443.5,""oops"",""down"",""up"",""bad_move"",14084.7,3178.3,2768.5,10906.5,409.7,""oops"",""down"",""right"",""bad_move"",17263.3,3178.2,2771.5,14085.2,406.6,""smooth"",""left"",""left"",""good_move"",20381.7,3117.9,2662.3,17263.8,455.6,""oops"",""left"",""left"",""good_move"",23776.8,3394.7,2127.6,20382.1,1267.1,""smooth"",""left"",""left"",""good_move"",27066.2,3288.8,2666.3,23777.4,622.5,""oops"",""left"",""right"",""bad_move"",29351.8,2285.1,1452.9,27066.7,832.2,""smooth"",""left"",""left"",""good_move"",32515.1,3163,2725.4,29352.1,437.6,""smooth"",""left"",""left"",""good_move"",39828.6,7313,3170.6,36271.9,386.1,""smooth"",""down"",""down"",""good_move"",46443.3,6614.4,2830.3,43200.8,412.3,""oops"",""down"",""down"",""good_move"",53134.3,6690.6,2558.6,50021.8,554,""smooth"",""down"",""down"",""good_move"",59518.4,6381,2253.5,56829.4,435.5,""oops"",""down"",""up"",""bad_move"",62373.2,2854.4,2351.9,59518.8,502.5,""oops"",""down"",""down"",""good_move"",65096.5,2722.4,2318,62374.2,404.3,""oops"",""down"",""up"",""bad_move"",76068.5,10971.9,3299.9,72337.5,431.2,""oops"",""down"",""up"",""bad_move""]"
"10852","","<div style=""width:500px;"">
  <p>What determined the result of this run?</p>
  </div>","14","html-slider-response","49","1071705","0.0-7.0-1.7","50","1","2025-07-30 08:45:33","36c45c0696341be0efffe67d72a12abb","160.19.36.2","Mozilla/5.0 (Windows NT 10.0; Win64; x64) AppleWebKit/537.36 (KHTML, like Gecko) Chrome/109.0.0.0 Safari/537.36","WebKit","Chrome","109.0.0.0","Windows","10.0","https://app.prolific.com/","en-US,en;q=0.9","609b9e5b48f112f4cc38fb76","687a360dabe5252b5ada7185","6889da9d37f868e8c58f6be8","0","609b9e5b48f112f4cc38fb76","0","2025-07-30T09:03:26.043Z","","","","AttribQ","","","","","","","","","","","50","","","","","","","","","","","","","","","","","","","","","","","","","","",""
"6960","","<div style=""width:500px;"">
  <p>How much control did you have over the ball?</p>
  </div>","14","html-slider-response","50","1078668","0.0-7.0-2.7","50","1","2025-07-30 08:45:33","36c45c0696341be0efffe67d72a12abb","160.19.36.2","Mozilla/5.0 (Windows NT 10.0; Win64; x64) AppleWebKit/537.36 (KHTML, like Gecko) Chrome/109.0.0.0 Safari/537.36","WebKit","Chrome","109.0.0.0","Windows","10.0","https://app.prolific.com/","en-US,en;q=0.9","609b9e5b48f112f4cc38fb76","687a360dabe5252b5ada7185","6889da9d37f868e8c58f6be8","0","609b9e5b48f112f4cc38fb76","0","2025-07-30T09:03:33.006Z","","","","ControlQ","","","","","","","","","","","50","","","","","","","","","","","","","","","","","","","","","","","","","","",""
"5789","","<div style=""width:500px;"">
  <p>How would you describe your current emotional state?</p>
  </div>","62","html-slider-response","51","1084460","0.0-7.0-3.7","50","1","2025-07-30 08:45:33","36c45c0696341be0efffe67d72a12abb","160.19.36.2","Mozilla/5.0 (Windows NT 10.0; Win64; x64) AppleWebKit/537.36 (KHTML, like Gecko) Chrome/109.0.0.0 Safari/537.36","WebKit","Chrome","109.0.0.0","Windows","10.0","https://app.prolific.com/","en-US,en;q=0.9","609b9e5b48f112f4cc38fb76","687a360dabe5252b5ada7185","6889da9d37f868e8c58f6be8","0","609b9e5b48f112f4cc38fb76","0","2025-07-30T09:03:38.798Z","","","","StressQ","","","","","","","","","","","50","","","","","","","","","","","","","","","","","","","","","","","","","","",""
"5746","","<div style=""width:500px;"">
  <p>What best describes how you currently feel?</p>
  </div>","68","html-slider-response","52","1090209","0.0-7.0-4.7","50","1","2025-07-30 08:45:33","36c45c0696341be0efffe67d72a12abb","160.19.36.2","Mozilla/5.0 (Windows NT 10.0; Win64; x64) AppleWebKit/537.36 (KHTML, like Gecko) Chrome/109.0.0.0 Safari/537.36","WebKit","Chrome","109.0.0.0","Windows","10.0","https://app.prolific.com/","en-US,en;q=0.9","609b9e5b48f112f4cc38fb76","687a360dabe5252b5ada7185","6889da9d37f868e8c58f6be8","0","609b9e5b48f112f4cc38fb76","0","2025-07-30T09:03:44.547Z","","","","MotivationQ","","","","","","","","","","","50","","","","","","","","","","","","","","","","","","","","","","","","","","",""
"","","","","ctl-task-cpt","53","1151061","0.0-7.0-0.8","50","1","2025-07-30 08:45:33","36c45c0696341be0efffe67d72a12abb","160.19.36.2","Mozilla/5.0 (Windows NT 10.0; Win64; x64) AppleWebKit/537.36 (KHTML, like Gecko) Chrome/109.0.0.0 Safari/537.36","WebKit","Chrome","109.0.0.0","Windows","10.0","https://app.prolific.com/","en-US,en;q=0.9","609b9e5b48f112f4cc38fb76","687a360dabe5252b5ada7185","6889da9d37f868e8c58f6be8","0","609b9e5b48f112f4cc38fb76","0","2025-07-30T09:04:45.398Z","","","","","","","","","","","","","","","","win-only","1","g1:NE,g2:SW","0.4","9","0","1093234","1362.9","6373.9","57835.8","1","4","4","6","2","-4","-4","7","11","0.05303030303030303","1284.1","3000","-1155","[""down"",""left""]","{""num_key_presses"":10,""num_perfect"":4,""num_errors"":0,""num_randdir"":6,""num_randdir_good_moves"":2,""num_whilered"":0,""num_whileblue"":0,""num_blue"":5,""num_good_moves"":6}","[304.22232142857143,293.12857142857143,0.5,304.22232142857143,293.12857142857143,100.2,304.22232142857143,293.12857142857143,216.5,304.22232142857143,293.12857142857143,330.6,304.22232142857143,293.12857142857143,430.8,304.22232142857143,293.12857142857143,552.6,86.22232142857143,472.12857142857143,668.9,27.222321428571426,529.1285714285714,773.7,24.222321428571426,531.1285714285714,878.5,24.222321428571426,531.1285714285714,982.6,27.222321428571426,530.1285714285714,1089.6,27.222321428571426,530.1285714285714,1192.6,27.222321428571426,530.1285714285714,1294.6,27.222321428571426,530.1285714285714,1395.2,27.222321428571426,530.1285714285714,1509.2,27.222321428571426,530.1285714285714,1624.8,27.222321428571426,530.1285714285714,1727.3,27.222321428571426,530.1285714285714,1837.2,27.222321428571426,530.1285714285714,1957.3,27.222321428571426,530.1285714285714,2069.5,27.222321428571426,530.1285714285714,2184.1,27.222321428571426,530.1285714285714,2293.9,27.222321428571426,530.1285714285714,2399.1,27.222321428571426,530.1285714285714,2511.3,27.222321428571426,530.1285714285714,2622.7,27.222321428571426,530.1285714285714,2735.3,27.222321428571426,530.1285714285714,2840.5,27.222321428571426,530.1285714285714,2951,27.222321428571426,530.1285714285714,3054.8,27.222321428571426,530.1285714285714,3165.1,27.222321428571426,530.1285714285714,3273.2,27.222321428571426,530.1285714285714,3373.2,27.222321428571426,530.1285714285714,3488.2,27.222321428571426,530.1285714285714,3592.2,27.222321428571426,530.1285714285714,3695.8,27.222321428571426,530.1285714285714,3804.4,27.222321428571426,530.1285714285714,3908.1,27.222321428571426,530.1285714285714,4009.9,27.222321428571426,530.1285714285714,4117.4,27.222321428571426,530.1285714285714,4224.8,27.222321428571426,530.1285714285714,4332.1,27.222321428571426,530.1285714285714,4436.7,27.222321428571426,530.1285714285714,4544.6,27.222321428571426,530.1285714285714,4647.6,27.222321428571426,530.1285714285714,4752.1,27.222321428571426,530.1285714285714,4859.8,27.222321428571426,530.1285714285714,4964]","[1508.7,1508.7,1000,0,508.7,""smooth"",""down"",""down"",""good_move"",4445.7,2936.6,2442.5,1509.1,494.1,""oops"",""down"",""right"",""bad_move"",6687.3,2241.2,1729,4446.2,512.2,""smooth"",""down"",""down"",""good_move"",10921.2,4233.2,2386.6,6688,1846.6,""smooth"",""down"",""down"",""good_move"",21209,10287.4,2498.9,17958.9,751.2,""oops"",""left"",""left"",""good_move"",24521.8,3312.3,2661.3,21209.5,651,""oops"",""left"",""up"",""bad_move"",28439.4,3917,2479.2,24522.4,1437.8,""oops"",""left"",""up"",""bad_move"",32080.4,3640.6,2383.1,28439.8,1257.5,""oops"",""down"",""left"",""good_move"",34947.8,2866.9,2341.3,32081,525.6,""oops"",""down"",""up"",""bad_move"",41740.8,6792.4,2642.5,38638.4,459.9,""smooth"",""left"",""left"",""good_move""]"
"4863","","<div style=""width:500px;"">
  <p>What determined the result of this run?</p>
  </div>","25","html-slider-response","54","1155926","0.0-7.0-1.8","50","1","2025-07-30 08:45:33","36c45c0696341be0efffe67d72a12abb","160.19.36.2","Mozilla/5.0 (Windows NT 10.0; Win64; x64) AppleWebKit/537.36 (KHTML, like Gecko) Chrome/109.0.0.0 Safari/537.36","WebKit","Chrome","109.0.0.0","Windows","10.0","https://app.prolific.com/","en-US,en;q=0.9","609b9e5b48f112f4cc38fb76","687a360dabe5252b5ada7185","6889da9d37f868e8c58f6be8","0","609b9e5b48f112f4cc38fb76","0","2025-07-30T09:04:50.264Z","","","","AttribQ","","","","","","","","","","","50","","","","","","","","","","","","","","","","","","","","","","","","","","",""
"5156","","<div style=""width:500px;"">
  <p>How much control did you have over the ball?</p>
  </div>","34","html-slider-response","55","1161085","0.0-7.0-2.8","50","1","2025-07-30 08:45:33","36c45c0696341be0efffe67d72a12abb","160.19.36.2","Mozilla/5.0 (Windows NT 10.0; Win64; x64) AppleWebKit/537.36 (KHTML, like Gecko) Chrome/109.0.0.0 Safari/537.36","WebKit","Chrome","109.0.0.0","Windows","10.0","https://app.prolific.com/","en-US,en;q=0.9","609b9e5b48f112f4cc38fb76","687a360dabe5252b5ada7185","6889da9d37f868e8c58f6be8","0","609b9e5b48f112f4cc38fb76","0","2025-07-30T09:04:55.422Z","","","","ControlQ","","","","","","","","","","","50","","","","","","","","","","","","","","","","","","","","","","","","","","",""
"6081","","<div style=""width:500px;"">
  <p>How would you describe your current emotional state?</p>
  </div>","34","html-slider-response","56","1167169","0.0-7.0-3.8","50","1","2025-07-30 08:45:33","36c45c0696341be0efffe67d72a12abb","160.19.36.2","Mozilla/5.0 (Windows NT 10.0; Win64; x64) AppleWebKit/537.36 (KHTML, like Gecko) Chrome/109.0.0.0 Safari/537.36","WebKit","Chrome","109.0.0.0","Windows","10.0","https://app.prolific.com/","en-US,en;q=0.9","609b9e5b48f112f4cc38fb76","687a360dabe5252b5ada7185","6889da9d37f868e8c58f6be8","0","609b9e5b48f112f4cc38fb76","0","2025-07-30T09:05:01.506Z","","","","StressQ","","","","","","","","","","","50","","","","","","","","","","","","","","","","","","","","","","","","","","",""
"9803","","<div style=""width:500px;"">
  <p>What best describes how you currently feel?</p>
  </div>","64","html-slider-response","57","1176974","0.0-7.0-4.8","50","1","2025-07-30 08:45:33","36c45c0696341be0efffe67d72a12abb","160.19.36.2","Mozilla/5.0 (Windows NT 10.0; Win64; x64) AppleWebKit/537.36 (KHTML, like Gecko) Chrome/109.0.0.0 Safari/537.36","WebKit","Chrome","109.0.0.0","Windows","10.0","https://app.prolific.com/","en-US,en;q=0.9","609b9e5b48f112f4cc38fb76","687a360dabe5252b5ada7185","6889da9d37f868e8c58f6be8","0","609b9e5b48f112f4cc38fb76","0","2025-07-30T09:05:11.311Z","","","","MotivationQ","","","","","","","","","","","50","","","","","","","","","","","","","","","","","","","","","","","","","","",""
"","","","","ctl-task-cpt","58","1254760","0.0-7.0-0.9","50","1","2025-07-30 08:45:33","36c45c0696341be0efffe67d72a12abb","160.19.36.2","Mozilla/5.0 (Windows NT 10.0; Win64; x64) AppleWebKit/537.36 (KHTML, like Gecko) Chrome/109.0.0.0 Safari/537.36","WebKit","Chrome","109.0.0.0","Windows","10.0","https://app.prolific.com/","en-US,en;q=0.9","609b9e5b48f112f4cc38fb76","687a360dabe5252b5ada7185","6889da9d37f868e8c58f6be8","0","609b9e5b48f112f4cc38fb76","0","2025-07-30T09:06:29.097Z","","","","","","","","","","","","","","","","win-only","2","g1:SE,g2:NW","0.5","10","0","1179998.3","1730.7","6734.3","74768.5","1","4","8","6","2","-8","-8","0","7","0","1866.6","3000","-1045","[""left"",""up""]","{""num_key_presses"":17,""num_perfect"":8,""num_errors"":0,""num_randdir"":9,""num_randdir_good_moves"":3,""num_whilered"":0,""num_whileblue"":0,""num_blue"":4,""num_good_moves"":10}","[290.22232142857143,296.12857142857143,0.3,290.22232142857143,296.12857142857143,108.3,290.22232142857143,296.12857142857143,221.3,290.22232142857143,296.12857142857143,321.7,290.22232142857143,296.12857142857143,424.5,290.22232142857143,296.12857142857143,539.5,290.22232142857143,296.12857142857143,653.5,231.22232142857143,231.12857142857143,755.3,169.22232142857143,157.12857142857143,855.8,169.22232142857143,157.12857142857143,973.7,155.22232142857143,164.12857142857143,1090.9,83.22232142857143,119.12857142857143,1192.2,74.22232142857143,104.12857142857143,1294.9,73.22232142857143,94.12857142857143,1398,68.22232142857143,74.12857142857143,1500.7,70.22232142857143,69.12857142857143,1601,70.22232142857143,69.12857142857143,1719,70.22232142857143,69.12857142857143,1838.9,70.22232142857143,69.12857142857143,1944.4,70.22232142857143,69.12857142857143,2060.2,70.22232142857143,69.12857142857143,2168.9,70.22232142857143,69.12857142857143,2273.9,70.22232142857143,69.12857142857143,2387.5,70.22232142857143,69.12857142857143,2503,70.22232142857143,69.12857142857143,2616.8,70.22232142857143,69.12857142857143,2733.2,70.22232142857143,69.12857142857143,2846.6,70.22232142857143,69.12857142857143,2959.2,70.22232142857143,69.12857142857143,3075,70.22232142857143,69.12857142857143,3185.8,70.22232142857143,69.12857142857143,3305.7,70.22232142857143,69.12857142857143,3417.2,70.22232142857143,69.12857142857143,3531.4,70.22232142857143,69.12857142857143,3641.8,70.22232142857143,69.12857142857143,3757.7,70.22232142857143,69.12857142857143,3869.2,70.22232142857143,69.12857142857143,3982.3,70.22232142857143,69.12857142857143,4092.1,70.22232142857143,69.12857142857143,4205.8,70.22232142857143,69.12857142857143,4318.3,70.22232142857143,69.12857142857143,4420.5,70.22232142857143,69.12857142857143,4531.3,70.22232142857143,69.12857142857143,4648.3,70.22232142857143,69.12857142857143,4752.4,70.22232142857143,69.12857142857143,4867.1,70.22232142857143,69.12857142857143,4969.7]","[1575.2,1575.2,1000,0,575.2,""smooth"",""up"",""up"",""good_move"",9242.1,7665.8,2996.5,5787.7,458.1,""smooth"",""up"",""up"",""good_move"",12837.6,3595.1,2295.4,9242.7,1299.6,""oops"",""up"",""down"",""bad_move"",15980.6,3142.5,2110.7,12838.1,1031.8,""smooth"",""up"",""up"",""good_move"",19284.2,3303,2614.2,15981.2,688.8,""oops"",""left"",""up"",""good_move"",22254.9,2970.3,2273.1,19284.6,697.2,""oops"",""left"",""right"",""bad_move"",25136.9,2879,2371,22257.9,508,""smooth"",""left"",""left"",""good_move"",28249.2,3112,2638.8,25137.2,473.2,""oops"",""left"",""right"",""bad_move"",33712.2,5462.6,1560.5,31602.9,548.9,""oops"",""left"",""right"",""bad_move"",36776.4,3063.7,2573.5,33712.7,490.2,""smooth"",""left"",""left"",""good_move"",46963.4,10186.6,2940.4,43583.4,439.6,""oops"",""left"",""left"",""good_move"",50116.2,3152.4,2599.2,46963.9,553.1,""oops"",""left"",""left"",""good_move"",53123.9,3007.2,1904.3,50116.7,1102.9,""oops"",""left"",""right"",""bad_move"",55928.7,2804.3,2329.1,53124.5,475.2,""smooth"",""left"",""left"",""good_move"",58937.6,3008.5,2361.9,55929.1,646.6,""oops"",""left"",""right"",""bad_move"",61751.6,2813.4,2347,58938.2,466.4,""smooth"",""left"",""left"",""good_move"",64698.7,2946.9,1701.7,61751.9,1245.2,""smooth"",""down"",""down"",""bad_move""]"
"5462","","<div style=""width:500px;"">
  <p>What determined the result of this run?</p>
  </div>","25","html-slider-response","59","1260224","0.0-7.0-1.9","50","1","2025-07-30 08:45:33","36c45c0696341be0efffe67d72a12abb","160.19.36.2","Mozilla/5.0 (Windows NT 10.0; Win64; x64) AppleWebKit/537.36 (KHTML, like Gecko) Chrome/109.0.0.0 Safari/537.36","WebKit","Chrome","109.0.0.0","Windows","10.0","https://app.prolific.com/","en-US,en;q=0.9","609b9e5b48f112f4cc38fb76","687a360dabe5252b5ada7185","6889da9d37f868e8c58f6be8","0","609b9e5b48f112f4cc38fb76","0","2025-07-30T09:06:34.561Z","","","","AttribQ","","","","","","","","","","","50","","","","","","","","","","","","","","","","","","","","","","","","","","",""
"4376","","<div style=""width:500px;"">
  <p>How much control did you have over the ball?</p>
  </div>","39","html-slider-response","60","1264602","0.0-7.0-2.9","50","1","2025-07-30 08:45:33","36c45c0696341be0efffe67d72a12abb","160.19.36.2","Mozilla/5.0 (Windows NT 10.0; Win64; x64) AppleWebKit/537.36 (KHTML, like Gecko) Chrome/109.0.0.0 Safari/537.36","WebKit","Chrome","109.0.0.0","Windows","10.0","https://app.prolific.com/","en-US,en;q=0.9","609b9e5b48f112f4cc38fb76","687a360dabe5252b5ada7185","6889da9d37f868e8c58f6be8","0","609b9e5b48f112f4cc38fb76","0","2025-07-30T09:06:38.940Z","","","","ControlQ","","","","","","","","","","","50","","","","","","","","","","","","","","","","","","","","","","","","","","",""
"4521","","<div style=""width:500px;"">
  <p>How would you describe your current emotional state?</p>
  </div>","18","html-slider-response","61","1269126","0.0-7.0-3.9","50","1","2025-07-30 08:45:33","36c45c0696341be0efffe67d72a12abb","160.19.36.2","Mozilla/5.0 (Windows NT 10.0; Win64; x64) AppleWebKit/537.36 (KHTML, like Gecko) Chrome/109.0.0.0 Safari/537.36","WebKit","Chrome","109.0.0.0","Windows","10.0","https://app.prolific.com/","en-US,en;q=0.9","609b9e5b48f112f4cc38fb76","687a360dabe5252b5ada7185","6889da9d37f868e8c58f6be8","0","609b9e5b48f112f4cc38fb76","0","2025-07-30T09:06:43.463Z","","","","StressQ","","","","","","","","","","","50","","","","","","","","","","","","","","","","","","","","","","","","","","",""
"7589","","<div style=""width:500px;"">
  <p>What best describes how you currently feel?</p>
  </div>","76","html-slider-response","62","1276717","0.0-7.0-4.9","50","1","2025-07-30 08:45:33","36c45c0696341be0efffe67d72a12abb","160.19.36.2","Mozilla/5.0 (Windows NT 10.0; Win64; x64) AppleWebKit/537.36 (KHTML, like Gecko) Chrome/109.0.0.0 Safari/537.36","WebKit","Chrome","109.0.0.0","Windows","10.0","https://app.prolific.com/","en-US,en;q=0.9","609b9e5b48f112f4cc38fb76","687a360dabe5252b5ada7185","6889da9d37f868e8c58f6be8","0","609b9e5b48f112f4cc38fb76","0","2025-07-30T09:06:51.054Z","","","","MotivationQ","","","","","","","","","","","50","","","","","","","","","","","","","","","","","","","","","","","","","","",""
"","","","","ctl-task-cpt","63","1329448","0.0-7.0-0.10","50","1","2025-07-30 08:45:33","36c45c0696341be0efffe67d72a12abb","160.19.36.2","Mozilla/5.0 (Windows NT 10.0; Win64; x64) AppleWebKit/537.36 (KHTML, like Gecko) Chrome/109.0.0.0 Safari/537.36","WebKit","Chrome","109.0.0.0","Windows","10.0","https://app.prolific.com/","en-US,en;q=0.9","609b9e5b48f112f4cc38fb76","687a360dabe5252b5ada7185","6889da9d37f868e8c58f6be8","0","609b9e5b48f112f4cc38fb76","0","2025-07-30T09:07:43.785Z","","","","","","","","","","","","","","","","win-only","2","g1:SE,g2:NW","0.6","11","0","1279738.1","2139.4","7147.2","49712.5","1","4","4","6","2","4","4","4","0","0.030303030303030304","1781","3000","1680","[""left"",""up""]","{""num_key_presses"":8,""num_perfect"":6,""num_errors"":0,""num_randdir"":2,""num_randdir_good_moves"":1,""num_whilered"":0,""num_whileblue"":0,""num_blue"":5,""num_good_moves"":7}","[295.22232142857143,292.12857142857143,0.6,295.22232142857143,292.12857142857143,107.3,295.22232142857143,292.12857142857143,219.4,295.22232142857143,292.12857142857143,335,295.22232142857143,292.12857142857143,437.8,295.22232142857143,292.12857142857143,557.8,295.22232142857143,292.12857142857143,671.8,275.22232142857143,278.12857142857143,790.2,108.22232142857143,153.12857142857143,908.4,108.22232142857143,153.12857142857143,1028.7,108.22232142857143,153.12857142857143,1144.9,76.22232142857143,130.12857142857143,1250.7,51.222321428571426,83.12857142857143,1354.4,51.222321428571426,72.12857142857143,1468.3,51.222321428571426,72.12857142857143,1586.9,51.222321428571426,72.12857142857143,1702.7,51.222321428571426,72.12857142857143,1823.3,51.222321428571426,72.12857142857143,1924.6,51.222321428571426,72.12857142857143,2041.1,51.222321428571426,72.12857142857143,2156.7,51.222321428571426,72.12857142857143,2277.5,51.222321428571426,72.12857142857143,2398.5,51.222321428571426,72.12857142857143,2512.7,51.222321428571426,72.12857142857143,2629.7,51.222321428571426,72.12857142857143,2745.8,51.222321428571426,72.12857142857143,2861.2,51.222321428571426,72.12857142857143,2980.4,51.222321428571426,72.12857142857143,3091.5,51.222321428571426,72.12857142857143,3199.4,51.222321428571426,72.12857142857143,3307.4,51.222321428571426,72.12857142857143,3414.4,51.222321428571426,72.12857142857143,3516,51.222321428571426,72.12857142857143,3616.9,51.222321428571426,72.12857142857143,3720.1,51.222321428571426,72.12857142857143,3826.8,51.222321428571426,72.12857142857143,3933.8,51.222321428571426,72.12857142857143,4048.7,51.222321428571426,72.12857142857143,4164.9,51.222321428571426,72.12857142857143,4280.6,51.222321428571426,72.12857142857143,4398.1,51.222321428571426,72.12857142857143,4501.4,51.222321428571426,72.12857142857143,4617.1,51.222321428571426,72.12857142857143,4733,51.222321428571426,72.12857142857143,4847.7,51.222321428571426,72.12857142857143,4948.5]","[1902.8,1902.8,1000,0,902.8,""smooth"",""left"",""left"",""good_move"",5456.6,3553.2,2320.4,1903.4,1232.8,""smooth"",""left"",""left"",""good_move"",12474.6,7017.1,2560.2,9450.2,464.2,""smooth"",""left"",""left"",""good_move"",15821.6,3346.7,1640.3,12474.9,1706.4,""oops"",""up"",""down"",""bad_move"",18004.5,2182.5,1391,15822,791.5,""smooth"",""up"",""up"",""good_move"",25609.3,7604.5,3302.7,21833.4,473.2,""smooth"",""up"",""up"",""good_move"",31891.9,6281.9,1965.6,29436,490.3,""oops"",""up"",""up"",""good_move"",42280.4,10387.9,3448,38422.3,410.1,""smooth"",""up"",""up"",""good_move""]"
"10043","","<div style=""width:500px;"">
  <p>What determined the result of this run?</p>
  </div>","61","html-slider-response","64","1339493","0.0-7.0-1.10","50","1","2025-07-30 08:45:33","36c45c0696341be0efffe67d72a12abb","160.19.36.2","Mozilla/5.0 (Windows NT 10.0; Win64; x64) AppleWebKit/537.36 (KHTML, like Gecko) Chrome/109.0.0.0 Safari/537.36","WebKit","Chrome","109.0.0.0","Windows","10.0","https://app.prolific.com/","en-US,en;q=0.9","609b9e5b48f112f4cc38fb76","687a360dabe5252b5ada7185","6889da9d37f868e8c58f6be8","0","609b9e5b48f112f4cc38fb76","0","2025-07-30T09:07:53.830Z","","","","AttribQ","","","","","","","","","","","50","","","","","","","","","","","","","","","","","","","","","","","","","","",""
"5277","","<div style=""width:500px;"">
  <p>How much control did you have over the ball?</p>
  </div>","57","html-slider-response","65","1344773","0.0-7.0-2.10","50","1","2025-07-30 08:45:33","36c45c0696341be0efffe67d72a12abb","160.19.36.2","Mozilla/5.0 (Windows NT 10.0; Win64; x64) AppleWebKit/537.36 (KHTML, like Gecko) Chrome/109.0.0.0 Safari/537.36","WebKit","Chrome","109.0.0.0","Windows","10.0","https://app.prolific.com/","en-US,en;q=0.9","609b9e5b48f112f4cc38fb76","687a360dabe5252b5ada7185","6889da9d37f868e8c58f6be8","0","609b9e5b48f112f4cc38fb76","0","2025-07-30T09:07:59.110Z","","","","ControlQ","","","","","","","","","","","50","","","","","","","","","","","","","","","","","","","","","","","","","","",""
"9501","","<div style=""width:500px;"">
  <p>How would you describe your current emotional state?</p>
  </div>","14","html-slider-response","66","1354277","0.0-7.0-3.10","50","1","2025-07-30 08:45:33","36c45c0696341be0efffe67d72a12abb","160.19.36.2","Mozilla/5.0 (Windows NT 10.0; Win64; x64) AppleWebKit/537.36 (KHTML, like Gecko) Chrome/109.0.0.0 Safari/537.36","WebKit","Chrome","109.0.0.0","Windows","10.0","https://app.prolific.com/","en-US,en;q=0.9","609b9e5b48f112f4cc38fb76","687a360dabe5252b5ada7185","6889da9d37f868e8c58f6be8","0","609b9e5b48f112f4cc38fb76","0","2025-07-30T09:08:08.614Z","","","","StressQ","","","","","","","","","","","50","","","","","","","","","","","","","","","","","","","","","","","","","","",""
"6900","","<div style=""width:500px;"">
  <p>What best describes how you currently feel?</p>
  </div>","76","html-slider-response","67","1361179","0.0-7.0-4.10","50","1","2025-07-30 08:45:33","36c45c0696341be0efffe67d72a12abb","160.19.36.2","Mozilla/5.0 (Windows NT 10.0; Win64; x64) AppleWebKit/537.36 (KHTML, like Gecko) Chrome/109.0.0.0 Safari/537.36","WebKit","Chrome","109.0.0.0","Windows","10.0","https://app.prolific.com/","en-US,en;q=0.9","609b9e5b48f112f4cc38fb76","687a360dabe5252b5ada7185","6889da9d37f868e8c58f6be8","0","609b9e5b48f112f4cc38fb76","0","2025-07-30T09:08:15.516Z","","","","MotivationQ","","","","","","","","","","","50","","","","","","","","","","","","","","","","","","","","","","","","","","",""
"","","","","ctl-task-cpt","68","1407893","0.0-7.0-0.11","50","1","2025-07-30 08:45:33","36c45c0696341be0efffe67d72a12abb","160.19.36.2","Mozilla/5.0 (Windows NT 10.0; Win64; x64) AppleWebKit/537.36 (KHTML, like Gecko) Chrome/109.0.0.0 Safari/537.36","WebKit","Chrome","109.0.0.0","Windows","10.0","https://app.prolific.com/","en-US,en;q=0.9","609b9e5b48f112f4cc38fb76","687a360dabe5252b5ada7185","6889da9d37f868e8c58f6be8","0","609b9e5b48f112f4cc38fb76","0","2025-07-30T09:09:02.230Z","","","","","","","","","","","","","","","","win-only","2","g1:SE,g2:NW","0.7","12","0","1364197.8","1486.2","6499.3","43696.8","1","4","8","6","2","8","8","12","4","0.09090909090909091","1572.4","3000","1710","[""left"",""up""]","{""num_key_presses"":10,""num_perfect"":7,""num_errors"":0,""num_randdir"":3,""num_randdir_good_moves"":1,""num_whilered"":0,""num_whileblue"":0,""num_blue"":1,""num_good_moves"":8}","[293.22232142857143,294.12857142857143,0.8,293.22232142857143,294.12857142857143,114.5,293.22232142857143,294.12857142857143,222.3,293.22232142857143,294.12857142857143,329.9,293.22232142857143,294.12857142857143,443.6,293.22232142857143,294.12857142857143,561.7,230.22232142857143,251.12857142857143,670.6,139.22232142857143,122.12857142857143,777.7,139.22232142857143,122.12857142857143,887,139.22232142857143,122.12857142857143,996.2,114.22232142857143,111.12857142857143,1107.5,64.22232142857143,82.12857142857143,1219.4,62.222321428571426,75.12857142857143,1324.6,62.222321428571426,75.12857142857143,1438.6,62.222321428571426,75.12857142857143,1558.3,62.222321428571426,75.12857142857143,1662.6,62.222321428571426,75.12857142857143,1781.4,62.222321428571426,75.12857142857143,1891.2,62.222321428571426,75.12857142857143,2011.1,62.222321428571426,75.12857142857143,2128.7,62.222321428571426,75.12857142857143,2239.5,62.222321428571426,75.12857142857143,2339.8,62.222321428571426,75.12857142857143,2453.6,62.222321428571426,75.12857142857143,2558.9,62.222321428571426,75.12857142857143,2675.3,62.222321428571426,75.12857142857143,2785.6,62.222321428571426,75.12857142857143,2892.2,62.222321428571426,75.12857142857143,2995.9,62.222321428571426,75.12857142857143,3108.2,62.222321428571426,75.12857142857143,3219.1,62.222321428571426,75.12857142857143,3328.7,62.222321428571426,75.12857142857143,3430.8,62.222321428571426,75.12857142857143,3538.7,62.222321428571426,75.12857142857143,3639.8,62.222321428571426,75.12857142857143,3758.2,62.222321428571426,75.12857142857143,3875.9,62.222321428571426,75.12857142857143,3993.6,62.222321428571426,75.12857142857143,4103,62.222321428571426,75.12857142857143,4204.9,62.222321428571426,75.12857142857143,4327.4,62.222321428571426,75.12857142857143,4441.5,62.222321428571426,75.12857142857143,4558.1,62.222321428571426,75.12857142857143,4675.7,62.222321428571426,75.12857142857143,4796.5,62.222321428571426,75.12857142857143,4917.4]","[5457.2,5457.2,2954.6,2025.8,476.8,""smooth"",""left"",""left"",""good_move"",9232.4,3774.8,1825.9,5457.6,1948.9,""smooth"",""left"",""left"",""good_move"",13049.2,3816.5,2807.4,9232.7,1009.1,""smooth"",""left"",""left"",""good_move"",16725.2,3672.6,2156.3,13052.6,1516.3,""oops"",""up"",""right"",""bad_move"",19698.4,2972,2415.6,16726.5,556.3,""oops"",""up"",""up"",""good_move"",23419.8,3720.8,3099.5,19699,621.3,""smooth"",""up"",""up"",""good_move"",27002.7,3582.6,1941.6,23420.1,1641,""oops"",""up"",""down"",""bad_move"",30133,3129.7,2703.1,27003.3,426.6,""smooth"",""left"",""left"",""good_move"",33543.2,3409.9,2467.3,30133.4,942.5,""smooth"",""up"",""up"",""good_move"",36896,3352.4,2719.3,33543.6,633.1,""smooth"",""up"",""up"",""good_move""]"
"6089","","<div style=""width:500px;"">
  <p>What determined the result of this run?</p>
  </div>","62","html-slider-response","69","1413984","0.0-7.0-1.11","50","1","2025-07-30 08:45:33","36c45c0696341be0efffe67d72a12abb","160.19.36.2","Mozilla/5.0 (Windows NT 10.0; Win64; x64) AppleWebKit/537.36 (KHTML, like Gecko) Chrome/109.0.0.0 Safari/537.36","WebKit","Chrome","109.0.0.0","Windows","10.0","https://app.prolific.com/","en-US,en;q=0.9","609b9e5b48f112f4cc38fb76","687a360dabe5252b5ada7185","6889da9d37f868e8c58f6be8","0","609b9e5b48f112f4cc38fb76","0","2025-07-30T09:09:08.321Z","","","","AttribQ","","","","","","","","","","","50","","","","","","","","","","","","","","","","","","","","","","","","","","",""
"5432","","<div style=""width:500px;"">
  <p>How much control did you have over the ball?</p>
  </div>","76","html-slider-response","70","1419417","0.0-7.0-2.11","50","1","2025-07-30 08:45:33","36c45c0696341be0efffe67d72a12abb","160.19.36.2","Mozilla/5.0 (Windows NT 10.0; Win64; x64) AppleWebKit/537.36 (KHTML, like Gecko) Chrome/109.0.0.0 Safari/537.36","WebKit","Chrome","109.0.0.0","Windows","10.0","https://app.prolific.com/","en-US,en;q=0.9","609b9e5b48f112f4cc38fb76","687a360dabe5252b5ada7185","6889da9d37f868e8c58f6be8","0","609b9e5b48f112f4cc38fb76","0","2025-07-30T09:09:13.754Z","","","","ControlQ","","","","","","","","","","","50","","","","","","","","","","","","","","","","","","","","","","","","","","",""
"4723","","<div style=""width:500px;"">
  <p>How would you describe your current emotional state?</p>
  </div>","10","html-slider-response","71","1424142","0.0-7.0-3.11","50","1","2025-07-30 08:45:33","36c45c0696341be0efffe67d72a12abb","160.19.36.2","Mozilla/5.0 (Windows NT 10.0; Win64; x64) AppleWebKit/537.36 (KHTML, like Gecko) Chrome/109.0.0.0 Safari/537.36","WebKit","Chrome","109.0.0.0","Windows","10.0","https://app.prolific.com/","en-US,en;q=0.9","609b9e5b48f112f4cc38fb76","687a360dabe5252b5ada7185","6889da9d37f868e8c58f6be8","0","609b9e5b48f112f4cc38fb76","0","2025-07-30T09:09:18.479Z","","","","StressQ","","","","","","","","","","","50","","","","","","","","","","","","","","","","","","","","","","","","","","",""
"5276","","<div style=""width:500px;"">
  <p>What best describes how you currently feel?</p>
  </div>","79","html-slider-response","72","1429420","0.0-7.0-4.11","50","1","2025-07-30 08:45:33","36c45c0696341be0efffe67d72a12abb","160.19.36.2","Mozilla/5.0 (Windows NT 10.0; Win64; x64) AppleWebKit/537.36 (KHTML, like Gecko) Chrome/109.0.0.0 Safari/537.36","WebKit","Chrome","109.0.0.0","Windows","10.0","https://app.prolific.com/","en-US,en;q=0.9","609b9e5b48f112f4cc38fb76","687a360dabe5252b5ada7185","6889da9d37f868e8c58f6be8","0","609b9e5b48f112f4cc38fb76","0","2025-07-30T09:09:23.757Z","","","","MotivationQ","","","","","","","","","","","50","","","","","","","","","","","","","","","","","","","","","","","","","","",""
"","","","","ctl-task-cpt","73","1469194","0.0-7.0-0.12","50","1","2025-07-30 08:45:33","36c45c0696341be0efffe67d72a12abb","160.19.36.2","Mozilla/5.0 (Windows NT 10.0; Win64; x64) AppleWebKit/537.36 (KHTML, like Gecko) Chrome/109.0.0.0 Safari/537.36","WebKit","Chrome","109.0.0.0","Windows","10.0","https://app.prolific.com/","en-US,en;q=0.9","609b9e5b48f112f4cc38fb76","687a360dabe5252b5ada7185","6889da9d37f868e8c58f6be8","0","609b9e5b48f112f4cc38fb76","0","2025-07-30T09:10:03.531Z","","","","","","","","","","","","","","","","win-only","3","g1:SW,g2:NE","0.8","13","0","1432439.1","1681.4","6709","36750.8","1","4","4","6","2","4","4","16","12","0.12121212121212122","1869.1","3000","1990","[""up"",""right""]","{""num_key_presses"":8,""num_perfect"":7,""num_errors"":0,""num_randdir"":1,""num_randdir_good_moves"":0,""num_whilered"":0,""num_whileblue"":0,""num_blue"":0,""num_good_moves"":7}","[300.22232142857143,303.12857142857143,0.6,300.22232142857143,303.12857142857143,103.5,300.22232142857143,303.12857142857143,211,300.22232142857143,303.12857142857143,318,300.22232142857143,303.12857142857143,421.3,300.22232142857143,303.12857142857143,531.6,250.22232142857143,349.12857142857143,642.7,231.22232142857143,369.12857142857143,750.7,373.22232142857143,158.12857142857143,864.4,417.22232142857143,137.12857142857143,975.7,417.22232142857143,137.12857142857143,1087.8,418.22232142857143,137.12857142857143,1195.4,487.22232142857143,89.12857142857143,1304.2,511.22232142857143,66.12857142857143,1409.2,532.2223214285714,56.128571428571426,1521.1,538.2223214285714,53.128571428571426,1630.6,538.2223214285714,53.128571428571426,1738.4,538.2223214285714,53.128571428571426,1849.1,538.2223214285714,53.128571428571426,1962.1,538.2223214285714,53.128571428571426,2071.4,538.2223214285714,53.128571428571426,2182.9,538.2223214285714,53.128571428571426,2289.2,538.2223214285714,53.128571428571426,2398.6,538.2223214285714,53.128571428571426,2523.8,415.22232142857143,182.12857142857143,2628,347.22232142857143,267.12857142857143,2737.3,319.22232142857143,285.12857142857143,2850.2,333.22232142857143,271.12857142857143,2962.8,398.22232142857143,201.12857142857143,3079.2,425.22232142857143,166.12857142857143,3182.3,425.22232142857143,166.12857142857143,3286.5,425.22232142857143,166.12857142857143,3402.2,425.22232142857143,166.12857142857143,3521.6,425.22232142857143,166.12857142857143,3648.2,425.22232142857143,166.12857142857143,3766.7,425.22232142857143,166.12857142857143,3886.4,425.22232142857143,166.12857142857143,4004,425.22232142857143,166.12857142857143,4126.4,425.22232142857143,166.12857142857143,4248.5,425.22232142857143,166.12857142857143,4369.2,425.22232142857143,166.12857142857143,4484.9,425.22232142857143,166.12857142857143,4601.7,425.22232142857143,166.12857142857143,4716.7,425.22232142857143,166.12857142857143,4830.1,425.22232142857143,166.12857142857143,4946.7]","[2203.8,2203.8,1000,0,1203.9,""smooth"",""right"",""right"",""good_move"",5672.7,3468.4,2735.9,2204.3,732.5,""smooth"",""right"",""right"",""good_move"",9028.2,3355.1,2817.6,5673.2,537.5,""oops"",""right"",""down"",""bad_move"",12768.6,3739.6,3031.3,9029,708.3,""smooth"",""up"",""up"",""good_move"",17251.7,4482.7,3489.4,12769.1,993.3,""smooth"",""up"",""up"",""good_move"",21509,4256.7,2891.6,17252.3,1365.2,""smooth"",""up"",""up"",""good_move"",25658.3,4148.8,1777,21509.5,2371.8,""smooth"",""up"",""up"",""good_move"",29640,3976.6,2385.5,25663.4,1591.1,""smooth"",""right"",""right"",""good_move""]"
"8061","","<div style=""width:500px;"">
  <p>What determined the result of this run?</p>
  </div>","81","html-slider-response","74","1477257","0.0-7.0-1.12","50","1","2025-07-30 08:45:33","36c45c0696341be0efffe67d72a12abb","160.19.36.2","Mozilla/5.0 (Windows NT 10.0; Win64; x64) AppleWebKit/537.36 (KHTML, like Gecko) Chrome/109.0.0.0 Safari/537.36","WebKit","Chrome","109.0.0.0","Windows","10.0","https://app.prolific.com/","en-US,en;q=0.9","609b9e5b48f112f4cc38fb76","687a360dabe5252b5ada7185","6889da9d37f868e8c58f6be8","0","609b9e5b48f112f4cc38fb76","0","2025-07-30T09:10:11.594Z","","","","AttribQ","","","","","","","","","","","50","","","","","","","","","","","","","","","","","","","","","","","","","","",""
"7040","","<div style=""width:500px;"">
  <p>How much control did you have over the ball?</p>
  </div>","83","html-slider-response","75","1484299","0.0-7.0-2.12","50","1","2025-07-30 08:45:33","36c45c0696341be0efffe67d72a12abb","160.19.36.2","Mozilla/5.0 (Windows NT 10.0; Win64; x64) AppleWebKit/537.36 (KHTML, like Gecko) Chrome/109.0.0.0 Safari/537.36","WebKit","Chrome","109.0.0.0","Windows","10.0","https://app.prolific.com/","en-US,en;q=0.9","609b9e5b48f112f4cc38fb76","687a360dabe5252b5ada7185","6889da9d37f868e8c58f6be8","0","609b9e5b48f112f4cc38fb76","0","2025-07-30T09:10:18.636Z","","","","ControlQ","","","","","","","","","","","50","","","","","","","","","","","","","","","","","","","","","","","","","","",""
"5873","","<div style=""width:500px;"">
  <p>How would you describe your current emotional state?</p>
  </div>","16","html-slider-response","76","1490175","0.0-7.0-3.12","50","1","2025-07-30 08:45:33","36c45c0696341be0efffe67d72a12abb","160.19.36.2","Mozilla/5.0 (Windows NT 10.0; Win64; x64) AppleWebKit/537.36 (KHTML, like Gecko) Chrome/109.0.0.0 Safari/537.36","WebKit","Chrome","109.0.0.0","Windows","10.0","https://app.prolific.com/","en-US,en;q=0.9","609b9e5b48f112f4cc38fb76","687a360dabe5252b5ada7185","6889da9d37f868e8c58f6be8","0","609b9e5b48f112f4cc38fb76","0","2025-07-30T09:10:24.512Z","","","","StressQ","","","","","","","","","","","50","","","","","","","","","","","","","","","","","","","","","","","","","","",""
"4280","","<div style=""width:500px;"">
  <p>What best describes how you currently feel?</p>
  </div>","88","html-slider-response","77","1494459","0.0-7.0-4.12","50","1","2025-07-30 08:45:33","36c45c0696341be0efffe67d72a12abb","160.19.36.2","Mozilla/5.0 (Windows NT 10.0; Win64; x64) AppleWebKit/537.36 (KHTML, like Gecko) Chrome/109.0.0.0 Safari/537.36","WebKit","Chrome","109.0.0.0","Windows","10.0","https://app.prolific.com/","en-US,en;q=0.9","609b9e5b48f112f4cc38fb76","687a360dabe5252b5ada7185","6889da9d37f868e8c58f6be8","0","609b9e5b48f112f4cc38fb76","0","2025-07-30T09:10:28.796Z","","","","MotivationQ","","","","","","","","","","","50","","","","","","","","","","","","","","","","","","","","","","","","","","",""
