"rt","response_timestamp","stimulus","response","trial_type","trial_index","time_elapsed","internal_node_id","run_id","condition","recorded_at","source_code_version","ip","user_agent","device","browser","browser_version","platform","platform_version","referer","accept_language","PROLIFIC_PID","STUDY_ID","SESSION_ID","BATCH","prolific_id","batch","realtime","success","question_order","question_id","eventType","responses","item_order","radio_event_ids","radio_event_times","key_event_times","mouse_event_times","straightlining","zigzagging","honeypot","view_history","slider_start","which_type","canvas_config","goals_layout","control_level","trial_number","tutorial_trial_number","trial_start_time","phase1_start_time","phase2_start_time","phase3_start_time","goal_1_value","goal_1_distance","goal_2_value","goal_2_distance","goal_selected","outcome","outcome_total","participant_final_score","participant_initial_score","participant_final_score_prop","goal_choice_rt","allocated_time","allocated_time_remaining","goal_direction","counts","mouse_movements","key_presses"
"29434","1753864759129","<p style='font-size:40px;line-height:1.25'><strong>Welcome to the experiment!</strong></p><p style='font-size:1.1em;line-height:1.25'>Thank you for participanting in our experiment again! You will be asked to play the Dysfunctional Ball Game again. We will briefly recap the rules before we start.</p><p style='font-size:1.1em;line-height:1.25'>Press <strong>Next</strong> to continue.</p>","0","custom-html-button-response","0","29443","0.0-0.0","14","1","2025-07-30 08:38:44","36c45c0696341be0efffe67d72a12abb","41.150.225.27","Mozilla/5.0 (Windows NT 10.0; Win64; x64) AppleWebKit/537.36 (KHTML, like Gecko) Chrome/138.0.0.0 Safari/537.36 Edg/138.0.0.0","WebKit","Edge","138.0.0.0","Windows","10.0","https://app.prolific.com/","en-US,en;q=0.9,fr;q=0.8","609fba4900794b6d944da77e","687a19d2168e237449fb8af4","6889d9d50a137dc47c009a5b","0","609fba4900794b6d944da77e","0","2025-07-30T08:39:19.131Z","","","","","","","","","","","","","","","","","","","","","","","","","","","","","","","","","","","","","","","","","",""
"23114","","","","fullscreen","1","53561","0.0-1.0","14","1","2025-07-30 08:38:44","36c45c0696341be0efffe67d72a12abb","41.150.225.27","Mozilla/5.0 (Windows NT 10.0; Win64; x64) AppleWebKit/537.36 (KHTML, like Gecko) Chrome/138.0.0.0 Safari/537.36 Edg/138.0.0.0","WebKit","Edge","138.0.0.0","Windows","10.0","https://app.prolific.com/","en-US,en;q=0.9,fr;q=0.8","609fba4900794b6d944da77e","687a19d2168e237449fb8af4","6889d9d50a137dc47c009a5b","0","609fba4900794b6d944da77e","0","","true","","","","","","","","","","","","","","","","","","","","","","","","","","","","","","","","","","","","","","","","",""
"18031","1753864801288"," <p style='font-size:1.1em;line-height:1.25'>Thank you for closing all other tabs.</p><p style='font-size:1.1em;line-height:1.25'>We will now invite you to fill in some questionnaires, before starting the game.<br>This will take about 5 minutes.<br></p><p style='font-size:1.1em;line-height:1.25'>Press the <strong>Next</strong> button to continue.</p>","0","custom-html-button-response","2","71602","0.0-2.0","14","1","2025-07-30 08:38:44","36c45c0696341be0efffe67d72a12abb","41.150.225.27","Mozilla/5.0 (Windows NT 10.0; Win64; x64) AppleWebKit/537.36 (KHTML, like Gecko) Chrome/138.0.0.0 Safari/537.36 Edg/138.0.0.0","WebKit","Edge","138.0.0.0","Windows","10.0","https://app.prolific.com/","en-US,en;q=0.9,fr;q=0.8","609fba4900794b6d944da77e","687a19d2168e237449fb8af4","6889d9d50a137dc47c009a5b","0","609fba4900794b6d944da77e","0","2025-07-30T08:40:01.290Z","","","","","","","","","","","","","","","","","","","","","","","","","","","","","","","","","","","","","","","","","",""
"3707","","","{""assigned_sex"":""male""}","survey-multi-choice","3","75313","0.0-3.0-0.0","14","1","2025-07-30 08:38:44","36c45c0696341be0efffe67d72a12abb","41.150.225.27","Mozilla/5.0 (Windows NT 10.0; Win64; x64) AppleWebKit/537.36 (KHTML, like Gecko) Chrome/138.0.0.0 Safari/537.36 Edg/138.0.0.0","WebKit","Edge","138.0.0.0","Windows","10.0","https://app.prolific.com/","en-US,en;q=0.9,fr;q=0.8","609fba4900794b6d944da77e","687a19d2168e237449fb8af4","6889d9d50a137dc47c009a5b","0","609fba4900794b6d944da77e","0","","","[0]","0","demographics","","","","","","","","","","","","","","","","","","","","","","","","","","","","","","","","","","","","","",""
"19516","1753864824520","<p style='font-size:1.1em;line-height:1.25'>In the following, we will perform a baseline assessment. This means that we will ask you a few questions relating to your experiences over the past month.<br></p><p style='font-size:1.1em;line-height:1.25'>Press the <strong>Next</strong> button to continue.</p>","0","custom-html-button-response","4","94832","0.0-4.0-0.0","14","1","2025-07-30 08:38:44","36c45c0696341be0efffe67d72a12abb","41.150.225.27","Mozilla/5.0 (Windows NT 10.0; Win64; x64) AppleWebKit/537.36 (KHTML, like Gecko) Chrome/138.0.0.0 Safari/537.36 Edg/138.0.0.0","WebKit","Edge","138.0.0.0","Windows","10.0","https://app.prolific.com/","en-US,en;q=0.9,fr;q=0.8","609fba4900794b6d944da77e","687a19d2168e237449fb8af4","6889d9d50a137dc47c009a5b","0","609fba4900794b6d944da77e","0","2025-07-30T08:40:24.521Z","","","","","","","","","","","","","","","","","","","","","","","","","","","","","","","","","","","","","","","","","",""
"185029.70000004768","","","","survey-template","5","279869","0.0-4.0-1.0","14","1","2025-07-30 08:38:44","36c45c0696341be0efffe67d72a12abb","41.150.225.27","Mozilla/5.0 (Windows NT 10.0; Win64; x64) AppleWebKit/537.36 (KHTML, like Gecko) Chrome/138.0.0.0 Safari/537.36 Edg/138.0.0.0","WebKit","Edge","138.0.0.0","Windows","10.0","https://app.prolific.com/","en-US,en;q=0.9,fr;q=0.8","609fba4900794b6d944da77e","687a19d2168e237449fb8af4","6889d9d50a137dc47c009a5b","0","609fba4900794b6d944da77e","0","2025-07-30T08:43:29.557Z","","","","pss","{""Q01"":""3"",""Q02"":""2"",""Q03"":""1"",""Q04"":""1"",""Q05"":""2"",""Q06"":""3"",""Q07"":""3"",""Q08"":""4"",""Q09"":""4"",""Q10"":""1""}","[0,1,2,3,4,5,6,7,8,9]","[""Q01"",""Q02"",""Q03"",""Q04"",""Q05"",""Q06"",""Q07"",""Q08"",""Q09"",""Q10""]","[41442.39999997616,60306.39999997616,68098.30000007153,81778.60000002384,99138.60000002384,120674,142570.10000002384,155418.30000007153,169330.10000002384,183554]","[]","[0.5,41442.39999997616,60306.39999997616,68098.30000007153,81778.60000002384,99138.60000002384,120674,142570.10000002384,155418.30000007153,169330.10000002384,183554,185026.30000007153]","0.3","0.6666666666666666","0","","","","","","","","","","","","","","","","","","","","","","","","","","","","",""
"15840","1753865025400","<p style='font-size:1.1em;line-height:1.25'>Thank you for your answers! Now we will ask you a few more questions relating to your feelings in the last 24 hours.<br></p><p style='font-size:1.1em;line-height:1.25'>Press the <strong>Next</strong> button to continue.</p>","0","custom-html-button-response","6","295712","0.0-4.0-2.0","14","1","2025-07-30 08:38:44","36c45c0696341be0efffe67d72a12abb","41.150.225.27","Mozilla/5.0 (Windows NT 10.0; Win64; x64) AppleWebKit/537.36 (KHTML, like Gecko) Chrome/138.0.0.0 Safari/537.36 Edg/138.0.0.0","WebKit","Edge","138.0.0.0","Windows","10.0","https://app.prolific.com/","en-US,en;q=0.9,fr;q=0.8","609fba4900794b6d944da77e","687a19d2168e237449fb8af4","6889d9d50a137dc47c009a5b","0","609fba4900794b6d944da77e","0","2025-07-30T08:43:45.400Z","","","","","","","","","","","","","","","","","","","","","","","","","","","","","","","","","","","","","","","","","",""
"165831.59999990463","","","","survey-template","7","461552","0.0-4.0-3.0","14","1","2025-07-30 08:38:44","36c45c0696341be0efffe67d72a12abb","41.150.225.27","Mozilla/5.0 (Windows NT 10.0; Win64; x64) AppleWebKit/537.36 (KHTML, like Gecko) Chrome/138.0.0.0 Safari/537.36 Edg/138.0.0.0","WebKit","Edge","138.0.0.0","Windows","10.0","https://app.prolific.com/","en-US,en;q=0.9,fr;q=0.8","609fba4900794b6d944da77e","687a19d2168e237449fb8af4","6889d9d50a137dc47c009a5b","0","609fba4900794b6d944da77e","0","2025-07-30T08:46:31.240Z","","","","drsp","{""Q01"":""1"",""Q02"":""0"",""Q03"":""0"",""Q04"":""2"",""Q05"":""0"",""Q06"":""0"",""Q07"":""2"",""Q08"":""0"",""Q09"":""0"",""Q10"":""0"",""Q11"":""0"",""Q12"":""1"",""Q13"":""5"",""Q14"":""4"",""Q15"":""4"",""Q16"":""0"",""Q17"":""0"",""Q18"":""0"",""Q19"":""0"",""Q20"":""3"",""Q21"":""0"",""Q22"":""3""}","[0,1,2,3,4,5,6,7,8,9,10,11,12,13,14,15,16,17,18,19,20,21]","[""Q01"",""Q01"",""Q02"",""Q03"",""Q04"",""Q05"",""Q06"",""Q07"",""Q08"",""Q09"",""Q10"",""Q11"",""Q12"",""Q13"",""Q14"",""Q15"",""Q16"",""Q17"",""Q18"",""Q19"",""Q20"",""Q20"",""Q21"",""Q22""]","[19049.899999976158,20561.899999976158,25195.099999904633,28985.899999976158,32914.799999952316,37233.89999997616,42602,50810,60497.89999997616,63082,64874,68786.09999990463,75890.59999990463,89666,94642,100785.89999997616,113066.19999992847,115513.69999992847,122906.09999990463,127826,140954,146042,154841.79999995232,164481.89999997616]","[]","[0.5,19049.899999976158,20561.899999976158,25195.099999904633,28985.899999976158,32914.799999952316,37233.89999997616,41186.59999990463,42602,50810,59283.799999952316,60497.89999997616,63082,64874,68786.09999990463,75890.59999990463,89666,94642,100785.89999997616,113066.19999992847,115513.69999992847,122906.09999990463,127826,140954,146042,154841.79999995232,162885.29999995232,164481.89999997616,165826]","0.5909090909090909","0.14285714285714285","0","","","","","","","","","","","","","","","","","","","","","","","","","","","","",""
"24279","","","","survey-template","8","485834","0.0-4.0-4.0","14","1","2025-07-30 08:38:44","36c45c0696341be0efffe67d72a12abb","41.150.225.27","Mozilla/5.0 (Windows NT 10.0; Win64; x64) AppleWebKit/537.36 (KHTML, like Gecko) Chrome/138.0.0.0 Safari/537.36 Edg/138.0.0.0","WebKit","Edge","138.0.0.0","Windows","10.0","https://app.prolific.com/","en-US,en;q=0.9,fr;q=0.8","609fba4900794b6d944da77e","687a19d2168e237449fb8af4","6889d9d50a137dc47c009a5b","0","609fba4900794b6d944da77e","0","2025-07-30T08:46:55.522Z","","","","stress","{""Q01"":""2"",""Q02"":""5"",""Q03"":""0""}","[0,1,2]","[""Q01"",""Q02"",""Q03""]","[5997.100000023842,13885.200000047684,23005.100000023842]","[]","[5997.100000023842,13885.200000047684,21133,21949.200000047684,23005.100000023842,24277.399999976158]","0.6666666666666666","0","0","","","","","","","","","","","","","","","","","","","","","","","","","","","","",""
"220235","","","","instructions","9","706072","0.0-5.0-0.0","14","1","2025-07-30 08:38:44","36c45c0696341be0efffe67d72a12abb","41.150.225.27","Mozilla/5.0 (Windows NT 10.0; Win64; x64) AppleWebKit/537.36 (KHTML, like Gecko) Chrome/138.0.0.0 Safari/537.36 Edg/138.0.0.0","WebKit","Edge","138.0.0.0","Windows","10.0","https://app.prolific.com/","en-US,en;q=0.9,fr;q=0.8","609fba4900794b6d944da77e","687a19d2168e237449fb8af4","6889d9d50a137dc47c009a5b","0","609fba4900794b6d944da77e","0","","","","","","","","","","","","","","","[{""page_index"":0,""viewing_time"":220235}]","","","","","","","","","","","","","","","","","","","","","","","","","","","",""
"65275","","<p>Before you start with this game please answer the following three questions yourself. </p>
  <p>Through this game, we measure several aspects of your cognitive performance, such as reaction times, multi-tasking capabilities </p>
  <p>and the ability to assess the situation you are in.</p>
  <p></p>
  <p><b>How good do you usually are in such tasks?</b></p>","91","html-slider-response","10","771352","0.0-6.0-0.0","14","1","2025-07-30 08:38:44","36c45c0696341be0efffe67d72a12abb","41.150.225.27","Mozilla/5.0 (Windows NT 10.0; Win64; x64) AppleWebKit/537.36 (KHTML, like Gecko) Chrome/138.0.0.0 Safari/537.36 Edg/138.0.0.0","WebKit","Edge","138.0.0.0","Windows","10.0","https://app.prolific.com/","en-US,en;q=0.9,fr;q=0.8","609fba4900794b6d944da77e","687a19d2168e237449fb8af4","6889d9d50a137dc47c009a5b","0","609fba4900794b6d944da77e","0","2025-07-30T08:51:41.040Z","","","","PreSkillQ","","","","","","","","","","","50","","","","","","","","","","","","","","","","","","","","","","","","","","",""
"15781","","<div style=""width:500px;"">
  <p>How well do you think you will perform in this task compared to other participants?</p>
  </div>","72","html-slider-response","11","787136","0.0-6.0-1.0","14","1","2025-07-30 08:38:44","36c45c0696341be0efffe67d72a12abb","41.150.225.27","Mozilla/5.0 (Windows NT 10.0; Win64; x64) AppleWebKit/537.36 (KHTML, like Gecko) Chrome/138.0.0.0 Safari/537.36 Edg/138.0.0.0","WebKit","Edge","138.0.0.0","Windows","10.0","https://app.prolific.com/","en-US,en;q=0.9,fr;q=0.8","609fba4900794b6d944da77e","687a19d2168e237449fb8af4","6889d9d50a137dc47c009a5b","0","609fba4900794b6d944da77e","0","2025-07-30T08:51:56.824Z","","","","PrePerfQ","","","","","","","","","","","50","","","","","","","","","","","","","","","","","","","","","","","","","","",""
"20396","","<div style=""width:500px;"">
  <p>What best describes how you currently feel?</p>
  </div>","76","html-slider-response","12","807536","0.0-6.0-2.0","14","1","2025-07-30 08:38:44","36c45c0696341be0efffe67d72a12abb","41.150.225.27","Mozilla/5.0 (Windows NT 10.0; Win64; x64) AppleWebKit/537.36 (KHTML, like Gecko) Chrome/138.0.0.0 Safari/537.36 Edg/138.0.0.0","WebKit","Edge","138.0.0.0","Windows","10.0","https://app.prolific.com/","en-US,en;q=0.9,fr;q=0.8","609fba4900794b6d944da77e","687a19d2168e237449fb8af4","6889d9d50a137dc47c009a5b","0","609fba4900794b6d944da77e","0","2025-07-30T08:52:17.224Z","","","","PreMotivationQ","","","","","","","","","","","50","","","","","","","","","","","","","","","","","","","","","","","","","","",""
"","","","","ctl-task-cpt","13","922837","0.0-7.0-0.0","14","1","2025-07-30 08:38:44","36c45c0696341be0efffe67d72a12abb","41.150.225.27","Mozilla/5.0 (Windows NT 10.0; Win64; x64) AppleWebKit/537.36 (KHTML, like Gecko) Chrome/138.0.0.0 Safari/537.36 Edg/138.0.0.0","WebKit","Edge","138.0.0.0","Windows","10.0","https://app.prolific.com/","en-US,en;q=0.9,fr;q=0.8","609fba4900794b6d944da77e","687a19d2168e237449fb8af4","6889d9d50a137dc47c009a5b","0","609fba4900794b6d944da77e","0","2025-07-30T08:54:12.525Z","","","","","","","","","","","","","","","","win-only","2","g1:SE,g2:NW","1","1","0","812901.8","83005.7","88015.4","112294.9","1","4","4","6","1","-1","-5","0","0","0","5009.7","3000","-2775","[""down"",""right""]","{""num_key_presses"":7,""num_perfect"":3,""num_errors"":4,""num_randdir"":0,""num_randdir_good_moves"":0,""num_whilered"":0,""num_whileblue"":0,""num_blue"":1,""num_good_moves"":0}","[296.22232142857143,292.12857142857143,1,296.22232142857143,292.12857142857143,101.2,299.22232142857143,292.12857142857143,205.6,394.22232142857143,300.12857142857143,305.7,625.2223214285714,280.12857142857143,408.2,734.2223214285714,239.12857142857143,509.7,747.2223214285714,232.12857142857143,610,747.2223214285714,232.12857142857143,715.6,747.2223214285714,232.12857142857143,816.4,747.2223214285714,232.12857142857143,920.9,747.2223214285714,232.12857142857143,1021.4,747.2223214285714,232.12857142857143,1125.7,747.2223214285714,232.12857142857143,1228.8,747.2223214285714,232.12857142857143,1329.8,747.2223214285714,232.12857142857143,1430.1,747.2223214285714,232.12857142857143,1534.8,747.2223214285714,232.12857142857143,1635.3,747.2223214285714,232.12857142857143,1742.6,747.2223214285714,232.12857142857143,1842.8,747.2223214285714,232.12857142857143,1945.4,747.2223214285714,232.12857142857143,2050.3,747.2223214285714,232.12857142857143,2150.8,747.2223214285714,232.12857142857143,2261.2,747.2223214285714,232.12857142857143,2365.2,747.2223214285714,232.12857142857143,2476,747.2223214285714,232.12857142857143,2580.1,747.2223214285714,232.12857142857143,2680.7,747.2223214285714,232.12857142857143,2784.6,747.2223214285714,232.12857142857143,2884.6,747.2223214285714,232.12857142857143,2985.3,747.2223214285714,232.12857142857143,3085.6,747.2223214285714,232.12857142857143,3185.8,747.2223214285714,232.12857142857143,3292.7,747.2223214285714,232.12857142857143,3395.3,747.2223214285714,232.12857142857143,3495.4,747.2223214285714,232.12857142857143,3595.6,747.2223214285714,232.12857142857143,3695.6,747.2223214285714,232.12857142857143,3800.1,747.2223214285714,232.12857142857143,3901.4,747.2223214285714,232.12857142857143,4009,747.2223214285714,232.12857142857143,4109.1,747.2223214285714,232.12857142857143,4209.1,747.2223214285714,232.12857142857143,4311.8,747.2223214285714,232.12857142857143,4415.3,747.2223214285714,232.12857142857143,4515.4,747.2223214285714,232.12857142857143,4625.8,747.2223214285714,232.12857142857143,4730.3,747.2223214285714,232.12857142857143,4835.3,747.2223214285714,232.12857142857143,4935.6]","[5649.3,5649.3,2449.6,2005.6,1194.1,""smooth"",""up"",""up"",""bad_move"",7255.6,1605.4,2181.3,5650.2,-575.9,""error"",""-"",""-"",""no_move"",10398.2,3142.2,2283,8265.1,-149.9,""error"",""-"",""-"",""no_move"",12191.4,1793.1,2278.7,11400.1,-1487.3,""error"",""-"",""-"",""no_move"",14464.3,2272.5,2853.1,13197.8,-1586.5,""error"",""-"",""-"",""no_move"",19497.3,5032.7,2986.9,15465,1045.4,""smooth"",""up"",""up"",""bad_move"",22465.2,2966.6,2098.9,19498.7,867.6,""smooth"",""up"",""up"",""bad_move""]"
"40578","","<div style=""width:500px;"">
  <p>What determined the result of this run?</p>
  </div>","25","html-slider-response","14","963416","0.0-7.0-1.0","14","1","2025-07-30 08:38:44","36c45c0696341be0efffe67d72a12abb","41.150.225.27","Mozilla/5.0 (Windows NT 10.0; Win64; x64) AppleWebKit/537.36 (KHTML, like Gecko) Chrome/138.0.0.0 Safari/537.36 Edg/138.0.0.0","WebKit","Edge","138.0.0.0","Windows","10.0","https://app.prolific.com/","en-US,en;q=0.9,fr;q=0.8","609fba4900794b6d944da77e","687a19d2168e237449fb8af4","6889d9d50a137dc47c009a5b","0","609fba4900794b6d944da77e","0","2025-07-30T08:54:53.104Z","","","","AttribQ","","","","","","","","","","","50","","","","","","","","","","","","","","","","","","","","","","","","","","",""
"14860","","<div style=""width:500px;"">
  <p>How much control did you have over the ball?</p>
  </div>","38","html-slider-response","15","978280","0.0-7.0-2.0","14","1","2025-07-30 08:38:44","36c45c0696341be0efffe67d72a12abb","41.150.225.27","Mozilla/5.0 (Windows NT 10.0; Win64; x64) AppleWebKit/537.36 (KHTML, like Gecko) Chrome/138.0.0.0 Safari/537.36 Edg/138.0.0.0","WebKit","Edge","138.0.0.0","Windows","10.0","https://app.prolific.com/","en-US,en;q=0.9,fr;q=0.8","609fba4900794b6d944da77e","687a19d2168e237449fb8af4","6889d9d50a137dc47c009a5b","0","609fba4900794b6d944da77e","0","2025-07-30T08:55:07.968Z","","","","ControlQ","","","","","","","","","","","50","","","","","","","","","","","","","","","","","","","","","","","","","","",""
"9941","","<div style=""width:500px;"">
  <p>How would you describe your current emotional state?</p>
  </div>","60","html-slider-response","16","988225","0.0-7.0-3.0","14","1","2025-07-30 08:38:44","36c45c0696341be0efffe67d72a12abb","41.150.225.27","Mozilla/5.0 (Windows NT 10.0; Win64; x64) AppleWebKit/537.36 (KHTML, like Gecko) Chrome/138.0.0.0 Safari/537.36 Edg/138.0.0.0","WebKit","Edge","138.0.0.0","Windows","10.0","https://app.prolific.com/","en-US,en;q=0.9,fr;q=0.8","609fba4900794b6d944da77e","687a19d2168e237449fb8af4","6889d9d50a137dc47c009a5b","0","609fba4900794b6d944da77e","0","2025-07-30T08:55:17.913Z","","","","StressQ","","","","","","","","","","","50","","","","","","","","","","","","","","","","","","","","","","","","","","",""
"13867","","<div style=""width:500px;"">
  <p>What best describes how you currently feel?</p>
  </div>","65","html-slider-response","17","1002096","0.0-7.0-4.0","14","1","2025-07-30 08:38:44","36c45c0696341be0efffe67d72a12abb","41.150.225.27","Mozilla/5.0 (Windows NT 10.0; Win64; x64) AppleWebKit/537.36 (KHTML, like Gecko) Chrome/138.0.0.0 Safari/537.36 Edg/138.0.0.0","WebKit","Edge","138.0.0.0","Windows","10.0","https://app.prolific.com/","en-US,en;q=0.9,fr;q=0.8","609fba4900794b6d944da77e","687a19d2168e237449fb8af4","6889d9d50a137dc47c009a5b","0","609fba4900794b6d944da77e","0","2025-07-30T08:55:31.784Z","","","","MotivationQ","","","","","","","","","","","50","","","","","","","","","","","","","","","","","","","","","","","","","","",""
"","","","","ctl-task-cpt","18","1035163","0.0-7.0-0.1","14","1","2025-07-30 08:38:44","36c45c0696341be0efffe67d72a12abb","41.150.225.27","Mozilla/5.0 (Windows NT 10.0; Win64; x64) AppleWebKit/537.36 (KHTML, like Gecko) Chrome/138.0.0.0 Safari/537.36 Edg/138.0.0.0","WebKit","Edge","138.0.0.0","Windows","10.0","https://app.prolific.com/","en-US,en;q=0.9,fr;q=0.8","609fba4900794b6d944da77e","687a19d2168e237449fb8af4","6889d9d50a137dc47c009a5b","0","609fba4900794b6d944da77e","0","2025-07-30T08:56:04.851Z","","","","","","","","","","","","","","","","win-only","0","g1:NW,g2:SE","0.9","2","0","1007461.7","8327.6","13334.2","30060.8","1","4","8","6","1","-1","-1","0","0","0","5006.6","3000","-2700","[""left"",""up""]","{""num_key_presses"":2,""num_perfect"":1,""num_errors"":0,""num_randdir"":1,""num_randdir_good_moves"":0,""num_whilered"":0,""num_whileblue"":0,""num_blue"":2,""num_good_moves"":1}","[291.22232142857143,299.12857142857143,0.4,291.22232142857143,299.12857142857143,103,291.22232142857143,299.12857142857143,203.7,291.22232142857143,299.12857142857143,304.3,291.22232142857143,299.12857142857143,408.8,291.22232142857143,299.12857142857143,508.8,291.22232142857143,299.12857142857143,614.8,291.22232142857143,299.12857142857143,719,291.22232142857143,299.12857142857143,819.1,291.22232142857143,299.12857142857143,919.2,291.22232142857143,299.12857142857143,1020.3,291.22232142857143,299.12857142857143,1123.2,291.22232142857143,299.12857142857143,1224.1,291.22232142857143,299.12857142857143,1332.7,291.22232142857143,299.12857142857143,1434.8,290.22232142857143,299.12857142857143,1538.5,290.22232142857143,299.12857142857143,1639.7,427.22232142857143,318.12857142857143,1743.5,540.2223214285714,314.12857142857143,1846.9,594.2223214285714,319.12857142857143,1949.2,595.2223214285714,319.12857142857143,2049.7,595.2223214285714,319.12857142857143,2152.8,597.2223214285714,313.12857142857143,2252.9,601.2223214285714,302.12857142857143,2354.1,608.2223214285714,294.12857142857143,2459.5,608.2223214285714,289.12857142857143,2565.7,621.2223214285714,283.12857142857143,2668.7,621.2223214285714,283.12857142857143,2770.2,632.2223214285714,280.12857142857143,2873.4,632.2223214285714,280.12857142857143,2973.8,632.2223214285714,280.12857142857143,3081,638.2223214285714,279.12857142857143,3181.8,640.2223214285714,277.12857142857143,3284.7,640.2223214285714,277.12857142857143,3386.8,640.2223214285714,277.12857142857143,3489.7,640.2223214285714,277.12857142857143,3591.2,640.2223214285714,277.12857142857143,3698.5,667.2223214285714,212.12857142857143,3803.1,853.2223214285714,-83.87142857142857,3903.6,853.2223214285714,-83.87142857142857,4008.3,853.2223214285714,-83.87142857142857,4114.8,853.2223214285714,-83.87142857142857,4219.3,853.2223214285714,-83.87142857142857,4319.9,853.2223214285714,-83.87142857142857,4420.3,853.2223214285714,-83.87142857142857,4523.6,853.2223214285714,-83.87142857142857,4636.1,978.2223214285714,-83.87142857142857,4738.5,978.2223214285714,-83.87142857142857,4843,978.2223214285714,-83.87142857142857,4943.5]","[5116,5115.9,2365.7,2013.8,736.6,""smooth"",""up"",""up"",""good_move"",9996.1,4876.6,3014,5119.5,1862.6,""oops"",""up"",""right"",""bad_move""]"
"28931","","<div style=""width:500px;"">
  <p>What determined the result of this run?</p>
  </div>","44","html-slider-response","19","1064096","0.0-7.0-1.1","14","1","2025-07-30 08:38:44","36c45c0696341be0efffe67d72a12abb","41.150.225.27","Mozilla/5.0 (Windows NT 10.0; Win64; x64) AppleWebKit/537.36 (KHTML, like Gecko) Chrome/138.0.0.0 Safari/537.36 Edg/138.0.0.0","WebKit","Edge","138.0.0.0","Windows","10.0","https://app.prolific.com/","en-US,en;q=0.9,fr;q=0.8","609fba4900794b6d944da77e","687a19d2168e237449fb8af4","6889d9d50a137dc47c009a5b","0","609fba4900794b6d944da77e","0","2025-07-30T08:56:33.784Z","","","","AttribQ","","","","","","","","","","","50","","","","","","","","","","","","","","","","","","","","","","","","","","",""
"8668","","<div style=""width:500px;"">
  <p>How much control did you have over the ball?</p>
  </div>","58","html-slider-response","20","1072768","0.0-7.0-2.1","14","1","2025-07-30 08:38:44","36c45c0696341be0efffe67d72a12abb","41.150.225.27","Mozilla/5.0 (Windows NT 10.0; Win64; x64) AppleWebKit/537.36 (KHTML, like Gecko) Chrome/138.0.0.0 Safari/537.36 Edg/138.0.0.0","WebKit","Edge","138.0.0.0","Windows","10.0","https://app.prolific.com/","en-US,en;q=0.9,fr;q=0.8","609fba4900794b6d944da77e","687a19d2168e237449fb8af4","6889d9d50a137dc47c009a5b","0","609fba4900794b6d944da77e","0","2025-07-30T08:56:42.456Z","","","","ControlQ","","","","","","","","","","","50","","","","","","","","","","","","","","","","","","","","","","","","","","",""
"9988","","<div style=""width:500px;"">
  <p>How would you describe your current emotional state?</p>
  </div>","34","html-slider-response","21","1082760","0.0-7.0-3.1","14","1","2025-07-30 08:38:44","36c45c0696341be0efffe67d72a12abb","41.150.225.27","Mozilla/5.0 (Windows NT 10.0; Win64; x64) AppleWebKit/537.36 (KHTML, like Gecko) Chrome/138.0.0.0 Safari/537.36 Edg/138.0.0.0","WebKit","Edge","138.0.0.0","Windows","10.0","https://app.prolific.com/","en-US,en;q=0.9,fr;q=0.8","609fba4900794b6d944da77e","687a19d2168e237449fb8af4","6889d9d50a137dc47c009a5b","0","609fba4900794b6d944da77e","0","2025-07-30T08:56:52.448Z","","","","StressQ","","","","","","","","","","","50","","","","","","","","","","","","","","","","","","","","","","","","","","",""
"10228","","<div style=""width:500px;"">
  <p>What best describes how you currently feel?</p>
  </div>","61","html-slider-response","22","1092992","0.0-7.0-4.1","14","1","2025-07-30 08:38:44","36c45c0696341be0efffe67d72a12abb","41.150.225.27","Mozilla/5.0 (Windows NT 10.0; Win64; x64) AppleWebKit/537.36 (KHTML, like Gecko) Chrome/138.0.0.0 Safari/537.36 Edg/138.0.0.0","WebKit","Edge","138.0.0.0","Windows","10.0","https://app.prolific.com/","en-US,en;q=0.9,fr;q=0.8","609fba4900794b6d944da77e","687a19d2168e237449fb8af4","6889d9d50a137dc47c009a5b","0","609fba4900794b6d944da77e","0","2025-07-30T08:57:02.680Z","","","","MotivationQ","","","","","","","","","","","50","","","","","","","","","","","","","","","","","","","","","","","","","","",""
"","","","","ctl-task-cpt","23","1117734","0.0-7.0-0.2","14","1","2025-07-30 08:38:44","36c45c0696341be0efffe67d72a12abb","41.150.225.27","Mozilla/5.0 (Windows NT 10.0; Win64; x64) AppleWebKit/537.36 (KHTML, like Gecko) Chrome/138.0.0.0 Safari/537.36 Edg/138.0.0.0","WebKit","Edge","138.0.0.0","Windows","10.0","https://app.prolific.com/","en-US,en;q=0.9,fr;q=0.8","609fba4900794b6d944da77e","687a19d2168e237449fb8af4","6889d9d50a137dc47c009a5b","0","609fba4900794b6d944da77e","0","2025-07-30T08:57:27.422Z","","","","","","","","","","","","","","","","win-only","3","g1:SW,g2:NE","0.8","3","0","1098358.8","12357.9","17361.5","21720.2","1","4","4","6","2","-4","-4","0","0","0","5003.6","3000","-2695","[""up"",""right""]","{""num_key_presses"":0,""num_perfect"":0,""num_errors"":0,""num_randdir"":0,""num_randdir_good_moves"":0,""num_whilered"":0,""num_whileblue"":0,""num_blue"":0,""num_good_moves"":0}","[295.22232142857143,297.12857142857143,0.3,295.22232142857143,297.12857142857143,102.8,295.22232142857143,297.12857142857143,203.2,295.22232142857143,297.12857142857143,312.6,295.22232142857143,297.12857142857143,414.4,295.22232142857143,297.12857142857143,519.2,295.22232142857143,297.12857142857143,619.4,295.22232142857143,297.12857142857143,730.6,295.22232142857143,297.12857142857143,830.9,295.22232142857143,297.12857142857143,931.2,295.22232142857143,297.12857142857143,1033.7,295.22232142857143,297.12857142857143,1137.5,295.22232142857143,297.12857142857143,1238.3,295.22232142857143,297.12857142857143,1345.8,295.22232142857143,297.12857142857143,1447.9,295.22232142857143,297.12857142857143,1548.8,295.22232142857143,297.12857142857143,1654.2,295.22232142857143,297.12857142857143,1762.6,295.22232142857143,297.12857142857143,1868.1,295.22232142857143,297.12857142857143,1968.2,295.22232142857143,297.12857142857143,2069.2,295.22232142857143,297.12857142857143,2173.1,295.22232142857143,297.12857142857143,2278.3,295.22232142857143,297.12857142857143,2379.6,295.22232142857143,297.12857142857143,2482.6,295.22232142857143,297.12857142857143,2583,295.22232142857143,297.12857142857143,2683.1,295.22232142857143,297.12857142857143,2788.1,295.22232142857143,297.12857142857143,2888.4,295.22232142857143,297.12857142857143,2994,295.22232142857143,297.12857142857143,3095.5,295.22232142857143,297.12857142857143,3198.4,295.22232142857143,297.12857142857143,3303.3,295.22232142857143,297.12857142857143,3412.1,295.22232142857143,297.12857142857143,3512.2,295.22232142857143,297.12857142857143,3613.1,295.22232142857143,297.12857142857143,3717.9,295.22232142857143,297.12857142857143,3819,295.22232142857143,297.12857142857143,3928.1,295.22232142857143,297.12857142857143,4043.1,295.22232142857143,297.12857142857143,4145.5,295.22232142857143,297.12857142857143,4247.6,295.22232142857143,297.12857142857143,4348.3,295.22232142857143,297.12857142857143,4453.1,295.22232142857143,297.12857142857143,4553.6,295.22232142857143,297.12857142857143,4661.8,295.22232142857143,297.12857142857143,4763.1,295.22232142857143,297.12857142857143,4868.4,295.22232142857143,297.12857142857143,4968.6]","[]"
"12168","","<div style=""width:500px;"">
  <p>What determined the result of this run?</p>
  </div>","41","html-slider-response","24","1129904","0.0-7.0-1.2","14","1","2025-07-30 08:38:44","36c45c0696341be0efffe67d72a12abb","41.150.225.27","Mozilla/5.0 (Windows NT 10.0; Win64; x64) AppleWebKit/537.36 (KHTML, like Gecko) Chrome/138.0.0.0 Safari/537.36 Edg/138.0.0.0","WebKit","Edge","138.0.0.0","Windows","10.0","https://app.prolific.com/","en-US,en;q=0.9,fr;q=0.8","609fba4900794b6d944da77e","687a19d2168e237449fb8af4","6889d9d50a137dc47c009a5b","0","609fba4900794b6d944da77e","0","2025-07-30T08:57:39.592Z","","","","AttribQ","","","","","","","","","","","50","","","","","","","","","","","","","","","","","","","","","","","","","","",""
"7564","","<div style=""width:500px;"">
  <p>How much control did you have over the ball?</p>
  </div>","39","html-slider-response","25","1137472","0.0-7.0-2.2","14","1","2025-07-30 08:38:44","36c45c0696341be0efffe67d72a12abb","41.150.225.27","Mozilla/5.0 (Windows NT 10.0; Win64; x64) AppleWebKit/537.36 (KHTML, like Gecko) Chrome/138.0.0.0 Safari/537.36 Edg/138.0.0.0","WebKit","Edge","138.0.0.0","Windows","10.0","https://app.prolific.com/","en-US,en;q=0.9,fr;q=0.8","609fba4900794b6d944da77e","687a19d2168e237449fb8af4","6889d9d50a137dc47c009a5b","0","609fba4900794b6d944da77e","0","2025-07-30T08:57:47.160Z","","","","ControlQ","","","","","","","","","","","50","","","","","","","","","","","","","","","","","","","","","","","","","","",""
"5764","","<div style=""width:500px;"">
  <p>How would you describe your current emotional state?</p>
  </div>","57","html-slider-response","26","1143240","0.0-7.0-3.2","14","1","2025-07-30 08:38:44","36c45c0696341be0efffe67d72a12abb","41.150.225.27","Mozilla/5.0 (Windows NT 10.0; Win64; x64) AppleWebKit/537.36 (KHTML, like Gecko) Chrome/138.0.0.0 Safari/537.36 Edg/138.0.0.0","WebKit","Edge","138.0.0.0","Windows","10.0","https://app.prolific.com/","en-US,en;q=0.9,fr;q=0.8","609fba4900794b6d944da77e","687a19d2168e237449fb8af4","6889d9d50a137dc47c009a5b","0","609fba4900794b6d944da77e","0","2025-07-30T08:57:52.928Z","","","","StressQ","","","","","","","","","","","50","","","","","","","","","","","","","","","","","","","","","","","","","","",""
"9388","","<div style=""width:500px;"">
  <p>What best describes how you currently feel?</p>
  </div>","59","html-slider-response","27","1152632","0.0-7.0-4.2","14","1","2025-07-30 08:38:44","36c45c0696341be0efffe67d72a12abb","41.150.225.27","Mozilla/5.0 (Windows NT 10.0; Win64; x64) AppleWebKit/537.36 (KHTML, like Gecko) Chrome/138.0.0.0 Safari/537.36 Edg/138.0.0.0","WebKit","Edge","138.0.0.0","Windows","10.0","https://app.prolific.com/","en-US,en;q=0.9,fr;q=0.8","609fba4900794b6d944da77e","687a19d2168e237449fb8af4","6889d9d50a137dc47c009a5b","0","609fba4900794b6d944da77e","0","2025-07-30T08:58:02.320Z","","","","MotivationQ","","","","","","","","","","","50","","","","","","","","","","","","","","","","","","","","","","","","","","",""
"","","","","ctl-task-cpt","28","1176146","0.0-7.0-0.3","14","1","2025-07-30 08:38:44","36c45c0696341be0efffe67d72a12abb","41.150.225.27","Mozilla/5.0 (Windows NT 10.0; Win64; x64) AppleWebKit/537.36 (KHTML, like Gecko) Chrome/138.0.0.0 Safari/537.36 Edg/138.0.0.0","WebKit","Edge","138.0.0.0","Windows","10.0","https://app.prolific.com/","en-US,en;q=0.9,fr;q=0.8","609fba4900794b6d944da77e","687a19d2168e237449fb8af4","6889d9d50a137dc47c009a5b","0","609fba4900794b6d944da77e","0","2025-07-30T08:58:25.834Z","","","","","","","","","","","","","","","","win-only","2","g1:SE,g2:NW","0.7","4","0","1157997.8","5347.5","10351.8","20501.4","1","4","8","6","1","-1","-1","0","0","0","5004.3","3000","-2655","[""down"",""right""]","{""num_key_presses"":2,""num_perfect"":1,""num_errors"":0,""num_randdir"":1,""num_randdir_good_moves"":1,""num_whilered"":0,""num_whileblue"":0,""num_blue"":0,""num_good_moves"":1}","[298.22232142857143,289.12857142857143,0.2,298.22232142857143,289.12857142857143,104.3,298.22232142857143,289.12857142857143,210.6,298.22232142857143,289.12857142857143,313.2,308.22232142857143,290.12857142857143,415.4,313.22232142857143,290.12857142857143,518,313.22232142857143,290.12857142857143,618.8,325.22232142857143,290.12857142857143,719,366.22232142857143,307.12857142857143,825.4,469.22232142857143,344.12857142857143,926.4,474.22232142857143,350.12857142857143,1028.9,468.22232142857143,356.12857142857143,1134.7,413.22232142857143,363.12857142857143,1238.9,412.22232142857143,362.12857142857143,1343.8,412.22232142857143,357.12857142857143,1443.8,400.22232142857143,351.12857142857143,1560.4,378.22232142857143,349.12857142857143,1664.7,376.22232142857143,349.12857142857143,1774.8,364.22232142857143,350.12857142857143,1881.6,358.22232142857143,353.12857142857143,1985.6,357.22232142857143,353.12857142857143,2094.8,357.22232142857143,353.12857142857143,2206.2,357.22232142857143,353.12857142857143,2307.9,357.22232142857143,353.12857142857143,2425.1,357.22232142857143,353.12857142857143,2526.2,357.22232142857143,353.12857142857143,2631,357.22232142857143,353.12857142857143,2733.9,357.22232142857143,353.12857142857143,2840.4,357.22232142857143,353.12857142857143,2945.5,357.22232142857143,353.12857142857143,3048.1,357.22232142857143,353.12857142857143,3153.2,357.22232142857143,353.12857142857143,3254.3,357.22232142857143,353.12857142857143,3362.1,357.22232142857143,353.12857142857143,3463.5,357.22232142857143,353.12857142857143,3567.8,357.22232142857143,353.12857142857143,3668.8,357.22232142857143,353.12857142857143,3778.6,357.22232142857143,353.12857142857143,3878.9,357.22232142857143,353.12857142857143,3983.5,357.22232142857143,353.12857142857143,4088.3,357.22232142857143,353.12857142857143,4188.5,357.22232142857143,353.12857142857143,4294.8,357.22232142857143,353.12857142857143,4395,357.22232142857143,353.12857142857143,4495.2,357.22232142857143,353.12857142857143,4595.4,357.22232142857143,353.12857142857143,4696.9,357.22232142857143,353.12857142857143,4798.7,357.22232142857143,353.12857142857143,4903.1]","[3422.7,3422.7,1000,0,2422.7,""oops"",""up"",""right"",""good_move"",6882.7,3459.2,2826.7,3423.5,632.5,""smooth"",""up"",""up"",""bad_move""]"
"20949","","<div style=""width:500px;"">
  <p>What determined the result of this run?</p>
  </div>","72","html-slider-response","29","1197099","0.0-7.0-1.3","14","1","2025-07-30 08:38:44","36c45c0696341be0efffe67d72a12abb","41.150.225.27","Mozilla/5.0 (Windows NT 10.0; Win64; x64) AppleWebKit/537.36 (KHTML, like Gecko) Chrome/138.0.0.0 Safari/537.36 Edg/138.0.0.0","WebKit","Edge","138.0.0.0","Windows","10.0","https://app.prolific.com/","en-US,en;q=0.9,fr;q=0.8","609fba4900794b6d944da77e","687a19d2168e237449fb8af4","6889d9d50a137dc47c009a5b","0","609fba4900794b6d944da77e","0","2025-07-30T08:58:46.787Z","","","","AttribQ","","","","","","","","","","","50","","","","","","","","","","","","","","","","","","","","","","","","","","",""
"7127","","<div style=""width:500px;"">
  <p>How much control did you have over the ball?</p>
  </div>","74","html-slider-response","30","1204233","0.0-7.0-2.3","14","1","2025-07-30 08:38:44","36c45c0696341be0efffe67d72a12abb","41.150.225.27","Mozilla/5.0 (Windows NT 10.0; Win64; x64) AppleWebKit/537.36 (KHTML, like Gecko) Chrome/138.0.0.0 Safari/537.36 Edg/138.0.0.0","WebKit","Edge","138.0.0.0","Windows","10.0","https://app.prolific.com/","en-US,en;q=0.9,fr;q=0.8","609fba4900794b6d944da77e","687a19d2168e237449fb8af4","6889d9d50a137dc47c009a5b","0","609fba4900794b6d944da77e","0","2025-07-30T08:58:53.921Z","","","","ControlQ","","","","","","","","","","","50","","","","","","","","","","","","","","","","","","","","","","","","","","",""
"7372","","<div style=""width:500px;"">
  <p>How would you describe your current emotional state?</p>
  </div>","11","html-slider-response","31","1211608","0.0-7.0-3.3","14","1","2025-07-30 08:38:44","36c45c0696341be0efffe67d72a12abb","41.150.225.27","Mozilla/5.0 (Windows NT 10.0; Win64; x64) AppleWebKit/537.36 (KHTML, like Gecko) Chrome/138.0.0.0 Safari/537.36 Edg/138.0.0.0","WebKit","Edge","138.0.0.0","Windows","10.0","https://app.prolific.com/","en-US,en;q=0.9,fr;q=0.8","609fba4900794b6d944da77e","687a19d2168e237449fb8af4","6889d9d50a137dc47c009a5b","0","609fba4900794b6d944da77e","0","2025-07-30T08:59:01.296Z","","","","StressQ","","","","","","","","","","","50","","","","","","","","","","","","","","","","","","","","","","","","","","",""
"9294","","<div style=""width:500px;"">
  <p>What best describes how you currently feel?</p>
  </div>","87","html-slider-response","32","1220904","0.0-7.0-4.3","14","1","2025-07-30 08:38:44","36c45c0696341be0efffe67d72a12abb","41.150.225.27","Mozilla/5.0 (Windows NT 10.0; Win64; x64) AppleWebKit/537.36 (KHTML, like Gecko) Chrome/138.0.0.0 Safari/537.36 Edg/138.0.0.0","WebKit","Edge","138.0.0.0","Windows","10.0","https://app.prolific.com/","en-US,en;q=0.9,fr;q=0.8","609fba4900794b6d944da77e","687a19d2168e237449fb8af4","6889d9d50a137dc47c009a5b","0","609fba4900794b6d944da77e","0","2025-07-30T08:59:10.593Z","","","","MotivationQ","","","","","","","","","","","50","","","","","","","","","","","","","","","","","","","","","","","","","","",""
"","","","","ctl-task-cpt","33","1243058","0.0-7.0-0.4","14","1","2025-07-30 08:38:44","36c45c0696341be0efffe67d72a12abb","41.150.225.27","Mozilla/5.0 (Windows NT 10.0; Win64; x64) AppleWebKit/537.36 (KHTML, like Gecko) Chrome/138.0.0.0 Safari/537.36 Edg/138.0.0.0","WebKit","Edge","138.0.0.0","Windows","10.0","https://app.prolific.com/","en-US,en;q=0.9,fr;q=0.8","609fba4900794b6d944da77e","687a19d2168e237449fb8af4","6889d9d50a137dc47c009a5b","0","609fba4900794b6d944da77e","0","2025-07-30T08:59:32.746Z","","","","","","","","","","","","","","","","win-only","3","g1:SW,g2:NE","0.6","5","0","1226270.5","4347","9350.6","19131","1","4","8","6","2","-8","-8","0","0","0","5003.6","3000","-2705","[""up"",""right""]","{""num_key_presses"":2,""num_perfect"":1,""num_errors"":0,""num_randdir"":1,""num_randdir_good_moves"":0,""num_whilered"":0,""num_whileblue"":0,""num_blue"":0,""num_good_moves"":1}","[299.22232142857143,300.12857142857143,0.6,299.22232142857143,300.12857142857143,101.2,299.22232142857143,300.12857142857143,201.3,299.22232142857143,300.12857142857143,303.5,299.22232142857143,300.12857142857143,403.5,317.22232142857143,300.12857142857143,504,325.22232142857143,321.12857142857143,608.6,358.22232142857143,361.12857142857143,710.6,429.22232142857143,378.12857142857143,820.9,641.2223214285714,409.12857142857143,925,657.2223214285714,412.12857142857143,1034.4,658.2223214285714,414.12857142857143,1134.8,552.2223214285714,425.12857142857143,1238.4,458.22232142857143,374.12857142857143,1339.1,424.22232142857143,365.12857142857143,1439.8,364.22232142857143,365.12857142857143,1550.2,293.22232142857143,359.12857142857143,1655.1,281.22232142857143,359.12857142857143,1759.7,261.22232142857143,359.12857142857143,1869.4,259.22232142857143,359.12857142857143,1973.5,259.22232142857143,359.12857142857143,2074,259.22232142857143,356.12857142857143,2177,259.22232142857143,355.12857142857143,2282.3,259.22232142857143,355.12857142857143,2382.7,259.22232142857143,353.12857142857143,2485.1,259.22232142857143,351.12857142857143,2588.8,259.22232142857143,351.12857142857143,2689.4,258.22232142857143,349.12857142857143,2789.5,258.22232142857143,349.12857142857143,2899.6,258.22232142857143,349.12857142857143,3003.5,258.22232142857143,349.12857142857143,3104.5,258.22232142857143,349.12857142857143,3208.5,258.22232142857143,349.12857142857143,3316.5,258.22232142857143,349.12857142857143,3417.7,258.22232142857143,349.12857142857143,3518,258.22232142857143,349.12857142857143,3618.5,258.22232142857143,349.12857142857143,3724.5,258.22232142857143,349.12857142857143,3833.4,258.22232142857143,349.12857142857143,3934.4,258.22232142857143,349.12857142857143,4038.5,258.22232142857143,349.12857142857143,4138.6,258.22232142857143,349.12857142857143,4239.8,258.22232142857143,349.12857142857143,4340,258.22232142857143,349.12857142857143,4449.1,258.22232142857143,349.12857142857143,4549.5,258.22232142857143,349.12857142857143,4654,258.22232142857143,349.12857142857143,4754,258.22232142857143,349.12857142857143,4854.1,258.22232142857143,349.12857142857143,4960.3]","[3445.9,3445.9,1000,0,2445.9,""oops"",""up"",""left"",""bad_move"",6484.7,3038.2,1982.6,3446.5,1055.6,""smooth"",""up"",""up"",""good_move""]"
"12965","","<div style=""width:500px;"">
  <p>What determined the result of this run?</p>
  </div>","88","html-slider-response","34","1256024","0.0-7.0-1.4","14","1","2025-07-30 08:38:44","36c45c0696341be0efffe67d72a12abb","41.150.225.27","Mozilla/5.0 (Windows NT 10.0; Win64; x64) AppleWebKit/537.36 (KHTML, like Gecko) Chrome/138.0.0.0 Safari/537.36 Edg/138.0.0.0","WebKit","Edge","138.0.0.0","Windows","10.0","https://app.prolific.com/","en-US,en;q=0.9,fr;q=0.8","609fba4900794b6d944da77e","687a19d2168e237449fb8af4","6889d9d50a137dc47c009a5b","0","609fba4900794b6d944da77e","0","2025-07-30T08:59:45.713Z","","","","AttribQ","","","","","","","","","","","50","","","","","","","","","","","","","","","","","","","","","","","","","","",""
"6004","","<div style=""width:500px;"">
  <p>How much control did you have over the ball?</p>
  </div>","93","html-slider-response","35","1262032","0.0-7.0-2.4","14","1","2025-07-30 08:38:44","36c45c0696341be0efffe67d72a12abb","41.150.225.27","Mozilla/5.0 (Windows NT 10.0; Win64; x64) AppleWebKit/537.36 (KHTML, like Gecko) Chrome/138.0.0.0 Safari/537.36 Edg/138.0.0.0","WebKit","Edge","138.0.0.0","Windows","10.0","https://app.prolific.com/","en-US,en;q=0.9,fr;q=0.8","609fba4900794b6d944da77e","687a19d2168e237449fb8af4","6889d9d50a137dc47c009a5b","0","609fba4900794b6d944da77e","0","2025-07-30T08:59:51.720Z","","","","ControlQ","","","","","","","","","","","50","","","","","","","","","","","","","","","","","","","","","","","","","","",""
"5932","","<div style=""width:500px;"">
  <p>How would you describe your current emotional state?</p>
  </div>","5","html-slider-response","36","1267968","0.0-7.0-3.4","14","1","2025-07-30 08:38:44","36c45c0696341be0efffe67d72a12abb","41.150.225.27","Mozilla/5.0 (Windows NT 10.0; Win64; x64) AppleWebKit/537.36 (KHTML, like Gecko) Chrome/138.0.0.0 Safari/537.36 Edg/138.0.0.0","WebKit","Edge","138.0.0.0","Windows","10.0","https://app.prolific.com/","en-US,en;q=0.9,fr;q=0.8","609fba4900794b6d944da77e","687a19d2168e237449fb8af4","6889d9d50a137dc47c009a5b","0","609fba4900794b6d944da77e","0","2025-07-30T08:59:57.656Z","","","","StressQ","","","","","","","","","","","50","","","","","","","","","","","","","","","","","","","","","","","","","","",""
"5757","","<div style=""width:500px;"">
  <p>What best describes how you currently feel?</p>
  </div>","92","html-slider-response","37","1273728","0.0-7.0-4.4","14","1","2025-07-30 08:38:44","36c45c0696341be0efffe67d72a12abb","41.150.225.27","Mozilla/5.0 (Windows NT 10.0; Win64; x64) AppleWebKit/537.36 (KHTML, like Gecko) Chrome/138.0.0.0 Safari/537.36 Edg/138.0.0.0","WebKit","Edge","138.0.0.0","Windows","10.0","https://app.prolific.com/","en-US,en;q=0.9,fr;q=0.8","609fba4900794b6d944da77e","687a19d2168e237449fb8af4","6889d9d50a137dc47c009a5b","0","609fba4900794b6d944da77e","0","2025-07-30T09:00:03.416Z","","","","MotivationQ","","","","","","","","","","","50","","","","","","","","","","","","","","","","","","","","","","","","","","",""
"","","","","ctl-task-cpt","38","1296650","0.0-7.0-0.5","14","1","2025-07-30 08:38:44","36c45c0696341be0efffe67d72a12abb","41.150.225.27","Mozilla/5.0 (Windows NT 10.0; Win64; x64) AppleWebKit/537.36 (KHTML, like Gecko) Chrome/138.0.0.0 Safari/537.36 Edg/138.0.0.0","WebKit","Edge","138.0.0.0","Windows","10.0","https://app.prolific.com/","en-US,en;q=0.9,fr;q=0.8","609fba4900794b6d944da77e","687a19d2168e237449fb8af4","6889d9d50a137dc47c009a5b","0","609fba4900794b6d944da77e","0","2025-07-30T09:00:26.338Z","","","","","","","","","","","","","","","","win-only","2","g1:SE,g2:NW","0.5","6","0","1279094","2066.6","7071.3","19904.3","1","4","4","6","1","-1","-1","0","0","0","5004.7","3000","-2670","[""down"",""right""]","{""num_key_presses"":3,""num_perfect"":1,""num_errors"":0,""num_randdir"":2,""num_randdir_good_moves"":1,""num_whilered"":0,""num_whileblue"":0,""num_blue"":0,""num_good_moves"":1}","[300.22232142857143,291.12857142857143,0.5,300.22232142857143,291.12857142857143,103,300.22232142857143,291.12857142857143,208.5,299.22232142857143,291.12857142857143,314.6,299.22232142857143,291.12857142857143,420,298.22232142857143,299.12857142857143,520.2,305.22232142857143,323.12857142857143,624,320.22232142857143,340.12857142857143,724.9,329.22232142857143,362.12857142857143,831.4,335.22232142857143,389.12857142857143,935.1,339.22232142857143,394.12857142857143,1039.2,339.22232142857143,394.12857142857143,1140.3,346.22232142857143,390.12857142857143,1251.7,352.22232142857143,387.12857142857143,1352.7,355.22232142857143,376.12857142857143,1454.1,356.22232142857143,371.12857142857143,1556.2,356.22232142857143,369.12857142857143,1660.8,356.22232142857143,368.12857142857143,1769.3,358.22232142857143,364.12857142857143,1874.1,358.22232142857143,361.12857142857143,1979.5,358.22232142857143,361.12857142857143,2080.7,358.22232142857143,361.12857142857143,2181.1,358.22232142857143,361.12857142857143,2285.8,358.22232142857143,361.12857142857143,2389.3,358.22232142857143,361.12857142857143,2496.7,358.22232142857143,361.12857142857143,2602.5,358.22232142857143,361.12857142857143,2704.9,358.22232142857143,361.12857142857143,2808.8,358.22232142857143,361.12857142857143,2909.7,358.22232142857143,359.12857142857143,3009.7,358.22232142857143,359.12857142857143,3111,358.22232142857143,359.12857142857143,3211.1,358.22232142857143,359.12857142857143,3315.1,358.22232142857143,359.12857142857143,3418.7,358.22232142857143,359.12857142857143,3520.2,358.22232142857143,357.12857142857143,3621.2,358.22232142857143,357.12857142857143,3724.3,358.22232142857143,357.12857142857143,3824.7,358.22232142857143,357.12857142857143,3931.8,356.22232142857143,354.12857142857143,4032.1,354.22232142857143,351.12857142857143,4135.8,354.22232142857143,351.12857142857143,4239.3,354.22232142857143,351.12857142857143,4352.1,354.22232142857143,351.12857142857143,4452.5,354.22232142857143,351.12857142857143,4554.8,353.22232142857143,351.12857142857143,4657.2,353.22232142857143,351.12857142857143,4759.3,352.22232142857143,351.12857142857143,4860,350.22232142857143,349.12857142857143,4963.3]","[3515.8,3515.8,1000,0,2515.8,""smooth"",""up"",""up"",""bad_move"",6770.5,3253.1,2803.4,3517.4,449.8,""oops"",""up"",""right"",""good_move"",9953.7,3177.4,2611.5,6776.4,565.9,""oops"",""up"",""left"",""bad_move""]"
"11174","","<div style=""width:500px;"">
  <p>What determined the result of this run?</p>
  </div>","61","html-slider-response","39","1307826","0.0-7.0-1.5","14","1","2025-07-30 08:38:44","36c45c0696341be0efffe67d72a12abb","41.150.225.27","Mozilla/5.0 (Windows NT 10.0; Win64; x64) AppleWebKit/537.36 (KHTML, like Gecko) Chrome/138.0.0.0 Safari/537.36 Edg/138.0.0.0","WebKit","Edge","138.0.0.0","Windows","10.0","https://app.prolific.com/","en-US,en;q=0.9,fr;q=0.8","609fba4900794b6d944da77e","687a19d2168e237449fb8af4","6889d9d50a137dc47c009a5b","0","609fba4900794b6d944da77e","0","2025-07-30T09:00:37.514Z","","","","AttribQ","","","","","","","","","","","50","","","","","","","","","","","","","","","","","","","","","","","","","","",""
"7523","","<div style=""width:500px;"">
  <p>How much control did you have over the ball?</p>
  </div>","63","html-slider-response","40","1315354","0.0-7.0-2.5","14","1","2025-07-30 08:38:44","36c45c0696341be0efffe67d72a12abb","41.150.225.27","Mozilla/5.0 (Windows NT 10.0; Win64; x64) AppleWebKit/537.36 (KHTML, like Gecko) Chrome/138.0.0.0 Safari/537.36 Edg/138.0.0.0","WebKit","Edge","138.0.0.0","Windows","10.0","https://app.prolific.com/","en-US,en;q=0.9,fr;q=0.8","609fba4900794b6d944da77e","687a19d2168e237449fb8af4","6889d9d50a137dc47c009a5b","0","609fba4900794b6d944da77e","0","2025-07-30T09:00:45.043Z","","","","ControlQ","","","","","","","","","","","50","","","","","","","","","","","","","","","","","","","","","","","","","","",""
"7550","","<div style=""width:500px;"">
  <p>How would you describe your current emotional state?</p>
  </div>","10","html-slider-response","41","1322912","0.0-7.0-3.5","14","1","2025-07-30 08:38:44","36c45c0696341be0efffe67d72a12abb","41.150.225.27","Mozilla/5.0 (Windows NT 10.0; Win64; x64) AppleWebKit/537.36 (KHTML, like Gecko) Chrome/138.0.0.0 Safari/537.36 Edg/138.0.0.0","WebKit","Edge","138.0.0.0","Windows","10.0","https://app.prolific.com/","en-US,en;q=0.9,fr;q=0.8","609fba4900794b6d944da77e","687a19d2168e237449fb8af4","6889d9d50a137dc47c009a5b","0","609fba4900794b6d944da77e","0","2025-07-30T09:00:52.600Z","","","","StressQ","","","","","","","","","","","50","","","","","","","","","","","","","","","","","","","","","","","","","","",""
"6662","","<div style=""width:500px;"">
  <p>What best describes how you currently feel?</p>
  </div>","85","html-slider-response","42","1329579","0.0-7.0-4.5","14","1","2025-07-30 08:38:44","36c45c0696341be0efffe67d72a12abb","41.150.225.27","Mozilla/5.0 (Windows NT 10.0; Win64; x64) AppleWebKit/537.36 (KHTML, like Gecko) Chrome/138.0.0.0 Safari/537.36 Edg/138.0.0.0","WebKit","Edge","138.0.0.0","Windows","10.0","https://app.prolific.com/","en-US,en;q=0.9,fr;q=0.8","609fba4900794b6d944da77e","687a19d2168e237449fb8af4","6889d9d50a137dc47c009a5b","0","609fba4900794b6d944da77e","0","2025-07-30T09:00:59.267Z","","","","MotivationQ","","","","","","","","","","","50","","","","","","","","","","","","","","","","","","","","","","","","","","",""
"","","","","ctl-task-cpt","43","1364395","0.0-7.0-0.6","14","1","2025-07-30 08:38:44","36c45c0696341be0efffe67d72a12abb","41.150.225.27","Mozilla/5.0 (Windows NT 10.0; Win64; x64) AppleWebKit/537.36 (KHTML, like Gecko) Chrome/138.0.0.0 Safari/537.36 Edg/138.0.0.0","WebKit","Edge","138.0.0.0","Windows","10.0","https://app.prolific.com/","en-US,en;q=0.9,fr;q=0.8","609fba4900794b6d944da77e","687a19d2168e237449fb8af4","6889d9d50a137dc47c009a5b","0","609fba4900794b6d944da77e","0","2025-07-30T09:01:34.083Z","","","","","","","","","","","","","","","","win-only","2","g1:SE,g2:NW","0.4","7","0","1334945.7","4999.6","10001.1","31792.2","1","4","8","6","2","-8","-8","0","0","0","5001.5","3000","-2335","[""left"",""up""]","{""num_key_presses"":4,""num_perfect"":2,""num_errors"":0,""num_randdir"":2,""num_randdir_good_moves"":1,""num_whilered"":0,""num_whileblue"":0,""num_blue"":2,""num_good_moves"":3}","[292.22232142857143,300.12857142857143,0.4,292.22232142857143,300.12857142857143,100.8,292.22232142857143,300.12857142857143,202.8,292.22232142857143,300.12857142857143,303.2,293.22232142857143,300.12857142857143,407.5,294.22232142857143,307.12857142857143,509.3,306.22232142857143,327.12857142857143,612.6,320.22232142857143,354.12857142857143,716.5,330.22232142857143,360.12857142857143,817.7,337.22232142857143,360.12857142857143,926.1,341.22232142857143,360.12857142857143,1026.3,344.22232142857143,357.12857142857143,1136,347.22232142857143,356.12857142857143,1252.4,347.22232142857143,356.12857142857143,1354.2,348.22232142857143,355.12857142857143,1459,348.22232142857143,355.12857142857143,1567.5,348.22232142857143,355.12857142857143,1671.8,348.22232142857143,355.12857142857143,1771.8,348.22232142857143,355.12857142857143,1879.3,348.22232142857143,355.12857142857143,1983.2,348.22232142857143,355.12857142857143,2088.2,348.22232142857143,355.12857142857143,2196,348.22232142857143,355.12857142857143,2296.4,348.22232142857143,355.12857142857143,2401.9,348.22232142857143,355.12857142857143,2501.9,348.22232142857143,355.12857142857143,2602.2,348.22232142857143,355.12857142857143,2702.6,348.22232142857143,355.12857142857143,2810,348.22232142857143,355.12857142857143,2913.1,348.22232142857143,355.12857142857143,3018.1,348.22232142857143,355.12857142857143,3122.7,348.22232142857143,355.12857142857143,3228,348.22232142857143,355.12857142857143,3328.5,348.22232142857143,355.12857142857143,3431.8,348.22232142857143,355.12857142857143,3544.7,348.22232142857143,355.12857142857143,3645.3,348.22232142857143,355.12857142857143,3746.7,348.22232142857143,355.12857142857143,3847.7,348.22232142857143,355.12857142857143,3951.5,348.22232142857143,355.12857142857143,4060.8,348.22232142857143,355.12857142857143,4161.5,348.22232142857143,355.12857142857143,4266.7,348.22232142857143,355.12857142857143,4366.9,348.22232142857143,355.12857142857143,4467.5,348.22232142857143,355.12857142857143,4567.6,348.22232142857143,355.12857142857143,4678.6,348.22232142857143,355.12857142857143,4779.3,348.22232142857143,355.12857142857143,4883.2,348.22232142857143,355.12857142857143,4984.7]","[3056.5,3056.5,1000,0,2056.5,""oops"",""up"",""left"",""good_move"",6344.6,3286.4,2780.9,3058.2,505.5,""oops"",""up"",""right"",""bad_move"",12274.2,5929.2,2455.4,9275.9,542.9,""smooth"",""up"",""up"",""good_move"",14686.7,2412.1,1715.8,12274.6,696.3,""smooth"",""up"",""up"",""good_move""]"
"6579","","<div style=""width:500px;"">
  <p>What determined the result of this run?</p>
  </div>","100","html-slider-response","44","1370976","0.0-7.0-1.6","14","1","2025-07-30 08:38:44","36c45c0696341be0efffe67d72a12abb","41.150.225.27","Mozilla/5.0 (Windows NT 10.0; Win64; x64) AppleWebKit/537.36 (KHTML, like Gecko) Chrome/138.0.0.0 Safari/537.36 Edg/138.0.0.0","WebKit","Edge","138.0.0.0","Windows","10.0","https://app.prolific.com/","en-US,en;q=0.9,fr;q=0.8","609fba4900794b6d944da77e","687a19d2168e237449fb8af4","6889d9d50a137dc47c009a5b","0","609fba4900794b6d944da77e","0","2025-07-30T09:01:40.665Z","","","","AttribQ","","","","","","","","","","","50","","","","","","","","","","","","","","","","","","","","","","","","","","",""
"5492","","<div style=""width:500px;"">
  <p>How much control did you have over the ball?</p>
  </div>","97","html-slider-response","45","1376474","0.0-7.0-2.6","14","1","2025-07-30 08:38:44","36c45c0696341be0efffe67d72a12abb","41.150.225.27","Mozilla/5.0 (Windows NT 10.0; Win64; x64) AppleWebKit/537.36 (KHTML, like Gecko) Chrome/138.0.0.0 Safari/537.36 Edg/138.0.0.0","WebKit","Edge","138.0.0.0","Windows","10.0","https://app.prolific.com/","en-US,en;q=0.9,fr;q=0.8","609fba4900794b6d944da77e","687a19d2168e237449fb8af4","6889d9d50a137dc47c009a5b","0","609fba4900794b6d944da77e","0","2025-07-30T09:01:46.163Z","","","","ControlQ","","","","","","","","","","","50","","","","","","","","","","","","","","","","","","","","","","","","","","",""
"8362","","<div style=""width:500px;"">
  <p>How would you describe your current emotional state?</p>
  </div>","4","html-slider-response","46","1384840","0.0-7.0-3.6","14","1","2025-07-30 08:38:44","36c45c0696341be0efffe67d72a12abb","41.150.225.27","Mozilla/5.0 (Windows NT 10.0; Win64; x64) AppleWebKit/537.36 (KHTML, like Gecko) Chrome/138.0.0.0 Safari/537.36 Edg/138.0.0.0","WebKit","Edge","138.0.0.0","Windows","10.0","https://app.prolific.com/","en-US,en;q=0.9,fr;q=0.8","609fba4900794b6d944da77e","687a19d2168e237449fb8af4","6889d9d50a137dc47c009a5b","0","609fba4900794b6d944da77e","0","2025-07-30T09:01:54.529Z","","","","StressQ","","","","","","","","","","","50","","","","","","","","","","","","","","","","","","","","","","","","","","",""
"5923","","<div style=""width:500px;"">
  <p>What best describes how you currently feel?</p>
  </div>","94","html-slider-response","47","1390768","0.0-7.0-4.6","14","1","2025-07-30 08:38:44","36c45c0696341be0efffe67d72a12abb","41.150.225.27","Mozilla/5.0 (Windows NT 10.0; Win64; x64) AppleWebKit/537.36 (KHTML, like Gecko) Chrome/138.0.0.0 Safari/537.36 Edg/138.0.0.0","WebKit","Edge","138.0.0.0","Windows","10.0","https://app.prolific.com/","en-US,en;q=0.9,fr;q=0.8","609fba4900794b6d944da77e","687a19d2168e237449fb8af4","6889d9d50a137dc47c009a5b","0","609fba4900794b6d944da77e","0","2025-07-30T09:02:00.456Z","","","","MotivationQ","","","","","","","","","","","50","","","","","","","","","","","","","","","","","","","","","","","","","","",""
"","","","","ctl-task-cpt","48","1416059","0.0-7.0-0.7","14","1","2025-07-30 08:38:44","36c45c0696341be0efffe67d72a12abb","41.150.225.27","Mozilla/5.0 (Windows NT 10.0; Win64; x64) AppleWebKit/537.36 (KHTML, like Gecko) Chrome/138.0.0.0 Safari/537.36 Edg/138.0.0.0","WebKit","Edge","138.0.0.0","Windows","10.0","https://app.prolific.com/","en-US,en;q=0.9,fr;q=0.8","609fba4900794b6d944da77e","687a19d2168e237449fb8af4","6889d9d50a137dc47c009a5b","0","609fba4900794b6d944da77e","0","2025-07-30T09:02:25.747Z","","","","","","","","","","","","","","","","win-only","1","g1:NE,g2:SW","0.3","8","0","1396133.5","1866.8","6870.6","22265.4","1","4","4","6","1","-1","-1","0","0","0","5003.8","3000","-2575","[""up"",""right""]","{""num_key_presses"":3,""num_perfect"":1,""num_errors"":0,""num_randdir"":2,""num_randdir_good_moves"":0,""num_whilered"":0,""num_whileblue"":0,""num_blue"":1,""num_good_moves"":1}","[297.22232142857143,293.12857142857143,0.2,297.22232142857143,293.12857142857143,104,297.22232142857143,293.12857142857143,205.3,297.22232142857143,293.12857142857143,315.9,312.22232142857143,331.12857142857143,420.4,312.22232142857143,348.12857142857143,524.5,314.22232142857143,358.12857142857143,628.8,322.22232142857143,358.12857142857143,729.1,333.22232142857143,343.12857142857143,837.2,338.22232142857143,328.12857142857143,944.6,344.22232142857143,289.12857142857143,1051.5,344.22232142857143,269.12857142857143,1155.3,344.22232142857143,266.12857142857143,1260.6,344.22232142857143,266.12857142857143,1361.2,344.22232142857143,264.12857142857143,1467.6,344.22232142857143,264.12857142857143,1569.8,344.22232142857143,264.12857142857143,1673.9,344.22232142857143,264.12857142857143,1775.3,344.22232142857143,264.12857142857143,1884.2,344.22232142857143,264.12857142857143,1984.2,344.22232142857143,264.12857142857143,2089.1,344.22232142857143,264.12857142857143,2189.2,344.22232142857143,263.12857142857143,2295.5,344.22232142857143,263.12857142857143,2400.2,344.22232142857143,263.12857142857143,2503.2,344.22232142857143,263.12857142857143,2603.5,344.22232142857143,263.12857142857143,2703.5,344.22232142857143,263.12857142857143,2817.8,344.22232142857143,261.12857142857143,2918.6,344.22232142857143,259.12857142857143,3019,344.22232142857143,258.12857142857143,3120.4,344.22232142857143,257.12857142857143,3226.3,344.22232142857143,257.12857142857143,3334.2,344.22232142857143,257.12857142857143,3434.5,344.22232142857143,257.12857142857143,3534.7,344.22232142857143,257.12857142857143,3638.6,344.22232142857143,257.12857142857143,3739,344.22232142857143,257.12857142857143,3846.7,344.22232142857143,257.12857142857143,3949,344.22232142857143,257.12857142857143,4050.7,344.22232142857143,257.12857142857143,4152.1,344.22232142857143,257.12857142857143,4253.7,344.22232142857143,257.12857142857143,4354.3,344.22232142857143,257.12857142857143,4455.2,344.22232142857143,257.12857142857143,4558.9,344.22232142857143,257.12857142857143,4660.6,344.22232142857143,257.12857142857143,4765.6,344.22232142857143,257.12857142857143,4866.3,344.22232142857143,257.12857142857143,4967.2]","[5580.4,5580.4,1919.8,2009.9,1650.7,""oops"",""up"",""down"",""bad_move"",8856.9,3275.6,2696.7,5581.4,578.9,""smooth"",""up"",""up"",""good_move"",12934.7,4076,2497,8858.7,1579,""oops"",""up"",""left"",""bad_move""]"
"10275","","<div style=""width:500px;"">
  <p>What determined the result of this run?</p>
  </div>","38","html-slider-response","49","1426336","0.0-7.0-1.7","14","1","2025-07-30 08:38:44","36c45c0696341be0efffe67d72a12abb","41.150.225.27","Mozilla/5.0 (Windows NT 10.0; Win64; x64) AppleWebKit/537.36 (KHTML, like Gecko) Chrome/138.0.0.0 Safari/537.36 Edg/138.0.0.0","WebKit","Edge","138.0.0.0","Windows","10.0","https://app.prolific.com/","en-US,en;q=0.9,fr;q=0.8","609fba4900794b6d944da77e","687a19d2168e237449fb8af4","6889d9d50a137dc47c009a5b","0","609fba4900794b6d944da77e","0","2025-07-30T09:02:36.024Z","","","","AttribQ","","","","","","","","","","","50","","","","","","","","","","","","","","","","","","","","","","","","","","",""
"7221","","<div style=""width:500px;"">
  <p>How much control did you have over the ball?</p>
  </div>","59","html-slider-response","50","1433562","0.0-7.0-2.7","14","1","2025-07-30 08:38:44","36c45c0696341be0efffe67d72a12abb","41.150.225.27","Mozilla/5.0 (Windows NT 10.0; Win64; x64) AppleWebKit/537.36 (KHTML, like Gecko) Chrome/138.0.0.0 Safari/537.36 Edg/138.0.0.0","WebKit","Edge","138.0.0.0","Windows","10.0","https://app.prolific.com/","en-US,en;q=0.9,fr;q=0.8","609fba4900794b6d944da77e","687a19d2168e237449fb8af4","6889d9d50a137dc47c009a5b","0","609fba4900794b6d944da77e","0","2025-07-30T09:02:43.250Z","","","","ControlQ","","","","","","","","","","","50","","","","","","","","","","","","","","","","","","","","","","","","","","",""
"5387","","<div style=""width:500px;"">
  <p>How would you describe your current emotional state?</p>
  </div>","24","html-slider-response","51","1438954","0.0-7.0-3.7","14","1","2025-07-30 08:38:44","36c45c0696341be0efffe67d72a12abb","41.150.225.27","Mozilla/5.0 (Windows NT 10.0; Win64; x64) AppleWebKit/537.36 (KHTML, like Gecko) Chrome/138.0.0.0 Safari/537.36 Edg/138.0.0.0","WebKit","Edge","138.0.0.0","Windows","10.0","https://app.prolific.com/","en-US,en;q=0.9,fr;q=0.8","609fba4900794b6d944da77e","687a19d2168e237449fb8af4","6889d9d50a137dc47c009a5b","0","609fba4900794b6d944da77e","0","2025-07-30T09:02:48.642Z","","","","StressQ","","","","","","","","","","","50","","","","","","","","","","","","","","","","","","","","","","","","","","",""
"4572","","<div style=""width:500px;"">
  <p>What best describes how you currently feel?</p>
  </div>","86","html-slider-response","52","1443530","0.0-7.0-4.7","14","1","2025-07-30 08:38:44","36c45c0696341be0efffe67d72a12abb","41.150.225.27","Mozilla/5.0 (Windows NT 10.0; Win64; x64) AppleWebKit/537.36 (KHTML, like Gecko) Chrome/138.0.0.0 Safari/537.36 Edg/138.0.0.0","WebKit","Edge","138.0.0.0","Windows","10.0","https://app.prolific.com/","en-US,en;q=0.9,fr;q=0.8","609fba4900794b6d944da77e","687a19d2168e237449fb8af4","6889d9d50a137dc47c009a5b","0","609fba4900794b6d944da77e","0","2025-07-30T09:02:53.219Z","","","","MotivationQ","","","","","","","","","","","50","","","","","","","","","","","","","","","","","","","","","","","","","","",""
"","","","","ctl-task-cpt","53","1452799","0.0-7.0-0.8","14","1","2025-07-30 08:38:44","36c45c0696341be0efffe67d72a12abb","41.150.225.27","Mozilla/5.0 (Windows NT 10.0; Win64; x64) AppleWebKit/537.36 (KHTML, like Gecko) Chrome/138.0.0.0 Safari/537.36 Edg/138.0.0.0","WebKit","Edge","138.0.0.0","Windows","10.0","https://app.prolific.com/","en-US,en;q=0.9,fr;q=0.8","609fba4900794b6d944da77e","687a19d2168e237449fb8af4","6889d9d50a137dc47c009a5b","0","609fba4900794b6d944da77e","0","2025-07-30T09:03:02.487Z","","","","","","","","","","","","","","","","win-only","0","g1:NW,g2:SE","0.4","9","0","1448897.1","1242.1","-9999","6248.2","1","4","4","6","-9999","-4","-4","0","0","0","-9999","3000","3000","[]","{""num_key_presses"":0,""num_perfect"":0,""num_errors"":0,""num_randdir"":0,""num_randdir_good_moves"":0,""num_whilered"":0,""num_whileblue"":0,""num_blue"":0,""num_good_moves"":0}","[297.22232142857143,291.12857142857143,0.4,297.22232142857143,291.12857142857143,100.4,297.22232142857143,292.12857142857143,200.8,297.22232142857143,292.12857142857143,304.1,299.22232142857143,293.12857142857143,410.5,301.22232142857143,296.12857142857143,519.1,306.22232142857143,304.12857142857143,624.6,306.22232142857143,320.12857142857143,731.9,306.22232142857143,327.12857142857143,835.4,303.22232142857143,330.12857142857143,941.8,302.22232142857143,331.12857142857143,1044.8,302.22232142857143,331.12857142857143,1144.9,302.22232142857143,331.12857142857143,1250.7,302.22232142857143,331.12857142857143,1357.3,302.22232142857143,331.12857142857143,1461.5,302.22232142857143,331.12857142857143,1563,302.22232142857143,331.12857142857143,1664.4,302.22232142857143,331.12857142857143,1771.5,302.22232142857143,331.12857142857143,1876.3,302.22232142857143,331.12857142857143,1986.9,302.22232142857143,331.12857142857143,2099.9,302.22232142857143,331.12857142857143,2205.3,302.22232142857143,331.12857142857143,2308.2,302.22232142857143,331.12857142857143,2411.4,302.22232142857143,331.12857142857143,2519.4,302.22232142857143,331.12857142857143,2623.4,302.22232142857143,331.12857142857143,2730.3,302.22232142857143,331.12857142857143,2830.7,302.22232142857143,331.12857142857143,2938.3,302.22232142857143,331.12857142857143,3040.8,302.22232142857143,331.12857142857143,3144.2,302.22232142857143,331.12857142857143,3245.7,302.22232142857143,331.12857142857143,3357.6,302.22232142857143,331.12857142857143,3459.9,302.22232142857143,331.12857142857143,3574.1,302.22232142857143,331.12857142857143,3679.7,302.22232142857143,331.12857142857143,3793,300.22232142857143,331.12857142857143,3895,295.22232142857143,331.12857142857143,3995.1,261.22232142857143,328.12857142857143,4102.9,236.22232142857143,323.12857142857143,4206.4,235.22232142857143,322.12857142857143,4308.3,233.22232142857143,321.12857142857143,4409.5,234.22232142857143,320.12857142857143,4513.8,234.22232142857143,320.12857142857143,4616.1,234.22232142857143,318.12857142857143,4728,234.22232142857143,313.12857142857143,4828.9,235.22232142857143,311.12857142857143,4929.3]","[]"
"7153","","<div style=""width:500px;"">
  <p>What determined the result of this run?</p>
  </div>","39","html-slider-response","54","1459955","0.0-7.0-1.8","14","1","2025-07-30 08:38:44","36c45c0696341be0efffe67d72a12abb","41.150.225.27","Mozilla/5.0 (Windows NT 10.0; Win64; x64) AppleWebKit/537.36 (KHTML, like Gecko) Chrome/138.0.0.0 Safari/537.36 Edg/138.0.0.0","WebKit","Edge","138.0.0.0","Windows","10.0","https://app.prolific.com/","en-US,en;q=0.9,fr;q=0.8","609fba4900794b6d944da77e","687a19d2168e237449fb8af4","6889d9d50a137dc47c009a5b","0","609fba4900794b6d944da77e","0","2025-07-30T09:03:09.643Z","","","","AttribQ","","","","","","","","","","","50","","","","","","","","","","","","","","","","","","","","","","","","","","",""
"4457","","<div style=""width:500px;"">
  <p>How much control did you have over the ball?</p>
  </div>","34","html-slider-response","55","1464416","0.0-7.0-2.8","14","1","2025-07-30 08:38:44","36c45c0696341be0efffe67d72a12abb","41.150.225.27","Mozilla/5.0 (Windows NT 10.0; Win64; x64) AppleWebKit/537.36 (KHTML, like Gecko) Chrome/138.0.0.0 Safari/537.36 Edg/138.0.0.0","WebKit","Edge","138.0.0.0","Windows","10.0","https://app.prolific.com/","en-US,en;q=0.9,fr;q=0.8","609fba4900794b6d944da77e","687a19d2168e237449fb8af4","6889d9d50a137dc47c009a5b","0","609fba4900794b6d944da77e","0","2025-07-30T09:03:14.104Z","","","","ControlQ","","","","","","","","","","","50","","","","","","","","","","","","","","","","","","","","","","","","","","",""
"7005","","<div style=""width:500px;"">
  <p>How would you describe your current emotional state?</p>
  </div>","36","html-slider-response","56","1471426","0.0-7.0-3.8","14","1","2025-07-30 08:38:44","36c45c0696341be0efffe67d72a12abb","41.150.225.27","Mozilla/5.0 (Windows NT 10.0; Win64; x64) AppleWebKit/537.36 (KHTML, like Gecko) Chrome/138.0.0.0 Safari/537.36 Edg/138.0.0.0","WebKit","Edge","138.0.0.0","Windows","10.0","https://app.prolific.com/","en-US,en;q=0.9,fr;q=0.8","609fba4900794b6d944da77e","687a19d2168e237449fb8af4","6889d9d50a137dc47c009a5b","0","609fba4900794b6d944da77e","0","2025-07-30T09:03:21.115Z","","","","StressQ","","","","","","","","","","","50","","","","","","","","","","","","","","","","","","","","","","","","","","",""
"5331","","<div style=""width:500px;"">
  <p>What best describes how you currently feel?</p>
  </div>","62","html-slider-response","57","1476762","0.0-7.0-4.8","14","1","2025-07-30 08:38:44","36c45c0696341be0efffe67d72a12abb","41.150.225.27","Mozilla/5.0 (Windows NT 10.0; Win64; x64) AppleWebKit/537.36 (KHTML, like Gecko) Chrome/138.0.0.0 Safari/537.36 Edg/138.0.0.0","WebKit","Edge","138.0.0.0","Windows","10.0","https://app.prolific.com/","en-US,en;q=0.9,fr;q=0.8","609fba4900794b6d944da77e","687a19d2168e237449fb8af4","6889d9d50a137dc47c009a5b","0","609fba4900794b6d944da77e","0","2025-07-30T09:03:26.450Z","","","","MotivationQ","","","","","","","","","","","50","","","","","","","","","","","","","","","","","","","","","","","","","","",""
"","","","","ctl-task-cpt","58","1516788","0.0-7.0-0.9","14","1","2025-07-30 08:38:44","36c45c0696341be0efffe67d72a12abb","41.150.225.27","Mozilla/5.0 (Windows NT 10.0; Win64; x64) AppleWebKit/537.36 (KHTML, like Gecko) Chrome/138.0.0.0 Safari/537.36 Edg/138.0.0.0","WebKit","Edge","138.0.0.0","Windows","10.0","https://app.prolific.com/","en-US,en;q=0.9,fr;q=0.8","609fba4900794b6d944da77e","687a19d2168e237449fb8af4","6889d9d50a137dc47c009a5b","0","609fba4900794b6d944da77e","0","2025-07-30T09:04:06.476Z","","","","","","","","","","","","","","","","win-only","2","g1:SE,g2:NW","0.5","10","0","1482128.2","1474.2","6482.6","36993","1","4","8","6","2","-8","-8","0","0","0","5008.4","3000","-2000","[""left"",""up""]","{""num_key_presses"":5,""num_perfect"":3,""num_errors"":0,""num_randdir"":2,""num_randdir_good_moves"":1,""num_whilered"":0,""num_whileblue"":0,""num_blue"":4,""num_good_moves"":4}","[298.22232142857143,297.12857142857143,0.4,298.22232142857143,297.12857142857143,103.6,298.22232142857143,297.12857142857143,212.2,298.22232142857143,297.12857142857143,316.4,298.22232142857143,297.12857142857143,422.7,298.22232142857143,299.12857142857143,527,306.22232142857143,322.12857142857143,641.2,316.22232142857143,346.12857142857143,743.5,318.22232142857143,352.12857142857143,851.8,323.22232142857143,356.12857142857143,953.7,327.22232142857143,356.12857142857143,1061.1,333.22232142857143,356.12857142857143,1164.6,363.22232142857143,353.12857142857143,1271.8,366.22232142857143,350.12857142857143,1377,368.22232142857143,346.12857142857143,1478,371.22232142857143,345.12857142857143,1585.4,375.22232142857143,341.12857142857143,1686,378.22232142857143,335.12857142857143,1793.7,378.22232142857143,334.12857142857143,1896.4,379.22232142857143,330.12857142857143,2004,379.22232142857143,330.12857142857143,2112.2,379.22232142857143,329.12857142857143,2215.6,379.22232142857143,329.12857142857143,2323.8,379.22232142857143,329.12857142857143,2426.9,379.22232142857143,329.12857142857143,2529.9,376.22232142857143,333.12857142857143,2638.8,363.22232142857143,342.12857142857143,2744.8,363.22232142857143,342.12857142857143,2851.6,360.22232142857143,344.12857142857143,2957.8,360.22232142857143,344.12857142857143,3060.9,360.22232142857143,344.12857142857143,3164.5,360.22232142857143,344.12857142857143,3268.8,360.22232142857143,344.12857142857143,3378.6,360.22232142857143,344.12857142857143,3480.8,360.22232142857143,344.12857142857143,3588.9,360.22232142857143,344.12857142857143,3693.1,360.22232142857143,344.12857142857143,3796.1,360.22232142857143,344.12857142857143,3897,360.22232142857143,344.12857142857143,3997.9,360.22232142857143,344.12857142857143,4105,360.22232142857143,344.12857142857143,4205.3,360.22232142857143,344.12857142857143,4313.2,360.22232142857143,344.12857142857143,4422.4,360.22232142857143,344.12857142857143,4522.6,360.22232142857143,344.12857142857143,4623,360.22232142857143,344.12857142857143,4726.7,360.22232142857143,344.12857142857143,4828.8,360.22232142857143,344.12857142857143,4938.1]","[5969.3,5969.3,2219.4,2003.6,1746.3,""smooth"",""up"",""up"",""good_move"",8492.7,2520.3,2023.1,5972.4,497.2,""smooth"",""up"",""up"",""good_move"",18816.1,10321.8,2854.4,15349.9,611.8,""smooth"",""up"",""up"",""good_move"",21810.1,2993.5,2449.2,18816.6,544.3,""oops"",""up"",""left"",""good_move"",24742.3,2931,2511.8,21811.3,419.2,""oops"",""up"",""down"",""bad_move""]"
"21642","","<div style=""width:500px;"">
  <p>What determined the result of this run?</p>
  </div>","96","html-slider-response","59","1538434","0.0-7.0-1.9","14","1","2025-07-30 08:38:44","36c45c0696341be0efffe67d72a12abb","41.150.225.27","Mozilla/5.0 (Windows NT 10.0; Win64; x64) AppleWebKit/537.36 (KHTML, like Gecko) Chrome/138.0.0.0 Safari/537.36 Edg/138.0.0.0","WebKit","Edge","138.0.0.0","Windows","10.0","https://app.prolific.com/","en-US,en;q=0.9,fr;q=0.8","609fba4900794b6d944da77e","687a19d2168e237449fb8af4","6889d9d50a137dc47c009a5b","0","609fba4900794b6d944da77e","0","2025-07-30T09:04:28.123Z","","","","AttribQ","","","","","","","","","","","50","","","","","","","","","","","","","","","","","","","","","","","","","","",""
"4985","","<div style=""width:500px;"">
  <p>How much control did you have over the ball?</p>
  </div>","94","html-slider-response","60","1543426","0.0-7.0-2.9","14","1","2025-07-30 08:38:44","36c45c0696341be0efffe67d72a12abb","41.150.225.27","Mozilla/5.0 (Windows NT 10.0; Win64; x64) AppleWebKit/537.36 (KHTML, like Gecko) Chrome/138.0.0.0 Safari/537.36 Edg/138.0.0.0","WebKit","Edge","138.0.0.0","Windows","10.0","https://app.prolific.com/","en-US,en;q=0.9,fr;q=0.8","609fba4900794b6d944da77e","687a19d2168e237449fb8af4","6889d9d50a137dc47c009a5b","0","609fba4900794b6d944da77e","0","2025-07-30T09:04:33.114Z","","","","ControlQ","","","","","","","","","","","50","","","","","","","","","","","","","","","","","","","","","","","","","","",""
"6105","","<div style=""width:500px;"">
  <p>How would you describe your current emotional state?</p>
  </div>","0","html-slider-response","61","1549537","0.0-7.0-3.9","14","1","2025-07-30 08:38:44","36c45c0696341be0efffe67d72a12abb","41.150.225.27","Mozilla/5.0 (Windows NT 10.0; Win64; x64) AppleWebKit/537.36 (KHTML, like Gecko) Chrome/138.0.0.0 Safari/537.36 Edg/138.0.0.0","WebKit","Edge","138.0.0.0","Windows","10.0","https://app.prolific.com/","en-US,en;q=0.9,fr;q=0.8","609fba4900794b6d944da77e","687a19d2168e237449fb8af4","6889d9d50a137dc47c009a5b","0","609fba4900794b6d944da77e","0","2025-07-30T09:04:39.225Z","","","","StressQ","","","","","","","","","","","50","","","","","","","","","","","","","","","","","","","","","","","","","","",""
"6811","","<div style=""width:500px;"">
  <p>What best describes how you currently feel?</p>
  </div>","91","html-slider-response","62","1556352","0.0-7.0-4.9","14","1","2025-07-30 08:38:44","36c45c0696341be0efffe67d72a12abb","41.150.225.27","Mozilla/5.0 (Windows NT 10.0; Win64; x64) AppleWebKit/537.36 (KHTML, like Gecko) Chrome/138.0.0.0 Safari/537.36 Edg/138.0.0.0","WebKit","Edge","138.0.0.0","Windows","10.0","https://app.prolific.com/","en-US,en;q=0.9,fr;q=0.8","609fba4900794b6d944da77e","687a19d2168e237449fb8af4","6889d9d50a137dc47c009a5b","0","609fba4900794b6d944da77e","0","2025-07-30T09:04:46.040Z","","","","MotivationQ","","","","","","","","","","","50","","","","","","","","","","","","","","","","","","","","","","","","","","",""
"","","","","ctl-task-cpt","63","1590102","0.0-7.0-0.10","14","1","2025-07-30 08:38:44","36c45c0696341be0efffe67d72a12abb","41.150.225.27","Mozilla/5.0 (Windows NT 10.0; Win64; x64) AppleWebKit/537.36 (KHTML, like Gecko) Chrome/138.0.0.0 Safari/537.36 Edg/138.0.0.0","WebKit","Edge","138.0.0.0","Windows","10.0","https://app.prolific.com/","en-US,en;q=0.9,fr;q=0.8","609fba4900794b6d944da77e","687a19d2168e237449fb8af4","6889d9d50a137dc47c009a5b","0","609fba4900794b6d944da77e","0","2025-07-30T09:05:19.790Z","","","","","","","","","","","","","","","","win-only","3","g1:SW,g2:NE","0.6","11","0","1561717.5","1709.9","6725.6","30719.6","1","4","8","6","1","-1","-1","0","0","0","5015.7","3000","-2185","[""down"",""left""]","{""num_key_presses"":6,""num_perfect"":5,""num_errors"":0,""num_randdir"":1,""num_randdir_good_moves"":1,""num_whilered"":0,""num_whileblue"":0,""num_blue"":1,""num_good_moves"":1}","[298.22232142857143,300.12857142857143,0.5,299.22232142857143,299.12857142857143,100.3,299.22232142857143,299.12857142857143,212.1,299.22232142857143,299.12857142857143,320.3,299.22232142857143,299.12857142857143,421,299.22232142857143,300.12857142857143,524.7,289.22232142857143,323.12857142857143,631,289.22232142857143,326.12857142857143,731.5,239.22232142857143,348.12857142857143,842,239.22232142857143,348.12857142857143,942.5,239.22232142857143,348.12857142857143,1043,239.22232142857143,348.12857142857143,1157.4,239.22232142857143,348.12857142857143,1258.5,239.22232142857143,348.12857142857143,1363,239.22232142857143,348.12857142857143,1475.7,239.22232142857143,348.12857142857143,1576,239.22232142857143,348.12857142857143,1677.6,239.22232142857143,348.12857142857143,1782.8,239.22232142857143,348.12857142857143,1892.5,239.22232142857143,348.12857142857143,1998.8,239.22232142857143,348.12857142857143,2103.2,239.22232142857143,348.12857142857143,2210.1,239.22232142857143,348.12857142857143,2310.7,239.22232142857143,348.12857142857143,2419.4,239.22232142857143,348.12857142857143,2526.2,239.22232142857143,348.12857142857143,2628.2,239.22232142857143,348.12857142857143,2732,239.22232142857143,348.12857142857143,2833.9,239.22232142857143,348.12857142857143,2940.3,239.22232142857143,348.12857142857143,3044.9,239.22232142857143,348.12857142857143,3149.3,239.22232142857143,348.12857142857143,3257.6,239.22232142857143,348.12857142857143,3359.7,239.22232142857143,348.12857142857143,3462.6,239.22232142857143,348.12857142857143,3568.4,239.22232142857143,348.12857142857143,3669.9,239.22232142857143,348.12857142857143,3775.3,239.22232142857143,348.12857142857143,3877.1,239.22232142857143,348.12857142857143,3999,239.22232142857143,348.12857142857143,4108.3,239.22232142857143,345.12857142857143,4208.9,239.22232142857143,345.12857142857143,4309.3,239.22232142857143,345.12857142857143,4411.9,239.22232142857143,345.12857142857143,4517.7,239.22232142857143,345.12857142857143,4622.8,239.22232142857143,345.12857142857143,4725.5,239.22232142857143,345.12857142857143,4825.7,239.22232142857143,345.12857142857143,4933.1]","[5866.1,5866.1,2143.2,2011.7,1711.2,""smooth"",""up"",""up"",""bad_move"",8732.9,2865.2,2301.5,5867.7,563.7,""smooth"",""up"",""up"",""bad_move"",12693.9,3960.6,1850.7,8733.4,2109.9,""oops"",""up"",""down"",""good_move"",14991.4,2296.7,1807.4,12694.8,489.2,""smooth"",""up"",""up"",""bad_move"",17938.2,2945.4,2497.6,14992.8,447.8,""smooth"",""up"",""up"",""bad_move"",20875,2934.8,2527.7,17940.2,407.1,""smooth"",""up"",""right"",""bad_move""]"
"10466","","<div style=""width:500px;"">
  <p>What determined the result of this run?</p>
  </div>","82","html-slider-response","64","1600570","0.0-7.0-1.10","14","1","2025-07-30 08:38:44","36c45c0696341be0efffe67d72a12abb","41.150.225.27","Mozilla/5.0 (Windows NT 10.0; Win64; x64) AppleWebKit/537.36 (KHTML, like Gecko) Chrome/138.0.0.0 Safari/537.36 Edg/138.0.0.0","WebKit","Edge","138.0.0.0","Windows","10.0","https://app.prolific.com/","en-US,en;q=0.9,fr;q=0.8","609fba4900794b6d944da77e","687a19d2168e237449fb8af4","6889d9d50a137dc47c009a5b","0","609fba4900794b6d944da77e","0","2025-07-30T09:05:30.258Z","","","","AttribQ","","","","","","","","","","","50","","","","","","","","","","","","","","","","","","","","","","","","","","",""
"7316","","<div style=""width:500px;"">
  <p>How much control did you have over the ball?</p>
  </div>","89","html-slider-response","65","1607891","0.0-7.0-2.10","14","1","2025-07-30 08:38:44","36c45c0696341be0efffe67d72a12abb","41.150.225.27","Mozilla/5.0 (Windows NT 10.0; Win64; x64) AppleWebKit/537.36 (KHTML, like Gecko) Chrome/138.0.0.0 Safari/537.36 Edg/138.0.0.0","WebKit","Edge","138.0.0.0","Windows","10.0","https://app.prolific.com/","en-US,en;q=0.9,fr;q=0.8","609fba4900794b6d944da77e","687a19d2168e237449fb8af4","6889d9d50a137dc47c009a5b","0","609fba4900794b6d944da77e","0","2025-07-30T09:05:37.579Z","","","","ControlQ","","","","","","","","","","","50","","","","","","","","","","","","","","","","","","","","","","","","","","",""
"4618","","<div style=""width:500px;"">
  <p>How would you describe your current emotional state?</p>
  </div>","16","html-slider-response","66","1612514","0.0-7.0-3.10","14","1","2025-07-30 08:38:44","36c45c0696341be0efffe67d72a12abb","41.150.225.27","Mozilla/5.0 (Windows NT 10.0; Win64; x64) AppleWebKit/537.36 (KHTML, like Gecko) Chrome/138.0.0.0 Safari/537.36 Edg/138.0.0.0","WebKit","Edge","138.0.0.0","Windows","10.0","https://app.prolific.com/","en-US,en;q=0.9,fr;q=0.8","609fba4900794b6d944da77e","687a19d2168e237449fb8af4","6889d9d50a137dc47c009a5b","0","609fba4900794b6d944da77e","0","2025-07-30T09:05:42.202Z","","","","StressQ","","","","","","","","","","","50","","","","","","","","","","","","","","","","","","","","","","","","","","",""
"4578","","<div style=""width:500px;"">
  <p>What best describes how you currently feel?</p>
  </div>","86","html-slider-response","67","1617097","0.0-7.0-4.10","14","1","2025-07-30 08:38:44","36c45c0696341be0efffe67d72a12abb","41.150.225.27","Mozilla/5.0 (Windows NT 10.0; Win64; x64) AppleWebKit/537.36 (KHTML, like Gecko) Chrome/138.0.0.0 Safari/537.36 Edg/138.0.0.0","WebKit","Edge","138.0.0.0","Windows","10.0","https://app.prolific.com/","en-US,en;q=0.9,fr;q=0.8","609fba4900794b6d944da77e","687a19d2168e237449fb8af4","6889d9d50a137dc47c009a5b","0","609fba4900794b6d944da77e","0","2025-07-30T09:05:46.785Z","","","","MotivationQ","","","","","","","","","","","50","","","","","","","","","","","","","","","","","","","","","","","","","","",""
"","","","","ctl-task-cpt","68","1653683","0.0-7.0-0.11","14","1","2025-07-30 08:38:44","36c45c0696341be0efffe67d72a12abb","41.150.225.27","Mozilla/5.0 (Windows NT 10.0; Win64; x64) AppleWebKit/537.36 (KHTML, like Gecko) Chrome/138.0.0.0 Safari/537.36 Edg/138.0.0.0","WebKit","Edge","138.0.0.0","Windows","10.0","https://app.prolific.com/","en-US,en;q=0.9,fr;q=0.8","609fba4900794b6d944da77e","687a19d2168e237449fb8af4","6889d9d50a137dc47c009a5b","0","609fba4900794b6d944da77e","0","2025-07-30T09:06:23.371Z","","","","","","","","","","","","","","","","win-only","3","g1:SW,g2:NE","0.7","12","0","1622462.3","1502","6511","33564.3","1","4","4","6","1","-1","-1","0","0","0","5009","3000","-2070","[""down"",""left""]","{""num_key_presses"":8,""num_perfect"":6,""num_errors"":0,""num_randdir"":2,""num_randdir_good_moves"":1,""num_whilered"":0,""num_whileblue"":0,""num_blue"":0,""num_good_moves"":1}","[295.22232142857143,296.12857142857143,0.3,295.22232142857143,296.12857142857143,107.5,295.22232142857143,296.12857142857143,209.3,295.22232142857143,296.12857142857143,309.4,295.22232142857143,296.12857142857143,416.5,295.22232142857143,313.12857142857143,528.1,295.22232142857143,349.12857142857143,638.9,278.22232142857143,401.12857142857143,743.4,274.22232142857143,408.12857142857143,845.5,273.22232142857143,409.12857142857143,949.1,272.22232142857143,409.12857142857143,1056.3,272.22232142857143,409.12857142857143,1161.8,272.22232142857143,409.12857142857143,1268.2,271.22232142857143,409.12857142857143,1373.8,271.22232142857143,409.12857142857143,1481,271.22232142857143,407.12857142857143,1584.9,270.22232142857143,402.12857142857143,1689.7,270.22232142857143,402.12857142857143,1792,270.22232142857143,402.12857142857143,1896.6,266.22232142857143,395.12857142857143,2001.7,266.22232142857143,395.12857142857143,2103.8,260.22232142857143,387.12857142857143,2206.5,259.22232142857143,383.12857142857143,2314.2,256.22232142857143,377.12857142857143,2418.5,256.22232142857143,375.12857142857143,2531.4,256.22232142857143,375.12857142857143,2637.6,256.22232142857143,375.12857142857143,2740.4,256.22232142857143,375.12857142857143,2842.8,256.22232142857143,375.12857142857143,2948.1,256.22232142857143,375.12857142857143,3050.6,256.22232142857143,368.12857142857143,3155.7,255.22232142857143,359.12857142857143,3270.5,253.22232142857143,347.12857142857143,3385.8,250.22232142857143,339.12857142857143,3485.9,250.22232142857143,339.12857142857143,3590.9,250.22232142857143,339.12857142857143,3692.1,250.22232142857143,339.12857142857143,3798.4,250.22232142857143,339.12857142857143,3900.7,250.22232142857143,339.12857142857143,4008.5,250.22232142857143,339.12857142857143,4109.9,250.22232142857143,339.12857142857143,4215.3,250.22232142857143,339.12857142857143,4321.9,250.22232142857143,339.12857142857143,4423,250.22232142857143,339.12857142857143,4523.1,250.22232142857143,339.12857142857143,4638.1,250.22232142857143,339.12857142857143,4744.6,250.22232142857143,339.12857142857143,4848.5,250.22232142857143,339.12857142857143,4951.3]","[2880.1,2880.1,1000,0,1880.1,""smooth"",""up"",""up"",""bad_move"",5511.9,2629,2177.8,2883,451.1,""smooth"",""up"",""up"",""bad_move"",8496.8,2983.4,2553.3,5513.5,430.1,""smooth"",""up"",""up"",""bad_move"",11687,3188.3,2757.9,8498.7,430.4,""smooth"",""up"",""right"",""bad_move"",14488.1,2800.5,2428.9,11687.6,371.6,""smooth"",""up"",""right"",""bad_move"",16836.7,2348.1,1982.1,14488.7,366,""smooth"",""up"",""right"",""bad_move"",20934.7,4097.6,3737.6,16837.1,360.1,""oops"",""up"",""down"",""good_move"",23959.2,3022.5,2658.9,20936.7,363.6,""oops"",""up"",""up"",""bad_move""]"
"12355","","<div style=""width:500px;"">
  <p>What determined the result of this run?</p>
  </div>","88","html-slider-response","69","1666040","0.0-7.0-1.11","14","1","2025-07-30 08:38:44","36c45c0696341be0efffe67d72a12abb","41.150.225.27","Mozilla/5.0 (Windows NT 10.0; Win64; x64) AppleWebKit/537.36 (KHTML, like Gecko) Chrome/138.0.0.0 Safari/537.36 Edg/138.0.0.0","WebKit","Edge","138.0.0.0","Windows","10.0","https://app.prolific.com/","en-US,en;q=0.9,fr;q=0.8","609fba4900794b6d944da77e","687a19d2168e237449fb8af4","6889d9d50a137dc47c009a5b","0","609fba4900794b6d944da77e","0","2025-07-30T09:06:35.729Z","","","","AttribQ","","","","","","","","","","","50","","","","","","","","","","","","","","","","","","","","","","","","","","",""
"6559","","<div style=""width:500px;"">
  <p>How much control did you have over the ball?</p>
  </div>","93","html-slider-response","70","1672605","0.0-7.0-2.11","14","1","2025-07-30 08:38:44","36c45c0696341be0efffe67d72a12abb","41.150.225.27","Mozilla/5.0 (Windows NT 10.0; Win64; x64) AppleWebKit/537.36 (KHTML, like Gecko) Chrome/138.0.0.0 Safari/537.36 Edg/138.0.0.0","WebKit","Edge","138.0.0.0","Windows","10.0","https://app.prolific.com/","en-US,en;q=0.9,fr;q=0.8","609fba4900794b6d944da77e","687a19d2168e237449fb8af4","6889d9d50a137dc47c009a5b","0","609fba4900794b6d944da77e","0","2025-07-30T09:06:42.293Z","","","","ControlQ","","","","","","","","","","","50","","","","","","","","","","","","","","","","","","","","","","","","","","",""
"9015","","<div style=""width:500px;"">
  <p>How would you describe your current emotional state?</p>
  </div>","18","html-slider-response","71","1681624","0.0-7.0-3.11","14","1","2025-07-30 08:38:44","36c45c0696341be0efffe67d72a12abb","41.150.225.27","Mozilla/5.0 (Windows NT 10.0; Win64; x64) AppleWebKit/537.36 (KHTML, like Gecko) Chrome/138.0.0.0 Safari/537.36 Edg/138.0.0.0","WebKit","Edge","138.0.0.0","Windows","10.0","https://app.prolific.com/","en-US,en;q=0.9,fr;q=0.8","609fba4900794b6d944da77e","687a19d2168e237449fb8af4","6889d9d50a137dc47c009a5b","0","609fba4900794b6d944da77e","0","2025-07-30T09:06:51.312Z","","","","StressQ","","","","","","","","","","","50","","","","","","","","","","","","","","","","","","","","","","","","","","",""
"4172","","<div style=""width:500px;"">
  <p>What best describes how you currently feel?</p>
  </div>","85","html-slider-response","72","1685803","0.0-7.0-4.11","14","1","2025-07-30 08:38:44","36c45c0696341be0efffe67d72a12abb","41.150.225.27","Mozilla/5.0 (Windows NT 10.0; Win64; x64) AppleWebKit/537.36 (KHTML, like Gecko) Chrome/138.0.0.0 Safari/537.36 Edg/138.0.0.0","WebKit","Edge","138.0.0.0","Windows","10.0","https://app.prolific.com/","en-US,en;q=0.9,fr;q=0.8","609fba4900794b6d944da77e","687a19d2168e237449fb8af4","6889d9d50a137dc47c009a5b","0","609fba4900794b6d944da77e","0","2025-07-30T09:06:55.491Z","","","","MotivationQ","","","","","","","","","","","50","","","","","","","","","","","","","","","","","","","","","","","","","","",""
"","","","","ctl-task-cpt","73","1741625","0.0-7.0-0.12","14","1","2025-07-30 08:38:44","36c45c0696341be0efffe67d72a12abb","41.150.225.27","Mozilla/5.0 (Windows NT 10.0; Win64; x64) AppleWebKit/537.36 (KHTML, like Gecko) Chrome/138.0.0.0 Safari/537.36 Edg/138.0.0.0","WebKit","Edge","138.0.0.0","Windows","10.0","https://app.prolific.com/","en-US,en;q=0.9,fr;q=0.8","609fba4900794b6d944da77e","687a19d2168e237449fb8af4","6889d9d50a137dc47c009a5b","0","609fba4900794b6d944da77e","0","2025-07-30T09:07:51.313Z","","","","","","","","","","","","","","","","win-only","3","g1:SW,g2:NE","0.8","13","0","1691168.9","1562.6","6571.2","52795.5","1","4","8","6","2","8","7","7","0","0.05303030303030303","5008.6","3000","1610","[""up"",""right""]","{""num_key_presses"":7,""num_perfect"":4,""num_errors"":1,""num_randdir"":2,""num_randdir_good_moves"":2,""num_whilered"":0,""num_whileblue"":0,""num_blue"":7,""num_good_moves"":6}","[302.22232142857143,293.12857142857143,0.4,303.22232142857143,293.12857142857143,109.2,303.22232142857143,293.12857142857143,209.7,303.22232142857143,293.12857142857143,322.6,303.22232142857143,293.12857142857143,430.2,303.22232142857143,293.12857142857143,533.1,298.22232142857143,320.12857142857143,648.7,289.22232142857143,335.12857142857143,749.3,275.22232142857143,350.12857142857143,857.1,267.22232142857143,354.12857142857143,960.5,267.22232142857143,354.12857142857143,1063.6,267.22232142857143,354.12857142857143,1168.8,267.22232142857143,354.12857142857143,1271.2,266.22232142857143,355.12857142857143,1375.9,266.22232142857143,355.12857142857143,1479.7,266.22232142857143,355.12857142857143,1591.8,266.22232142857143,355.12857142857143,1699.5,266.22232142857143,355.12857142857143,1807.1,266.22232142857143,355.12857142857143,1913.9,266.22232142857143,355.12857142857143,2015.6,266.22232142857143,355.12857142857143,2119.6,266.22232142857143,355.12857142857143,2226.8,266.22232142857143,355.12857142857143,2336,266.22232142857143,355.12857142857143,2444.8,266.22232142857143,355.12857142857143,2546.7,266.22232142857143,355.12857142857143,2658.7,266.22232142857143,355.12857142857143,2765.4,266.22232142857143,355.12857142857143,2868.7,266.22232142857143,355.12857142857143,2984.8,266.22232142857143,355.12857142857143,3093.8,266.22232142857143,355.12857142857143,3205.3,266.22232142857143,355.12857142857143,3306.2,266.22232142857143,355.12857142857143,3410.7,266.22232142857143,355.12857142857143,3522.6,266.22232142857143,355.12857142857143,3625.4,266.22232142857143,355.12857142857143,3726.3,266.22232142857143,355.12857142857143,3827.1,266.22232142857143,355.12857142857143,3927.3,266.22232142857143,355.12857142857143,4028.9,266.22232142857143,355.12857142857143,4137.8,266.22232142857143,355.12857142857143,4240.9,266.22232142857143,355.12857142857143,4343.3,266.22232142857143,355.12857142857143,4448,266.22232142857143,355.12857142857143,4557.3,266.22232142857143,355.12857142857143,4663.9,266.22232142857143,355.12857142857143,4764.9,266.22232142857143,355.12857142857143,4867.1,266.22232142857143,355.12857142857143,4972.3]","[6681.3,6681.3,3039.4,2010.3,1631.6,""oops"",""up"",""up"",""good_move"",16210.7,9528.6,2300.1,13509,401.6,""smooth"",""up"",""up"",""good_move"",20711.8,4500.7,2722.5,16211.1,1778.2,""smooth"",""up"",""up"",""good_move"",28614,7901.8,2032.9,25765.8,815.3,""oops"",""right"",""right"",""good_move"",35017.6,6403.2,2382.7,32171.3,463.7,""smooth"",""right"",""right"",""good_move"",35085.7,67.4,2220.2,35018.3,-2152.8,""error"",""-"",""-"",""no_move"",46046.5,10960.3,2369.5,43149.7,527.3,""smooth"",""right"",""right"",""good_move""]"
"14342","","<div style=""width:500px;"">
  <p>What determined the result of this run?</p>
  </div>","26","html-slider-response","74","1755970","0.0-7.0-1.12","14","1","2025-07-30 08:38:44","36c45c0696341be0efffe67d72a12abb","41.150.225.27","Mozilla/5.0 (Windows NT 10.0; Win64; x64) AppleWebKit/537.36 (KHTML, like Gecko) Chrome/138.0.0.0 Safari/537.36 Edg/138.0.0.0","WebKit","Edge","138.0.0.0","Windows","10.0","https://app.prolific.com/","en-US,en;q=0.9,fr;q=0.8","609fba4900794b6d944da77e","687a19d2168e237449fb8af4","6889d9d50a137dc47c009a5b","0","609fba4900794b6d944da77e","0","2025-07-30T09:08:05.658Z","","","","AttribQ","","","","","","","","","","","50","","","","","","","","","","","","","","","","","","","","","","","","","","",""
"7850","","<div style=""width:500px;"">
  <p>How much control did you have over the ball?</p>
  </div>","70","html-slider-response","75","1763825","0.0-7.0-2.12","14","1","2025-07-30 08:38:44","36c45c0696341be0efffe67d72a12abb","41.150.225.27","Mozilla/5.0 (Windows NT 10.0; Win64; x64) AppleWebKit/537.36 (KHTML, like Gecko) Chrome/138.0.0.0 Safari/537.36 Edg/138.0.0.0","WebKit","Edge","138.0.0.0","Windows","10.0","https://app.prolific.com/","en-US,en;q=0.9,fr;q=0.8","609fba4900794b6d944da77e","687a19d2168e237449fb8af4","6889d9d50a137dc47c009a5b","0","609fba4900794b6d944da77e","0","2025-07-30T09:08:13.513Z","","","","ControlQ","","","","","","","","","","","50","","","","","","","","","","","","","","","","","","","","","","","","","","",""
"4974","","<div style=""width:500px;"">
  <p>How would you describe your current emotional state?</p>
  </div>","37","html-slider-response","76","1768804","0.0-7.0-3.12","14","1","2025-07-30 08:38:44","36c45c0696341be0efffe67d72a12abb","41.150.225.27","Mozilla/5.0 (Windows NT 10.0; Win64; x64) AppleWebKit/537.36 (KHTML, like Gecko) Chrome/138.0.0.0 Safari/537.36 Edg/138.0.0.0","WebKit","Edge","138.0.0.0","Windows","10.0","https://app.prolific.com/","en-US,en;q=0.9,fr;q=0.8","609fba4900794b6d944da77e","687a19d2168e237449fb8af4","6889d9d50a137dc47c009a5b","0","609fba4900794b6d944da77e","0","2025-07-30T09:08:18.492Z","","","","StressQ","","","","","","","","","","","50","","","","","","","","","","","","","","","","","","","","","","","","","","",""
"3671","","<div style=""width:500px;"">
  <p>What best describes how you currently feel?</p>
  </div>","73","html-slider-response","77","1772480","0.0-7.0-4.12","14","1","2025-07-30 08:38:44","36c45c0696341be0efffe67d72a12abb","41.150.225.27","Mozilla/5.0 (Windows NT 10.0; Win64; x64) AppleWebKit/537.36 (KHTML, like Gecko) Chrome/138.0.0.0 Safari/537.36 Edg/138.0.0.0","WebKit","Edge","138.0.0.0","Windows","10.0","https://app.prolific.com/","en-US,en;q=0.9,fr;q=0.8","609fba4900794b6d944da77e","687a19d2168e237449fb8af4","6889d9d50a137dc47c009a5b","0","609fba4900794b6d944da77e","0","2025-07-30T09:08:22.168Z","","","","MotivationQ","","","","","","","","","","","50","","","","","","","","","","","","","","","","","","","","","","","","","","",""
"","","","","ctl-task-cpt","78","1808405","0.0-7.0-0.13","14","1","2025-07-30 08:38:44","36c45c0696341be0efffe67d72a12abb","41.150.225.27","Mozilla/5.0 (Windows NT 10.0; Win64; x64) AppleWebKit/537.36 (KHTML, like Gecko) Chrome/138.0.0.0 Safari/537.36 Edg/138.0.0.0","WebKit","Edge","138.0.0.0","Windows","10.0","https://app.prolific.com/","en-US,en;q=0.9,fr;q=0.8","609fba4900794b6d944da77e","687a19d2168e237449fb8af4","6889d9d50a137dc47c009a5b","0","609fba4900794b6d944da77e","0","2025-07-30T09:08:58.093Z","","","","","","","","","","","","","","","","win-only","1","g1:NE,g2:SW","0.9","14","0","1777846.8","2885.2","7892.5","32902.1","1","4","4","6","1","-1","-1","6","7","0.045454545454545456","5007.3","3000","-1715","[""up"",""right""]","{""num_key_presses"":6,""num_perfect"":5,""num_errors"":0,""num_randdir"":1,""num_randdir_good_moves"":0,""num_whilered"":0,""num_whileblue"":0,""num_blue"":1,""num_good_moves"":4}","[290.22232142857143,297.12857142857143,0.9,290.22232142857143,297.12857142857143,105.2,290.22232142857143,297.12857142857143,213.5,292.22232142857143,297.12857142857143,316.2,308.22232142857143,296.12857142857143,417.1,313.22232142857143,286.12857142857143,523.7,313.22232142857143,286.12857142857143,629,313.22232142857143,284.12857142857143,733.7,321.22232142857143,273.12857142857143,833.9,329.22232142857143,269.12857142857143,941.8,344.22232142857143,255.12857142857143,1049.1,347.22232142857143,250.12857142857143,1155.7,347.22232142857143,250.12857142857143,1257.4,347.22232142857143,250.12857142857143,1365.1,347.22232142857143,250.12857142857143,1466.9,347.22232142857143,250.12857142857143,1567.9,347.22232142857143,250.12857142857143,1678.1,347.22232142857143,250.12857142857143,1779.4,347.22232142857143,250.12857142857143,1881.7,347.22232142857143,250.12857142857143,1984.2,347.22232142857143,250.12857142857143,2090.9,347.22232142857143,250.12857142857143,2200,347.22232142857143,250.12857142857143,2304.5,347.22232142857143,250.12857142857143,2407.4,347.22232142857143,250.12857142857143,2517.5,347.22232142857143,250.12857142857143,2628.9,347.22232142857143,250.12857142857143,2733.2,347.22232142857143,250.12857142857143,2835.6,347.22232142857143,250.12857142857143,2936.7,347.22232142857143,250.12857142857143,3041.7,347.22232142857143,250.12857142857143,3150.5,347.22232142857143,250.12857142857143,3251,347.22232142857143,250.12857142857143,3353.6,347.22232142857143,250.12857142857143,3456,347.22232142857143,250.12857142857143,3564.1,347.22232142857143,250.12857142857143,3664.7,347.22232142857143,250.12857142857143,3768.7,347.22232142857143,250.12857142857143,3869.7,347.22232142857143,250.12857142857143,3981.1,347.22232142857143,250.12857142857143,4081.3,347.22232142857143,250.12857142857143,4182.4,347.22232142857143,250.12857142857143,4282.4,347.22232142857143,250.12857142857143,4387.3,347.22232142857143,250.12857142857143,4491.2,347.22232142857143,250.12857142857143,4605.5,347.22232142857143,250.12857142857143,4706.1,347.22232142857143,250.12857142857143,4817.4,347.22232142857143,250.12857142857143,4920]","[6258,6258,2191.3,2013.4,2053.3,""smooth"",""up"",""up"",""good_move"",9081.3,2820.3,2153.3,6261,667,""smooth"",""up"",""up"",""good_move"",11717.2,2634.2,2035,9083,599.2,""smooth"",""up"",""right"",""good_move"",15602.1,3882.7,3464,11719.4,418.7,""smooth"",""down"",""down"",""bad_move"",18660.1,3055.1,2622.3,15605,432.8,""oops"",""left"",""left"",""bad_move"",22006.1,3345.2,2834.5,18660.9,510.7,""smooth"",""up"",""up"",""good_move""]"
"7580","","<div style=""width:500px;"">
  <p>What determined the result of this run?</p>
