"rt","response_timestamp","stimulus","response","trial_type","trial_index","time_elapsed","internal_node_id","run_id","condition","recorded_at","source_code_version","ip","user_agent","device","browser","browser_version","platform","platform_version","referer","accept_language","PROLIFIC_PID","STUDY_ID","SESSION_ID","BATCH","prolific_id","batch","realtime","success","question_order","question_id","eventType","responses","item_order","radio_event_ids","radio_event_times","key_event_times","mouse_event_times","straightlining","zigzagging","honeypot","view_history","slider_start","which_type","canvas_config","goals_layout","control_level","trial_number","tutorial_trial_number","trial_start_time","phase1_start_time","phase2_start_time","phase3_start_time","goal_1_value","goal_1_distance","goal_2_value","goal_2_distance","goal_selected","outcome","outcome_total","participant_final_score","participant_initial_score","participant_final_score_prop","goal_choice_rt","allocated_time","allocated_time_remaining","goal_direction","counts","mouse_movements","key_presses"
"2347","1753865882231","<p style='font-size:40px;line-height:1.25'><strong>Welcome to the experiment!</strong></p><p style='font-size:1.1em;line-height:1.25'>Thank you for participanting in our experiment again! You will be asked to play the Dysfunctional Ball Game again. We will briefly recap the rules before we start.</p><p style='font-size:1.1em;line-height:1.25'>Press <strong>Next</strong> to continue.</p>","0","custom-html-button-response","0","2350","0.0-0.0","68","1","2025-07-30 08:57:55","36c45c0696341be0efffe67d72a12abb","79.166.198.129","Mozilla/5.0 (Windows NT 10.0; Win64; x64) AppleWebKit/537.36 (KHTML, like Gecko) Chrome/138.0.0.0 Safari/537.36","WebKit","Chrome","138.0.0.0","Windows","10.0","https://app.prolific.com/","el-GR,el;q=0.9,en;q=0.8","60a0dfc6f9936b0d30dfea15","687a19d2168e237449fb8af4","6889de1b0290f924a198707d","0","60a0dfc6f9936b0d30dfea15","0","2025-07-30T08:58:02.232Z","","","","","","","","","","","","","","","","","","","","","","","","","","","","","","","","","","","","","","","","","",""
"492216","","","","fullscreen","1","495582","0.0-1.0","68","1","2025-07-30 08:57:55","36c45c0696341be0efffe67d72a12abb","79.166.198.129","Mozilla/5.0 (Windows NT 10.0; Win64; x64) AppleWebKit/537.36 (KHTML, like Gecko) Chrome/138.0.0.0 Safari/537.36","WebKit","Chrome","138.0.0.0","Windows","10.0","https://app.prolific.com/","el-GR,el;q=0.9,en;q=0.8","60a0dfc6f9936b0d30dfea15","687a19d2168e237449fb8af4","6889de1b0290f924a198707d","0","60a0dfc6f9936b0d30dfea15","0","","true","","","","","","","","","","","","","","","","","","","","","","","","","","","","","","","","","","","","","","","","",""
"2737","1753866378203"," <p style='font-size:1.1em;line-height:1.25'>Thank you for closing all other tabs.</p><p style='font-size:1.1em;line-height:1.25'>We will now invite you to fill in some questionnaires, before starting the game.<br>This will take about 5 minutes.<br></p><p style='font-size:1.1em;line-height:1.25'>Press the <strong>Next</strong> button to continue.</p>","0","custom-html-button-response","2","498321","0.0-2.0","68","1","2025-07-30 08:57:55","36c45c0696341be0efffe67d72a12abb","79.166.198.129","Mozilla/5.0 (Windows NT 10.0; Win64; x64) AppleWebKit/537.36 (KHTML, like Gecko) Chrome/138.0.0.0 Safari/537.36","WebKit","Chrome","138.0.0.0","Windows","10.0","https://app.prolific.com/","el-GR,el;q=0.9,en;q=0.8","60a0dfc6f9936b0d30dfea15","687a19d2168e237449fb8af4","6889de1b0290f924a198707d","0","60a0dfc6f9936b0d30dfea15","0","2025-07-30T09:06:18.204Z","","","","","","","","","","","","","","","","","","","","","","","","","","","","","","","","","","","","","","","","","",""
"3232","","","{""assigned_sex"":""male""}","survey-multi-choice","3","501555","0.0-3.0-0.0","68","1","2025-07-30 08:57:55","36c45c0696341be0efffe67d72a12abb","79.166.198.129","Mozilla/5.0 (Windows NT 10.0; Win64; x64) AppleWebKit/537.36 (KHTML, like Gecko) Chrome/138.0.0.0 Safari/537.36","WebKit","Chrome","138.0.0.0","Windows","10.0","https://app.prolific.com/","el-GR,el;q=0.9,en;q=0.8","60a0dfc6f9936b0d30dfea15","687a19d2168e237449fb8af4","6889de1b0290f924a198707d","0","60a0dfc6f9936b0d30dfea15","0","","","[0]","0","demographics","","","","","","","","","","","","","","","","","","","","","","","","","","","","","","","","","","","","","",""
"3598","1753866385036","<p style='font-size:1.1em;line-height:1.25'>In the following, we will perform a baseline assessment. This means that we will ask you a few questions relating to your experiences over the past month.<br></p><p style='font-size:1.1em;line-height:1.25'>Press the <strong>Next</strong> button to continue.</p>","0","custom-html-button-response","4","505154","0.0-4.0-0.0","68","1","2025-07-30 08:57:55","36c45c0696341be0efffe67d72a12abb","79.166.198.129","Mozilla/5.0 (Windows NT 10.0; Win64; x64) AppleWebKit/537.36 (KHTML, like Gecko) Chrome/138.0.0.0 Safari/537.36","WebKit","Chrome","138.0.0.0","Windows","10.0","https://app.prolific.com/","el-GR,el;q=0.9,en;q=0.8","60a0dfc6f9936b0d30dfea15","687a19d2168e237449fb8af4","6889de1b0290f924a198707d","0","60a0dfc6f9936b0d30dfea15","0","2025-07-30T09:06:25.036Z","","","","","","","","","","","","","","","","","","","","","","","","","","","","","","","","","","","","","","","","","",""
"39806.300000000745","","","","survey-template","5","544964","0.0-4.0-1.0","68","1","2025-07-30 08:57:55","36c45c0696341be0efffe67d72a12abb","79.166.198.129","Mozilla/5.0 (Windows NT 10.0; Win64; x64) AppleWebKit/537.36 (KHTML, like Gecko) Chrome/138.0.0.0 Safari/537.36","WebKit","Chrome","138.0.0.0","Windows","10.0","https://app.prolific.com/","el-GR,el;q=0.9,en;q=0.8","60a0dfc6f9936b0d30dfea15","687a19d2168e237449fb8af4","6889de1b0290f924a198707d","0","60a0dfc6f9936b0d30dfea15","0","2025-07-30T09:07:04.846Z","","","","pss","{""Q01"":""2"",""Q02"":""2"",""Q03"":""3"",""Q04"":""1"",""Q05"":""1"",""Q06"":""2"",""Q07"":""2"",""Q08"":""1"",""Q09"":""3"",""Q10"":""2""}","[0,1,2,3,4,5,6,7,8,9]","[""Q01"",""Q02"",""Q03"",""Q04"",""Q05"",""Q06"",""Q07"",""Q08"",""Q08"",""Q09"",""Q09"",""Q10""]","[5229.699999999255,6405.5999999996275,13831.599999999627,15119.699999999255,21048.5,22272.5,25113.5,25945.5,28465.400000000373,32138.5,38028.5,38939.300000000745]","[]","[0.30000000074505806,5229.699999999255,5887.4000000003725,6405.5999999996275,8991.599999999627,9494.5,9959.400000000373,12367.599999999627,13223.5,13831.599999999627,15119.699999999255,15712.599999999627,18647.400000000373,19329.699999999255,19751.699999999255,20016.5,21048.5,22272.5,22905.400000000373,25113.5,25945.5,28465.400000000373,29730.5,31122.300000000745,32138.5,32995.199999999255,34426.300000000745,35002.40000000037,36907.300000000745,38028.5,38939.300000000745,39803.5]","0.5","0.4444444444444444","0","","","","","","","","","","","","","","","","","","","","","","","","","","","","",""
"3715","1753866428561","<p style='font-size:1.1em;line-height:1.25'>Thank you for your answers! Now we will ask you a few more questions relating to your feelings in the last 24 hours.<br></p><p style='font-size:1.1em;line-height:1.25'>Press the <strong>Next</strong> button to continue.</p>","0","custom-html-button-response","6","548680","0.0-4.0-2.0","68","1","2025-07-30 08:57:55","36c45c0696341be0efffe67d72a12abb","79.166.198.129","Mozilla/5.0 (Windows NT 10.0; Win64; x64) AppleWebKit/537.36 (KHTML, like Gecko) Chrome/138.0.0.0 Safari/537.36","WebKit","Chrome","138.0.0.0","Windows","10.0","https://app.prolific.com/","el-GR,el;q=0.9,en;q=0.8","60a0dfc6f9936b0d30dfea15","687a19d2168e237449fb8af4","6889de1b0290f924a198707d","0","60a0dfc6f9936b0d30dfea15","0","2025-07-30T09:07:08.562Z","","","","","","","","","","","","","","","","","","","","","","","","","","","","","","","","","","","","","","","","","",""
"59796.699999999255","","","","survey-template","7","608480","0.0-4.0-3.0","68","1","2025-07-30 08:57:55","36c45c0696341be0efffe67d72a12abb","79.166.198.129","Mozilla/5.0 (Windows NT 10.0; Win64; x64) AppleWebKit/537.36 (KHTML, like Gecko) Chrome/138.0.0.0 Safari/537.36","WebKit","Chrome","138.0.0.0","Windows","10.0","https://app.prolific.com/","el-GR,el;q=0.9,en;q=0.8","60a0dfc6f9936b0d30dfea15","687a19d2168e237449fb8af4","6889de1b0290f924a198707d","0","60a0dfc6f9936b0d30dfea15","0","2025-07-30T09:08:08.362Z","","","","drsp","{""Q01"":""2"",""Q02"":""1"",""Q03"":""0"",""Q04"":""2"",""Q05"":""1"",""Q06"":""1"",""Q07"":""0"",""Q08"":""1"",""Q09"":""2"",""Q10"":""2"",""Q11"":""2"",""Q12"":""0"",""Q13"":""5"",""Q14"":""1"",""Q15"":""2"",""Q16"":""2"",""Q17"":""2"",""Q18"":""0"",""Q19"":""0"",""Q20"":""2"",""Q21"":""2"",""Q22"":""2""}","[0,1,2,3,4,5,6,7,8,9,10,11,12,13,14,15,16,17,18,19,20,21]","[""Q01"",""Q02"",""Q03"",""Q04"",""Q05"",""Q07"",""Q08"",""Q07"",""Q09"",""Q10"",""Q11"",""Q12"",""Q13"",""Q14"",""Q14"",""Q15"",""Q16"",""Q17"",""Q18"",""Q18"",""Q19"",""Q20"",""Q21"",""Q22"",""Q06""]","[6425.5,7296.4000000003725,8248.599999999627,9915.400000000373,11988.300000000745,14468.300000000745,16852.199999999255,18508.199999999255,22449.400000000373,24257.199999999255,25734.300000000745,28118.199999999255,29814,33195.09999999963,34714.800000000745,35387.09999999963,36059.90000000037,38723,39260,42301.90000000037,42837.90000000037,48309.59999999963,50860.90000000037,52881.90000000037,56775.90000000037]","[]","[0.09999999962747097,5134.199999999255,6425.5,7296.4000000003725,8248.599999999627,8826,9915.400000000373,11988.300000000745,12764.300000000745,13971.900000000373,14468.300000000745,15540.300000000745,16852.199999999255,18508.199999999255,19525.300000000745,22449.400000000373,23001.199999999255,24257.199999999255,24894.400000000373,25734.300000000745,26246.300000000745,28118.199999999255,29814,33195.09999999963,34714.800000000745,35387.09999999963,36059.90000000037,37052.199999999255,38723,39260,40363.09999999963,41477.699999999255,42301.90000000037,42837.90000000037,44831.09999999963,45518.699999999255,46318.800000000745,47108.699999999255,48309.59999999963,48925.300000000745,50860.90000000037,51642,52881.90000000037,53698,56775.90000000037,59790.800000000745]","0.5","0.38095238095238093","0","","","","","","","","","","","","","","","","","","","","","","","","","","","","",""
"11049.400000000373","","","","survey-template","8","619531","0.0-4.0-4.0","68","1","2025-07-30 08:57:55","36c45c0696341be0efffe67d72a12abb","79.166.198.129","Mozilla/5.0 (Windows NT 10.0; Win64; x64) AppleWebKit/537.36 (KHTML, like Gecko) Chrome/138.0.0.0 Safari/537.36","WebKit","Chrome","138.0.0.0","Windows","10.0","https://app.prolific.com/","el-GR,el;q=0.9,en;q=0.8","60a0dfc6f9936b0d30dfea15","687a19d2168e237449fb8af4","6889de1b0290f924a198707d","0","60a0dfc6f9936b0d30dfea15","0","2025-07-30T09:08:19.413Z","","","","stress","{""Q01"":""1"",""Q02"":""2"",""Q03"":""2""}","[0,1,2]","[""Q01"",""Q02"",""Q02"",""Q03""]","[1449.5,3281.60000000149,4681.60000000149,8977.400000000373]","[]","[1449.5,2697.4000000003725,3281.60000000149,4681.60000000149,5928.4000000003725,6464.5,7816.60000000149,8977.400000000373,11048.400000000373]","0.3333333333333333","0.5","0","","","","","","","","","","","","","","","","","","","","","","","","","","","","",""
"39167","","","","instructions","9","658700","0.0-5.0-0.0","68","1","2025-07-30 08:57:55","36c45c0696341be0efffe67d72a12abb","79.166.198.129","Mozilla/5.0 (Windows NT 10.0; Win64; x64) AppleWebKit/537.36 (KHTML, like Gecko) Chrome/138.0.0.0 Safari/537.36","WebKit","Chrome","138.0.0.0","Windows","10.0","https://app.prolific.com/","el-GR,el;q=0.9,en;q=0.8","60a0dfc6f9936b0d30dfea15","687a19d2168e237449fb8af4","6889de1b0290f924a198707d","0","60a0dfc6f9936b0d30dfea15","0","","","","","","","","","","","","","","","[{""page_index"":0,""viewing_time"":39167}]","","","","","","","","","","","","","","","","","","","","","","","","","","","",""
"10937","","<p>Before you start with this game please answer the following three questions yourself. </p>
  <p>Through this game, we measure several aspects of your cognitive performance, such as reaction times, multi-tasking capabilities </p>
  <p>and the ability to assess the situation you are in.</p>
  <p></p>
  <p><b>How good do you usually are in such tasks?</b></p>","64","html-slider-response","10","669640","0.0-6.0-0.0","68","1","2025-07-30 08:57:55","36c45c0696341be0efffe67d72a12abb","79.166.198.129","Mozilla/5.0 (Windows NT 10.0; Win64; x64) AppleWebKit/537.36 (KHTML, like Gecko) Chrome/138.0.0.0 Safari/537.36","WebKit","Chrome","138.0.0.0","Windows","10.0","https://app.prolific.com/","el-GR,el;q=0.9,en;q=0.8","60a0dfc6f9936b0d30dfea15","687a19d2168e237449fb8af4","6889de1b0290f924a198707d","0","60a0dfc6f9936b0d30dfea15","0","2025-07-30T09:09:09.522Z","","","","PreSkillQ","","","","","","","","","","","50","","","","","","","","","","","","","","","","","","","","","","","","","","",""
"8024","","<div style=""width:500px;"">
  <p>How well do you think you will perform in this task compared to other participants?</p>
  </div>","57","html-slider-response","11","677666","0.0-6.0-1.0","68","1","2025-07-30 08:57:55","36c45c0696341be0efffe67d72a12abb","79.166.198.129","Mozilla/5.0 (Windows NT 10.0; Win64; x64) AppleWebKit/537.36 (KHTML, like Gecko) Chrome/138.0.0.0 Safari/537.36","WebKit","Chrome","138.0.0.0","Windows","10.0","https://app.prolific.com/","el-GR,el;q=0.9,en;q=0.8","60a0dfc6f9936b0d30dfea15","687a19d2168e237449fb8af4","6889de1b0290f924a198707d","0","60a0dfc6f9936b0d30dfea15","0","2025-07-30T09:09:17.548Z","","","","PrePerfQ","","","","","","","","","","","50","","","","","","","","","","","","","","","","","","","","","","","","","","",""
"4671","","<div style=""width:500px;"">
  <p>What best describes how you currently feel?</p>
  </div>","66","html-slider-response","12","682338","0.0-6.0-2.0","68","1","2025-07-30 08:57:55","36c45c0696341be0efffe67d72a12abb","79.166.198.129","Mozilla/5.0 (Windows NT 10.0; Win64; x64) AppleWebKit/537.36 (KHTML, like Gecko) Chrome/138.0.0.0 Safari/537.36","WebKit","Chrome","138.0.0.0","Windows","10.0","https://app.prolific.com/","el-GR,el;q=0.9,en;q=0.8","60a0dfc6f9936b0d30dfea15","687a19d2168e237449fb8af4","6889de1b0290f924a198707d","0","60a0dfc6f9936b0d30dfea15","0","2025-07-30T09:09:22.220Z","","","","PreMotivationQ","","","","","","","","","","","50","","","","","","","","","","","","","","","","","","","","","","","","","","",""
"","","","","ctl-task-cpt","13","708410","0.0-7.0-0.0","68","1","2025-07-30 08:57:55","36c45c0696341be0efffe67d72a12abb","79.166.198.129","Mozilla/5.0 (Windows NT 10.0; Win64; x64) AppleWebKit/537.36 (KHTML, like Gecko) Chrome/138.0.0.0 Safari/537.36","WebKit","Chrome","138.0.0.0","Windows","10.0","https://app.prolific.com/","el-GR,el;q=0.9,en;q=0.8","60a0dfc6f9936b0d30dfea15","687a19d2168e237449fb8af4","6889de1b0290f924a198707d","0","60a0dfc6f9936b0d30dfea15","0","2025-07-30T09:09:48.292Z","","","","","","","","","","","","","","","","win-only","1","g1:NE,g2:SW","1","1","0","688578.9","2343.2","7347.2","23061","1","4","4","6","2","4","4","4","0","0.030303030303030304","5004","3000","265","[""down"",""left""]","{""num_key_presses"":6,""num_perfect"":6,""num_errors"":0,""num_randdir"":0,""num_randdir_good_moves"":0,""num_whilered"":0,""num_whileblue"":0,""num_blue"":0,""num_good_moves"":6}","[416.5714133126395,421.57142761775424,0.7,416.5714133126395,421.57142761775424,102.8,416.5714133126395,421.57142761775424,207.3,416.5714133126395,421.57142761775424,307.8,416.5714133126395,421.57142761775424,408.5,416.5714133126395,421.57142761775424,513.2,416.5714133126395,421.57142761775424,617.1,416.5714133126395,421.57142761775424,717.2,420.3214133126395,430.32142761775424,817.7,420.3214133126395,432.82142761775424,922.6,420.3214133126395,432.82142761775424,1022.9,420.3214133126395,432.82142761775424,1127.1,420.3214133126395,432.82142761775424,1228.5,420.3214133126395,432.82142761775424,1333.3,420.3214133126395,432.82142761775424,1437.1,420.3214133126395,432.82142761775424,1538.7,420.3214133126395,432.82142761775424,1642.1,420.3214133126395,432.82142761775424,1742.1,420.3214133126395,432.82142761775424,1842.1,420.3214133126395,432.82142761775424,1942.1,420.3214133126395,432.82142761775424,2042.1,420.3214133126395,432.82142761775424,2142.2,420.3214133126395,432.82142761775424,2242.1,420.3214133126395,432.82142761775424,2342.2,420.3214133126395,432.82142761775424,2448.4,420.3214133126395,432.82142761775424,2552.4,420.3214133126395,432.82142761775424,2653.2,420.3214133126395,432.82142761775424,2753.4,420.3214133126395,432.82142761775424,2853.4,420.3214133126395,432.82142761775424,2958.8,420.3214133126395,432.82142761775424,3062.5,420.3214133126395,432.82142761775424,3162.8,420.3214133126395,432.82142761775424,3267.4,420.3214133126395,432.82142761775424,3367.5,420.3214133126395,432.82142761775424,3467.8,420.3214133126395,432.82142761775424,3568.5,420.3214133126395,432.82142761775424,3672.6,420.3214133126395,432.82142761775424,3779.1,420.3214133126395,432.82142761775424,3882.8,420.3214133126395,432.82142761775424,3988.4,420.3214133126395,432.82142761775424,4092.5,420.3214133126395,432.82142761775424,4197.3,420.3214133126395,432.82142761775424,4298,420.3214133126395,432.82142761775424,4402.5,420.3214133126395,432.82142761775424,4503.5,420.3214133126395,432.82142761775424,4603.5,420.3214133126395,432.82142761775424,4708.5,420.3214133126395,432.82142761775424,4808.5,420.3214133126395,432.82142761775424,4908.9]","[1476.3,1476.3,1000,0,476.3,""smooth"",""left"",""left"",""good_move"",4178.4,2701.4,2181.9,1477.1,519.4,""smooth"",""down"",""down"",""good_move"",7466.4,3287.7,2725.6,4178.7,562.2,""smooth"",""left"",""left"",""good_move"",10866.5,3399.8,3009.2,7466.7,390.6,""smooth"",""down"",""down"",""good_move"",13123.2,2256.6,1801.4,10866.6,455.2,""smooth"",""left"",""left"",""good_move"",15610.7,2487.1,2114.8,13123.6,372.3,""smooth"",""down"",""down"",""good_move""]"
"3315","","<div style=""width:500px;"">
  <p>What determined the result of this run?</p>
  </div>","99","html-slider-response","14","711726","0.0-7.0-1.0","68","1","2025-07-30 08:57:55","36c45c0696341be0efffe67d72a12abb","79.166.198.129","Mozilla/5.0 (Windows NT 10.0; Win64; x64) AppleWebKit/537.36 (KHTML, like Gecko) Chrome/138.0.0.0 Safari/537.36","WebKit","Chrome","138.0.0.0","Windows","10.0","https://app.prolific.com/","el-GR,el;q=0.9,en;q=0.8","60a0dfc6f9936b0d30dfea15","687a19d2168e237449fb8af4","6889de1b0290f924a198707d","0","60a0dfc6f9936b0d30dfea15","0","2025-07-30T09:09:51.608Z","","","","AttribQ","","","","","","","","","","","50","","","","","","","","","","","","","","","","","","","","","","","","","","",""
"2535","","<div style=""width:500px;"">
  <p>How much control did you have over the ball?</p>
  </div>","95","html-slider-response","15","714262","0.0-7.0-2.0","68","1","2025-07-30 08:57:55","36c45c0696341be0efffe67d72a12abb","79.166.198.129","Mozilla/5.0 (Windows NT 10.0; Win64; x64) AppleWebKit/537.36 (KHTML, like Gecko) Chrome/138.0.0.0 Safari/537.36","WebKit","Chrome","138.0.0.0","Windows","10.0","https://app.prolific.com/","el-GR,el;q=0.9,en;q=0.8","60a0dfc6f9936b0d30dfea15","687a19d2168e237449fb8af4","6889de1b0290f924a198707d","0","60a0dfc6f9936b0d30dfea15","0","2025-07-30T09:09:54.144Z","","","","ControlQ","","","","","","","","","","","50","","","","","","","","","","","","","","","","","","","","","","","","","","",""
"5072","","<div style=""width:500px;"">
  <p>How would you describe your current emotional state?</p>
  </div>","28","html-slider-response","16","719335","0.0-7.0-3.0","68","1","2025-07-30 08:57:55","36c45c0696341be0efffe67d72a12abb","79.166.198.129","Mozilla/5.0 (Windows NT 10.0; Win64; x64) AppleWebKit/537.36 (KHTML, like Gecko) Chrome/138.0.0.0 Safari/537.36","WebKit","Chrome","138.0.0.0","Windows","10.0","https://app.prolific.com/","el-GR,el;q=0.9,en;q=0.8","60a0dfc6f9936b0d30dfea15","687a19d2168e237449fb8af4","6889de1b0290f924a198707d","0","60a0dfc6f9936b0d30dfea15","0","2025-07-30T09:09:59.217Z","","","","StressQ","","","","","","","","","","","50","","","","","","","","","","","","","","","","","","","","","","","","","","",""
"3794","","<div style=""width:500px;"">
  <p>What best describes how you currently feel?</p>
  </div>","89","html-slider-response","17","723130","0.0-7.0-4.0","68","1","2025-07-30 08:57:55","36c45c0696341be0efffe67d72a12abb","79.166.198.129","Mozilla/5.0 (Windows NT 10.0; Win64; x64) AppleWebKit/537.36 (KHTML, like Gecko) Chrome/138.0.0.0 Safari/537.36","WebKit","Chrome","138.0.0.0","Windows","10.0","https://app.prolific.com/","el-GR,el;q=0.9,en;q=0.8","60a0dfc6f9936b0d30dfea15","687a19d2168e237449fb8af4","6889de1b0290f924a198707d","0","60a0dfc6f9936b0d30dfea15","0","2025-07-30T09:10:03.012Z","","","","MotivationQ","","","","","","","","","","","50","","","","","","","","","","","","","","","","","","","","","","","","","","",""
"","","","","ctl-task-cpt","18","752513","0.0-7.0-0.1","68","1","2025-07-30 08:57:55","36c45c0696341be0efffe67d72a12abb","79.166.198.129","Mozilla/5.0 (Windows NT 10.0; Win64; x64) AppleWebKit/537.36 (KHTML, like Gecko) Chrome/138.0.0.0 Safari/537.36","WebKit","Chrome","138.0.0.0","Windows","10.0","https://app.prolific.com/","el-GR,el;q=0.9,en;q=0.8","60a0dfc6f9936b0d30dfea15","687a19d2168e237449fb8af4","6889de1b0290f924a198707d","0","60a0dfc6f9936b0d30dfea15","0","2025-07-30T09:10:32.395Z","","","","","","","","","","","","","","","","win-only","3","g1:SW,g2:NE","0.9","2","0","729368.8","2365.8","7372","26375.7","1","4","8","6","2","8","8","12","4","0.09090909090909091","5006.2","3000","660","[""up"",""right""]","{""num_key_presses"":6,""num_perfect"":6,""num_errors"":0,""num_randdir"":0,""num_randdir_good_moves"":0,""num_whilered"":0,""num_whileblue"":0,""num_blue"":1,""num_good_moves"":6}","[416.5714133126395,405.32142761775424,0.2,416.5714133126395,405.32142761775424,101.1,416.5714133126395,405.32142761775424,205,416.5714133126395,405.32142761775424,309.8,435.3214133126395,421.57142761775424,409.8,435.3214133126395,421.57142761775424,510,439.0714133126395,426.57142761775424,610.1,442.8214133126395,426.57142761775424,710.4,445.3214133126395,426.57142761775424,814.4,449.0714133126395,426.57142761775424,914.4,449.0714133126395,426.57142761775424,1014.8,449.0714133126395,426.57142761775424,1119.5,449.0714133126395,426.57142761775424,1219.6,451.5714133126395,426.57142761775424,1321.4,451.5714133126395,426.57142761775424,1424.8,451.5714133126395,426.57142761775424,1524.9,451.5714133126395,426.57142761775424,1625.3,451.5714133126395,426.57142761775424,1725.4,451.5714133126395,426.57142761775424,1830.1,459.0714133126395,461.57142761775424,1930.2,460.3214133126395,491.57142761775424,2030.2,462.8214133126395,545.3214276177542,2130.5,465.3214133126395,566.5714276177542,2234.6,465.3214133126395,575.3214276177542,2335.3,465.3214133126395,584.0714276177542,2435.4,465.3214133126395,584.0714276177542,2539.7,465.3214133126395,584.0714276177542,2640.4,465.3214133126395,584.0714276177542,2745.2,465.3214133126395,584.0714276177542,2846.4,465.3214133126395,585.3214276177542,2950.2,465.3214133126395,585.3214276177542,3050.5,465.3214133126395,585.3214276177542,3155.2,465.3214133126395,585.3214276177542,3259.9,465.3214133126395,585.3214276177542,3364.6,465.3214133126395,585.3214276177542,3464.7,465.3214133126395,585.3214276177542,3570.5,465.3214133126395,585.3214276177542,3670.5,465.3214133126395,585.3214276177542,3775.3,465.3214133126395,585.3214276177542,3875.9,465.3214133126395,585.3214276177542,3980.3,465.3214133126395,585.3214276177542,4085.3,465.3214133126395,585.3214276177542,4185.4,465.3214133126395,585.3214276177542,4290.3,465.3214133126395,585.3214276177542,4395.2,465.3214133126395,585.3214276177542,4495.4,465.3214133126395,585.3214276177542,4600.1,465.3214133126395,585.3214276177542,4704.9,465.3214133126395,585.3214276177542,4805,465.3214133126395,585.3214276177542,4905.9]","[1436.9,1436.9,1000,0,436.9,""smooth"",""right"",""right"",""good_move"",4221,2783.7,2368.4,1437.3,415.3,""smooth"",""right"",""right"",""good_move"",10587.4,6366.2,2756.2,7454.3,376.9,""smooth"",""up"",""up"",""good_move"",13619.2,3031.4,2660.2,10587.8,371.2,""smooth"",""up"",""up"",""good_move"",16076.5,2457,2082.6,13619.5,374.4,""smooth"",""up"",""up"",""good_move"",18899.3,2822.7,2419.2,16076.7,403.4,""smooth"",""right"",""right"",""good_move""]"
"2659","","<div style=""width:500px;"">
  <p>What determined the result of this run?</p>
  </div>","100","html-slider-response","19","755173","0.0-7.0-1.1","68","1","2025-07-30 08:57:55","36c45c0696341be0efffe67d72a12abb","79.166.198.129","Mozilla/5.0 (Windows NT 10.0; Win64; x64) AppleWebKit/537.36 (KHTML, like Gecko) Chrome/138.0.0.0 Safari/537.36","WebKit","Chrome","138.0.0.0","Windows","10.0","https://app.prolific.com/","el-GR,el;q=0.9,en;q=0.8","60a0dfc6f9936b0d30dfea15","687a19d2168e237449fb8af4","6889de1b0290f924a198707d","0","60a0dfc6f9936b0d30dfea15","0","2025-07-30T09:10:35.055Z","","","","AttribQ","","","","","","","","","","","50","","","","","","","","","","","","","","","","","","","","","","","","","","",""
"2775","","<div style=""width:500px;"">
  <p>How much control did you have over the ball?</p>
  </div>","100","html-slider-response","20","757949","0.0-7.0-2.1","68","1","2025-07-30 08:57:55","36c45c0696341be0efffe67d72a12abb","79.166.198.129","Mozilla/5.0 (Windows NT 10.0; Win64; x64) AppleWebKit/537.36 (KHTML, like Gecko) Chrome/138.0.0.0 Safari/537.36","WebKit","Chrome","138.0.0.0","Windows","10.0","https://app.prolific.com/","el-GR,el;q=0.9,en;q=0.8","60a0dfc6f9936b0d30dfea15","687a19d2168e237449fb8af4","6889de1b0290f924a198707d","0","60a0dfc6f9936b0d30dfea15","0","2025-07-30T09:10:37.831Z","","","","ControlQ","","","","","","","","","","","50","","","","","","","","","","","","","","","","","","","","","","","","","","",""
"2220","","<div style=""width:500px;"">
  <p>How would you describe your current emotional state?</p>
  </div>","18","html-slider-response","21","760171","0.0-7.0-3.1","68","1","2025-07-30 08:57:55","36c45c0696341be0efffe67d72a12abb","79.166.198.129","Mozilla/5.0 (Windows NT 10.0; Win64; x64) AppleWebKit/537.36 (KHTML, like Gecko) Chrome/138.0.0.0 Safari/537.36","WebKit","Chrome","138.0.0.0","Windows","10.0","https://app.prolific.com/","el-GR,el;q=0.9,en;q=0.8","60a0dfc6f9936b0d30dfea15","687a19d2168e237449fb8af4","6889de1b0290f924a198707d","0","60a0dfc6f9936b0d30dfea15","0","2025-07-30T09:10:40.053Z","","","","StressQ","","","","","","","","","","","50","","","","","","","","","","","","","","","","","","","","","","","","","","",""
"2327","","<div style=""width:500px;"">
  <p>What best describes how you currently feel?</p>
  </div>","86","html-slider-response","22","762499","0.0-7.0-4.1","68","1","2025-07-30 08:57:55","36c45c0696341be0efffe67d72a12abb","79.166.198.129","Mozilla/5.0 (Windows NT 10.0; Win64; x64) AppleWebKit/537.36 (KHTML, like Gecko) Chrome/138.0.0.0 Safari/537.36","WebKit","Chrome","138.0.0.0","Windows","10.0","https://app.prolific.com/","el-GR,el;q=0.9,en;q=0.8","60a0dfc6f9936b0d30dfea15","687a19d2168e237449fb8af4","6889de1b0290f924a198707d","0","60a0dfc6f9936b0d30dfea15","0","2025-07-30T09:10:42.381Z","","","","MotivationQ","","","","","","","","","","","50","","","","","","","","","","","","","","","","","","","","","","","","","","",""
"","","","","ctl-task-cpt","23","780938","0.0-7.0-0.2","68","1","2025-07-30 08:57:55","36c45c0696341be0efffe67d72a12abb","79.166.198.129","Mozilla/5.0 (Windows NT 10.0; Win64; x64) AppleWebKit/537.36 (KHTML, like Gecko) Chrome/138.0.0.0 Safari/537.36","WebKit","Chrome","138.0.0.0","Windows","10.0","https://app.prolific.com/","el-GR,el;q=0.9,en;q=0.8","60a0dfc6f9936b0d30dfea15","687a19d2168e237449fb8af4","6889de1b0290f924a198707d","0","60a0dfc6f9936b0d30dfea15","0","2025-07-30T09:11:00.820Z","","","","","","","","","","","","","","","","win-only","0","g1:NW,g2:SE","0.8","3","0","768738.8","854.3","5855.8","15435.5","1","4","8","6","1","1","1","13","12","0.09848484848484848","5001.5","3000","1380","[""left"",""up""]","{""num_key_presses"":4,""num_perfect"":3,""num_errors"":0,""num_randdir"":1,""num_randdir_good_moves"":1,""num_whilered"":0,""num_whileblue"":0,""num_blue"":0,""num_good_moves"":4}","[419.0714133126395,416.57142761775424,0.3,419.0714133126395,416.57142761775424,101.1,419.0714133126395,416.57142761775424,201.1,419.0714133126395,416.57142761775424,301.8,419.0714133126395,416.57142761775424,401.9,419.0714133126395,416.57142761775424,506.4,406.5714133126395,405.32142761775424,606.9,380.3214133126395,377.82142761775424,707,380.3214133126395,377.82142761775424,811.9,380.3214133126395,377.82142761775424,916.5,380.3214133126395,377.82142761775424,1021,384.0714133126395,380.32142761775424,1122.8,387.8214133126395,382.82142761775424,1226.6,387.8214133126395,382.82142761775424,1332.4,387.8214133126395,382.82142761775424,1436.6,387.8214133126395,382.82142761775424,1536.9,387.8214133126395,382.82142761775424,1641,394.0714133126395,411.57142761775424,1741.2,406.5714133126395,480.32142761775424,1846,412.8214133126395,491.57142761775424,1951.9,412.8214133126395,491.57142761775424,2055.9,412.8214133126395,491.57142761775424,2156.1,412.8214133126395,491.57142761775424,2256.5,412.8214133126395,491.57142761775424,2356.8,412.8214133126395,491.57142761775424,2461.6,412.8214133126395,491.57142761775424,2562.5,409.0714133126395,487.82142761775424,2666.4,409.0714133126395,487.82142761775424,2766.8,409.0714133126395,487.82142761775424,2871.6,409.0714133126395,487.82142761775424,2976.3,409.0714133126395,487.82142761775424,3077.1,409.0714133126395,487.82142761775424,3181.2,409.0714133126395,487.82142761775424,3281.6,409.0714133126395,487.82142761775424,3386.4,409.0714133126395,487.82142761775424,3486.5,409.0714133126395,487.82142761775424,3586.5,409.0714133126395,487.82142761775424,3686.5,409.0714133126395,487.82142761775424,3786.6,409.0714133126395,487.82142761775424,3891,409.0714133126395,487.82142761775424,3991.2,409.0714133126395,487.82142761775424,4091.3,409.0714133126395,487.82142761775424,4191.3,409.0714133126395,487.82142761775424,4291.3,409.0714133126395,487.82142761775424,4396.8,409.0714133126395,487.82142761775424,4496.9,409.0714133126395,487.82142761775424,4597.9,409.0714133126395,487.82142761775424,4701.7,409.0714133126395,487.82142761775424,4806.2,409.0714133126395,487.82142761775424,4906.5]","[1438.1,1438.1,1000,0,438.1,""smooth"",""left"",""left"",""good_move"",4381.5,2943,2497.8,1438.5,445.2,""smooth"",""up"",""up"",""good_move"",7013.1,2630,2226.1,4383.1,403.9,""smooth"",""up"",""up"",""good_move"",9485.1,2471.7,2112.8,7013.4,358.9,""oops"",""left"",""left"",""good_move""]"
"3634","","<div style=""width:500px;"">
  <p>What determined the result of this run?</p>
  </div>","89","html-slider-response","24","784574","0.0-7.0-1.2","68","1","2025-07-30 08:57:55","36c45c0696341be0efffe67d72a12abb","79.166.198.129","Mozilla/5.0 (Windows NT 10.0; Win64; x64) AppleWebKit/537.36 (KHTML, like Gecko) Chrome/138.0.0.0 Safari/537.36","WebKit","Chrome","138.0.0.0","Windows","10.0","https://app.prolific.com/","el-GR,el;q=0.9,en;q=0.8","60a0dfc6f9936b0d30dfea15","687a19d2168e237449fb8af4","6889de1b0290f924a198707d","0","60a0dfc6f9936b0d30dfea15","0","2025-07-30T09:11:04.456Z","","","","AttribQ","","","","","","","","","","","50","","","","","","","","","","","","","","","","","","","","","","","","","","",""
"4192","","<div style=""width:500px;"">
  <p>How much control did you have over the ball?</p>
  </div>","82","html-slider-response","25","788767","0.0-7.0-2.2","68","1","2025-07-30 08:57:55","36c45c0696341be0efffe67d72a12abb","79.166.198.129","Mozilla/5.0 (Windows NT 10.0; Win64; x64) AppleWebKit/537.36 (KHTML, like Gecko) Chrome/138.0.0.0 Safari/537.36","WebKit","Chrome","138.0.0.0","Windows","10.0","https://app.prolific.com/","el-GR,el;q=0.9,en;q=0.8","60a0dfc6f9936b0d30dfea15","687a19d2168e237449fb8af4","6889de1b0290f924a198707d","0","60a0dfc6f9936b0d30dfea15","0","2025-07-30T09:11:08.649Z","","","","ControlQ","","","","","","","","","","","50","","","","","","","","","","","","","","","","","","","","","","","","","","",""
"2476","","<div style=""width:500px;"">
  <p>How would you describe your current emotional state?</p>
  </div>","24","html-slider-response","26","791244","0.0-7.0-3.2","68","1","2025-07-30 08:57:55","36c45c0696341be0efffe67d72a12abb","79.166.198.129","Mozilla/5.0 (Windows NT 10.0; Win64; x64) AppleWebKit/537.36 (KHTML, like Gecko) Chrome/138.0.0.0 Safari/537.36","WebKit","Chrome","138.0.0.0","Windows","10.0","https://app.prolific.com/","el-GR,el;q=0.9,en;q=0.8","60a0dfc6f9936b0d30dfea15","687a19d2168e237449fb8af4","6889de1b0290f924a198707d","0","60a0dfc6f9936b0d30dfea15","0","2025-07-30T09:11:11.126Z","","","","StressQ","","","","","","","","","","","50","","","","","","","","","","","","","","","","","","","","","","","","","","",""
"2830","","<div style=""width:500px;"">
  <p>What best describes how you currently feel?</p>
  </div>","95","html-slider-response","27","794075","0.0-7.0-4.2","68","1","2025-07-30 08:57:55","36c45c0696341be0efffe67d72a12abb","79.166.198.129","Mozilla/5.0 (Windows NT 10.0; Win64; x64) AppleWebKit/537.36 (KHTML, like Gecko) Chrome/138.0.0.0 Safari/537.36","WebKit","Chrome","138.0.0.0","Windows","10.0","https://app.prolific.com/","el-GR,el;q=0.9,en;q=0.8","60a0dfc6f9936b0d30dfea15","687a19d2168e237449fb8af4","6889de1b0290f924a198707d","0","60a0dfc6f9936b0d30dfea15","0","2025-07-30T09:11:13.957Z","","","","MotivationQ","","","","","","","","","","","50","","","","","","","","","","","","","","","","","","","","","","","","","","",""
"","","","","ctl-task-cpt","28","829770","0.0-7.0-0.3","68","1","2025-07-30 08:57:55","36c45c0696341be0efffe67d72a12abb","79.166.198.129","Mozilla/5.0 (Windows NT 10.0; Win64; x64) AppleWebKit/537.36 (KHTML, like Gecko) Chrome/138.0.0.0 Safari/537.36","WebKit","Chrome","138.0.0.0","Windows","10.0","https://app.prolific.com/","el-GR,el;q=0.9,en;q=0.8","60a0dfc6f9936b0d30dfea15","687a19d2168e237449fb8af4","6889de1b0290f924a198707d","0","60a0dfc6f9936b0d30dfea15","0","2025-07-30T09:11:49.652Z","","","","","","","","","","","","","","","","win-only","1","g1:NE,g2:SW","0.7","4","0","800315.4","853.6","5856.6","32680.9","1","4","4","6","2","4","4","17","13","0.12878787878787878","5003","3000","585","[""down"",""left""]","{""num_key_presses"":6,""num_perfect"":5,""num_errors"":0,""num_randdir"":1,""num_randdir_good_moves"":1,""num_whilered"":0,""num_whileblue"":0,""num_blue"":3,""num_good_moves"":6}","[414.0714133126395,406.57142761775424,0,414.0714133126395,406.57142761775424,104.3,414.0714133126395,406.57142761775424,209.8,414.0714133126395,409.07142761775424,312.8,420.3214133126395,414.07142761775424,416.7,426.5714133126395,420.32142761775424,516.7,427.8214133126395,421.57142761775424,617.8,431.5714133126395,421.57142761775424,721.6,435.3214133126395,420.32142761775424,821.9,441.5714133126395,420.32142761775424,922.2,451.5714133126395,422.82142761775424,1027.3,462.8214133126395,454.07142761775424,1128.1,464.0714133126395,471.57142761775424,1232.7,470.3214133126395,479.07142761775424,1338.4,481.5714133126395,520.3214276177542,1438.5,494.0714133126395,546.5714276177542,1542.3,497.8214133126395,549.0714276177542,1642.3,582.8214133126395,567.8214276177542,1743.1,635.3214133126395,554.0714276177542,1848.5,646.5714133126395,554.0714276177542,1952.8,646.5714133126395,554.0714276177542,2053.4,646.5714133126395,554.0714276177542,2156.7,646.5714133126395,554.0714276177542,2257.2,646.5714133126395,554.0714276177542,2357.8,646.5714133126395,554.0714276177542,2458.1,687.8214133126395,564.0714276177542,2562,715.3214133126395,572.8214276177542,2662.7,715.3214133126395,572.8214276177542,2767.9,715.3214133126395,572.8214276177542,2872,715.3214133126395,572.8214276177542,2972.7,715.3214133126395,572.8214276177542,3077.4,715.3214133126395,572.8214276177542,3182.4,715.3214133126395,572.8214276177542,3287.1,715.3214133126395,572.8214276177542,3388.6,715.3214133126395,572.8214276177542,3493.6,715.3214133126395,572.8214276177542,3596.8,715.3214133126395,572.8214276177542,3698,715.3214133126395,572.8214276177542,3803.6,715.3214133126395,572.8214276177542,3906.7,715.3214133126395,572.8214276177542,4006.8,715.3214133126395,572.8214276177542,4107,715.3214133126395,572.8214276177542,4207.8,715.3214133126395,572.8214276177542,4312,715.3214133126395,572.8214276177542,4416.7,715.3214133126395,572.8214276177542,4517.1,715.3214133126395,572.8214276177542,4621.5,715.3214133126395,572.8214276177542,4723,715.3214133126395,572.8214276177542,4827.5,715.3214133126395,572.8214276177542,4931.7]","[4828.3,4828.3,2434.9,2008.6,384.8,""oops"",""down"",""left"",""good_move"",8678.2,3849.6,3473.1,4828.6,376.5,""smooth"",""down"",""down"",""good_move"",11412.5,2734,2260.8,8678.5,473.2,""smooth"",""left"",""left"",""good_move"",18131.6,6718.7,2802,14895,434.6,""smooth"",""down"",""down"",""good_move"",23587.5,5455.7,2242.2,20994.8,350.5,""smooth"",""down"",""down"",""good_move"",26723.7,3136,2704.7,23587.7,431.3,""smooth"",""left"",""left"",""good_move""]"
"2844","","<div style=""width:500px;"">
  <p>What determined the result of this run?</p>
  </div>","75","html-slider-response","29","832614","0.0-7.0-1.3","68","1","2025-07-30 08:57:55","36c45c0696341be0efffe67d72a12abb","79.166.198.129","Mozilla/5.0 (Windows NT 10.0; Win64; x64) AppleWebKit/537.36 (KHTML, like Gecko) Chrome/138.0.0.0 Safari/537.36","WebKit","Chrome","138.0.0.0","Windows","10.0","https://app.prolific.com/","el-GR,el;q=0.9,en;q=0.8","60a0dfc6f9936b0d30dfea15","687a19d2168e237449fb8af4","6889de1b0290f924a198707d","0","60a0dfc6f9936b0d30dfea15","0","2025-07-30T09:11:52.497Z","","","","AttribQ","","","","","","","","","","","50","","","","","","","","","","","","","","","","","","","","","","","","","","",""
"2024","","<div style=""width:500px;"">
  <p>How much control did you have over the ball?</p>
  </div>","67","html-slider-response","30","834639","0.0-7.0-2.3","68","1","2025-07-30 08:57:55","36c45c0696341be0efffe67d72a12abb","79.166.198.129","Mozilla/5.0 (Windows NT 10.0; Win64; x64) AppleWebKit/537.36 (KHTML, like Gecko) Chrome/138.0.0.0 Safari/537.36","WebKit","Chrome","138.0.0.0","Windows","10.0","https://app.prolific.com/","el-GR,el;q=0.9,en;q=0.8","60a0dfc6f9936b0d30dfea15","687a19d2168e237449fb8af4","6889de1b0290f924a198707d","0","60a0dfc6f9936b0d30dfea15","0","2025-07-30T09:11:54.522Z","","","","ControlQ","","","","","","","","","","","50","","","","","","","","","","","","","","","","","","","","","","","","","","",""
"2549","","<div style=""width:500px;"">
  <p>How would you describe your current emotional state?</p>
  </div>","22","html-slider-response","31","837190","0.0-7.0-3.3","68","1","2025-07-30 08:57:55","36c45c0696341be0efffe67d72a12abb","79.166.198.129","Mozilla/5.0 (Windows NT 10.0; Win64; x64) AppleWebKit/537.36 (KHTML, like Gecko) Chrome/138.0.0.0 Safari/537.36","WebKit","Chrome","138.0.0.0","Windows","10.0","https://app.prolific.com/","el-GR,el;q=0.9,en;q=0.8","60a0dfc6f9936b0d30dfea15","687a19d2168e237449fb8af4","6889de1b0290f924a198707d","0","60a0dfc6f9936b0d30dfea15","0","2025-07-30T09:11:57.072Z","","","","StressQ","","","","","","","","","","","50","","","","","","","","","","","","","","","","","","","","","","","","","","",""
"1856","","<div style=""width:500px;"">
  <p>What best describes how you currently feel?</p>
  </div>","79","html-slider-response","32","839047","0.0-7.0-4.3","68","1","2025-07-30 08:57:55","36c45c0696341be0efffe67d72a12abb","79.166.198.129","Mozilla/5.0 (Windows NT 10.0; Win64; x64) AppleWebKit/537.36 (KHTML, like Gecko) Chrome/138.0.0.0 Safari/537.36","WebKit","Chrome","138.0.0.0","Windows","10.0","https://app.prolific.com/","el-GR,el;q=0.9,en;q=0.8","60a0dfc6f9936b0d30dfea15","687a19d2168e237449fb8af4","6889de1b0290f924a198707d","0","60a0dfc6f9936b0d30dfea15","0","2025-07-30T09:11:58.929Z","","","","MotivationQ","","","","","","","","","","","50","","","","","","","","","","","","","","","","","","","","","","","","","","",""
"","","","","ctl-task-cpt","33","857819","0.0-7.0-0.4","68","1","2025-07-30 08:57:55","36c45c0696341be0efffe67d72a12abb","79.166.198.129","Mozilla/5.0 (Windows NT 10.0; Win64; x64) AppleWebKit/537.36 (KHTML, like Gecko) Chrome/138.0.0.0 Safari/537.36","WebKit","Chrome","138.0.0.0","Windows","10.0","https://app.prolific.com/","el-GR,el;q=0.9,en;q=0.8","60a0dfc6f9936b0d30dfea15","687a19d2168e237449fb8af4","6889de1b0290f924a198707d","0","60a0dfc6f9936b0d30dfea15","0","2025-07-30T09:12:17.701Z","","","","","","","","","","","","","","","","win-only","3","g1:SW,g2:NE","0.6","5","0","845287.2","663.2","5665.5","15750.6","1","4","8","6","1","1","1","18","17","0.13636363636363635","5002.3","3000","1360","[""down"",""left""]","{""num_key_presses"":4,""num_perfect"":3,""num_errors"":0,""num_randdir"":1,""num_randdir_good_moves"":1,""num_whilered"":0,""num_whileblue"":0,""num_blue"":0,""num_good_moves"":4}","[417.8214133126395,422.82142761775424,0.3,417.8214133126395,422.82142761775424,103.2,417.8214133126395,422.82142761775424,207.9,417.8214133126395,422.82142761775424,308,417.8214133126395,422.82142761775424,413.5,417.8214133126395,422.82142761775424,517.7,417.8214133126395,422.82142761775424,618.5,417.8214133126395,422.82142761775424,722.2,417.8214133126395,422.82142761775424,822.3,417.8214133126395,422.82142761775424,922.8,417.8214133126395,422.82142761775424,1027.8,417.8214133126395,421.57142761775424,1127.8,429.0714133126395,424.07142761775424,1232.1,430.3214133126395,425.32142761775424,1332.9,431.5714133126395,425.32142761775424,1437.6,431.5714133126395,425.32142761775424,1540.3,431.5714133126395,425.32142761775424,1642.7,431.5714133126395,425.32142761775424,1747.4,431.5714133126395,425.32142761775424,1848.8,431.5714133126395,425.32142761775424,1952.5,431.5714133126395,425.32142761775424,2052.7,431.5714133126395,425.32142761775424,2157,431.5714133126395,425.32142761775424,2257.8,431.5714133126395,425.32142761775424,2362.2,434.0714133126395,435.32142761775424,2462.7,435.3214133126395,471.57142761775424,2563,435.3214133126395,471.57142761775424,2667.5,440.3214133126395,526.5714276177542,2767.8,436.5714133126395,576.5714276177542,2868,436.5714133126395,576.5714276177542,2972,436.5714133126395,576.5714276177542,3072.9,436.5714133126395,576.5714276177542,3178.1,430.3214133126395,579.0714276177542,3278.4,430.3214133126395,579.0714276177542,3382.2,430.3214133126395,579.0714276177542,3483.4,430.3214133126395,579.0714276177542,3587.1,429.0714133126395,579.0714276177542,3688.2,415.3214133126395,571.5714276177542,3788.7,415.3214133126395,571.5714276177542,3892.9,415.3214133126395,571.5714276177542,3998,415.3214133126395,571.5714276177542,4098,415.3214133126395,571.5714276177542,4203.1,415.3214133126395,571.5714276177542,4311.3,415.3214133126395,571.5714276177542,4412.2,415.3214133126395,571.5714276177542,4512.6,415.3214133126395,571.5714276177542,4612.9,415.3214133126395,571.5714276177542,4717.3,415.3214133126395,571.5714276177542,4817.7,415.3214133126395,571.5714276177542,4917.9]","[1502.7,1502.7,1000,0,502.7,""smooth"",""down"",""down"",""good_move"",3942.4,2439.3,2011.8,1503.1,427.5,""oops"",""left"",""down"",""good_move"",6526.4,2583.7,2213.1,3942.7,370.6,""smooth"",""left"",""left"",""good_move"",9999.3,3472.7,3110.6,6526.7,362.1,""smooth"",""left"",""left"",""good_move""]"
"3751","","<div style=""width:500px;"">
  <p>What determined the result of this run?</p>
  </div>","70","html-slider-response","34","861573","0.0-7.0-1.4","68","1","2025-07-30 08:57:55","36c45c0696341be0efffe67d72a12abb","79.166.198.129","Mozilla/5.0 (Windows NT 10.0; Win64; x64) AppleWebKit/537.36 (KHTML, like Gecko) Chrome/138.0.0.0 Safari/537.36","WebKit","Chrome","138.0.0.0","Windows","10.0","https://app.prolific.com/","el-GR,el;q=0.9,en;q=0.8","60a0dfc6f9936b0d30dfea15","687a19d2168e237449fb8af4","6889de1b0290f924a198707d","0","60a0dfc6f9936b0d30dfea15","0","2025-07-30T09:12:21.455Z","","","","AttribQ","","","","","","","","","","","50","","","","","","","","","","","","","","","","","","","","","","","","","","",""
"1366","","<div style=""width:500px;"">
  <p>How much control did you have over the ball?</p>
  </div>","68","html-slider-response","35","862940","0.0-7.0-2.4","68","1","2025-07-30 08:57:55","36c45c0696341be0efffe67d72a12abb","79.166.198.129","Mozilla/5.0 (Windows NT 10.0; Win64; x64) AppleWebKit/537.36 (KHTML, like Gecko) Chrome/138.0.0.0 Safari/537.36","WebKit","Chrome","138.0.0.0","Windows","10.0","https://app.prolific.com/","el-GR,el;q=0.9,en;q=0.8","60a0dfc6f9936b0d30dfea15","687a19d2168e237449fb8af4","6889de1b0290f924a198707d","0","60a0dfc6f9936b0d30dfea15","0","2025-07-30T09:12:22.822Z","","","","ControlQ","","","","","","","","","","","50","","","","","","","","","","","","","","","","","","","","","","","","","","",""
"2383","","<div style=""width:500px;"">
  <p>How would you describe your current emotional state?</p>
  </div>","19","html-slider-response","36","865324","0.0-7.0-3.4","68","1","2025-07-30 08:57:55","36c45c0696341be0efffe67d72a12abb","79.166.198.129","Mozilla/5.0 (Windows NT 10.0; Win64; x64) AppleWebKit/537.36 (KHTML, like Gecko) Chrome/138.0.0.0 Safari/537.36","WebKit","Chrome","138.0.0.0","Windows","10.0","https://app.prolific.com/","el-GR,el;q=0.9,en;q=0.8","60a0dfc6f9936b0d30dfea15","687a19d2168e237449fb8af4","6889de1b0290f924a198707d","0","60a0dfc6f9936b0d30dfea15","0","2025-07-30T09:12:25.206Z","","","","StressQ","","","","","","","","","","","50","","","","","","","","","","","","","","","","","","","","","","","","","","",""
"2983","","<div style=""width:500px;"">
  <p>What best describes how you currently feel?</p>
  </div>","85","html-slider-response","37","868308","0.0-7.0-4.4","68","1","2025-07-30 08:57:55","36c45c0696341be0efffe67d72a12abb","79.166.198.129","Mozilla/5.0 (Windows NT 10.0; Win64; x64) AppleWebKit/537.36 (KHTML, like Gecko) Chrome/138.0.0.0 Safari/537.36","WebKit","Chrome","138.0.0.0","Windows","10.0","https://app.prolific.com/","el-GR,el;q=0.9,en;q=0.8","60a0dfc6f9936b0d30dfea15","687a19d2168e237449fb8af4","6889de1b0290f924a198707d","0","60a0dfc6f9936b0d30dfea15","0","2025-07-30T09:12:28.190Z","","","","MotivationQ","","","","","","","","","","","50","","","","","","","","","","","","","","","","","","","","","","","","","","",""
"","","","","ctl-task-cpt","38","905724","0.0-7.0-0.5","68","1","2025-07-30 08:57:55","36c45c0696341be0efffe67d72a12abb","79.166.198.129","Mozilla/5.0 (Windows NT 10.0; Win64; x64) AppleWebKit/537.36 (KHTML, like Gecko) Chrome/138.0.0.0 Safari/537.36","WebKit","Chrome","138.0.0.0","Windows","10.0","https://app.prolific.com/","el-GR,el;q=0.9,en;q=0.8","60a0dfc6f9936b0d30dfea15","687a19d2168e237449fb8af4","6889de1b0290f924a198707d","0","60a0dfc6f9936b0d30dfea15","0","2025-07-30T09:13:05.606Z","","","","","","","","","","","","","","","","win-only","3","g1:SW,g2:NE","0.5","6","0","874548.1","935.9","5941.7","34401.3","1","4","4","6","1","-1","-4","14","18","0.10606060606060606","5005.8","3000","-3010","[""down"",""left""]","{""num_key_presses"":11,""num_perfect"":3,""num_errors"":3,""num_randdir"":4,""num_randdir_good_moves"":1,""num_whilered"":1,""num_whileblue"":1,""num_blue"":1,""num_good_moves"":4}","[409.0714133126395,412.82142761775424,0.2,409.0714133126395,412.82142761775424,104.2,409.0714133126395,412.82142761775424,210.3,409.0714133126395,412.82142761775424,311.1,410.3214133126395,412.82142761775424,414.3,411.5714133126395,416.57142761775424,515.8,411.5714133126395,416.57142761775424,626.1,411.5714133126395,416.57142761775424,729.7,416.5714133126395,441.57142761775424,830,422.8214133126395,496.57142761775424,942.9,427.8214133126395,502.82142761775424,1043.6,427.8214133126395,502.82142761775424,1152.1,429.0714133126395,502.82142761775424,1258.7,429.0714133126395,502.82142761775424,1358.9,436.5714133126395,505.32142761775424,1461.4,436.5714133126395,521.5714276177542,1565,436.5714133126395,541.5714276177542,1665.3,436.5714133126395,554.0714276177542,1766,436.5714133126395,559.0714276177542,1875.6,436.5714133126395,560.3214276177542,1978.2,439.0714133126395,560.3214276177542,2079.5,456.5714133126395,552.8214276177542,2181.9,466.5714133126395,541.5714276177542,2284.8,466.5714133126395,541.5714276177542,2391.5,467.8214133126395,531.5714276177542,2496.2,467.8214133126395,531.5714276177542,2599.5,467.8214133126395,531.5714276177542,2699.9,467.8214133126395,531.5714276177542,2811.5,467.8214133126395,531.5714276177542,2914.5,467.8214133126395,531.5714276177542,3015.4,467.8214133126395,531.5714276177542,3119.7,467.8214133126395,531.5714276177542,3220.2,467.8214133126395,531.5714276177542,3325.5,467.8214133126395,531.5714276177542,3430.6,467.8214133126395,531.5714276177542,3534.9,467.8214133126395,531.5714276177542,3643.4,467.8214133126395,531.5714276177542,3743.7,467.8214133126395,531.5714276177542,3845.2,467.8214133126395,531.5714276177542,3949.5,467.8214133126395,531.5714276177542,4055.1,467.8214133126395,531.5714276177542,4159,467.8214133126395,531.5714276177542,4259.3,467.8214133126395,531.5714276177542,4359.4,467.8214133126395,531.5714276177542,4459.6,467.8214133126395,531.5714276177542,4564.6,467.8214133126395,531.5714276177542,4666.8,467.8214133126395,531.5714276177542,4769.9,467.8214133126395,531.5714276177542,4874.2,467.8214133126395,531.5714276177542,4975.3]","[1486.6,1486.6,1000,0,486.6,""smooth"",""down"",""down"",""good_move"",4525.2,3038,2542.5,1487.3,495.5,""oops"",""left"",""up"",""bad_move"",7969.5,3443.9,2989.9,4525.6,454,""oops"",""down"",""right"",""bad_move"",10952.8,2982.9,2523.1,7969.9,459.8,""smooth"",""down"",""down"",""good_move"",14370.7,3417.5,2932.5,10953.2,485,""oops"",""down"",""up"",""bad_move"",16897,2526,2172.9,14371,353.1,""oops"",""down"",""left"",""good_move"",19709,2811.4,2515.1,16897.6,296.3,""smooth"",""down"",""down"",""good_move"",22028.9,2319.7,3339,19709.2,-1019.3,""error"",""-"",""-"",""no_move"",23356.8,1327.7,1874.5,23035.9,-1553.5,""error"",""-"",""-"",""no_move"",23765.2,408.2,1874.5,23035.9,-1145.2,""while_red"",""-"",""-"",""no_move"",27093,3736,2390.3,24359,343.7,""while_blue"",""down"",""up"",""bad_move""]"
"3859","","<div style=""width:500px;"">
  <p>What determined the result of this run?</p>
  </div>","41","html-slider-response","39","909584","0.0-7.0-1.5","68","1","2025-07-30 08:57:55","36c45c0696341be0efffe67d72a12abb","79.166.198.129","Mozilla/5.0 (Windows NT 10.0; Win64; x64) AppleWebKit/537.36 (KHTML, like Gecko) Chrome/138.0.0.0 Safari/537.36","WebKit","Chrome","138.0.0.0","Windows","10.0","https://app.prolific.com/","el-GR,el;q=0.9,en;q=0.8","60a0dfc6f9936b0d30dfea15","687a19d2168e237449fb8af4","6889de1b0290f924a198707d","0","60a0dfc6f9936b0d30dfea15","0","2025-07-30T09:13:09.466Z","","","","AttribQ","","","","","","","","","","","50","","","","","","","","","","","","","","","","","","","","","","","","","","",""
"5945","","<div style=""width:500px;"">
  <p>How much control did you have over the ball?</p>
  </div>","31","html-slider-response","40","915530","0.0-7.0-2.5","68","1","2025-07-30 08:57:55","36c45c0696341be0efffe67d72a12abb","79.166.198.129","Mozilla/5.0 (Windows NT 10.0; Win64; x64) AppleWebKit/537.36 (KHTML, like Gecko) Chrome/138.0.0.0 Safari/537.36","WebKit","Chrome","138.0.0.0","Windows","10.0","https://app.prolific.com/","el-GR,el;q=0.9,en;q=0.8","60a0dfc6f9936b0d30dfea15","687a19d2168e237449fb8af4","6889de1b0290f924a198707d","0","60a0dfc6f9936b0d30dfea15","0","2025-07-30T09:13:15.412Z","","","","ControlQ","","","","","","","","","","","50","","","","","","","","","","","","","","","","","","","","","","","","","","",""
"2367","","<div style=""width:500px;"">
  <p>How would you describe your current emotional state?</p>
  </div>","42","html-slider-response","41","917898","0.0-7.0-3.5","68","1","2025-07-30 08:57:55","36c45c0696341be0efffe67d72a12abb","79.166.198.129","Mozilla/5.0 (Windows NT 10.0; Win64; x64) AppleWebKit/537.36 (KHTML, like Gecko) Chrome/138.0.0.0 Safari/537.36","WebKit","Chrome","138.0.0.0","Windows","10.0","https://app.prolific.com/","el-GR,el;q=0.9,en;q=0.8","60a0dfc6f9936b0d30dfea15","687a19d2168e237449fb8af4","6889de1b0290f924a198707d","0","60a0dfc6f9936b0d30dfea15","0","2025-07-30T09:13:17.780Z","","","","StressQ","","","","","","","","","","","50","","","","","","","","","","","","","","","","","","","","","","","","","","",""
"2110","","<div style=""width:500px;"">
  <p>What best describes how you currently feel?</p>
  </div>","72","html-slider-response","42","920010","0.0-7.0-4.5","68","1","2025-07-30 08:57:55","36c45c0696341be0efffe67d72a12abb","79.166.198.129","Mozilla/5.0 (Windows NT 10.0; Win64; x64) AppleWebKit/537.36 (KHTML, like Gecko) Chrome/138.0.0.0 Safari/537.36","WebKit","Chrome","138.0.0.0","Windows","10.0","https://app.prolific.com/","el-GR,el;q=0.9,en;q=0.8","60a0dfc6f9936b0d30dfea15","687a19d2168e237449fb8af4","6889de1b0290f924a198707d","0","60a0dfc6f9936b0d30dfea15","0","2025-07-30T09:13:19.892Z","","","","MotivationQ","","","","","","","","","","","50","","","","","","","","","","","","","","","","","","","","","","","","","","",""
"","","","","ctl-task-cpt","43","939409","0.0-7.0-0.6","68","1","2025-07-30 08:57:55","36c45c0696341be0efffe67d72a12abb","79.166.198.129","Mozilla/5.0 (Windows NT 10.0; Win64; x64) AppleWebKit/537.36 (KHTML, like Gecko) Chrome/138.0.0.0 Safari/537.36","WebKit","Chrome","138.0.0.0","Windows","10.0","https://app.prolific.com/","el-GR,el;q=0.9,en;q=0.8","60a0dfc6f9936b0d30dfea15","687a19d2168e237449fb8af4","6889de1b0290f924a198707d","0","60a0dfc6f9936b0d30dfea15","0","2025-07-30T09:13:39.291Z","","","","","","","","","","","","","","","","win-only","3","g1:SW,g2:NE","0.4","7","0","926249.2","758.7","5760.7","16381.1","1","4","4","6","1","1","1","15","14","0.11363636363636363","5002","3000","1365","[""down"",""left""]","{""num_key_presses"":4,""num_perfect"":2,""num_errors"":0,""num_randdir"":2,""num_randdir_good_moves"":2,""num_whilered"":0,""num_whileblue"":0,""num_blue"":0,""num_good_moves"":4}","[421.5714133126395,425.32142761775424,0.2,421.5714133126395,425.32142761775424,105.7,421.5714133126395,425.32142761775424,215.3,421.5714133126395,425.32142761775424,318.4,421.5714133126395,422.82142761775424,422.6,421.5714133126395,422.82142761775424,527.2,421.5714133126395,422.82142761775424,627.4,421.5714133126395,422.82142761775424,739.6,421.5714133126395,422.82142761775424,842.6,426.5714133126395,424.07142761775424,946.9,427.8214133126395,425.32142761775424,1055.2,425.3214133126395,521.5714276177542,1157.7,425.3214133126395,540.3214276177542,1262,427.8214133126395,534.0714276177542,1362.8,436.5714133126395,520.3214276177542,1468.1,441.5714133126395,515.3214276177542,1572.5,450.3214133126395,514.0714276177542,1675.4,450.3214133126395,516.5714276177542,1777.8,450.3214133126395,521.5714276177542,1889,450.3214133126395,536.5714276177542,1992.7,450.3214133126395,537.8214276177542,2093.2,450.3214133126395,537.8214276177542,2196.9,450.3214133126395,537.8214276177542,2297.3,450.3214133126395,537.8214276177542,2405.9,450.3214133126395,537.8214276177542,2512.5,450.3214133126395,537.8214276177542,2613.2,450.3214133126395,537.8214276177542,2719.3,450.3214133126395,537.8214276177542,2824.1,450.3214133126395,541.5714276177542,2927.7,450.3214133126395,541.5714276177542,3028.3,450.3214133126395,541.5714276177542,3132.5,450.3214133126395,541.5714276177542,3237.7,450.3214133126395,541.5714276177542,3337.7,450.3214133126395,541.5714276177542,3439.1,450.3214133126395,541.5714276177542,3541.9,450.3214133126395,541.5714276177542,3643,450.3214133126395,541.5714276177542,3745.3,450.3214133126395,541.5714276177542,3846.9,450.3214133126395,541.5714276177542,3947.7,450.3214133126395,541.5714276177542,4059.8,450.3214133126395,541.5714276177542,4162.9,450.3214133126395,541.5714276177542,4262.9,450.3214133126395,541.5714276177542,4372.8,450.3214133126395,541.5714276177542,4476.9,450.3214133126395,541.5714276177542,4578.1,450.3214133126395,541.5714276177542,4696.9,450.3214133126395,541.5714276177542,4797,450.3214133126395,541.5714276177542,4915.9]","[1517.4,1517.4,1000,0,517.4,""smooth"",""down"",""down"",""good_move"",4324.6,2806.8,2419.3,1517.8,387.5,""oops"",""left"",""left"",""good_move"",7524.5,3199.5,2803.3,4325,396.2,""oops"",""down"",""down"",""good_move"",10524.6,2999.8,2639.9,7524.8,359.9,""smooth"",""left"",""left"",""good_move""]"
"2176","","<div style=""width:500px;"">
  <p>What determined the result of this run?</p>
  </div>","73","html-slider-response","44","941586","0.0-7.0-1.6","68","1","2025-07-30 08:57:55","36c45c0696341be0efffe67d72a12abb","79.166.198.129","Mozilla/5.0 (Windows NT 10.0; Win64; x64) AppleWebKit/537.36 (KHTML, like Gecko) Chrome/138.0.0.0 Safari/537.36","WebKit","Chrome","138.0.0.0","Windows","10.0","https://app.prolific.com/","el-GR,el;q=0.9,en;q=0.8","60a0dfc6f9936b0d30dfea15","687a19d2168e237449fb8af4","6889de1b0290f924a198707d","0","60a0dfc6f9936b0d30dfea15","0","2025-07-30T09:13:41.468Z","","","","AttribQ","","","","","","","","","","","50","","","","","","","","","","","","","","","","","","","","","","","","","","",""
"1551","","<div style=""width:500px;"">
  <p>How much control did you have over the ball?</p>
  </div>","70","html-slider-response","45","943138","0.0-7.0-2.6","68","1","2025-07-30 08:57:55","36c45c0696341be0efffe67d72a12abb","79.166.198.129","Mozilla/5.0 (Windows NT 10.0; Win64; x64) AppleWebKit/537.36 (KHTML, like Gecko) Chrome/138.0.0.0 Safari/537.36","WebKit","Chrome","138.0.0.0","Windows","10.0","https://app.prolific.com/","el-GR,el;q=0.9,en;q=0.8","60a0dfc6f9936b0d30dfea15","687a19d2168e237449fb8af4","6889de1b0290f924a198707d","0","60a0dfc6f9936b0d30dfea15","0","2025-07-30T09:13:43.021Z","","","","ControlQ","","","","","","","","","","","50","","","","","","","","","","","","","","","","","","","","","","","","","","",""
"2128","","<div style=""width:500px;"">
  <p>How would you describe your current emotional state?</p>
  </div>","38","html-slider-response","46","945267","0.0-7.0-3.6","68","1","2025-07-30 08:57:55","36c45c0696341be0efffe67d72a12abb","79.166.198.129","Mozilla/5.0 (Windows NT 10.0; Win64; x64) AppleWebKit/537.36 (KHTML, like Gecko) Chrome/138.0.0.0 Safari/537.36","WebKit","Chrome","138.0.0.0","Windows","10.0","https://app.prolific.com/","el-GR,el;q=0.9,en;q=0.8","60a0dfc6f9936b0d30dfea15","687a19d2168e237449fb8af4","6889de1b0290f924a198707d","0","60a0dfc6f9936b0d30dfea15","0","2025-07-30T09:13:45.150Z","","","","StressQ","","","","","","","","","","","50","","","","","","","","","","","","","","","","","","","","","","","","","","",""
"1079","","<div style=""width:500px;"">
  <p>What best describes how you currently feel?</p>
  </div>","66","html-slider-response","47","946347","0.0-7.0-4.6","68","1","2025-07-30 08:57:55","36c45c0696341be0efffe67d72a12abb","79.166.198.129","Mozilla/5.0 (Windows NT 10.0; Win64; x64) AppleWebKit/537.36 (KHTML, like Gecko) Chrome/138.0.0.0 Safari/537.36","WebKit","Chrome","138.0.0.0","Windows","10.0","https://app.prolific.com/","el-GR,el;q=0.9,en;q=0.8","60a0dfc6f9936b0d30dfea15","687a19d2168e237449fb8af4","6889de1b0290f924a198707d","0","60a0dfc6f9936b0d30dfea15","0","2025-07-30T09:13:46.229Z","","","","MotivationQ","","","","","","","","","","","50","","","","","","","","","","","","","","","","","","","","","","","","","","",""
"","","","","ctl-task-cpt","48","988078","0.0-7.0-0.7","68","1","2025-07-30 08:57:55","36c45c0696341be0efffe67d72a12abb","79.166.198.129","Mozilla/5.0 (Windows NT 10.0; Win64; x64) AppleWebKit/537.36 (KHTML, like Gecko) Chrome/138.0.0.0 Safari/537.36","WebKit","Chrome","138.0.0.0","Windows","10.0","https://app.prolific.com/","el-GR,el;q=0.9,en;q=0.8","60a0dfc6f9936b0d30dfea15","687a19d2168e237449fb8af4","6889de1b0290f924a198707d","0","60a0dfc6f9936b0d30dfea15","0","2025-07-30T09:14:27.960Z","","","","","","","","","","","","","","","","win-only","2","g1:SE,g2:NW","0.3","8","0","952587.2","690.4","5692.8","38711.3","1","4","8","6","1","-1","-1","14","15","0.10606060606060606","5002.4","3000","-2995","[""down"",""right""]","{""num_key_presses"":7,""num_perfect"":2,""num_errors"":0,""num_randdir"":5,""num_randdir_good_moves"":3,""num_whilered"":0,""num_whileblue"":0,""num_blue"":3,""num_good_moves"":5}","[420.3214133126395,420.32142761775424,0.3,420.3214133126395,420.32142761775424,100.1,420.3214133126395,420.32142761775424,200.6,420.3214133126395,420.32142761775424,301.8,420.3214133126395,420.32142761775424,402.3,421.5714133126395,419.07142761775424,513.6,427.8214133126395,426.57142761775424,616.6,427.8214133126395,426.57142761775424,720.2,436.5714133126395,457.82142761775424,822,456.5714133126395,581.5714276177542,925.7,456.5714133126395,582.8214276177542,1026.7,461.5714133126395,561.5714276177542,1130.9,461.5714133126395,561.5714276177542,1231.5,461.5714133126395,561.5714276177542,1335.2,464.0714133126395,561.5714276177542,1440.7,464.0714133126395,561.5714276177542,1541.9,464.0714133126395,561.5714276177542,1645.9,464.0714133126395,561.5714276177542,1746.9,464.0714133126395,561.5714276177542,1847.3,464.0714133126395,561.5714276177542,1953.5,464.0714133126395,561.5714276177542,2055.1,464.0714133126395,561.5714276177542,2155.8,464.0714133126395,561.5714276177542,2255.8,464.0714133126395,561.5714276177542,2355.9,464.0714133126395,561.5714276177542,2456.7,464.0714133126395,561.5714276177542,2560.4,464.0714133126395,561.5714276177542,2667.4,464.0714133126395,561.5714276177542,2771.1,464.0714133126395,561.5714276177542,2876.3,465.3214133126395,594.0714276177542,2980.1,466.5714133126395,610.3214276177542,3081.6,466.5714133126395,621.5714276177542,3181.7,466.5714133126395,621.5714276177542,3282,466.5714133126395,621.5714276177542,3385.9,466.5714133126395,621.5714276177542,3490.8,466.5714133126395,621.5714276177542,3591.4,466.5714133126395,621.5714276177542,3698.1,466.5714133126395,621.5714276177542,3800.7,466.5714133126395,621.5714276177542,3902.1,466.5714133126395,625.3214276177542,4005.6,467.8214133126395,626.5714276177542,4111.3,481.5714133126395,592.8214276177542,4218.6,481.5714133126395,592.8214276177542,4321,471.5714133126395,610.3214276177542,4425.4,461.5714133126395,631.5714276177542,4526.6,455.3214133126395,657.8214276177542,4630.8,455.3214133126395,657.8214276177542,4736.3,455.3214133126395,657.8214276177542,4840.6,455.3214133126395,657.8214276177542,4946.4]","[1447.8,1447.8,1000,0,447.8,""oops"",""down"",""right"",""good_move"",8502.2,7054,2858.2,5288.3,355.7,""oops"",""down"",""left"",""bad_move"",11910.4,3407.9,2977.6,8502.5,430.3,""smooth"",""down"",""down"",""good_move"",18729.7,6818.9,2674.8,15642.8,412.1,""oops"",""right"",""left"",""bad_move"",21521.1,2791,2227.8,18730.1,563.2,""oops"",""right"",""down"",""good_move"",24662.4,3140.7,2734.8,21521.7,405.9,""smooth"",""right"",""right"",""good_move"",30378,5715.2,2268.5,27752.6,356.9,""oops"",""right"",""right"",""good_move""]"
"2714","","<div style=""width:500px;"">
  <p>What determined the result of this run?</p>
  </div>","29","html-slider-response","49","990793","0.0-7.0-1.7","68","1","2025-07-30 08:57:55","36c45c0696341be0efffe67d72a12abb","79.166.198.129","Mozilla/5.0 (Windows NT 10.0; Win64; x64) AppleWebKit/537.36 (KHTML, like Gecko) Chrome/138.0.0.0 Safari/537.36","WebKit","Chrome","138.0.0.0","Windows","10.0","https://app.prolific.com/","el-GR,el;q=0.9,en;q=0.8","60a0dfc6f9936b0d30dfea15","687a19d2168e237449fb8af4","6889de1b0290f924a198707d","0","60a0dfc6f9936b0d30dfea15","0","2025-07-30T09:14:30.675Z","","","","AttribQ","","","","","","","","","","","50","","","","","","","","","","","","","","","","","","","","","","","","","","",""
"3838","","<div style=""width:500px;"">
  <p>How much control did you have over the ball?</p>
  </div>","27","html-slider-response","50","994632","0.0-7.0-2.7","68","1","2025-07-30 08:57:55","36c45c0696341be0efffe67d72a12abb","79.166.198.129","Mozilla/5.0 (Windows NT 10.0; Win64; x64) AppleWebKit/537.36 (KHTML, like Gecko) Chrome/138.0.0.0 Safari/537.36","WebKit","Chrome","138.0.0.0","Windows","10.0","https://app.prolific.com/","el-GR,el;q=0.9,en;q=0.8","60a0dfc6f9936b0d30dfea15","687a19d2168e237449fb8af4","6889de1b0290f924a198707d","0","60a0dfc6f9936b0d30dfea15","0","2025-07-30T09:14:34.514Z","","","","ControlQ","","","","","","","","","","","50","","","","","","","","","","","","","","","","","","","","","","","","","","",""
"1792","","<div style=""width:500px;"">
  <p>How would you describe your current emotional state?</p>
  </div>","37","html-slider-response","51","996425","0.0-7.0-3.7","68","1","2025-07-30 08:57:55","36c45c0696341be0efffe67d72a12abb","79.166.198.129","Mozilla/5.0 (Windows NT 10.0; Win64; x64) AppleWebKit/537.36 (KHTML, like Gecko) Chrome/138.0.0.0 Safari/537.36","WebKit","Chrome","138.0.0.0","Windows","10.0","https://app.prolific.com/","el-GR,el;q=0.9,en;q=0.8","60a0dfc6f9936b0d30dfea15","687a19d2168e237449fb8af4","6889de1b0290f924a198707d","0","60a0dfc6f9936b0d30dfea15","0","2025-07-30T09:14:36.307Z","","","","StressQ","","","","","","","","","","","50","","","","","","","","","","","","","","","","","","","","","","","","","","",""
"1366","","<div style=""width:500px;"">
  <p>What best describes how you currently feel?</p>
  </div>","56","html-slider-response","52","997792","0.0-7.0-4.7","68","1","2025-07-30 08:57:55","36c45c0696341be0efffe67d72a12abb","79.166.198.129","Mozilla/5.0 (Windows NT 10.0; Win64; x64) AppleWebKit/537.36 (KHTML, like Gecko) Chrome/138.0.0.0 Safari/537.36","WebKit","Chrome","138.0.0.0","Windows","10.0","https://app.prolific.com/","el-GR,el;q=0.9,en;q=0.8","60a0dfc6f9936b0d30dfea15","687a19d2168e237449fb8af4","6889de1b0290f924a198707d","0","60a0dfc6f9936b0d30dfea15","0","2025-07-30T09:14:37.674Z","","","","MotivationQ","","","","","","","","","","","50","","","","","","","","","","","","","","","","","","","","","","","","","","",""
"","","","","ctl-task-cpt","53","1039397","0.0-7.0-0.8","68","1","2025-07-30 08:57:55","36c45c0696341be0efffe67d72a12abb","79.166.198.129","Mozilla/5.0 (Windows NT 10.0; Win64; x64) AppleWebKit/537.36 (KHTML, like Gecko) Chrome/138.0.0.0 Safari/537.36","WebKit","Chrome","138.0.0.0","Windows","10.0","https://app.prolific.com/","el-GR,el;q=0.9,en;q=0.8","60a0dfc6f9936b0d30dfea15","687a19d2168e237449fb8af4","6889de1b0290f924a198707d","0","60a0dfc6f9936b0d30dfea15","0","2025-07-30T09:15:19.279Z","","","","","","","","","","","","","","","","win-only","1","g1:NE,g2:SW","0.4","9","0","1004031.5","750.7","5752.1","38585.5","1","4","4","6","1","-1","-3","11","14","0.08333333333333333","5001.4","3000","-3010","[""up"",""right""]","{""num_key_presses"":8,""num_perfect"":2,""num_errors"":2,""num_randdir"":4,""num_randdir_good_moves"":1,""num_whilered"":0,""num_whileblue"":1,""num_blue"":4,""num_good_moves"":3}","[409.0714133126395,415.32142761775424,0.1,409.0714133126395,415.32142761775424,101.9,409.0714133126395,415.32142761775424,205.7,409.0714133126395,415.32142761775424,305.9,424.0714133126395,406.57142761775424,406.4,426.5714133126395,405.32142761775424,521.8,426.5714133126395,405.32142761775424,622,412.8214133126395,411.57142761775424,726.1,415.3214133126395,427.82142761775424,833.6,421.5714133126395,457.82142761775424,943,435.3214133126395,510.32142761775424,1044.5,441.5714133126395,530.3214276177542,1147.5,440.3214133126395,527.8214276177542,1250,445.3214133126395,486.57142761775424,1355.9,445.3214133126395,486.57142761775424,1460.1,456.5714133126395,506.57142761775424,1561.2,457.8214133126395,517.8214276177542,1668.6,460.3214133126395,531.5714276177542,1771.4,460.3214133126395,532.8214276177542,1876.3,460.3214133126395,532.8214276177542,1984.7,481.5714133126395,560.3214276177542,2085.6,485.3214133126395,571.5714276177542,2186,487.8214133126395,584.0714276177542,2290.3,487.8214133126395,576.5714276177542,2392.8,487.8214133126395,557.8214276177542,2500.1,484.0714133126395,524.0714276177542,2601.5,484.0714133126395,507.82142761775424,2702.2,485.3214133126395,502.82142761775424,2804.9,485.3214133126395,502.82142761775424,2906.3,485.3214133126395,502.82142761775424,3009.7,486.5714133126395,502.82142761775424,3122.2,486.5714133126395,511.57142761775424,3225.6,486.5714133126395,516.5714276177542,3329.8,486.5714133126395,516.5714276177542,3432.3,486.5714133126395,516.5714276177542,3535.9,486.5714133126395,516.5714276177542,3639.4,486.5714133126395,516.5714276177542,3743.2,486.5714133126395,516.5714276177542,3853.4,486.5714133126395,516.5714276177542,3954.8,486.5714133126395,516.5714276177542,4059.5,486.5714133126395,516.5714276177542,4159.8,486.5714133126395,516.5714276177542,4259.8,486.5714133126395,516.5714276177542,4366,486.5714133126395,515.3214276177542,4470.1,486.5714133126395,511.57142761775424,4574.9,486.5714133126395,511.57142761775424,4684.4,486.5714133126395,511.57142761775424,4785.8,486.5714133126395,511.57142761775424,4886.4,486.5714133126395,511.57142761775424,4989.4]","[1390.6,1390.6,1000,0,390.6,""oops"",""right"",""down"",""bad_move"",3350.3,1959.3,1516.5,1391,442.9,""smooth"",""right"",""right"",""good_move"",5790.2,2439.5,2096.5,3350.7,343,""oops"",""up"",""right"",""good_move"",11446.3,5655.9,2012.7,9018.7,414.9,""oops"",""up"",""down"",""bad_move"",14214.3,2767.6,2355.9,11446.7,411.7,""smooth"",""up"",""up"",""good_move"",20886.4,6671.7,2841,17754.2,291.2,""while_blue"",""up"",""down"",""bad_move"",23742.4,2855.7,2461.5,20886.7,394.2,""oops"",""up"",""down"",""bad_move"",25142.5,1399.9,2376.9,23742.6,-977,""error"",""-"",""-"",""no_move""]"
"2268","","<div style=""width:500px;"">
  <p>What determined the result of this run?</p>
  </div>","36","html-slider-response","54","1041666","0.0-7.0-1.8","68","1","2025-07-30 08:57:55","36c45c0696341be0efffe67d72a12abb","79.166.198.129","Mozilla/5.0 (Windows NT 10.0; Win64; x64) AppleWebKit/537.36 (KHTML, like Gecko) Chrome/138.0.0.0 Safari/537.36","WebKit","Chrome","138.0.0.0","Windows","10.0","https://app.prolific.com/","el-GR,el;q=0.9,en;q=0.8","60a0dfc6f9936b0d30dfea15","687a19d2168e237449fb8af4","6889de1b0290f924a198707d","0","60a0dfc6f9936b0d30dfea15","0","2025-07-30T09:15:21.548Z","","","","AttribQ","","","","","","","","","","","50","","","","","","","","","","","","","","","","","","","","","","","","","","",""
"3959","","<div style=""width:500px;"">
  <p>How much control did you have over the ball?</p>
  </div>","26","html-slider-response","55","1045626","0.0-7.0-2.8","68","1","2025-07-30 08:57:55","36c45c0696341be0efffe67d72a12abb","79.166.198.129","Mozilla/5.0 (Windows NT 10.0; Win64; x64) AppleWebKit/537.36 (KHTML, like Gecko) Chrome/138.0.0.0 Safari/537.36","WebKit","Chrome","138.0.0.0","Windows","10.0","https://app.prolific.com/","el-GR,el;q=0.9,en;q=0.8","60a0dfc6f9936b0d30dfea15","687a19d2168e237449fb8af4","6889de1b0290f924a198707d","0","60a0dfc6f9936b0d30dfea15","0","2025-07-30T09:15:25.508Z","","","","ControlQ","","","","","","","","","","","50","","","","","","","","","","","","","","","","","","","","","","","","","","",""
"1711","","<div style=""width:500px;"">
  <p>How would you describe your current emotional state?</p>
  </div>","56","html-slider-response","56","1047338","0.0-7.0-3.8","68","1","2025-07-30 08:57:55","36c45c0696341be0efffe67d72a12abb","79.166.198.129","Mozilla/5.0 (Windows NT 10.0; Win64; x64) AppleWebKit/537.36 (KHTML, like Gecko) Chrome/138.0.0.0 Safari/537.36","WebKit","Chrome","138.0.0.0","Windows","10.0","https://app.prolific.com/","el-GR,el;q=0.9,en;q=0.8","60a0dfc6f9936b0d30dfea15","687a19d2168e237449fb8af4","6889de1b0290f924a198707d","0","60a0dfc6f9936b0d30dfea15","0","2025-07-30T09:15:27.220Z","","","","StressQ","","","","","","","","","","","50","","","","","","","","","","","","","","","","","","","","","","","","","","",""
"2207","","<div style=""width:500px;"">
  <p>What best describes how you currently feel?</p>
  </div>","39","html-slider-response","57","1049547","0.0-7.0-4.8","68","1","2025-07-30 08:57:55","36c45c0696341be0efffe67d72a12abb","79.166.198.129","Mozilla/5.0 (Windows NT 10.0; Win64; x64) AppleWebKit/537.36 (KHTML, like Gecko) Chrome/138.0.0.0 Safari/537.36","WebKit","Chrome","138.0.0.0","Windows","10.0","https://app.prolific.com/","el-GR,el;q=0.9,en;q=0.8","60a0dfc6f9936b0d30dfea15","687a19d2168e237449fb8af4","6889de1b0290f924a198707d","0","60a0dfc6f9936b0d30dfea15","0","2025-07-30T09:15:29.429Z","","","","MotivationQ","","","","","","","","","","","50","","","","","","","","","","","","","","","","","","","","","","","","","","",""
"","","","","ctl-task-cpt","58","1093271","0.0-7.0-0.9","68","1","2025-07-30 08:57:55","36c45c0696341be0efffe67d72a12abb","79.166.198.129","Mozilla/5.0 (Windows NT 10.0; Win64; x64) AppleWebKit/537.36 (KHTML, like Gecko) Chrome/138.0.0.0 Safari/537.36","WebKit","Chrome","138.0.0.0","Windows","10.0","https://app.prolific.com/","el-GR,el;q=0.9,en;q=0.8","60a0dfc6f9936b0d30dfea15","687a19d2168e237449fb8af4","6889de1b0290f924a198707d","0","60a0dfc6f9936b0d30dfea15","0","2025-07-30T09:16:13.153Z","","","","","","","","","","","","","","","","win-only","1","g1:NE,g2:SW","0.5","10","0","1055786.4","822.5","5826.9","40705.3","1","4","8","6","1","-1","-3","8","11","0.06060606060606061","5004.4","3000","-3015","[""up"",""right""]","{""num_key_presses"":9,""num_perfect"":4,""num_errors"":2,""num_randdir"":3,""num_randdir_good_moves"":1,""num_whilered"":0,""num_whileblue"":2,""num_blue"":4,""num_good_moves"":5}","[420.3214133126395,406.57142761775424,0.3,420.3214133126395,406.57142761775424,106.4,421.5714133126395,406.57142761775424,206.8,421.5714133126395,410.32142761775424,309.4,421.5714133126395,410.32142761775424,414.2,421.5714133126395,410.32142761775424,518.9,421.5714133126395,410.32142761775424,622,421.5714133126395,410.32142761775424,723.6,421.5714133126395,415.32142761775424,824.6,421.5714133126395,415.32142761775424,925.9,421.5714133126395,415.32142761775424,1028.5,421.5714133126395,415.32142761775424,1133.2,421.5714133126395,415.32142761775424,1233.6,425.3214133126395,419.07142761775424,1334,425.3214133126395,419.07142761775424,1434.2,425.3214133126395,419.07142761775424,1534.5,425.3214133126395,419.07142761775424,1637.3,436.5714133126395,431.57142761775424,1741.9,436.5714133126395,431.57142761775424,1843.4,436.5714133126395,431.57142761775424,1944.3,436.5714133126395,431.57142761775424,2044.3,436.5714133126395,431.57142761775424,2144.3,436.5714133126395,431.57142761775424,2249.2,436.5714133126395,431.57142761775424,2356.7,436.5714133126395,431.57142761775424,2459.2,436.5714133126395,431.57142761775424,2562.9,436.5714133126395,431.57142761775424,2667.9,435.3214133126395,444.07142761775424,2768.4,432.8214133126395,506.57142761775424,2871,442.8214133126395,530.3214276177542,2972.6,461.5714133126395,552.8214276177542,3080.2,461.5714133126395,552.8214276177542,3185.3,464.0714133126395,550.3214276177542,3291.1,466.5714133126395,542.8214276177542,3392.6,467.8214133126395,536.5714276177542,3492.9,467.8214133126395,536.5714276177542,3593.4,467.8214133126395,536.5714276177542,3698,467.8214133126395,536.5714276177542,3798.5,469.0714133126395,534.0714276177542,3903.2,469.0714133126395,534.0714276177542,4004,469.0714133126395,534.0714276177542,4105.6,469.0714133126395,534.0714276177542,4209.3,469.0714133126395,534.0714276177542,4314.1,469.0714133126395,534.0714276177542,4419.3,469.0714133126395,534.0714276177542,4526.2,469.0714133126395,534.0714276177542,4628.4,469.0714133126395,534.0714276177542,4729.2,469.0714133126395,534.0714276177542,4829.2,469.0714133126395,534.0714276177542,4933.9]","[1432.5,1432.5,1000,0,432.5,""smooth"",""right"",""right"",""good_move"",7944.3,6511.4,2123.5,5394.5,426.3,""smooth"",""right"",""right"",""good_move"",10656,2711.4,2326.7,7944.6,384.7,""smooth"",""up"",""up"",""good_move"",13392.2,2735.8,2363.8,10656.4,372,""oops"",""up"",""left"",""bad_move"",16488.1,3095.6,2726.7,13392.5,368.9,""oops"",""up"",""down"",""bad_move"",18496,2007.7,1599.1,16488.3,408.6,""oops"",""up"",""right"",""good_move"",21912,3415.7,3082.6,18496.3,333.1,""smooth"",""up"",""up"",""good_move"",25024.4,3112.1,2874,21912.3,238.1,""while_blue"",""up"",""down"",""bad_move"",27575.9,2551.1,2218.4,25024.8,332.7,""while_blue"",""up"",""down"",""bad_move""]"
"2681","","<div style=""width:500px;"">
  <p>What determined the result of this run?</p>
  </div>","30","html-slider-response","59","1095953","0.0-7.0-1.9","68","1","2025-07-30 08:57:55","36c45c0696341be0efffe67d72a12abb","79.166.198.129","Mozilla/5.0 (Windows NT 10.0; Win64; x64) AppleWebKit/537.36 (KHTML, like Gecko) Chrome/138.0.0.0 Safari/537.36","WebKit","Chrome","138.0.0.0","Windows","10.0","https://app.prolific.com/","el-GR,el;q=0.9,en;q=0.8","60a0dfc6f9936b0d30dfea15","687a19d2168e237449fb8af4","6889de1b0290f924a198707d","0","60a0dfc6f9936b0d30dfea15","0","2025-07-30T09:16:15.835Z","","","","AttribQ","","","","","","","","","","","50","","","","","","","","","","","","","","","","","","","","","","","","","","",""
"2906","","<div style=""width:500px;"">
  <p>How much control did you have over the ball?</p>
  </div>","31","html-slider-response","60","1098860","0.0-7.0-2.9","68","1","2025-07-30 08:57:55","36c45c0696341be0efffe67d72a12abb","79.166.198.129","Mozilla/5.0 (Windows NT 10.0; Win64; x64) AppleWebKit/537.36 (KHTML, like Gecko) Chrome/138.0.0.0 Safari/537.36","WebKit","Chrome","138.0.0.0","Windows","10.0","https://app.prolific.com/","el-GR,el;q=0.9,en;q=0.8","60a0dfc6f9936b0d30dfea15","687a19d2168e237449fb8af4","6889de1b0290f924a198707d","0","60a0dfc6f9936b0d30dfea15","0","2025-07-30T09:16:18.742Z","","","","ControlQ","","","","","","","","","","","50","","","","","","","","","","","","","","","","","","","","","","","","","","",""
"2215","","<div style=""width:500px;"">
  <p>How would you describe your current emotional state?</p>
  </div>","65","html-slider-response","61","1101076","0.0-7.0-3.9","68","1","2025-07-30 08:57:55","36c45c0696341be0efffe67d72a12abb","79.166.198.129","Mozilla/5.0 (Windows NT 10.0; Win64; x64) AppleWebKit/537.36 (KHTML, like Gecko) Chrome/138.0.0.0 Safari/537.36","WebKit","Chrome","138.0.0.0","Windows","10.0","https://app.prolific.com/","el-GR,el;q=0.9,en;q=0.8","60a0dfc6f9936b0d30dfea15","687a19d2168e237449fb8af4","6889de1b0290f924a198707d","0","60a0dfc6f9936b0d30dfea15","0","2025-07-30T09:16:20.959Z","","","","StressQ","","","","","","","","","","","50","","","","","","","","","","","","","","","","","","","","","","","","","","",""
"1607","","<div style=""width:500px;"">
  <p>What best describes how you currently feel?</p>
  </div>","23","html-slider-response","62","1102685","0.0-7.0-4.9","68","1","2025-07-30 08:57:55","36c45c0696341be0efffe67d72a12abb","79.166.198.129","Mozilla/5.0 (Windows NT 10.0; Win64; x64) AppleWebKit/537.36 (KHTML, like Gecko) Chrome/138.0.0.0 Safari/537.36","WebKit","Chrome","138.0.0.0","Windows","10.0","https://app.prolific.com/","el-GR,el;q=0.9,en;q=0.8","60a0dfc6f9936b0d30dfea15","687a19d2168e237449fb8af4","6889de1b0290f924a198707d","0","60a0dfc6f9936b0d30dfea15","0","2025-07-30T09:16:22.567Z","","","","MotivationQ","","","","","","","","","","","50","","","","","","","","","","","","","","","","","","","","","","","","","","",""
"","","","","ctl-task-cpt","63","1129951","0.0-7.0-0.10","68","1","2025-07-30 08:57:55","36c45c0696341be0efffe67d72a12abb","79.166.198.129","Mozilla/5.0 (Windows NT 10.0; Win64; x64) AppleWebKit/537.36 (KHTML, like Gecko) Chrome/138.0.0.0 Safari/537.36","WebKit","Chrome","138.0.0.0","Windows","10.0","https://app.prolific.com/","el-GR,el;q=0.9,en;q=0.8","60a0dfc6f9936b0d30dfea15","687a19d2168e237449fb8af4","6889de1b0290f924a198707d","0","60a0dfc6f9936b0d30dfea15","0","2025-07-30T09:16:49.833Z","","","","","","","","","","","","","","","","win-only","3","g1:SW,g2:NE","0.6","11","0","1108924.7","645.5","5648.9","24248.1","1","4","4","6","2","4","4","12","8","0.09090909090909091","5003.4","3000","785","[""up"",""right""]","{""num_key_presses"":6,""num_perfect"":4,""num_errors"":0,""num_randdir"":2,""num_randdir_good_moves"":2,""num_whilered"":0,""num_whileblue"":0,""num_blue"":1,""num_good_moves"":6}","[421.5714133126395,426.57142761775424,0.2,421.5714133126395,424.07142761775424,100.8,421.5714133126395,422.82142761775424,206.3,421.5714133126395,422.82142761775424,310.5,421.5714133126395,422.82142761775424,414.1,421.5714133126395,422.82142761775424,514.7,421.5714133126395,422.82142761775424,615.2,421.5714133126395,422.82142761775424,720.3,422.8214133126395,422.82142761775424,820.5,422.8214133126395,422.82142761775424,921.7,421.5714133126395,426.57142761775424,1025,420.3214133126395,426.57142761775424,1128.7,417.8214133126395,429.07142761775424,1229.9,420.3214133126395,437.82142761775424,1334.9,420.3214133126395,439.07142761775424,1435,420.3214133126395,439.07142761775424,1535.3,420.3214133126395,431.57142761775424,1635.5,416.5714133126395,402.82142761775424,1741.3,416.5714133126395,401.57142761775424,1850.6,420.3214133126395,415.32142761775424,1962.8,419.0714133126395,415.32142761775424,2065,406.5714133126395,409.07142761775424,2165.8,400.3214133126395,459.07142761775424,2266,402.8214133126395,495.32142761775424,2369.9,415.3214133126395,504.07142761775424,2470.7,422.8214133126395,511.57142761775424,2593.4,427.8214133126395,511.57142761775424,2695.6,432.8214133126395,509.07142761775424,2800.7,435.3214133126395,502.82142761775424,2916.5,432.8214133126395,492.82142761775424,3020.6,432.8214133126395,492.82142761775424,3126.2,432.8214133126395,492.82142761775424,3237.4,432.8214133126395,492.82142761775424,3340.4,432.8214133126395,492.82142761775424,3445.5,432.8214133126395,492.82142761775424,3549.8,432.8214133126395,492.82142761775424,3651.3,432.8214133126395,492.82142761775424,3755.1,432.8214133126395,492.82142761775424,3855.8,432.8214133126395,492.82142761775424,3960,432.8214133126395,492.82142761775424,4060.4,432.8214133126395,492.82142761775424,4166.6,432.8214133126395,492.82142761775424,4269,432.8214133126395,492.82142761775424,4371.7,432.8214133126395,492.82142761775424,4475.4,432.8214133126395,492.82142761775424,4575.4,432.8214133126395,492.82142761775424,4683.1,432.8214133126395,492.82142761775424,4785.7,432.8214133126395,492.82142761775424,4903.1]","[1431.9,1431.9,1000,0,431.9,""oops"",""right"",""up"",""good_move"",7226.8,5794.5,2549.5,4292.8,384.5,""oops"",""right"",""right"",""good_move"",9535.2,2308.1,1824.6,7227.1,483.5,""smooth"",""right"",""right"",""good_move"",12091,2555.5,2196.6,9535.5,358.9,""smooth"",""up"",""up"",""good_move"",14775.9,2684.5,2306.9,12091.4,377.6,""smooth"",""right"",""right"",""good_move"",18482.8,3706.7,3321.5,14776.1,385.2,""smooth"",""up"",""up"",""good_move""]"
"3411","","<div style=""width:500px;"">
  <p>What determined the result of this run?</p>
  </div>","62","html-slider-response","64","1133363","0.0-7.0-1.10","68","1","2025-07-30 08:57:55","36c45c0696341be0efffe67d72a12abb","79.166.198.129","Mozilla/5.0 (Windows NT 10.0; Win64; x64) AppleWebKit/537.36 (KHTML, like Gecko) Chrome/138.0.0.0 Safari/537.36","WebKit","Chrome","138.0.0.0","Windows","10.0","https://app.prolific.com/","el-GR,el;q=0.9,en;q=0.8","60a0dfc6f9936b0d30dfea15","687a19d2168e237449fb8af4","6889de1b0290f924a198707d","0","60a0dfc6f9936b0d30dfea15","0","2025-07-30T09:16:53.245Z","","","","AttribQ","","","","","","","","","","","50","","","","","","","","","","","","","","","","","","","","","","","","","","",""
"1751","","<div style=""width:500px;"">
  <p>How much control did you have over the ball?</p>
  </div>","66","html-slider-response","65","1135115","0.0-7.0-2.10","68","1","2025-07-30 08:57:55","36c45c0696341be0efffe67d72a12abb","79.166.198.129","Mozilla/5.0 (Windows NT 10.0; Win64; x64) AppleWebKit/537.36 (KHTML, like Gecko) Chrome/138.0.0.0 Safari/537.36","WebKit","Chrome","138.0.0.0","Windows","10.0","https://app.prolific.com/","el-GR,el;q=0.9,en;q=0.8","60a0dfc6f9936b0d30dfea15","687a19d2168e237449fb8af4","6889de1b0290f924a198707d","0","60a0dfc6f9936b0d30dfea15","0","2025-07-30T09:16:54.997Z","","","","ControlQ","","","","","","","","","","","50","","","","","","","","","","","","","","","","","","","","","","","","","","",""
"1532","","<div style=""width:500px;"">
  <p>How would you describe your current emotional state?</p>
  </div>","67","html-slider-response","66","1136648","0.0-7.0-3.10","68","1","2025-07-30 08:57:55","36c45c0696341be0efffe67d72a12abb","79.166.198.129","Mozilla/5.0 (Windows NT 10.0; Win64; x64) AppleWebKit/537.36 (KHTML, like Gecko) Chrome/138.0.0.0 Safari/537.36","WebKit","Chrome","138.0.0.0","Windows","10.0","https://app.prolific.com/","el-GR,el;q=0.9,en;q=0.8","60a0dfc6f9936b0d30dfea15","687a19d2168e237449fb8af4","6889de1b0290f924a198707d","0","60a0dfc6f9936b0d30dfea15","0","2025-07-30T09:16:56.530Z","","","","StressQ","","","","","","","","","","","50","","","","","","","","","","","","","","","","","","","","","","","","","","",""
"2208","","<div style=""width:500px;"">
  <p>What best describes how you currently feel?</p>
  </div>","66","html-slider-response","67","1138858","0.0-7.0-4.10","68","1","2025-07-30 08:57:55","36c45c0696341be0efffe67d72a12abb","79.166.198.129","Mozilla/5.0 (Windows NT 10.0; Win64; x64) AppleWebKit/537.36 (KHTML, like Gecko) Chrome/138.0.0.0 Safari/537.36","WebKit","Chrome","138.0.0.0","Windows","10.0","https://app.prolific.com/","el-GR,el;q=0.9,en;q=0.8","60a0dfc6f9936b0d30dfea15","687a19d2168e237449fb8af4","6889de1b0290f924a198707d","0","60a0dfc6f9936b0d30dfea15","0","2025-07-30T09:16:58.740Z","","","","MotivationQ","","","","","","","","","","","50","","","","","","","","","","","","","","","","","","","","","","","","","","",""
"","","","","ctl-task-cpt","68","1194715","0.0-7.0-0.11","68","1","2025-07-30 08:57:55","36c45c0696341be0efffe67d72a12abb","79.166.198.129","Mozilla/5.0 (Windows NT 10.0; Win64; x64) AppleWebKit/537.36 (KHTML, like Gecko) Chrome/138.0.0.0 Safari/537.36","WebKit","Chrome","138.0.0.0","Windows","10.0","https://app.prolific.com/","el-GR,el;q=0.9,en;q=0.8","60a0dfc6f9936b0d30dfea15","687a19d2168e237449fb8af4","6889de1b0290f924a198707d","0","60a0dfc6f9936b0d30dfea15","0","2025-07-30T09:17:54.597Z","","","","","","","","","","","","","","","","win-only","3","g1:SW,g2:NE","0.7","12","0","1145097.5","743.2","5746.8","52837.1","1","4","8","6","2","-8","-13","0","12","0","5003.6","3000","-2955","[""up"",""right""]","{""num_key_presses"":18,""num_perfect"":5,""num_errors"":5,""num_randdir"":3,""num_randdir_good_moves"":1,""num_whilered"":5,""num_whileblue"":2,""num_blue"":5,""num_good_moves"":7}","[425.3214133126395,419.07142761775424,0.2,425.3214133126395,419.07142761775424,110.4,425.3214133126395,419.07142761775424,213.4,425.3214133126395,419.07142761775424,314,425.3214133126395,419.07142761775424,417,425.3214133126395,419.07142761775424,522.9,425.3214133126395,419.07142761775424,629.1,425.3214133126395,419.07142761775424,732.3,425.3214133126395,419.07142761775424,833.2,425.3214133126395,419.07142761775424,937.3,425.3214133126395,419.07142761775424,1057.4,425.3214133126395,419.07142761775424,1163.5,425.3214133126395,419.07142761775424,1267.3,425.3214133126395,419.07142761775424,1367.6,425.3214133126395,417.82142761775424,1468.1,421.5714133126395,420.32142761775424,1572.2,420.3214133126395,416.57142761775424,1672.6,419.0714133126395,505.32142761775424,1778.2,421.5714133126395,520.3214276177542,1878.2,421.5714133126395,549.0714276177542,1983.2,422.8214133126395,559.0714276177542,2087.1,425.3214133126395,561.5714276177542,2187.7,444.0714133126395,496.57142761775424,2290.8,445.3214133126395,481.57142761775424,2393.5,445.3214133126395,434.07142761775424,2498.7,436.5714133126395,392.82142761775424,2603.6,436.5714133126395,366.57142761775424,2707.8,436.5714133126395,351.57142761775424,2808.7,436.5714133126395,347.82142761775424,2912.9,436.5714133126395,347.82142761775424,3013,436.5714133126395,347.82142761775424,3117.6,376.5714133126395,360.32142761775424,3218.3,376.5714133126395,361.57142761775424,3340.8,376.5714133126395,361.57142761775424,3451.2,376.5714133126395,361.57142761775424,3551.6,376.5714133126395,361.57142761775424,3652.9,376.5714133126395,361.57142761775424,3767.1,376.5714133126395,361.57142761775424,3867.9,376.5714133126395,361.57142761775424,3973.4,376.5714133126395,361.57142761775424,4078.5,376.5714133126395,361.57142761775424,4183.6,376.5714133126395,361.57142761775424,4305.5,376.5714133126395,361.57142761775424,4407.4,376.5714133126395,361.57142761775424,4512.2,376.5714133126395,361.57142761775424,4612.2,376.5714133126395,361.57142761775424,4716,376.5714133126395,361.57142761775424,4817.9,376.5714133126395,361.57142761775424,4932.3]","[1416.6,1416.6,1000,0,416.6,""smooth"",""right"",""right"",""good_move"",4793,3376,2965.4,1417,410.6,""oops"",""right"",""left"",""bad_move"",10936.3,6143,2474.9,8164.9,296.5,""while_blue"",""right"",""up"",""good_move"",17536.4,6599.8,2566.2,14530.4,439.8,""smooth"",""right"",""right"",""good_move"",20616.3,3079.5,2655.1,17536.8,424.4,""smooth"",""right"",""right"",""good_move"",23655.9,3039.5,2580.7,20616.6,458.7,""smooth"",""right"",""right"",""good_move"",26632.1,2976,2653.6,23656.1,322.4,""while_blue"",""up"",""left"",""bad_move"",32800.2,6167.8,1942.4,30454.8,403.1,""smooth"",""up"",""up"",""good_move"",35904.2,3103.7,2741.2,32800.5,362.5,""oops"",""up"",""up"",""good_move"",38832,2927.5,2619.1,35904.5,308.4,""oops"",""right"",""down"",""bad_move"",41128,2295.7,2618.9,38832.3,-323.2,""error"",""-"",""-"",""no_move"",41224,95.8,2618.9,38832.3,-227.2,""while_red"",""-"",""-"",""no_move"",41384.1,255.9,2618.9,38832.3,-67.1,""while_red"",""-"",""-"",""no_move"",41592.2,464,2618.9,38832.3,141,""while_red"",""-"",""-"",""no_move"",42336,1207.8,2942.6,42129,-2735.6,""error"",""-"",""-"",""no_move"",42464,127.8,2942.6,42129,-2607.6,""while_red"",""-"",""-"",""no_move"",42655.9,319.7,2942.6,42129,-2415.7,""while_red"",""-"",""-"",""no_move"",43880.2,1544,2154.1,43343.7,-1617.6,""error"",""-"",""-"",""no_move""]"
"2937","","<div style=""width:500px;"">
  <p>What determined the result of this run?</p>
  </div>","30","html-slider-response","69","1197653","0.0-7.0-1.11","68","1","2025-07-30 08:57:55","36c45c0696341be0efffe67d72a12abb","79.166.198.129","Mozilla/5.0 (Windows NT 10.0; Win64; x64) AppleWebKit/537.36 (KHTML, like Gecko) Chrome/138.0.0.0 Safari/537.36","WebKit","Chrome","138.0.0.0","Windows","10.0","https://app.prolific.com/","el-GR,el;q=0.9,en;q=0.8","60a0dfc6f9936b0d30dfea15","687a19d2168e237449fb8af4","6889de1b0290f924a198707d","0","60a0dfc6f9936b0d30dfea15","0","2025-07-30T09:17:57.535Z","","","","AttribQ","","","","","","","","","","","50","","","","","","","","","","","","","","","","","","","","","","","","","","",""
"3390","","<div style=""width:500px;"">
  <p>How much control did you have over the ball?</p>
  </div>","28","html-slider-response","70","1201045","0.0-7.0-2.11","68","1","2025-07-30 08:57:55","36c45c0696341be0efffe67d72a12abb","79.166.198.129","Mozilla/5.0 (Windows NT 10.0; Win64; x64) AppleWebKit/537.36 (KHTML, like Gecko) Chrome/138.0.0.0 Safari/537.36","WebKit","Chrome","138.0.0.0","Windows","10.0","https://app.prolific.com/","el-GR,el;q=0.9,en;q=0.8","60a0dfc6f9936b0d30dfea15","687a19d2168e237449fb8af4","6889de1b0290f924a198707d","0","60a0dfc6f9936b0d30dfea15","0","2025-07-30T09:18:00.927Z","","","","ControlQ","","","","","","","","","","","50","","","","","","","","","","","","","","","","","","","","","","","","","","",""
"2184","","<div style=""width:500px;"">
  <p>How would you describe your current emotional state?</p>
  </div>","75","html-slider-response","71","1203230","0.0-7.0-3.11","68","1","2025-07-30 08:57:55","36c45c0696341be0efffe67d72a12abb","79.166.198.129","Mozilla/5.0 (Windows NT 10.0; Win64; x64) AppleWebKit/537.36 (KHTML, like Gecko) Chrome/138.0.0.0 Safari/537.36","WebKit","Chrome","138.0.0.0","Windows","10.0","https://app.prolific.com/","el-GR,el;q=0.9,en;q=0.8","60a0dfc6f9936b0d30dfea15","687a19d2168e237449fb8af4","6889de1b0290f924a198707d","0","60a0dfc6f9936b0d30dfea15","0","2025-07-30T09:18:03.113Z","","","","StressQ","","","","","","","","","","","50","","","","","","","","","","","","","","","","","","","","","","","","","","",""
"2230","","<div style=""width:500px;"">
  <p>What best describes how you currently feel?</p>
  </div>","34","html-slider-response","72","1205462","0.0-7.0-4.11","68","1","2025-07-30 08:57:55","36c45c0696341be0efffe67d72a12abb","79.166.198.129","Mozilla/5.0 (Windows NT 10.0; Win64; x64) AppleWebKit/537.36 (KHTML, like Gecko) Chrome/138.0.0.0 Safari/537.36","WebKit","Chrome","138.0.0.0","Windows","10.0","https://app.prolific.com/","el-GR,el;q=0.9,en;q=0.8","60a0dfc6f9936b0d30dfea15","687a19d2168e237449fb8af4","6889de1b0290f924a198707d","0","60a0dfc6f9936b0d30dfea15","0","2025-07-30T09:18:05.344Z","","","","MotivationQ","","","","","","","","","","","50","","","","","","","","","","","","","","","","","","","","","","","","","","",""
"","","","","ctl-task-cpt","73","1233120","0.0-7.0-0.12","68","1","2025-07-30 08:57:55","36c45c0696341be0efffe67d72a12abb","79.166.198.129","Mozilla/5.0 (Windows NT 10.0; Win64; x64) AppleWebKit/537.36 (KHTML, like Gecko) Chrome/138.0.0.0 Safari/537.36","WebKit","Chrome","138.0.0.0","Windows","10.0","https://app.prolific.com/","el-GR,el;q=0.9,en;q=0.8","60a0dfc6f9936b0d30dfea15","687a19d2168e237449fb8af4","6889de1b0290f924a198707d","0","60a0dfc6f9936b0d30dfea15","0","2025-07-30T09:18:33.002Z","","","","","","","","","","","","","","","","win-only","0","g1:NW,g2:SE","0.8","13","0","1211702.2","771.2","5776.1","24639","1","4","8","6","1","1","1","1","0","0.007575757575757576","5004.9","3000","1345","[""left"",""up""]","{""num_key_presses"":4,""num_perfect"":3,""num_errors"":0,""num_randdir"":1,""num_randdir_good_moves"":1,""num_whilered"":0,""num_whileblue"":0,""num_blue"":2,""num_good_moves"":4}","[421.5714133126395,411.57142761775424,0.1,421.5714133126395,411.57142761775424,104.1,421.5714133126395,411.57142761775424,219.8,421.5714133126395,411.57142761775424,321.9,421.5714133126395,411.57142761775424,423.9,421.5714133126395,411.57142761775424,525.4,421.5714133126395,411.57142761775424,629.5,416.5714133126395,419.07142761775424,741.6,416.5714133126395,419.07142761775424,848.6,416.5714133126395,419.07142761775424,949.9,415.3214133126395,420.32142761775424,1051.5,416.5714133126395,430.32142761775424,1154.9,426.5714133126395,439.07142761775424,1260.2,431.5714133126395,446.57142761775424,1363.6,431.5714133126395,446.57142761775424,1465.3,431.5714133126395,447.82142761775424,1569.8,426.5714133126395,459.07142761775424,1674.9,424.0714133126395,461.57142761775424,1777.6,427.8214133126395,471.57142761775424,1879.1,430.3214133126395,475.32142761775424,1994.2,437.8214133126395,475.32142761775424,2094.7,437.8214133126395,475.32142761775424,2199.9,437.8214133126395,471.57142761775424,2300.3,436.5714133126395,471.57142761775424,2405.6,431.5714133126395,536.5714276177542,2524,440.3214133126395,590.3214276177542,2632.2,440.3214133126395,590.3214276177542,2736.7,440.3214133126395,584.0714276177542,2838.9,440.3214133126395,581.5714276177542,2940.4,440.3214133126395,571.5714276177542,3046,440.3214133126395,571.5714276177542,3150,427.8214133126395,555.3214276177542,3254,424.0714133126395,547.8214276177542,3356.4,424.0714133126395,547.8214276177542,3469.7,424.0714133126395,547.8214276177542,3570.9,424.0714133126395,547.8214276177542,3674.7,424.0714133126395,547.8214276177542,3779.9,424.0714133126395,547.8214276177542,3880.4,424.0714133126395,547.8214276177542,3985.3,424.0714133126395,547.8214276177542,4085.9,424.0714133126395,547.8214276177542,4186.5,424.0714133126395,547.8214276177542,4290,424.0714133126395,547.8214276177542,4394.8,424.0714133126395,547.8214276177542,4499.9,424.0714133126395,547.8214276177542,4604.6,424.0714133126395,547.8214276177542,4704.8,424.0714133126395,547.8214276177542,4809.6,424.0714133126395,547.8214276177542,4914.6]","[1414.1,1414.1,1000,0,414.1,""smooth"",""up"",""up"",""good_move"",7997.7,6583.1,2341,5265,391.7,""oops"",""left"",""left"",""good_move"",11757.8,3759.6,3388.3,7998.2,371.3,""smooth"",""up"",""up"",""good_move"",18757.7,6999.5,2703.5,15410,644.3,""smooth"",""left"",""left"",""good_move""]"
"3418","","<div style=""width:500px;"">
  <p>What determined the result of this run?</p>
  </div>","81","html-slider-response","74","1236540","0.0-7.0-1.12","68","1","2025-07-30 08:57:55","36c45c0696341be0efffe67d72a12abb","79.166.198.129","Mozilla/5.0 (Windows NT 10.0; Win64; x64) AppleWebKit/537.36 (KHTML, like Gecko) Chrome/138.0.0.0 Safari/537.36","WebKit","Chrome","138.0.0.0","Windows","10.0","https://app.prolific.com/","el-GR,el;q=0.9,en;q=0.8","60a0dfc6f9936b0d30dfea15","687a19d2168e237449fb8af4","6889de1b0290f924a198707d","0","60a0dfc6f9936b0d30dfea15","0","2025-07-30T09:18:36.422Z","","","","AttribQ","","","","","","","","","","","50","","","","","","","","","","","","","","","","","","","","","","","","","","",""
"1841","","<div style=""width:500px;"">
  <p>How much control did you have over the ball?</p>
  </div>","80","html-slider-response","75","1238382","0.0-7.0-2.12","68","1","2025-07-30 08:57:55","36c45c0696341be0efffe67d72a12abb","79.166.198.129","Mozilla/5.0 (Windows NT 10.0; Win64; x64) AppleWebKit/537.36 (KHTML, like Gecko) Chrome/138.0.0.0 Safari/537.36","WebKit","Chrome","138.0.0.0","Windows","10.0","https://app.prolific.com/","el-GR,el;q=0.9,en;q=0.8","60a0dfc6f9936b0d30dfea15","687a19d2168e237449fb8af4","6889de1b0290f924a198707d","0","60a0dfc6f9936b0d30dfea15","0","2025-07-30T09:18:38.264Z","","","","ControlQ","","","","","","","","","","","50","","","","","","","","","","","","","","","","","","","","","","","","","","",""
"1419","","<div style=""width:500px;"">
  <p>How would you describe your current emotional state?</p>
  </div>","44","html-slider-response","76","1239802","0.0-7.0-3.12","68","1","2025-07-30 08:57:55","36c45c0696341be0efffe67d72a12abb","79.166.198.129","Mozilla/5.0 (Windows NT 10.0; Win64; x64) AppleWebKit/537.36 (KHTML, like Gecko) Chrome/138.0.0.0 Safari/537.36","WebKit","Chrome","138.0.0.0","Windows","10.0","https://app.prolific.com/","el-GR,el;q=0.9,en;q=0.8","60a0dfc6f9936b0d30dfea15","687a19d2168e237449fb8af4","6889de1b0290f924a198707d","0","60a0dfc6f9936b0d30dfea15","0","2025-07-30T09:18:39.684Z","","","","StressQ","","","","","","","","","","","50","","","","","","","","","","","","","","","","","","","","","","","","","","",""
"2201","","<div style=""width:500px;"">
  <p>What best describes how you currently feel?</p>
  </div>","42","html-slider-response","77","1242004","0.0-7.0-4.12","68","1","2025-07-30 08:57:55","36c45c0696341be0efffe67d72a12abb","79.166.198.129","Mozilla/5.0 (Windows NT 10.0; Win64; x64) AppleWebKit/537.36 (KHTML, like Gecko) Chrome/138.0.0.0 Safari/537.36","WebKit","Chrome","138.0.0.0","Windows","10.0","https://app.prolific.com/","el-GR,el;q=0.9,en;q=0.8","60a0dfc6f9936b0d30dfea15","687a19d2168e237449fb8af4","6889de1b0290f924a198707d","0","60a0dfc6f9936b0d30dfea15","0","2025-07-30T09:18:41.886Z","","","","MotivationQ","","","","","","","","","","","50","","","","","","","","","","","","","","","","","","","","","","","","","","",""
