"rt","response_timestamp","stimulus","response","trial_type","trial_index","time_elapsed","internal_node_id","run_id","condition","recorded_at","source_code_version","ip","user_agent","device","browser","browser_version","platform","platform_version","referer","accept_language","PROLIFIC_PID","STUDY_ID","SESSION_ID","BATCH","prolific_id","batch","realtime","success","question_order","question_id","eventType","responses","item_order","radio_event_ids","radio_event_times","key_event_times","mouse_event_times","straightlining","zigzagging","honeypot","view_history","slider_start","which_type","canvas_config","goals_layout","control_level","trial_number","tutorial_trial_number","trial_start_time","phase1_start_time","phase2_start_time","phase3_start_time","goal_1_value","goal_1_distance","goal_2_value","goal_2_distance","goal_selected","outcome","outcome_total","participant_final_score","participant_initial_score","participant_final_score_prop","goal_choice_rt","allocated_time","allocated_time_remaining","goal_direction","counts","mouse_movements","key_presses"
"4372","1753967549453","<p style='font-size:40px;line-height:1.25'><strong>Welcome to the experiment!</strong></p><p style='font-size:1.1em;line-height:1.25'>Thank you for participanting in our experiment again! You will be asked to play the Dysfunctional Ball Game again. We will briefly recap the rules before we start.</p><p style='font-size:1.1em;line-height:1.25'>Press <strong>Next</strong> to continue.</p>","0","custom-html-button-response","0","4375","0.0-0.0","112","1","2025-07-31 13:12:22","36c45c0696341be0efffe67d72a12abb","41.145.209.151","Mozilla/5.0 (Windows NT 10.0; Win64; x64) AppleWebKit/537.36 (KHTML, like Gecko) Chrome/138.0.0.0 Safari/537.36","WebKit","Chrome","138.0.0.0","Windows","10.0","https://app.prolific.com/","en-US,en;q=0.9","60a50457d02bfc23c02d4717","683dba9a53627eb9ab41b36a","688b6ba7e4fb3f3b871a32b2","0","60a50457d02bfc23c02d4717","0","2025-07-31T13:12:29.455Z","","","","","","","","","","","","","","","","","","","","","","","","","","","","","","","","","","","","","","","","","",""
"50669","","","","fullscreen","1","56052","0.0-1.0","112","1","2025-07-31 13:12:22","36c45c0696341be0efffe67d72a12abb","41.145.209.151","Mozilla/5.0 (Windows NT 10.0; Win64; x64) AppleWebKit/537.36 (KHTML, like Gecko) Chrome/138.0.0.0 Safari/537.36","WebKit","Chrome","138.0.0.0","Windows","10.0","https://app.prolific.com/","en-US,en;q=0.9","60a50457d02bfc23c02d4717","683dba9a53627eb9ab41b36a","688b6ba7e4fb3f3b871a32b2","0","60a50457d02bfc23c02d4717","0","","true","","","","","","","","","","","","","","","","","","","","","","","","","","","","","","","","","","","","","","","","",""
"8836","1753967609969"," <p style='font-size:1.1em;line-height:1.25'>Thank you for closing all other tabs.</p><p style='font-size:1.1em;line-height:1.25'>We will now invite you to fill in some questionnaires, before starting the game.<br>This will take about 5 minutes.<br></p><p style='font-size:1.1em;line-height:1.25'>Press the <strong>Next</strong> button to continue.</p>","0","custom-html-button-response","2","64891","0.0-2.0","112","1","2025-07-31 13:12:22","36c45c0696341be0efffe67d72a12abb","41.145.209.151","Mozilla/5.0 (Windows NT 10.0; Win64; x64) AppleWebKit/537.36 (KHTML, like Gecko) Chrome/138.0.0.0 Safari/537.36","WebKit","Chrome","138.0.0.0","Windows","10.0","https://app.prolific.com/","en-US,en;q=0.9","60a50457d02bfc23c02d4717","683dba9a53627eb9ab41b36a","688b6ba7e4fb3f3b871a32b2","0","60a50457d02bfc23c02d4717","0","2025-07-31T13:13:29.971Z","","","","","","","","","","","","","","","","","","","","","","","","","","","","","","","","","","","","","","","","","",""
"5600","","","{""assigned_sex"":""female""}","survey-multi-choice","3","70497","0.0-3.0-0.0","112","1","2025-07-31 13:12:22","36c45c0696341be0efffe67d72a12abb","41.145.209.151","Mozilla/5.0 (Windows NT 10.0; Win64; x64) AppleWebKit/537.36 (KHTML, like Gecko) Chrome/138.0.0.0 Safari/537.36","WebKit","Chrome","138.0.0.0","Windows","10.0","https://app.prolific.com/","en-US,en;q=0.9","60a50457d02bfc23c02d4717","683dba9a53627eb9ab41b36a","688b6ba7e4fb3f3b871a32b2","0","60a50457d02bfc23c02d4717","0","","","[0]","0","demographics","","","","","","","","","","","","","","","","","","","","","","","","","","","","","","","","","","","","","",""
"5706","1753967621285","<p style='font-size:1.1em;line-height:1.25'>In the following, we will perform a baseline assessment. This means that we will ask you a few questions relating to your experiences over the past month.<br></p><p style='font-size:1.1em;line-height:1.25'>Press the <strong>Next</strong> button to continue.</p>","0","custom-html-button-response","4","76206","0.0-4.0-0.0","112","1","2025-07-31 13:12:22","36c45c0696341be0efffe67d72a12abb","41.145.209.151","Mozilla/5.0 (Windows NT 10.0; Win64; x64) AppleWebKit/537.36 (KHTML, like Gecko) Chrome/138.0.0.0 Safari/537.36","WebKit","Chrome","138.0.0.0","Windows","10.0","https://app.prolific.com/","en-US,en;q=0.9","60a50457d02bfc23c02d4717","683dba9a53627eb9ab41b36a","688b6ba7e4fb3f3b871a32b2","0","60a50457d02bfc23c02d4717","0","2025-07-31T13:13:41.286Z","","","","","","","","","","","","","","","","","","","","","","","","","","","","","","","","","","","","","","","","","",""
"69903","","","","survey-template","5","146118","0.0-4.0-1.0","112","1","2025-07-31 13:12:22","36c45c0696341be0efffe67d72a12abb","41.145.209.151","Mozilla/5.0 (Windows NT 10.0; Win64; x64) AppleWebKit/537.36 (KHTML, like Gecko) Chrome/138.0.0.0 Safari/537.36","WebKit","Chrome","138.0.0.0","Windows","10.0","https://app.prolific.com/","en-US,en;q=0.9","60a50457d02bfc23c02d4717","683dba9a53627eb9ab41b36a","688b6ba7e4fb3f3b871a32b2","0","60a50457d02bfc23c02d4717","0","2025-07-31T13:14:51.198Z","","","","pss","{""Q01"":""1"",""Q02"":""3"",""Q03"":""4"",""Q04"":""3"",""Q05"":""2"",""Q06"":""3"",""Q07"":""1"",""Q08"":""2"",""Q09"":""1"",""Q10"":""4""}","[0,1,2,3,4,5,6,7,8,9]","[""Q01"",""Q01"",""Q02"",""Q03"",""Q04"",""Q05"",""Q05"",""Q06"",""Q07"",""Q06"",""Q08"",""Q08"",""Q09"",""Q09"",""Q10""]","[6163.600000143051,10005.200000047684,15819.5,19300.400000095367,28891.299999952316,34276.90000009537,37580.799999952316,43901.10000014305,50636.799999952316,51939.200000047684,55428.799999952316,57148.90000009537,62068.700000047684,64016.60000014305,69259.10000014305]","[]","[0.2999999523162842,6163.600000143051,10005.200000047684,15819.5,18755.10000014305,19300.400000095367,28891.299999952316,34276.90000009537,37012.60000014305,37580.799999952316,43901.10000014305,50636.799999952316,51939.200000047684,55428.799999952316,57148.90000009537,62068.700000047684,64016.60000014305,69259.10000014305,69892.90000009537]","0.3","0.5555555555555556","0","","","","","","","","","","","","","","","","","","","","","","","","","","","","",""
"2444","1753967693645","<p style='font-size:1.1em;line-height:1.25'>Thank you for your answers! Now we will ask you a few more questions relating to your feelings in the last 24 hours.<br></p><p style='font-size:1.1em;line-height:1.25'>Press the <strong>Next</strong> button to continue.</p>","0","custom-html-button-response","6","148565","0.0-4.0-2.0","112","1","2025-07-31 13:12:22","36c45c0696341be0efffe67d72a12abb","41.145.209.151","Mozilla/5.0 (Windows NT 10.0; Win64; x64) AppleWebKit/537.36 (KHTML, like Gecko) Chrome/138.0.0.0 Safari/537.36","WebKit","Chrome","138.0.0.0","Windows","10.0","https://app.prolific.com/","en-US,en;q=0.9","60a50457d02bfc23c02d4717","683dba9a53627eb9ab41b36a","688b6ba7e4fb3f3b871a32b2","0","60a50457d02bfc23c02d4717","0","2025-07-31T13:14:53.645Z","","","","","","","","","","","","","","","","","","","","","","","","","","","","","","","","","","","","","","","","","",""
"138811.30000019073","","","","survey-template","7","287389","0.0-4.0-3.0","112","1","2025-07-31 13:12:22","36c45c0696341be0efffe67d72a12abb","41.145.209.151","Mozilla/5.0 (Windows NT 10.0; Win64; x64) AppleWebKit/537.36 (KHTML, like Gecko) Chrome/138.0.0.0 Safari/537.36","WebKit","Chrome","138.0.0.0","Windows","10.0","https://app.prolific.com/","en-US,en;q=0.9","60a50457d02bfc23c02d4717","683dba9a53627eb9ab41b36a","688b6ba7e4fb3f3b871a32b2","0","60a50457d02bfc23c02d4717","0","2025-07-31T13:17:12.469Z","","","","drsp","{""Q01"":""3"",""Q02"":""1"",""Q03"":""1"",""Q04"":""3"",""Q05"":""0"",""Q06"":""2"",""Q07"":""0"",""Q08"":""0"",""Q09"":""0"",""Q10"":""3"",""Q11"":""1"",""Q12"":""3"",""Q13"":""5"",""Q14"":""3"",""Q15"":""1"",""Q16"":""3"",""Q17"":""5"",""Q18"":""4"",""Q19"":""3"",""Q20"":""2"",""Q21"":""2"",""Q22"":""2""}","[0,1,2,3,4,5,6,7,8,9,10,11,12,13,14,15,16,17,18,19,20,21]","[""Q01"",""Q02"",""Q03"",""Q04"",""Q01"",""Q01"",""Q04"",""Q05"",""Q06"",""Q06"",""Q07"",""Q07"",""Q08"",""Q09"",""Q10"",""Q11"",""Q12"",""Q13"",""Q14"",""Q15"",""Q16"",""Q17"",""Q18"",""Q19"",""Q20"",""Q21"",""Q22""]","[3756.600000143051,5056.900000095367,7150.400000095367,10372.200000047684,12891.400000095367,14283.5,15349.600000143051,32284.300000190735,44939.700000047684,45933.60000014305,71612.70000004768,74989.10000014305,95963.10000014305,99989,102347.90000009537,105893.10000014305,111043.60000014305,114036.80000019073,116797.20000004768,119204.80000019073,122196.10000014305,124899.10000014305,127603.40000009537,130628.30000019073,134211.30000019073,135940.80000019073,137828.5]","[]","[0.20000004768371582,3099,3756.600000143051,5056.900000095367,7150.400000095367,10372.200000047684,12891.400000095367,14283.5,15349.600000143051,31844.400000095367,32284.300000190735,44939.700000047684,45933.60000014305,71612.70000004768,74989.10000014305,95963.10000014305,99180.90000009537,99989,102347.90000009537,105893.10000014305,111043.60000014305,114036.80000019073,116797.20000004768,119204.80000019073,122196.10000014305,124379.30000019073,124899.10000014305,126909,127603.40000009537,130628.30000019073,134211.30000019073,135940.80000019073,137828.5,138797.20000004768]","0.3181818181818182","0.14285714285714285","0","","","","","","","","","","","","","","","","","","","","","","","","","","","","",""
"8671.700000047684","","","","survey-template","8","296067","0.0-4.0-4.0","112","1","2025-07-31 13:12:22","36c45c0696341be0efffe67d72a12abb","41.145.209.151","Mozilla/5.0 (Windows NT 10.0; Win64; x64) AppleWebKit/537.36 (KHTML, like Gecko) Chrome/138.0.0.0 Safari/537.36","WebKit","Chrome","138.0.0.0","Windows","10.0","https://app.prolific.com/","en-US,en;q=0.9","60a50457d02bfc23c02d4717","683dba9a53627eb9ab41b36a","688b6ba7e4fb3f3b871a32b2","0","60a50457d02bfc23c02d4717","0","2025-07-31T13:17:21.147Z","","","","stress","{""Q01"":""3"",""Q02"":""4"",""Q03"":""5""}","[0,1,2]","[""Q01"",""Q02"",""Q03""]","[3980.2000000476837,5796.5,7988.799999952316]","[]","[3980.2000000476837,5796.5,7988.799999952316,8668.700000047684]","0.3333333333333333","0","0","","","","","","","","","","","","","","","","","","","","","","","","","","","","",""
"2639","","","","instructions","9","298709","0.0-5.0-0.0","112","1","2025-07-31 13:12:22","36c45c0696341be0efffe67d72a12abb","41.145.209.151","Mozilla/5.0 (Windows NT 10.0; Win64; x64) AppleWebKit/537.36 (KHTML, like Gecko) Chrome/138.0.0.0 Safari/537.36","WebKit","Chrome","138.0.0.0","Windows","10.0","https://app.prolific.com/","en-US,en;q=0.9","60a50457d02bfc23c02d4717","683dba9a53627eb9ab41b36a","688b6ba7e4fb3f3b871a32b2","0","60a50457d02bfc23c02d4717","0","","","","","","","","","","","","","","","[{""page_index"":0,""viewing_time"":2638}]","","","","","","","","","","","","","","","","","","","","","","","","","","","",""
"6103","","<p>Before you start with this game please answer the following three questions yourself. </p>
  <p>Through this game, we measure several aspects of your cognitive performance, such as reaction times, multi-tasking capabilities </p>
  <p>and the ability to assess the situation you are in.</p>
  <p></p>
  <p><b>How good do you usually are in such tasks?</b></p>","26","html-slider-response","10","304815","0.0-6.0-0.0","112","1","2025-07-31 13:12:22","36c45c0696341be0efffe67d72a12abb","41.145.209.151","Mozilla/5.0 (Windows NT 10.0; Win64; x64) AppleWebKit/537.36 (KHTML, like Gecko) Chrome/138.0.0.0 Safari/537.36","WebKit","Chrome","138.0.0.0","Windows","10.0","https://app.prolific.com/","en-US,en;q=0.9","60a50457d02bfc23c02d4717","683dba9a53627eb9ab41b36a","688b6ba7e4fb3f3b871a32b2","0","60a50457d02bfc23c02d4717","0","2025-07-31T13:17:29.896Z","","","","PreSkillQ","","","","","","","","","","","50","","","","","","","","","","","","","","","","","","","","","","","","","","",""
"3106","","<div style=""width:500px;"">
  <p>How well do you think you will perform in this task compared to other participants?</p>
  </div>","30","html-slider-response","11","307924","0.0-6.0-1.0","112","1","2025-07-31 13:12:22","36c45c0696341be0efffe67d72a12abb","41.145.209.151","Mozilla/5.0 (Windows NT 10.0; Win64; x64) AppleWebKit/537.36 (KHTML, like Gecko) Chrome/138.0.0.0 Safari/537.36","WebKit","Chrome","138.0.0.0","Windows","10.0","https://app.prolific.com/","en-US,en;q=0.9","60a50457d02bfc23c02d4717","683dba9a53627eb9ab41b36a","688b6ba7e4fb3f3b871a32b2","0","60a50457d02bfc23c02d4717","0","2025-07-31T13:17:33.004Z","","","","PrePerfQ","","","","","","","","","","","50","","","","","","","","","","","","","","","","","","","","","","","","","","",""
"2919","","<div style=""width:500px;"">
  <p>What best describes how you currently feel?</p>
  </div>","76","html-slider-response","12","310845","0.0-6.0-2.0","112","1","2025-07-31 13:12:22","36c45c0696341be0efffe67d72a12abb","41.145.209.151","Mozilla/5.0 (Windows NT 10.0; Win64; x64) AppleWebKit/537.36 (KHTML, like Gecko) Chrome/138.0.0.0 Safari/537.36","WebKit","Chrome","138.0.0.0","Windows","10.0","https://app.prolific.com/","en-US,en;q=0.9","60a50457d02bfc23c02d4717","683dba9a53627eb9ab41b36a","688b6ba7e4fb3f3b871a32b2","0","60a50457d02bfc23c02d4717","0","2025-07-31T13:17:35.925Z","","","","PreMotivationQ","","","","","","","","","","","50","","","","","","","","","","","","","","","","","","","","","","","","","","",""
"","","","","ctl-task-cpt","13","331954","0.0-7.0-0.0","112","1","2025-07-31 13:12:22","36c45c0696341be0efffe67d72a12abb","41.145.209.151","Mozilla/5.0 (Windows NT 10.0; Win64; x64) AppleWebKit/537.36 (KHTML, like Gecko) Chrome/138.0.0.0 Safari/537.36","WebKit","Chrome","138.0.0.0","Windows","10.0","https://app.prolific.com/","en-US,en;q=0.9","60a50457d02bfc23c02d4717","683dba9a53627eb9ab41b36a","688b6ba7e4fb3f3b871a32b2","0","60a50457d02bfc23c02d4717","0","2025-07-31T13:17:57.034Z","","","","","","","","","","","","","","","","win-only","1","g1:NE,g2:SW","1","1","0","317076.5","952.5","5957.4","18090.6","1","4","8","6","1","1","1","1","0","0.007575757575757576","1412.4","3000","360","[""up"",""right""]","{""num_key_presses"":4,""num_perfect"":4,""num_errors"":0,""num_randdir"":0,""num_randdir_good_moves"":0,""num_whilered"":0,""num_whileblue"":0,""num_blue"":0,""num_good_moves"":4}","[421.57142857142856,421.47767857142856,15.4,421.57142857142856,421.47767857142856,120.1,421.57142857142856,421.47767857142856,221.4,421.57142857142856,421.47767857142856,322.9,421.57142857142856,421.47767857142856,422.9,427.57142857142856,407.47767857142856,523.8,437.57142857142856,392.47767857142856,624.3,473.57142857142856,347.47767857142856,728.7,566.5714285714286,240.47767857142856,828.9,633.5714285714286,173.47767857142856,937.9,657.5714285714286,145.47767857142856,1037.9,684.5714285714286,115.47767857142857,1137.9,711.5714285714286,89.47767857142857,1238.7,725.5714285714286,77.47767857142857,1344.1,725.5714285714286,77.47767857142857,1444.1,725.5714285714286,77.47767857142857,1544.6,725.5714285714286,77.47767857142857,1649.2,725.5714285714286,77.47767857142857,1754.3,725.5714285714286,77.47767857142857,1856.2,725.5714285714286,77.47767857142857,1958.2,725.5714285714286,84.47767857142857,2059.2,738.5714285714286,80.47767857142857,2163.1,741.5714285714286,77.47767857142857,2264.8,741.5714285714286,77.47767857142857,2370.7,741.5714285714286,77.47767857142857,2472.4,741.5714285714286,77.47767857142857,2573.9,741.5714285714286,77.47767857142857,2673.9,741.5714285714286,77.47767857142857,2778.6,741.5714285714286,77.47767857142857,2878.8,741.5714285714286,77.47767857142857,2983.3,741.5714285714286,77.47767857142857,3088.7,500.57142857142856,75.47767857142857,3189.2,175.57142857142856,144.47767857142856,3293.1,141.57142857142856,144.47767857142856,3393.9,113.57142857142857,144.47767857142856,3494.7,53.57142857142857,141.47767857142856,3599.4,53.57142857142857,141.47767857142856,3705,53.57142857142857,141.47767857142856,3808.9,53.57142857142857,141.47767857142856,3912.7,53.57142857142857,141.47767857142856,4014.4,53.57142857142857,141.47767857142856,4118.2,53.57142857142857,141.47767857142856,4223.6,53.57142857142857,141.47767857142856,4324.8,53.57142857142857,141.47767857142856,4429.2,53.57142857142857,141.47767857142856,4529.4,53.57142857142857,141.47767857142856,4633.6,53.57142857142857,141.47767857142856,4734.2,53.57142857142857,141.47767857142856,4838.4,53.57142857142857,141.47767857142856,4943.5]","[1968.6,1968.5,1000,0.1,968.5,""smooth"",""up"",""up"",""good_move"",5617.1,3647.6,2563.7,1969.7,1083.7,""smooth"",""right"",""right"",""good_move"",9071.5,3453.4,2999.3,5618.2,454,""smooth"",""right"",""right"",""good_move"",12032.2,2960.3,2500.2,9072,460.1,""smooth"",""up"",""up"",""good_move""]"
"3762","","<div style=""width:500px;"">
  <p>What determined the result of this run?</p>
  </div>","100","html-slider-response","14","335719","0.0-7.0-1.0","112","1","2025-07-31 13:12:22","36c45c0696341be0efffe67d72a12abb","41.145.209.151","Mozilla/5.0 (Windows NT 10.0; Win64; x64) AppleWebKit/537.36 (KHTML, like Gecko) Chrome/138.0.0.0 Safari/537.36","WebKit","Chrome","138.0.0.0","Windows","10.0","https://app.prolific.com/","en-US,en;q=0.9","60a50457d02bfc23c02d4717","683dba9a53627eb9ab41b36a","688b6ba7e4fb3f3b871a32b2","0","60a50457d02bfc23c02d4717","0","2025-07-31T13:18:00.799Z","","","","AttribQ","","","","","","","","","","","50","","","","","","","","","","","","","","","","","","","","","","","","","","",""
"2156","","<div style=""width:500px;"">
  <p>How much control did you have over the ball?</p>
  </div>","100","html-slider-response","15","337878","0.0-7.0-2.0","112","1","2025-07-31 13:12:22","36c45c0696341be0efffe67d72a12abb","41.145.209.151","Mozilla/5.0 (Windows NT 10.0; Win64; x64) AppleWebKit/537.36 (KHTML, like Gecko) Chrome/138.0.0.0 Safari/537.36","WebKit","Chrome","138.0.0.0","Windows","10.0","https://app.prolific.com/","en-US,en;q=0.9","60a50457d02bfc23c02d4717","683dba9a53627eb9ab41b36a","688b6ba7e4fb3f3b871a32b2","0","60a50457d02bfc23c02d4717","0","2025-07-31T13:18:02.958Z","","","","ControlQ","","","","","","","","","","","50","","","","","","","","","","","","","","","","","","","","","","","","","","",""
"2335","","<div style=""width:500px;"">
  <p>How would you describe your current emotional state?</p>
  </div>","53","html-slider-response","16","340216","0.0-7.0-3.0","112","1","2025-07-31 13:12:22","36c45c0696341be0efffe67d72a12abb","41.145.209.151","Mozilla/5.0 (Windows NT 10.0; Win64; x64) AppleWebKit/537.36 (KHTML, like Gecko) Chrome/138.0.0.0 Safari/537.36","WebKit","Chrome","138.0.0.0","Windows","10.0","https://app.prolific.com/","en-US,en;q=0.9","60a50457d02bfc23c02d4717","683dba9a53627eb9ab41b36a","688b6ba7e4fb3f3b871a32b2","0","60a50457d02bfc23c02d4717","0","2025-07-31T13:18:05.296Z","","","","StressQ","","","","","","","","","","","50","","","","","","","","","","","","","","","","","","","","","","","","","","",""
"3132","","<div style=""width:500px;"">
  <p>What best describes how you currently feel?</p>
  </div>","52","html-slider-response","17","343352","0.0-7.0-4.0","112","1","2025-07-31 13:12:22","36c45c0696341be0efffe67d72a12abb","41.145.209.151","Mozilla/5.0 (Windows NT 10.0; Win64; x64) AppleWebKit/537.36 (KHTML, like Gecko) Chrome/138.0.0.0 Safari/537.36","WebKit","Chrome","138.0.0.0","Windows","10.0","https://app.prolific.com/","en-US,en;q=0.9","60a50457d02bfc23c02d4717","683dba9a53627eb9ab41b36a","688b6ba7e4fb3f3b871a32b2","0","60a50457d02bfc23c02d4717","0","2025-07-31T13:18:08.432Z","","","","MotivationQ","","","","","","","","","","","50","","","","","","","","","","","","","","","","","","","","","","","","","","",""
"","","","","ctl-task-cpt","18","378203","0.0-7.0-0.1","112","1","2025-07-31 13:12:22","36c45c0696341be0efffe67d72a12abb","41.145.209.151","Mozilla/5.0 (Windows NT 10.0; Win64; x64) AppleWebKit/537.36 (KHTML, like Gecko) Chrome/138.0.0.0 Safari/537.36","WebKit","Chrome","138.0.0.0","Windows","10.0","https://app.prolific.com/","en-US,en;q=0.9","60a50457d02bfc23c02d4717","683dba9a53627eb9ab41b36a","688b6ba7e4fb3f3b871a32b2","0","60a50457d02bfc23c02d4717","0","2025-07-31T13:18:43.283Z","","","","","","","","","","","","","","","","win-only","1","g1:NE,g2:SW","0.9","2","0","349584.7","1123.2","6126.6","31841.2","1","4","4","6","2","4","4","5","1","0.03787878787878788","991.9","3000","1115","[""down"",""left""]","{""num_key_presses"":6,""num_perfect"":6,""num_errors"":0,""num_randdir"":0,""num_randdir_good_moves"":0,""num_whilered"":0,""num_whileblue"":0,""num_blue"":3,""num_good_moves"":6}","[411.57142857142856,412.47767857142856,0.4,411.57142857142856,412.47767857142856,102.4,411.57142857142856,412.47767857142856,203,411.57142857142856,412.47767857142856,309.9,411.57142857142856,412.47767857142856,410.1,349.57142857142856,471.47767857142856,513.2,118.57142857142857,638.4776785714286,617.7,57.57142857142857,690.4776785714286,719.2,51.57142857142857,720.4776785714286,826.3,43.57142857142857,751.4776785714286,926.4,41.57142857142857,768.4776785714286,1028.1,41.57142857142857,768.4776785714286,1132.7,41.57142857142857,768.4776785714286,1233.7,41.57142857142857,768.4776785714286,1343.2,55.57142857142857,765.4776785714286,1448.4,55.57142857142857,765.4776785714286,1553.2,55.57142857142857,765.4776785714286,1660.3,55.57142857142857,765.4776785714286,1763.4,55.57142857142857,765.4776785714286,1868.6,131.57142857142856,580.4776785714286,1976.2,167.57142857142856,559.4776785714286,2076.6,167.57142857142856,559.4776785714286,2178.8,167.57142857142856,559.4776785714286,2283.1,167.57142857142856,559.4776785714286,2383.3,167.57142857142856,559.4776785714286,2493.3,167.57142857142856,559.4776785714286,2593.4,167.57142857142856,559.4776785714286,2695.2,167.57142857142856,559.4776785714286,2798.6,167.57142857142856,559.4776785714286,2903.2,167.57142857142856,559.4776785714286,3009.7,167.57142857142856,559.4776785714286,3110.2,167.57142857142856,559.4776785714286,3213.4,167.57142857142856,559.4776785714286,3313.6,167.57142857142856,559.4776785714286,3418.3,167.57142857142856,559.4776785714286,3518.4,167.57142857142856,559.4776785714286,3618.4,167.57142857142856,559.4776785714286,3718.5,167.57142857142856,559.4776785714286,3826.7,167.57142857142856,559.4776785714286,3927.5,167.57142857142856,559.4776785714286,4033.4,167.57142857142856,559.4776785714286,4143.2,167.57142857142856,559.4776785714286,4243.5,167.57142857142856,559.4776785714286,4343.9,167.57142857142856,559.4776785714286,4446.1,167.57142857142856,559.4776785714286,4548.3,167.57142857142856,559.4776785714286,4653,167.57142857142856,559.4776785714286,4760.6,167.57142857142856,559.4776785714286,4860.8,167.57142857142856,559.4776785714286,4963.4]","[1372.2,1372.2,1000,0,372.2,""smooth"",""left"",""left"",""good_move"",4272.2,2899.3,2556.8,1373,342.5,""smooth"",""left"",""left"",""good_move"",6538.7,2266.1,1958.5,4272.6,307.6,""smooth"",""down"",""down"",""good_move"",16226.7,9687.4,2803.8,13039,383.9,""smooth"",""down"",""down"",""good_move"",19439.2,3212.3,2839.5,16226.9,372.8,""smooth"",""down"",""down"",""good_move"",25608,6168.4,2261.1,22944.8,402.1,""smooth"",""left"",""left"",""good_move""]"
"2896","","<div style=""width:500px;"">
  <p>What determined the result of this run?</p>
  </div>","100","html-slider-response","19","381100","0.0-7.0-1.1","112","1","2025-07-31 13:12:22","36c45c0696341be0efffe67d72a12abb","41.145.209.151","Mozilla/5.0 (Windows NT 10.0; Win64; x64) AppleWebKit/537.36 (KHTML, like Gecko) Chrome/138.0.0.0 Safari/537.36","WebKit","Chrome","138.0.0.0","Windows","10.0","https://app.prolific.com/","en-US,en;q=0.9","60a50457d02bfc23c02d4717","683dba9a53627eb9ab41b36a","688b6ba7e4fb3f3b871a32b2","0","60a50457d02bfc23c02d4717","0","2025-07-31T13:18:46.180Z","","","","AttribQ","","","","","","","","","","","50","","","","","","","","","","","","","","","","","","","","","","","","","","",""
"2753","","<div style=""width:500px;"">
  <p>How much control did you have over the ball?</p>
  </div>","100","html-slider-response","20","383855","0.0-7.0-2.1","112","1","2025-07-31 13:12:22","36c45c0696341be0efffe67d72a12abb","41.145.209.151","Mozilla/5.0 (Windows NT 10.0; Win64; x64) AppleWebKit/537.36 (KHTML, like Gecko) Chrome/138.0.0.0 Safari/537.36","WebKit","Chrome","138.0.0.0","Windows","10.0","https://app.prolific.com/","en-US,en;q=0.9","60a50457d02bfc23c02d4717","683dba9a53627eb9ab41b36a","688b6ba7e4fb3f3b871a32b2","0","60a50457d02bfc23c02d4717","0","2025-07-31T13:18:48.935Z","","","","ControlQ","","","","","","","","","","","50","","","","","","","","","","","","","","","","","","","","","","","","","","",""
"5788","","<div style=""width:500px;"">
  <p>How would you describe your current emotional state?</p>
  </div>","53","html-slider-response","21","389647","0.0-7.0-3.1","112","1","2025-07-31 13:12:22","36c45c0696341be0efffe67d72a12abb","41.145.209.151","Mozilla/5.0 (Windows NT 10.0; Win64; x64) AppleWebKit/537.36 (KHTML, like Gecko) Chrome/138.0.0.0 Safari/537.36","WebKit","Chrome","138.0.0.0","Windows","10.0","https://app.prolific.com/","en-US,en;q=0.9","60a50457d02bfc23c02d4717","683dba9a53627eb9ab41b36a","688b6ba7e4fb3f3b871a32b2","0","60a50457d02bfc23c02d4717","0","2025-07-31T13:18:54.727Z","","","","StressQ","","","","","","","","","","","50","","","","","","","","","","","","","","","","","","","","","","","","","","",""
"2067","","<div style=""width:500px;"">
  <p>What best describes how you currently feel?</p>
  </div>","67","html-slider-response","22","391717","0.0-7.0-4.1","112","1","2025-07-31 13:12:22","36c45c0696341be0efffe67d72a12abb","41.145.209.151","Mozilla/5.0 (Windows NT 10.0; Win64; x64) AppleWebKit/537.36 (KHTML, like Gecko) Chrome/138.0.0.0 Safari/537.36","WebKit","Chrome","138.0.0.0","Windows","10.0","https://app.prolific.com/","en-US,en;q=0.9","60a50457d02bfc23c02d4717","683dba9a53627eb9ab41b36a","688b6ba7e4fb3f3b871a32b2","0","60a50457d02bfc23c02d4717","0","2025-07-31T13:18:56.797Z","","","","MotivationQ","","","","","","","","","","","50","","","","","","","","","","","","","","","","","","","","","","","","","","",""
"","","","","ctl-task-cpt","23","445179","0.0-7.0-0.2","112","1","2025-07-31 13:12:22","36c45c0696341be0efffe67d72a12abb","41.145.209.151","Mozilla/5.0 (Windows NT 10.0; Win64; x64) AppleWebKit/537.36 (KHTML, like Gecko) Chrome/138.0.0.0 Safari/537.36","WebKit","Chrome","138.0.0.0","Windows","10.0","https://app.prolific.com/","en-US,en;q=0.9","60a50457d02bfc23c02d4717","683dba9a53627eb9ab41b36a","688b6ba7e4fb3f3b871a32b2","0","60a50457d02bfc23c02d4717","0","2025-07-31T13:19:50.259Z","","","","","","","","","","","","","","","","win-only","2","g1:SE,g2:NW","0.8","3","0","397949.5","9877.1","14884.4","50456.1","1","4","4","6","2","-4","-4","1","5","0.007575757575757576","1231","3000","-2600","[""left"",""up""]","{""num_key_presses"":8,""num_perfect"":6,""num_errors"":0,""num_randdir"":2,""num_randdir_good_moves"":0,""num_whilered"":0,""num_whileblue"":0,""num_blue"":3,""num_good_moves"":6}","[410.57142857142856,411.47767857142856,0.4,410.57142857142856,411.47767857142856,104.4,410.57142857142856,411.47767857142856,206.2,410.57142857142856,411.47767857142856,309.3,410.57142857142856,411.47767857142856,415.1,428.57142857142856,417.47767857142856,519.3,484.57142857142856,477.47767857142856,620,374.57142857142856,401.47767857142856,723.4,124.57142857142857,185.47767857142856,823.9,106.57142857142857,147.47767857142856,924.7,105.57142857142857,133.47767857142856,1029.1,97.57142857142857,111.47767857142857,1129.3,84.57142857142857,94.47767857142857,1230,84.57142857142857,94.47767857142857,1330.4,84.57142857142857,94.47767857142857,1434.3,99.57142857142857,99.47767857142857,1534.5,377.57142857142856,178.47767857142856,1640.6,656.5714285714286,217.47767857142856,1744,1011.5714285714286,305.47767857142856,1844,1317.5714285714287,364.47767857142856,1944.1,1375.5714285714287,585.4776785714286,2044.2,1315.5714285714287,819.4776785714286,2161.3,1250.5714285714287,828.4776785714286,2264,1375.5714285714287,762.4776785714286,2364.4,1375.5714285714287,735.4776785714286,2473.4,1375.5714285714287,959.4776785714286,2574.2,1375.5714285714287,959.4776785714286,2679.5,1375.5714285714287,959.4776785714286,2779.6,1375.5714285714287,959.4776785714286,2884.1,1375.5714285714287,959.4776785714286,2985.4,1375.5714285714287,959.4776785714286,3092.9,1375.5714285714287,959.4776785714286,3193.3,1375.5714285714287,959.4776785714286,3293.5,1375.5714285714287,959.4776785714286,3393.8,1375.5714285714287,959.4776785714286,3495.1,1375.5714285714287,959.4776785714286,3599.3,1375.5714285714287,959.4776785714286,3699.6,1375.5714285714287,959.4776785714286,3807.1,1375.5714285714287,959.4776785714286,3909.1,1375.5714285714287,959.4776785714286,4009.6,1375.5714285714287,959.4776785714286,4113.9,1375.5714285714287,959.4776785714286,4214.1,1375.5714285714287,959.4776785714286,4314.3,1375.5714285714287,959.4776785714286,4414.3,1375.5714285714287,959.4776785714286,4514.5,1375.5714285714287,959.4776785714286,4624.1,1375.5714285714287,959.4776785714286,4729.5,1375.5714285714287,959.4776785714286,4834.3,1375.5714285714287,959.4776785714286,4940.1]","[1570.2,1570.2,1000,0,570.2,""smooth"",""left"",""left"",""good_move"",4415.3,2844.8,2469.3,1570.6,375.4,""smooth"",""up"",""up"",""good_move"",7115.1,2699.5,2333.5,4415.6,366,""smooth"",""up"",""up"",""good_move"",13615.1,6499.5,2293.6,10933.8,387.7,""smooth"",""left"",""left"",""good_move"",16334.6,2719.2,2326.1,13615.4,393.1,""smooth"",""up"",""up"",""good_move"",18983,2647.9,2303.9,16335.1,344,""oops"",""left"",""down"",""bad_move"",25940.6,6957,2151.4,23337.3,451.9,""oops"",""left"",""right"",""bad_move"",32496.4,6555.4,2832.8,29222,441.6,""smooth"",""left"",""left"",""good_move""]"
"4084","","<div style=""width:500px;"">
  <p>What determined the result of this run?</p>
  </div>","50","html-slider-response","24","449265","0.0-7.0-1.2","112","1","2025-07-31 13:12:22","36c45c0696341be0efffe67d72a12abb","41.145.209.151","Mozilla/5.0 (Windows NT 10.0; Win64; x64) AppleWebKit/537.36 (KHTML, like Gecko) Chrome/138.0.0.0 Safari/537.36","WebKit","Chrome","138.0.0.0","Windows","10.0","https://app.prolific.com/","en-US,en;q=0.9","60a50457d02bfc23c02d4717","683dba9a53627eb9ab41b36a","688b6ba7e4fb3f3b871a32b2","0","60a50457d02bfc23c02d4717","0","2025-07-31T13:19:54.345Z","","","","AttribQ","","","","","","","","","","","50","","","","","","","","","","","","","","","","","","","","","","","","","","",""
"3798","","<div style=""width:500px;"">
  <p>How much control did you have over the ball?</p>
  </div>","59","html-slider-response","25","453065","0.0-7.0-2.2","112","1","2025-07-31 13:12:22","36c45c0696341be0efffe67d72a12abb","41.145.209.151","Mozilla/5.0 (Windows NT 10.0; Win64; x64) AppleWebKit/537.36 (KHTML, like Gecko) Chrome/138.0.0.0 Safari/537.36","WebKit","Chrome","138.0.0.0","Windows","10.0","https://app.prolific.com/","en-US,en;q=0.9","60a50457d02bfc23c02d4717","683dba9a53627eb9ab41b36a","688b6ba7e4fb3f3b871a32b2","0","60a50457d02bfc23c02d4717","0","2025-07-31T13:19:58.145Z","","","","ControlQ","","","","","","","","","","","50","","","","","","","","","","","","","","","","","","","","","","","","","","",""
"3547","","<div style=""width:500px;"">
  <p>How would you describe your current emotional state?</p>
  </div>","73","html-slider-response","26","456613","0.0-7.0-3.2","112","1","2025-07-31 13:12:22","36c45c0696341be0efffe67d72a12abb","41.145.209.151","Mozilla/5.0 (Windows NT 10.0; Win64; x64) AppleWebKit/537.36 (KHTML, like Gecko) Chrome/138.0.0.0 Safari/537.36","WebKit","Chrome","138.0.0.0","Windows","10.0","https://app.prolific.com/","en-US,en;q=0.9","60a50457d02bfc23c02d4717","683dba9a53627eb9ab41b36a","688b6ba7e4fb3f3b871a32b2","0","60a50457d02bfc23c02d4717","0","2025-07-31T13:20:01.693Z","","","","StressQ","","","","","","","","","","","50","","","","","","","","","","","","","","","","","","","","","","","","","","",""
"2949","","<div style=""width:500px;"">
  <p>What best describes how you currently feel?</p>
  </div>","65","html-slider-response","27","459563","0.0-7.0-4.2","112","1","2025-07-31 13:12:22","36c45c0696341be0efffe67d72a12abb","41.145.209.151","Mozilla/5.0 (Windows NT 10.0; Win64; x64) AppleWebKit/537.36 (KHTML, like Gecko) Chrome/138.0.0.0 Safari/537.36","WebKit","Chrome","138.0.0.0","Windows","10.0","https://app.prolific.com/","en-US,en;q=0.9","60a50457d02bfc23c02d4717","683dba9a53627eb9ab41b36a","688b6ba7e4fb3f3b871a32b2","0","60a50457d02bfc23c02d4717","0","2025-07-31T13:20:04.644Z","","","","MotivationQ","","","","","","","","","","","50","","","","","","","","","","","","","","","","","","","","","","","","","","",""
"","","","","ctl-task-cpt","28","478634","0.0-7.0-0.3","112","1","2025-07-31 13:12:22","36c45c0696341be0efffe67d72a12abb","41.145.209.151","Mozilla/5.0 (Windows NT 10.0; Win64; x64) AppleWebKit/537.36 (KHTML, like Gecko) Chrome/138.0.0.0 Safari/537.36","WebKit","Chrome","138.0.0.0","Windows","10.0","https://app.prolific.com/","en-US,en;q=0.9","60a50457d02bfc23c02d4717","683dba9a53627eb9ab41b36a","688b6ba7e4fb3f3b871a32b2","0","60a50457d02bfc23c02d4717","0","2025-07-31T13:20:23.714Z","","","","","","","","","","","","","","","","win-only","3","g1:SW,g2:NE","0.7","4","0","465797.2","1133.6","6136.3","16050.9","1","4","8","6","1","1","1","2","1","0.015151515151515152","1463.7","3000","1365","[""down"",""left""]","{""num_key_presses"":4,""num_perfect"":4,""num_errors"":0,""num_randdir"":0,""num_randdir_good_moves"":0,""num_whilered"":0,""num_whileblue"":0,""num_blue"":0,""num_good_moves"":4}","[413.57142857142856,418.47767857142856,0.2,413.57142857142856,418.47767857142856,102.3,413.57142857142856,418.47767857142856,208.1,413.57142857142856,418.47767857142856,312,413.57142857142856,418.47767857142856,412.7,413.57142857142856,418.47767857142856,513.1,415.57142857142856,407.47767857142856,618,421.57142857142856,358.47767857142856,722.1,212.57142857142856,563.4776785714286,827.6,151.57142857142856,732.4776785714286,929.5,153.57142857142856,783.4776785714286,1030.4,140.57142857142856,794.4776785714286,1132.2,105.57142857142857,782.4776785714286,1237.1,105.57142857142857,782.4776785714286,1338.1,105.57142857142857,782.4776785714286,1442.5,105.57142857142857,782.4776785714286,1542.9,105.57142857142857,782.4776785714286,1650.8,105.57142857142857,782.4776785714286,1753,105.57142857142857,782.4776785714286,1857,105.57142857142857,782.4776785714286,1957.4,142.57142857142856,763.4776785714286,2061.8,400.57142857142856,664.4776785714286,2162,641.5714285714286,621.4776785714286,2267.5,825.5714285714286,592.4776785714286,2372.3,825.5714285714286,592.4776785714286,2472.6,825.5714285714286,592.4776785714286,2577.9,825.5714285714286,592.4776785714286,2679.5,832.5714285714286,590.4776785714286,2783.9,981.5714285714286,544.4776785714286,2886.9,994.5714285714286,537.4776785714286,2991.7,994.5714285714286,537.4776785714286,3096.1,994.5714285714286,537.4776785714286,3196.9,994.5714285714286,537.4776785714286,3297.6,994.5714285714286,537.4776785714286,3402.6,994.5714285714286,537.4776785714286,3506.9,994.5714285714286,537.4776785714286,3607.4,994.5714285714286,537.4776785714286,3707.5,994.5714285714286,537.4776785714286,3807.7,994.5714285714286,537.4776785714286,3912.8,994.5714285714286,537.4776785714286,4013.5,994.5714285714286,537.4776785714286,4118.1,994.5714285714286,537.4776785714286,4221.7,994.5714285714286,537.4776785714286,4321.8,994.5714285714286,537.4776785714286,4422.3,994.5714285714286,537.4776785714286,4527,994.5714285714286,537.4776785714286,4631.1,994.5714285714286,537.4776785714286,4734.2,994.5714285714286,537.4776785714286,4837.1,994.5714285714286,537.4776785714286,4942.7]","[1583.9,1583.9,1000,0,584,""smooth"",""down"",""down"",""good_move"",4478.1,2893.7,2566.5,1584.4,327.2,""smooth"",""left"",""left"",""good_move"",6714.2,2235.6,1895.6,4478.6,340,""smooth"",""left"",""left"",""good_move"",9829.2,3114.8,2640.8,6714.4,474,""smooth"",""down"",""down"",""good_move""]"
"3661","","<div style=""width:500px;"">
  <p>What determined the result of this run?</p>
  </div>","100","html-slider-response","29","482296","0.0-7.0-1.3","112","1","2025-07-31 13:12:22","36c45c0696341be0efffe67d72a12abb","41.145.209.151","Mozilla/5.0 (Windows NT 10.0; Win64; x64) AppleWebKit/537.36 (KHTML, like Gecko) Chrome/138.0.0.0 Safari/537.36","WebKit","Chrome","138.0.0.0","Windows","10.0","https://app.prolific.com/","en-US,en;q=0.9","60a50457d02bfc23c02d4717","683dba9a53627eb9ab41b36a","688b6ba7e4fb3f3b871a32b2","0","60a50457d02bfc23c02d4717","0","2025-07-31T13:20:27.376Z","","","","AttribQ","","","","","","","","","","","50","","","","","","","","","","","","","","","","","","","","","","","","","","",""
"2667","","<div style=""width:500px;"">
  <p>How much control did you have over the ball?</p>
  </div>","100","html-slider-response","30","484965","0.0-7.0-2.3","112","1","2025-07-31 13:12:22","36c45c0696341be0efffe67d72a12abb","41.145.209.151","Mozilla/5.0 (Windows NT 10.0; Win64; x64) AppleWebKit/537.36 (KHTML, like Gecko) Chrome/138.0.0.0 Safari/537.36","WebKit","Chrome","138.0.0.0","Windows","10.0","https://app.prolific.com/","en-US,en;q=0.9","60a50457d02bfc23c02d4717","683dba9a53627eb9ab41b36a","688b6ba7e4fb3f3b871a32b2","0","60a50457d02bfc23c02d4717","0","2025-07-31T13:20:30.045Z","","","","ControlQ","","","","","","","","","","","50","","","","","","","","","","","","","","","","","","","","","","","","","","",""
"2493","","<div style=""width:500px;"">
  <p>How would you describe your current emotional state?</p>
  </div>","54","html-slider-response","31","487460","0.0-7.0-3.3","112","1","2025-07-31 13:12:22","36c45c0696341be0efffe67d72a12abb","41.145.209.151","Mozilla/5.0 (Windows NT 10.0; Win64; x64) AppleWebKit/537.36 (KHTML, like Gecko) Chrome/138.0.0.0 Safari/537.36","WebKit","Chrome","138.0.0.0","Windows","10.0","https://app.prolific.com/","en-US,en;q=0.9","60a50457d02bfc23c02d4717","683dba9a53627eb9ab41b36a","688b6ba7e4fb3f3b871a32b2","0","60a50457d02bfc23c02d4717","0","2025-07-31T13:20:32.540Z","","","","StressQ","","","","","","","","","","","50","","","","","","","","","","","","","","","","","","","","","","","","","","",""
"3087","","<div style=""width:500px;"">
  <p>What best describes how you currently feel?</p>
  </div>","61","html-slider-response","32","490548","0.0-7.0-4.3","112","1","2025-07-31 13:12:22","36c45c0696341be0efffe67d72a12abb","41.145.209.151","Mozilla/5.0 (Windows NT 10.0; Win64; x64) AppleWebKit/537.36 (KHTML, like Gecko) Chrome/138.0.0.0 Safari/537.36","WebKit","Chrome","138.0.0.0","Windows","10.0","https://app.prolific.com/","en-US,en;q=0.9","60a50457d02bfc23c02d4717","683dba9a53627eb9ab41b36a","688b6ba7e4fb3f3b871a32b2","0","60a50457d02bfc23c02d4717","0","2025-07-31T13:20:35.628Z","","","","MotivationQ","","","","","","","","","","","50","","","","","","","","","","","","","","","","","","","","","","","","","","",""
"","","","","ctl-task-cpt","33","528407","0.0-7.0-0.4","112","1","2025-07-31 13:12:22","36c45c0696341be0efffe67d72a12abb","41.145.209.151","Mozilla/5.0 (Windows NT 10.0; Win64; x64) AppleWebKit/537.36 (KHTML, like Gecko) Chrome/138.0.0.0 Safari/537.36","WebKit","Chrome","138.0.0.0","Windows","10.0","https://app.prolific.com/","en-US,en;q=0.9","60a50457d02bfc23c02d4717","683dba9a53627eb9ab41b36a","688b6ba7e4fb3f3b871a32b2","0","60a50457d02bfc23c02d4717","0","2025-07-31T13:21:13.487Z","","","","","","","","","","","","","","","","win-only","0","g1:NW,g2:SE","0.6","5","0","496779.1","1541.3","6546.5","34840.7","1","4","8","6","2","8","8","10","2","0.07575757575757576","2189","3000","1020","[""down"",""right""]","{""num_key_presses"":6,""num_perfect"":4,""num_errors"":0,""num_randdir"":2,""num_randdir_good_moves"":2,""num_whilered"":0,""num_whileblue"":0,""num_blue"":4,""num_good_moves"":6}","[421.57142857142856,418.47767857142856,0.5,421.57142857142856,418.47767857142856,102.1,421.57142857142856,418.47767857142856,205.5,421.57142857142856,418.47767857142856,305.6,421.57142857142856,418.47767857142856,406.5,421.57142857142856,418.47767857142856,507.3,421.57142857142856,418.47767857142856,622.5,422.57142857142856,418.47767857142856,729.4,367.57142857142856,354.47767857142856,839.8,207.57142857142856,86.47767857142857,944.1,207.57142857142856,86.47767857142857,1046.8,207.57142857142856,86.47767857142857,1149.7,207.57142857142856,86.47767857142857,1249.8,207.57142857142856,86.47767857142857,1354.5,277.57142857142856,143.47767857142856,1462.7,799.5714285714286,773.4776785714286,1563.5,826.5714285714286,804.4776785714286,1663.9,826.5714285714286,804.4776785714286,1765.2,826.5714285714286,804.4776785714286,1869.5,799.5714285714286,771.4776785714286,1970,791.5714285714286,757.4776785714286,2070.2,791.5714285714286,757.4776785714286,2179.3,791.5714285714286,757.4776785714286,2280.2,791.5714285714286,757.4776785714286,2380.6,791.5714285714286,757.4776785714286,2484.5,798.5714285714286,751.4776785714286,2586.5,1144.5714285714287,560.4776785714286,2697.9,1226.5714285714287,535.4776785714286,2799.7,1226.5714285714287,535.4776785714286,2915.1,1226.5714285714287,535.4776785714286,3019.3,1226.5714285714287,535.4776785714286,3119.7,1226.5714285714287,535.4776785714286,3220.4,1226.5714285714287,535.4776785714286,3325.2,1226.5714285714287,535.4776785714286,3429.8,1226.5714285714287,535.4776785714286,3530.6,1226.5714285714287,535.4776785714286,3631.4,1226.5714285714287,535.4776785714286,3734.9,1226.5714285714287,535.4776785714286,3846.9,1226.5714285714287,535.4776785714286,3947.5,1226.5714285714287,535.4776785714286,4050.4,1226.5714285714287,535.4776785714286,4200.6,1226.5714285714287,535.4776785714286,4304.4,1226.5714285714287,535.4776785714286,4407.6,1226.5714285714287,535.4776785714286,4509,1226.5714285714287,535.4776785714286,4609.4,1226.5714285714287,535.4776785714286,4709.7,1226.5714285714287,535.4776785714286,4814.1,1226.5714285714287,535.4776785714286,4914.6]","[1354.1,1354.1,1000,0,354.1,""smooth"",""down"",""down"",""good_move"",6827.6,5473.2,1855.1,4609.1,363.4,""smooth"",""right"",""right"",""good_move"",13114.3,6286.3,2009,10736.7,368.6,""oops"",""down"",""right"",""good_move"",19373.7,6259.2,2169.8,16801,402.9,""smooth"",""down"",""down"",""good_move"",22744.2,3370,2987.4,19374.2,382.6,""smooth"",""down"",""down"",""good_move"",28190.2,5445.9,1802.8,25979.5,407.9,""oops"",""right"",""right"",""good_move""]"
"20379","","<div style=""width:500px;"">
  <p>What determined the result of this run?</p>
  </div>","100","html-slider-response","34","548788","0.0-7.0-1.4","112","1","2025-07-31 13:12:22","36c45c0696341be0efffe67d72a12abb","41.145.209.151","Mozilla/5.0 (Windows NT 10.0; Win64; x64) AppleWebKit/537.36 (KHTML, like Gecko) Chrome/138.0.0.0 Safari/537.36","WebKit","Chrome","138.0.0.0","Windows","10.0","https://app.prolific.com/","en-US,en;q=0.9","60a50457d02bfc23c02d4717","683dba9a53627eb9ab41b36a","688b6ba7e4fb3f3b871a32b2","0","60a50457d02bfc23c02d4717","0","2025-07-31T13:21:33.868Z","","","","AttribQ","","","","","","","","","","","50","","","","","","","","","","","","","","","","","","","","","","","","","","",""
"2440","","<div style=""width:500px;"">
  <p>How much control did you have over the ball?</p>
  </div>","100","html-slider-response","35","551229","0.0-7.0-2.4","112","1","2025-07-31 13:12:22","36c45c0696341be0efffe67d72a12abb","41.145.209.151","Mozilla/5.0 (Windows NT 10.0; Win64; x64) AppleWebKit/537.36 (KHTML, like Gecko) Chrome/138.0.0.0 Safari/537.36","WebKit","Chrome","138.0.0.0","Windows","10.0","https://app.prolific.com/","en-US,en;q=0.9","60a50457d02bfc23c02d4717","683dba9a53627eb9ab41b36a","688b6ba7e4fb3f3b871a32b2","0","60a50457d02bfc23c02d4717","0","2025-07-31T13:21:36.309Z","","","","ControlQ","","","","","","","","","","","50","","","","","","","","","","","","","","","","","","","","","","","","","","",""
"2360","","<div style=""width:500px;"">
  <p>How would you describe your current emotional state?</p>
  </div>","72","html-slider-response","36","553590","0.0-7.0-3.4","112","1","2025-07-31 13:12:22","36c45c0696341be0efffe67d72a12abb","41.145.209.151","Mozilla/5.0 (Windows NT 10.0; Win64; x64) AppleWebKit/537.36 (KHTML, like Gecko) Chrome/138.0.0.0 Safari/537.36","WebKit","Chrome","138.0.0.0","Windows","10.0","https://app.prolific.com/","en-US,en;q=0.9","60a50457d02bfc23c02d4717","683dba9a53627eb9ab41b36a","688b6ba7e4fb3f3b871a32b2","0","60a50457d02bfc23c02d4717","0","2025-07-31T13:21:38.670Z","","","","StressQ","","","","","","","","","","","50","","","","","","","","","","","","","","","","","","","","","","","","","","",""
"2388","","<div style=""width:500px;"">
  <p>What best describes how you currently feel?</p>
  </div>","71","html-slider-response","37","555979","0.0-7.0-4.4","112","1","2025-07-31 13:12:22","36c45c0696341be0efffe67d72a12abb","41.145.209.151","Mozilla/5.0 (Windows NT 10.0; Win64; x64) AppleWebKit/537.36 (KHTML, like Gecko) Chrome/138.0.0.0 Safari/537.36","WebKit","Chrome","138.0.0.0","Windows","10.0","https://app.prolific.com/","en-US,en;q=0.9","60a50457d02bfc23c02d4717","683dba9a53627eb9ab41b36a","688b6ba7e4fb3f3b871a32b2","0","60a50457d02bfc23c02d4717","0","2025-07-31T13:21:41.059Z","","","","MotivationQ","","","","","","","","","","","50","","","","","","","","","","","","","","","","","","","","","","","","","","",""
"","","","","ctl-task-cpt","38","589971","0.0-7.0-0.5","112","1","2025-07-31 13:12:22","36c45c0696341be0efffe67d72a12abb","41.145.209.151","Mozilla/5.0 (Windows NT 10.0; Win64; x64) AppleWebKit/537.36 (KHTML, like Gecko) Chrome/138.0.0.0 Safari/537.36","WebKit","Chrome","138.0.0.0","Windows","10.0","https://app.prolific.com/","en-US,en;q=0.9","60a50457d02bfc23c02d4717","683dba9a53627eb9ab41b36a","688b6ba7e4fb3f3b871a32b2","0","60a50457d02bfc23c02d4717","0","2025-07-31T13:22:15.051Z","","","","","","","","","","","","","","","","win-only","0","g1:NW,g2:SE","0.5","6","0","562210.2","1350.5","6359.3","30960.9","1","4","4","6","1","1","1","11","10","0.08333333333333333","1156","3000","1265","[""left"",""up""]","{""num_key_presses"":6,""num_perfect"":3,""num_errors"":0,""num_randdir"":3,""num_randdir_good_moves"":2,""num_whilered"":0,""num_whileblue"":0,""num_blue"":2,""num_good_moves"":5}","[412.57142857142856,416.47767857142856,0.2,412.57142857142856,416.47767857142856,100.3,412.57142857142856,416.47767857142856,207.4,412.57142857142856,416.47767857142856,307.7,412.57142857142856,416.47767857142856,407.7,438.57142857142856,417.47767857142856,510.4,406.57142857142856,389.47767857142856,615.7,393.57142857142856,355.47767857142856,717.5,203.57142857142856,192.47767857142856,823.3,141.57142857142856,145.47767857142856,925.6,120.57142857142857,104.47767857142857,1034.5,112.57142857142857,84.47767857142857,1138,112.57142857142857,83.47767857142857,1241,112.57142857142857,83.47767857142857,1353.5,112.57142857142857,83.47767857142857,1456,112.57142857142857,83.47767857142857,1560.2,371.57142857142856,118.47767857142857,1665.3,573.5714285714286,136.47767857142856,1766.7,716.5714285714286,149.47767857142856,1871.4,931.5714285714286,162.47767857142856,1975.2,1140.5714285714287,175.47767857142856,2080.5,1195.5714285714287,180.47767857142856,2181.3,1213.5714285714287,181.47767857142856,2290.3,1237.5714285714287,181.47767857142856,2391,1276.5714285714287,187.47767857142856,2495.2,1289.5714285714287,231.47767857142856,2601,1375.5714285714287,308.47767857142856,2705,1375.5714285714287,361.47767857142856,2805.3,1375.5714285714287,395.47767857142856,2909.8,1375.5714285714287,490.47767857142856,3010.6,1375.5714285714287,772.4776785714286,3124.5,1375.5714285714287,935.4776785714286,3224.9,1375.5714285714287,959.4776785714286,3330.2,1375.5714285714287,959.4776785714286,3430.5,1375.5714285714287,959.4776785714286,3540.9,1375.5714285714287,959.4776785714286,3644.8,1375.5714285714287,959.4776785714286,3745.3,1375.5714285714287,959.4776785714286,3850.4,1375.5714285714287,959.4776785714286,3954.9,1375.5714285714287,959.4776785714286,4055.3,1375.5714285714287,959.4776785714286,4159.9,1375.5714285714287,959.4776785714286,4260.7,1375.5714285714287,959.4776785714286,4360.7,1375.5714285714287,959.4776785714286,4474.5,1375.5714285714287,959.4776785714286,4575.1,1375.5714285714287,959.4776785714286,4679.9,1375.5714285714287,959.4776785714286,4781.5,1375.5714285714287,959.4776785714286,4886.3,1375.5714285714287,959.4776785714286,4990.6]","[5182.8,5182.8,2753.2,2002.2,427.4,""oops"",""left"",""down"",""bad_move"",8914.5,3731.4,3409.1,5183.2,322.2,""smooth"",""up"",""up"",""good_move"",11663.6,2748.7,2296.6,8914.9,452.1,""smooth"",""up"",""up"",""good_move"",14827.2,3163.5,2801.9,11663.7,361.6,""oops"",""left"",""left"",""good_move"",18108.4,3280.6,2893.3,14827.8,387.4,""oops"",""left"",""up"",""good_move"",24487.9,6379.2,2367.5,21782.6,337.9,""smooth"",""left"",""left"",""good_move""]"
"13023","","<div style=""width:500px;"">
  <p>What determined the result of this run?</p>
  </div>","79","html-slider-response","39","602996","0.0-7.0-1.5","112","1","2025-07-31 13:12:22","36c45c0696341be0efffe67d72a12abb","41.145.209.151","Mozilla/5.0 (Windows NT 10.0; Win64; x64) AppleWebKit/537.36 (KHTML, like Gecko) Chrome/138.0.0.0 Safari/537.36","WebKit","Chrome","138.0.0.0","Windows","10.0","https://app.prolific.com/","en-US,en;q=0.9","60a50457d02bfc23c02d4717","683dba9a53627eb9ab41b36a","688b6ba7e4fb3f3b871a32b2","0","60a50457d02bfc23c02d4717","0","2025-07-31T13:22:28.076Z","","","","AttribQ","","","","","","","","","","","50","","","","","","","","","","","","","","","","","","","","","","","","","","",""
"4749","","<div style=""width:500px;"">
  <p>How much control did you have over the ball?</p>
  </div>","77","html-slider-response","40","607747","0.0-7.0-2.5","112","1","2025-07-31 13:12:22","36c45c0696341be0efffe67d72a12abb","41.145.209.151","Mozilla/5.0 (Windows NT 10.0; Win64; x64) AppleWebKit/537.36 (KHTML, like Gecko) Chrome/138.0.0.0 Safari/537.36","WebKit","Chrome","138.0.0.0","Windows","10.0","https://app.prolific.com/","en-US,en;q=0.9","60a50457d02bfc23c02d4717","683dba9a53627eb9ab41b36a","688b6ba7e4fb3f3b871a32b2","0","60a50457d02bfc23c02d4717","0","2025-07-31T13:22:32.827Z","","","","ControlQ","","","","","","","","","","","50","","","","","","","","","","","","","","","","","","","","","","","","","","",""
"18919","","<div style=""width:500px;"">
  <p>How would you describe your current emotional state?</p>
  </div>","85","html-slider-response","41","626668","0.0-7.0-3.5","112","1","2025-07-31 13:12:22","36c45c0696341be0efffe67d72a12abb","41.145.209.151","Mozilla/5.0 (Windows NT 10.0; Win64; x64) AppleWebKit/537.36 (KHTML, like Gecko) Chrome/138.0.0.0 Safari/537.36","WebKit","Chrome","138.0.0.0","Windows","10.0","https://app.prolific.com/","en-US,en;q=0.9","60a50457d02bfc23c02d4717","683dba9a53627eb9ab41b36a","688b6ba7e4fb3f3b871a32b2","0","60a50457d02bfc23c02d4717","0","2025-07-31T13:22:51.748Z","","","","StressQ","","","","","","","","","","","50","","","","","","","","","","","","","","","","","","","","","","","","","","",""
"2510","","<div style=""width:500px;"">
  <p>What best describes how you currently feel?</p>
  </div>","74","html-slider-response","42","629180","0.0-7.0-4.5","112","1","2025-07-31 13:12:22","36c45c0696341be0efffe67d72a12abb","41.145.209.151","Mozilla/5.0 (Windows NT 10.0; Win64; x64) AppleWebKit/537.36 (KHTML, like Gecko) Chrome/138.0.0.0 Safari/537.36","WebKit","Chrome","138.0.0.0","Windows","10.0","https://app.prolific.com/","en-US,en;q=0.9","60a50457d02bfc23c02d4717","683dba9a53627eb9ab41b36a","688b6ba7e4fb3f3b871a32b2","0","60a50457d02bfc23c02d4717","0","2025-07-31T13:22:54.260Z","","","","MotivationQ","","","","","","","","","","","50","","","","","","","","","","","","","","","","","","","","","","","","","","",""
"","","","","ctl-task-cpt","43","668657","0.0-7.0-0.6","112","1","2025-07-31 13:12:22","36c45c0696341be0efffe67d72a12abb","41.145.209.151","Mozilla/5.0 (Windows NT 10.0; Win64; x64) AppleWebKit/537.36 (KHTML, like Gecko) Chrome/138.0.0.0 Safari/537.36","WebKit","Chrome","138.0.0.0","Windows","10.0","https://app.prolific.com/","en-US,en;q=0.9","60a50457d02bfc23c02d4717","683dba9a53627eb9ab41b36a","688b6ba7e4fb3f3b871a32b2","0","60a50457d02bfc23c02d4717","0","2025-07-31T13:23:33.738Z","","","","","","","","","","","","","","","","win-only","2","g1:SE,g2:NW","0.4","7","0","635411.2","970.8","5973.6","36458","1","4","4","6","2","4","4","15","11","0.11363636363636363","1411.3","3000","1205","[""left"",""up""]","{""num_key_presses"":6,""num_perfect"":3,""num_errors"":0,""num_randdir"":3,""num_randdir_good_moves"":3,""num_whilered"":0,""num_whileblue"":0,""num_blue"":4,""num_good_moves"":6}","[414.57142857142856,420.47767857142856,0,414.57142857142856,420.47767857142856,101.8,414.57142857142856,420.47767857142856,201.9,414.57142857142856,420.47767857142856,305.4,414.57142857142856,416.47767857142856,405.4,409.57142857142856,402.47767857142856,510.1,398.57142857142856,373.47767857142856,614.4,396.57142857142856,360.47767857142856,714.7,290.57142857142856,229.47767857142856,815.5,227.57142857142856,153.47767857142856,920,159.57142857142856,100.47767857142857,1041,103.57142857142857,80.47767857142857,1144.5,84.57142857142857,77.47767857142857,1245.5,81.57142857142857,75.47767857142857,1345.5,81.57142857142857,75.47767857142857,1454.3,81.57142857142857,75.47767857142857,1555.1,81.57142857142857,75.47767857142857,1660,102.57142857142857,75.47767857142857,1764.4,330.57142857142856,104.47767857142857,1864.4,708.5714285714286,178.47767857142856,1965.4,905.5714285714286,232.47767857142856,2065.8,995.5714285714286,272.47767857142856,2169.8,1033.5714285714287,303.47767857142856,2269.8,1114.5714285714287,350.47767857142856,2369.9,1133.5714285714287,360.47767857142856,2470.6,1133.5714285714287,360.47767857142856,2574.8,1259.5714285714287,390.47767857142856,2679.9,1375.5714285714287,397.47767857142856,2786.1,1375.5714285714287,413.47767857142856,2889.6,1375.5714285714287,507.47767857142856,2990.5,1329.5714285714287,605.4776785714286,3090.5,1326.5714285714287,615.4776785714286,3190.6,1326.5714285714287,615.4776785714286,3295.6,1326.5714285714287,615.4776785714286,3399.3,1326.5714285714287,615.4776785714286,3500,1326.5714285714287,615.4776785714286,3605.5,1326.5714285714287,615.4776785714286,3720.7,1326.5714285714287,615.4776785714286,3824.6,1326.5714285714287,615.4776785714286,3925,1326.5714285714287,615.4776785714286,4026.2,1326.5714285714287,615.4776785714286,4136.4,1326.5714285714287,615.4776785714286,4236.4,1326.5714285714287,615.4776785714286,4336.6,1326.5714285714287,615.4776785714286,4440.6,1326.5714285714287,615.4776785714286,4542.5,1326.5714285714287,615.4776785714286,4646.8,1326.5714285714287,615.4776785714286,4750.5,1326.5714285714287,615.4776785714286,4854.5,1326.5714285714287,615.4776785714286,4954.5]","[1496.7,1496.7,1000,0,496.7,""smooth"",""left"",""left"",""good_move"",4218.4,2721.4,2318.6,1497.1,402.7,""oops"",""up"",""left"",""good_move"",10374.7,6156,2433.7,7562.1,378.9,""smooth"",""up"",""up"",""good_move"",13996.6,3621.4,3261.3,10375.2,360.1,""oops"",""up"",""left"",""good_move"",27377.6,13380.4,1740.3,25168,469.3,""smooth"",""up"",""up"",""good_move"",30351.6,2973.4,2580.8,27378.2,392.6,""oops"",""up"",""up"",""good_move""]"
"6345","","<div style=""width:500px;"">
  <p>What determined the result of this run?</p>
  </div>","98","html-slider-response","44","675003","0.0-7.0-1.6","112","1","2025-07-31 13:12:22","36c45c0696341be0efffe67d72a12abb","41.145.209.151","Mozilla/5.0 (Windows NT 10.0; Win64; x64) AppleWebKit/537.36 (KHTML, like Gecko) Chrome/138.0.0.0 Safari/537.36","WebKit","Chrome","138.0.0.0","Windows","10.0","https://app.prolific.com/","en-US,en;q=0.9","60a50457d02bfc23c02d4717","683dba9a53627eb9ab41b36a","688b6ba7e4fb3f3b871a32b2","0","60a50457d02bfc23c02d4717","0","2025-07-31T13:23:40.084Z","","","","AttribQ","","","","","","","","","","","50","","","","","","","","","","","","","","","","","","","","","","","","","","",""
"1951","","<div style=""width:500px;"">
  <p>How much control did you have over the ball?</p>
  </div>","99","html-slider-response","45","676956","0.0-7.0-2.6","112","1","2025-07-31 13:12:22","36c45c0696341be0efffe67d72a12abb","41.145.209.151","Mozilla/5.0 (Windows NT 10.0; Win64; x64) AppleWebKit/537.36 (KHTML, like Gecko) Chrome/138.0.0.0 Safari/537.36","WebKit","Chrome","138.0.0.0","Windows","10.0","https://app.prolific.com/","en-US,en;q=0.9","60a50457d02bfc23c02d4717","683dba9a53627eb9ab41b36a","688b6ba7e4fb3f3b871a32b2","0","60a50457d02bfc23c02d4717","0","2025-07-31T13:23:42.036Z","","","","ControlQ","","","","","","","","","","","50","","","","","","","","","","","","","","","","","","","","","","","","","","",""
"2454","","<div style=""width:500px;"">
  <p>How would you describe your current emotional state?</p>
  </div>","86","html-slider-response","46","679412","0.0-7.0-3.6","112","1","2025-07-31 13:12:22","36c45c0696341be0efffe67d72a12abb","41.145.209.151","Mozilla/5.0 (Windows NT 10.0; Win64; x64) AppleWebKit/537.36 (KHTML, like Gecko) Chrome/138.0.0.0 Safari/537.36","WebKit","Chrome","138.0.0.0","Windows","10.0","https://app.prolific.com/","en-US,en;q=0.9","60a50457d02bfc23c02d4717","683dba9a53627eb9ab41b36a","688b6ba7e4fb3f3b871a32b2","0","60a50457d02bfc23c02d4717","0","2025-07-31T13:23:44.492Z","","","","StressQ","","","","","","","","","","","50","","","","","","","","","","","","","","","","","","","","","","","","","","",""
"1790","","<div style=""width:500px;"">
  <p>What best describes how you currently feel?</p>
  </div>","82","html-slider-response","47","681203","0.0-7.0-4.6","112","1","2025-07-31 13:12:22","36c45c0696341be0efffe67d72a12abb","41.145.209.151","Mozilla/5.0 (Windows NT 10.0; Win64; x64) AppleWebKit/537.36 (KHTML, like Gecko) Chrome/138.0.0.0 Safari/537.36","WebKit","Chrome","138.0.0.0","Windows","10.0","https://app.prolific.com/","en-US,en;q=0.9","60a50457d02bfc23c02d4717","683dba9a53627eb9ab41b36a","688b6ba7e4fb3f3b871a32b2","0","60a50457d02bfc23c02d4717","0","2025-07-31T13:23:46.283Z","","","","MotivationQ","","","","","","","","","","","50","","","","","","","","","","","","","","","","","","","","","","","","","","",""
"","","","","ctl-task-cpt","48","727853","0.0-7.0-0.7","112","1","2025-07-31 13:12:22","36c45c0696341be0efffe67d72a12abb","41.145.209.151","Mozilla/5.0 (Windows NT 10.0; Win64; x64) AppleWebKit/537.36 (KHTML, like Gecko) Chrome/138.0.0.0 Safari/537.36","WebKit","Chrome","138.0.0.0","Windows","10.0","https://app.prolific.com/","en-US,en;q=0.9","60a50457d02bfc23c02d4717","683dba9a53627eb9ab41b36a","688b6ba7e4fb3f3b871a32b2","0","60a50457d02bfc23c02d4717","0","2025-07-31T13:24:32.933Z","","","","","","","","","","","","","","","","win-only","1","g1:NE,g2:SW","0.3","8","0","687434.4","1086.7","7840.9","43630.4","1","4","8","6","1","-1","-1","14","15","0.10606060606060606","1215.6","3000","-2425","[""up"",""right""]","{""num_key_presses"":8,""num_perfect"":2,""num_errors"":0,""num_randdir"":6,""num_randdir_good_moves"":3,""num_whilered"":0,""num_whileblue"":0,""num_blue"":3,""num_good_moves"":5}","[420.57142857142856,419.47767857142856,0.3,420.57142857142856,419.47767857142856,100,420.57142857142856,419.47767857142856,204.3,420.57142857142856,419.47767857142856,305.6,420.57142857142856,419.47767857142856,410.3,427.57142857142856,407.47767857142856,513.7,455.57142857142856,379.47767857142856,616.3,517.5714285714286,289.47767857142856,718.8,605.5714285714286,174.47767857142856,819.1,639.5714285714286,137.47767857142856,919.1,681.5714285714286,114.47767857142857,1024.4,753.5714285714286,92.47767857142857,1129.3,763.5714285714286,84.47767857142857,1229.3,763.5714285714286,84.47767857142857,1329.7,763.5714285714286,84.47767857142857,1447.5,773.5714285714286,90.47767857142857,1549.2,855.5714285714286,93.47767857142857,1649.9,855.5714285714286,93.47767857142857,1749.9,855.5714285714286,93.47767857142857,1855.3,855.5714285714286,93.47767857142857,1955.3,855.5714285714286,93.47767857142857,2059.1,851.5714285714286,72.47767857142857,2162.6,841.5714285714286,70.47767857142857,2264.6,841.5714285714286,70.47767857142857,2369.3,841.5714285714286,70.47767857142857,2475.9,841.5714285714286,70.47767857142857,2579.3,841.5714285714286,70.47767857142857,2697.3,841.5714285714286,70.47767857142857,2798.9,841.5714285714286,70.47767857142857,2899.4,841.5714285714286,70.47767857142857,3004,841.5714285714286,70.47767857142857,3105.2,841.5714285714286,70.47767857142857,3210,841.5714285714286,70.47767857142857,3315.1,841.5714285714286,70.47767857142857,3431.6,841.5714285714286,70.47767857142857,3534.6,841.5714285714286,70.47767857142857,3634.8,841.5714285714286,70.47767857142857,3734.9,841.5714285714286,70.47767857142857,3835,841.5714285714286,70.47767857142857,3939.7,841.5714285714286,70.47767857142857,4040.5,841.5714285714286,70.47767857142857,4145.4,841.5714285714286,70.47767857142857,4262.4,841.5714285714286,70.47767857142857,4362.5,841.5714285714286,70.47767857142857,4464.2,841.5714285714286,70.47767857142857,4564.8,841.5714285714286,70.47767857142857,4664.8,841.5714285714286,70.47767857142857,4769.2,841.5714285714286,70.47767857142857,4869.6]","[1473.6,1473.6,1000,0,473.6,""oops"",""right"",""right"",""good_move"",5517,4042.9,3679,1474.1,363.9,""oops"",""up"",""left"",""bad_move"",8654.4,3137.1,2700.1,5517.4,436.9,""smooth"",""right"",""right"",""good_move"",14867.2,6212.5,2212.4,12268.4,386.4,""oops"",""up"",""left"",""bad_move"",20931.5,6063.9,2155.7,18390.5,385.3,""oops"",""up"",""right"",""good_move"",24197,3265.1,2802.6,20931.9,462.5,""oops"",""up"",""right"",""good_move"",26398.7,2201.3,1602.1,24197.4,599.2,""smooth"",""up"",""up"",""good_move"",33022.5,6623.6,2876.9,29775.1,370.6,""oops"",""up"",""down"",""bad_move""]"
"32149","","<div style=""width:500px;"">
  <p>What determined the result of this run?</p>
  </div>","0","html-slider-response","49","760003","0.0-7.0-1.7","112","1","2025-07-31 13:12:22","36c45c0696341be0efffe67d72a12abb","41.145.209.151","Mozilla/5.0 (Windows NT 10.0; Win64; x64) AppleWebKit/537.36 (KHTML, like Gecko) Chrome/138.0.0.0 Safari/537.36","WebKit","Chrome","138.0.0.0","Windows","10.0","https://app.prolific.com/","en-US,en;q=0.9","60a50457d02bfc23c02d4717","683dba9a53627eb9ab41b36a","688b6ba7e4fb3f3b871a32b2","0","60a50457d02bfc23c02d4717","0","2025-07-31T13:25:05.083Z","","","","AttribQ","","","","","","","","","","","50","","","","","","","","","","","","","","","","","","","","","","","","","","",""
"2678","","<div style=""width:500px;"">
  <p>How much control did you have over the ball?</p>
  </div>","0","html-slider-response","50","762683","0.0-7.0-2.7","112","1","2025-07-31 13:12:22","36c45c0696341be0efffe67d72a12abb","41.145.209.151","Mozilla/5.0 (Windows NT 10.0; Win64; x64) AppleWebKit/537.36 (KHTML, like Gecko) Chrome/138.0.0.0 Safari/537.36","WebKit","Chrome","138.0.0.0","Windows","10.0","https://app.prolific.com/","en-US,en;q=0.9","60a50457d02bfc23c02d4717","683dba9a53627eb9ab41b36a","688b6ba7e4fb3f3b871a32b2","0","60a50457d02bfc23c02d4717","0","2025-07-31T13:25:07.763Z","","","","ControlQ","","","","","","","","","","","50","","","","","","","","","","","","","","","","","","","","","","","","","","",""
"3920","","<div style=""width:500px;"">
  <p>How would you describe your current emotional state?</p>
  </div>","55","html-slider-response","51","766603","0.0-7.0-3.7","112","1","2025-07-31 13:12:22","36c45c0696341be0efffe67d72a12abb","41.145.209.151","Mozilla/5.0 (Windows NT 10.0; Win64; x64) AppleWebKit/537.36 (KHTML, like Gecko) Chrome/138.0.0.0 Safari/537.36","WebKit","Chrome","138.0.0.0","Windows","10.0","https://app.prolific.com/","en-US,en;q=0.9","60a50457d02bfc23c02d4717","683dba9a53627eb9ab41b36a","688b6ba7e4fb3f3b871a32b2","0","60a50457d02bfc23c02d4717","0","2025-07-31T13:25:11.684Z","","","","StressQ","","","","","","","","","","","50","","","","","","","","","","","","","","","","","","","","","","","","","","",""
"2615","","<div style=""width:500px;"">
  <p>What best describes how you currently feel?</p>
  </div>","75","html-slider-response","52","769219","0.0-7.0-4.7","112","1","2025-07-31 13:12:22","36c45c0696341be0efffe67d72a12abb","41.145.209.151","Mozilla/5.0 (Windows NT 10.0; Win64; x64) AppleWebKit/537.36 (KHTML, like Gecko) Chrome/138.0.0.0 Safari/537.36","WebKit","Chrome","138.0.0.0","Windows","10.0","https://app.prolific.com/","en-US,en;q=0.9","60a50457d02bfc23c02d4717","683dba9a53627eb9ab41b36a","688b6ba7e4fb3f3b871a32b2","0","60a50457d02bfc23c02d4717","0","2025-07-31T13:25:14.300Z","","","","MotivationQ","","","","","","","","","","","50","","","","","","","","","","","","","","","","","","","","","","","","","","",""
"","","","","ctl-task-cpt","53","827285","0.0-7.0-0.8","112","1","2025-07-31 13:12:22","36c45c0696341be0efffe67d72a12abb","41.145.209.151","Mozilla/5.0 (Windows NT 10.0; Win64; x64) AppleWebKit/537.36 (KHTML, like Gecko) Chrome/138.0.0.0 Safari/537.36","WebKit","Chrome","138.0.0.0","Windows","10.0","https://app.prolific.com/","en-US,en;q=0.9","60a50457d02bfc23c02d4717","683dba9a53627eb9ab41b36a","688b6ba7e4fb3f3b871a32b2","0","60a50457d02bfc23c02d4717","0","2025-07-31T13:26:12.365Z","","","","","","","","","","","","","","","","win-only","0","g1:NW,g2:SE","0.4","9","0","775451.2","1149.5","6150.9","55047.3","1","4","4","6","1","-1","-1","13","14","0.09848484848484848","1416.3","3000","-2335","[""left"",""up""]","{""num_key_presses"":11,""num_perfect"":4,""num_errors"":0,""num_randdir"":7,""num_randdir_good_moves"":3,""num_whilered"":0,""num_whileblue"":0,""num_blue"":5,""num_good_moves"":6}","[414.57142857142856,416.47767857142856,0.1,414.57142857142856,416.47767857142856,101.3,414.57142857142856,416.47767857142856,204.8,414.57142857142856,416.47767857142856,306.6,414.57142857142856,416.47767857142856,412.6,414.57142857142856,416.47767857142856,516.3,414.57142857142856,416.47767857142856,617,348.57142857142856,335.47767857142856,734,247.57142857142856,205.47767857142856,834.3,208.57142857142856,157.47767857142856,948.8,168.57142857142856,136.47767857142856,1049.9,105.57142857142857,101.47767857142857,1152.1,95.57142857142857,96.47767857142857,1257,95.57142857142857,96.47767857142857,1362.5,95.57142857142857,96.47767857142857,1465.7,95.57142857142857,96.47767857142857,1568.5,95.57142857142857,96.47767857142857,1672,95.57142857142857,96.47767857142857,1772.3,95.57142857142857,96.47767857142857,1876.2,116.57142857142857,113.47767857142857,1977.2,127.57142857142857,114.47767857142857,2081.9,127.57142857142857,114.47767857142857,2182.5,127.57142857142857,114.47767857142857,2286.5,127.57142857142857,114.47767857142857,2391.2,127.57142857142857,114.47767857142857,2491.7,127.57142857142857,114.47767857142857,2598.2,197.57142857142856,114.47767857142857,2699.2,392.57142857142856,85.47767857142857,2801.7,467.57142857142856,42.47767857142857,2901.7,789.5714285714286,-112.52232142857143,3001.8,789.5714285714286,-112.52232142857143,3106.6,1204.5714285714287,-49.52232142857143,3209.2,1301.5714285714287,62.47767857142857,3311.5,1311.5714285714287,180.47767857142856,3411.9,1279.5714285714287,245.47767857142856,3518.5,1228.5714285714287,286.47767857142856,3624.5,1202.5714285714287,302.47767857142856,3728.3,1202.5714285714287,301.47767857142856,3831.2,1202.5714285714287,301.47767857142856,3937.6,1202.5714285714287,301.47767857142856,4038.1,1202.5714285714287,301.47767857142856,4140.6,1202.5714285714287,301.47767857142856,4243.8,1202.5714285714287,301.47767857142856,4350.7,1202.5714285714287,301.47767857142856,4450.8,1202.5714285714287,301.47767857142856,4559.5,1202.5714285714287,301.47767857142856,4663,1202.5714285714287,301.47767857142856,4765.9,1202.5714285714287,301.47767857142856,4865.9,1202.5714285714287,301.47767857142856,4966.8]","[1429,1429,1000,0,429,""oops"",""up"",""right"",""bad_move"",17580.6,16151.3,2273.2,14833.9,473.5,""oops"",""up"",""up"",""good_move"",20661.1,3080.2,2636.7,17580.9,443.5,""oops"",""up"",""left"",""good_move"",23513.7,2852.5,2495.3,20661.3,357.2,""smooth"",""left"",""left"",""good_move"",25846.9,2333,1971.8,23513.9,361.2,""oops"",""left"",""up"",""good_move"",28364.7,2517.3,2082.1,25847.4,435.2,""oops"",""left"",""right"",""bad_move"",31103.7,2738.7,2427.8,28365,310.9,""smooth"",""up"",""right"",""bad_move"",33672.7,2568.8,2241.3,31104,327.4,""oops"",""left"",""down"",""bad_move"",40742.1,7068.8,2977.8,37470,294.3,""smooth"",""left"",""left"",""good_move"",43718.8,2976.3,2675.9,40742.5,300.4,""smooth"",""left"",""left"",""good_move"",46625,2906,2637.5,43719,268.5,""oops"",""left"",""right"",""bad_move""]"
"3784","","<div style=""width:500px;"">
  <p>What determined the result of this run?</p>
  </div>","13","html-slider-response","54","831071","0.0-7.0-1.8","112","1","2025-07-31 13:12:22","36c45c0696341be0efffe67d72a12abb","41.145.209.151","Mozilla/5.0 (Windows NT 10.0; Win64; x64) AppleWebKit/537.36 (KHTML, like Gecko) Chrome/138.0.0.0 Safari/537.36","WebKit","Chrome","138.0.0.0","Windows","10.0","https://app.prolific.com/","en-US,en;q=0.9","60a50457d02bfc23c02d4717","683dba9a53627eb9ab41b36a","688b6ba7e4fb3f3b871a32b2","0","60a50457d02bfc23c02d4717","0","2025-07-31T13:26:16.151Z","","","","AttribQ","","","","","","","","","","","50","","","","","","","","","","","","","","","","","","","","","","","","","","",""
"2802","","<div style=""width:500px;"">
  <p>How much control did you have over the ball?</p>
  </div>","25","html-slider-response","55","833874","0.0-7.0-2.8","112","1","2025-07-31 13:12:22","36c45c0696341be0efffe67d72a12abb","41.145.209.151","Mozilla/5.0 (Windows NT 10.0; Win64; x64) AppleWebKit/537.36 (KHTML, like Gecko) Chrome/138.0.0.0 Safari/537.36","WebKit","Chrome","138.0.0.0","Windows","10.0","https://app.prolific.com/","en-US,en;q=0.9","60a50457d02bfc23c02d4717","683dba9a53627eb9ab41b36a","688b6ba7e4fb3f3b871a32b2","0","60a50457d02bfc23c02d4717","0","2025-07-31T13:26:18.954Z","","","","ControlQ","","","","","","","","","","","50","","","","","","","","","","","","","","","","","","","","","","","","","","",""
"5814","","<div style=""width:500px;"">
  <p>How would you describe your current emotional state?</p>
  </div>","100","html-slider-response","56","839690","0.0-7.0-3.8","112","1","2025-07-31 13:12:22","36c45c0696341be0efffe67d72a12abb","41.145.209.151","Mozilla/5.0 (Windows NT 10.0; Win64; x64) AppleWebKit/537.36 (KHTML, like Gecko) Chrome/138.0.0.0 Safari/537.36","WebKit","Chrome","138.0.0.0","Windows","10.0","https://app.prolific.com/","en-US,en;q=0.9","60a50457d02bfc23c02d4717","683dba9a53627eb9ab41b36a","688b6ba7e4fb3f3b871a32b2","0","60a50457d02bfc23c02d4717","0","2025-07-31T13:26:24.770Z","","","","StressQ","","","","","","","","","","","50","","","","","","","","","","","","","","","","","","","","","","","","","","",""
"2635","","<div style=""width:500px;"">
  <p>What best describes how you currently feel?</p>
  </div>","69","html-slider-response","57","842326","0.0-7.0-4.8","112","1","2025-07-31 13:12:22","36c45c0696341be0efffe67d72a12abb","41.145.209.151","Mozilla/5.0 (Windows NT 10.0; Win64; x64) AppleWebKit/537.36 (KHTML, like Gecko) Chrome/138.0.0.0 Safari/537.36","WebKit","Chrome","138.0.0.0","Windows","10.0","https://app.prolific.com/","en-US,en;q=0.9","60a50457d02bfc23c02d4717","683dba9a53627eb9ab41b36a","688b6ba7e4fb3f3b871a32b2","0","60a50457d02bfc23c02d4717","0","2025-07-31T13:26:27.406Z","","","","MotivationQ","","","","","","","","","","","50","","","","","","","","","","","","","","","","","","","","","","","","","","",""
"","","","","ctl-task-cpt","58","865521","0.0-7.0-0.9","112","1","2025-07-31 13:12:22","36c45c0696341be0efffe67d72a12abb","41.145.209.151","Mozilla/5.0 (Windows NT 10.0; Win64; x64) AppleWebKit/537.36 (KHTML, like Gecko) Chrome/138.0.0.0 Safari/537.36","WebKit","Chrome","138.0.0.0","Windows","10.0","https://app.prolific.com/","en-US,en;q=0.9","60a50457d02bfc23c02d4717","683dba9a53627eb9ab41b36a","688b6ba7e4fb3f3b871a32b2","0","60a50457d02bfc23c02d4717","0","2025-07-31T13:26:50.601Z","","","","","","","","","","","","","","","","win-only","3","g1:SW,g2:NE","0.5","10","0","848557.7","1125.7","6128.8","20175.9","1","4","8","6","1","1","1","14","13","0.10606060606060606","1600.4","3000","1480","[""down"",""left""]","{""num_key_presses"":6,""num_perfect"":3,""num_errors"":0,""num_randdir"":3,""num_randdir_good_moves"":2,""num_whilered"":0,""num_whileblue"":0,""num_blue"":0,""num_good_moves"":5}","[420.57142857142856,413.47767857142856,0.2,420.57142857142856,413.47767857142856,115.7,420.57142857142856,413.47767857142856,222.3,420.57142857142856,413.47767857142856,323,420.57142857142856,413.47767857142856,425.9,420.57142857142856,413.47767857142856,529.8,412.57142857142856,403.47767857142856,630.5,253.57142857142856,338.47767857142856,735.4,235.57142857142856,333.47767857142856,843,235.57142857142856,333.47767857142856,948.8,235.57142857142856,333.47767857142856,1049.7,95.57142857142857,564.4776785714286,1149.7,53.57142857142857,683.4776785714286,1250.6,42.57142857142857,708.4776785714286,1355.6,39.57142857142857,713.4776785714286,1455.7,39.57142857142857,713.4776785714286,1556.7,39.57142857142857,713.4776785714286,1666.1,39.57142857142857,713.4776785714286,1769.1,39.57142857142857,713.4776785714286,1884.8,39.57142857142857,713.4776785714286,1985.6,102.57142857142857,702.4776785714286,2092.9,797.5714285714286,638.4776785714286,2194.9,978.5714285714286,627.4776785714286,2300,978.5714285714286,627.4776785714286,2400,978.5714285714286,627.4776785714286,2505.3,978.5714285714286,627.4776785714286,2605.4,978.5714285714286,627.4776785714286,2709.7,978.5714285714286,627.4776785714286,2814.6,978.5714285714286,627.4776785714286,2915.4,978.5714285714286,627.4776785714286,3015.6,978.5714285714286,627.4776785714286,3119.7,978.5714285714286,627.4776785714286,3227.6,978.5714285714286,627.4776785714286,3331.3,978.5714285714286,627.4776785714286,3436.3,978.5714285714286,627.4776785714286,3540.8,978.5714285714286,627.4776785714286,3650.3,978.5714285714286,627.4776785714286,3750.6,978.5714285714286,627.4776785714286,3857.3,978.5714285714286,627.4776785714286,3959.8,978.5714285714286,627.4776785714286,4065.3,978.5714285714286,627.4776785714286,4166.7,978.5714285714286,627.4776785714286,4273.6,978.5714285714286,627.4776785714286,4373.9,978.5714285714286,627.4776785714286,4474.1,978.5714285714286,627.4776785714286,4579.5,978.5714285714286,627.4776785714286,4685.8,978.5714285714286,627.4776785714286,4785.8,978.5714285714286,627.4776785714286,4891.7]","[1505.1,1505.1,1000,0,505.1,""smooth"",""down"",""down"",""good_move"",3932,2426.5,2040.5,1505.5,386.1,""smooth"",""left"",""left"",""good_move"",6641.7,2708.5,2375.4,3933.2,333.1,""oops"",""left"",""left"",""good_move"",8873.9,2232,1936.1,6641.9,295.9,""oops"",""down"",""up"",""bad_move"",11630.2,2755.9,2444.7,8874.3,311.2,""oops"",""down"",""down"",""good_move"",13940.5,2310,2023.9,11630.5,286.1,""smooth"",""down"",""down"",""good_move""]"
"2600","","<div style=""width:500px;"">
  <p>What determined the result of this run?</p>
  </div>","76","html-slider-response","59","868123","0.0-7.0-1.9","112","1","2025-07-31 13:12:22","36c45c0696341be0efffe67d72a12abb","41.145.209.151","Mozilla/5.0 (Windows NT 10.0; Win64; x64) AppleWebKit/537.36 (KHTML, like Gecko) Chrome/138.0.0.0 Safari/537.36","WebKit","Chrome","138.0.0.0","Windows","10.0","https://app.prolific.com/","en-US,en;q=0.9","60a50457d02bfc23c02d4717","683dba9a53627eb9ab41b36a","688b6ba7e4fb3f3b871a32b2","0","60a50457d02bfc23c02d4717","0","2025-07-31T13:26:53.203Z","","","","AttribQ","","","","","","","","","","","50","","","","","","","","","","","","","","","","","","","","","","","","","","",""
"4766","","<div style=""width:500px;"">
  <p>How much control did you have over the ball?</p>
  </div>","79","html-slider-response","60","872891","0.0-7.0-2.9","112","1","2025-07-31 13:12:22","36c45c0696341be0efffe67d72a12abb","41.145.209.151","Mozilla/5.0 (Windows NT 10.0; Win64; x64) AppleWebKit/537.36 (KHTML, like Gecko) Chrome/138.0.0.0 Safari/537.36","WebKit","Chrome","138.0.0.0","Windows","10.0","https://app.prolific.com/","en-US,en;q=0.9","60a50457d02bfc23c02d4717","683dba9a53627eb9ab41b36a","688b6ba7e4fb3f3b871a32b2","0","60a50457d02bfc23c02d4717","0","2025-07-31T13:26:57.971Z","","","","ControlQ","","","","","","","","","","","50","","","","","","","","","","","","","","","","","","","","","","","","","","",""
"2422","","<div style=""width:500px;"">
  <p>How would you describe your current emotional state?</p>
  </div>","90","html-slider-response","61","875315","0.0-7.0-3.9","112","1","2025-07-31 13:12:22","36c45c0696341be0efffe67d72a12abb","41.145.209.151","Mozilla/5.0 (Windows NT 10.0; Win64; x64) AppleWebKit/537.36 (KHTML, like Gecko) Chrome/138.0.0.0 Safari/537.36","WebKit","Chrome","138.0.0.0","Windows","10.0","https://app.prolific.com/","en-US,en;q=0.9","60a50457d02bfc23c02d4717","683dba9a53627eb9ab41b36a","688b6ba7e4fb3f3b871a32b2","0","60a50457d02bfc23c02d4717","0","2025-07-31T13:27:00.395Z","","","","StressQ","","","","","","","","","","","50","","","","","","","","","","","","","","","","","","","","","","","","","","",""
"2169","","<div style=""width:500px;"">
  <p>What best describes how you currently feel?</p>
  </div>","70","html-slider-response","62","877485","0.0-7.0-4.9","112","1","2025-07-31 13:12:22","36c45c0696341be0efffe67d72a12abb","41.145.209.151","Mozilla/5.0 (Windows NT 10.0; Win64; x64) AppleWebKit/537.36 (KHTML, like Gecko) Chrome/138.0.0.0 Safari/537.36","WebKit","Chrome","138.0.0.0","Windows","10.0","https://app.prolific.com/","en-US,en;q=0.9","60a50457d02bfc23c02d4717","683dba9a53627eb9ab41b36a","688b6ba7e4fb3f3b871a32b2","0","60a50457d02bfc23c02d4717","0","2025-07-31T13:27:02.565Z","","","","MotivationQ","","","","","","","","","","","50","","","","","","","","","","","","","","","","","","","","","","","","","","",""
"","","","","ctl-task-cpt","63","902096","0.0-7.0-0.10","112","1","2025-07-31 13:12:22","36c45c0696341be0efffe67d72a12abb","41.145.209.151","Mozilla/5.0 (Windows NT 10.0; Win64; x64) AppleWebKit/537.36 (KHTML, like Gecko) Chrome/138.0.0.0 Safari/537.36","WebKit","Chrome","138.0.0.0","Windows","10.0","https://app.prolific.com/","en-US,en;q=0.9","60a50457d02bfc23c02d4717","683dba9a53627eb9ab41b36a","688b6ba7e4fb3f3b871a32b2","0","60a50457d02bfc23c02d4717","0","2025-07-31T13:27:27.176Z","","","","","","","","","","","","","","","","win-only","3","g1:SW,g2:NE","0.6","11","0","883717","867.6","5871.4","21580.8","1","4","8","6","1","1","1","15","14","0.11363636363636363","1039","3000","1245","[""down"",""left""]","{""num_key_presses"":6,""num_perfect"":4,""num_errors"":0,""num_randdir"":2,""num_randdir_good_moves"":1,""num_whilered"":0,""num_whileblue"":0,""num_blue"":0,""num_good_moves"":5}","[420.57142857142856,412.47767857142856,0.3,420.57142857142856,412.47767857142856,118.6,420.57142857142856,412.47767857142856,219.1,420.57142857142856,412.47767857142856,327.8,420.57142857142856,412.47767857142856,428,420.57142857142856,412.47767857142856,528.3,335.57142857142856,423.47767857142856,634.1,207.57142857142856,578.4776785714286,738.1,124.57142857142857,724.4776785714286,848.5,103.57142857142857,769.4776785714286,954,102.57142857142857,777.4776785714286,1054.3,102.57142857142857,778.4776785714286,1164.2,102.57142857142857,778.4776785714286,1268.9,338.57142857142856,751.4776785714286,1377.6,741.5714285714286,670.4776785714286,1479.5,968.5714285714286,622.4776785714286,1593.5,1086.5714285714287,595.4776785714286,1714.1,1088.5714285714287,593.4776785714286,1818.8,1088.5714285714287,593.4776785714286,1920.9,1088.5714285714287,593.4776785714286,2021.1,1083.5714285714287,601.4776785714286,2129.7,1065.5714285714287,603.4776785714286,2243.1,1065.5714285714287,603.4776785714286,2343.5,1065.5714285714287,603.4776785714286,2448.7,1065.5714285714287,603.4776785714286,2552.7,1065.5714285714287,603.4776785714286,2662.9,1065.5714285714287,603.4776785714286,2768.2,1065.5714285714287,603.4776785714286,2878.2,1065.5714285714287,603.4776785714286,2978.7,1065.5714285714287,603.4776785714286,3079.3,1065.5714285714287,603.4776785714286,3184,1055.5714285714287,624.4776785714286,3297.5,1055.5714285714287,624.4776785714286,3398.2,1055.5714285714287,624.4776785714286,3498.6,1055.5714285714287,624.4776785714286,3610.6,1055.5714285714287,624.4776785714286,3714.6,1055.5714285714287,624.4776785714286,3818.3,1055.5714285714287,624.4776785714286,3926.5,1055.5714285714287,624.4776785714286,4028.2,1055.5714285714287,624.4776785714286,4133.7,1055.5714285714287,624.4776785714286,4242.4,1055.5714285714287,624.4776785714286,4343.2,1055.5714285714287,624.4776785714286,4443.5,1055.5714285714287,624.4776785714286,4548.4,1055.5714285714287,624.4776785714286,4653.6,1055.5714285714287,624.4776785714286,4758.5,1055.5714285714287,624.4776785714286,4862.9,1055.5714285714287,624.4776785714286,4962.9]","[1434.3,1434.3,1000,0,434.3,""smooth"",""left"",""left"",""good_move"",3568,2133.3,1769.1,1434.7,364.2,""smooth"",""down"",""down"",""good_move"",6688.8,3120.5,2690.3,3568.3,430.2,""oops"",""left"",""right"",""bad_move"",9399.4,2710.1,2311.1,6689.3,399,""oops"",""down"",""left"",""good_move"",12608.6,3208.5,2843.2,9400.1,365.3,""smooth"",""down"",""down"",""good_move"",15593.9,2985,2629,12608.9,356,""smooth"",""left"",""left"",""good_move""]"
"4258","","<div style=""width:500px;"">
  <p>What determined the result of this run?</p>
  </div>","60","html-slider-response","64","906355","0.0-7.0-1.10","112","1","2025-07-31 13:12:22","36c45c0696341be0efffe67d72a12abb","41.145.209.151","Mozilla/5.0 (Windows NT 10.0; Win64; x64) AppleWebKit/537.36 (KHTML, like Gecko) Chrome/138.0.0.0 Safari/537.36","WebKit","Chrome","138.0.0.0","Windows","10.0","https://app.prolific.com/","en-US,en;q=0.9","60a50457d02bfc23c02d4717","683dba9a53627eb9ab41b36a","688b6ba7e4fb3f3b871a32b2","0","60a50457d02bfc23c02d4717","0","2025-07-31T13:27:31.435Z","","","","AttribQ","","","","","","","","","","","50","","","","","","","","","","","","","","","","","","","","","","","","","","",""
"1511","","<div style=""width:500px;"">
  <p>How much control did you have over the ball?</p>
  </div>","65","html-slider-response","65","907867","0.0-7.0-2.10","112","1","2025-07-31 13:12:22","36c45c0696341be0efffe67d72a12abb","41.145.209.151","Mozilla/5.0 (Windows NT 10.0; Win64; x64) AppleWebKit/537.36 (KHTML, like Gecko) Chrome/138.0.0.0 Safari/537.36","WebKit","Chrome","138.0.0.0","Windows","10.0","https://app.prolific.com/","en-US,en;q=0.9","60a50457d02bfc23c02d4717","683dba9a53627eb9ab41b36a","688b6ba7e4fb3f3b871a32b2","0","60a50457d02bfc23c02d4717","0","2025-07-31T13:27:32.947Z","","","","ControlQ","","","","","","","","","","","50","","","","","","","","","","","","","","","","","","","","","","","","","","",""
"2726","","<div style=""width:500px;"">
  <p>How would you describe your current emotional state?</p>
  </div>","70","html-slider-response","66","910595","0.0-7.0-3.10","112","1","2025-07-31 13:12:22","36c45c0696341be0efffe67d72a12abb","41.145.209.151","Mozilla/5.0 (Windows NT 10.0; Win64; x64) AppleWebKit/537.36 (KHTML, like Gecko) Chrome/138.0.0.0 Safari/537.36","WebKit","Chrome","138.0.0.0","Windows","10.0","https://app.prolific.com/","en-US,en;q=0.9","60a50457d02bfc23c02d4717","683dba9a53627eb9ab41b36a","688b6ba7e4fb3f3b871a32b2","0","60a50457d02bfc23c02d4717","0","2025-07-31T13:27:35.675Z","","","","StressQ","","","","","","","","","","","50","","","","","","","","","","","","","","","","","","","","","","","","","","",""
"1767","","<div style=""width:500px;"">
  <p>What best describes how you currently feel?</p>
  </div>","71","html-slider-response","67","912363","0.0-7.0-4.10","112","1","2025-07-31 13:12:22","36c45c0696341be0efffe67d72a12abb","41.145.209.151","Mozilla/5.0 (Windows NT 10.0; Win64; x64) AppleWebKit/537.36 (KHTML, like Gecko) Chrome/138.0.0.0 Safari/537.36","WebKit","Chrome","138.0.0.0","Windows","10.0","https://app.prolific.com/","en-US,en;q=0.9","60a50457d02bfc23c02d4717","683dba9a53627eb9ab41b36a","688b6ba7e4fb3f3b871a32b2","0","60a50457d02bfc23c02d4717","0","2025-07-31T13:27:37.443Z","","","","MotivationQ","","","","","","","","","","","50","","","","","","","","","","","","","","","","","","","","","","","","","","",""
"","","","","ctl-task-cpt","68","932450","0.0-7.0-0.11","112","1","2025-07-31 13:12:22","36c45c0696341be0efffe67d72a12abb","41.145.209.151","Mozilla/5.0 (Windows NT 10.0; Win64; x64) AppleWebKit/537.36 (KHTML, like Gecko) Chrome/138.0.0.0 Safari/537.36","WebKit","Chrome","138.0.0.0","Windows","10.0","https://app.prolific.com/","en-US,en;q=0.9","60a50457d02bfc23c02d4717","683dba9a53627eb9ab41b36a","688b6ba7e4fb3f3b871a32b2","0","60a50457d02bfc23c02d4717","0","2025-07-31T13:27:57.530Z","","","","","","","","","","","","","","","","win-only","1","g1:NE,g2:SW","0.7","12","0","918594.1","888.1","5891.1","17070.7","1","4","4","6","1","1","1","16","15","0.12121212121212122","1045.1","3000","1845","[""up"",""right""]","{""num_key_presses"":4,""num_perfect"":4,""num_errors"":0,""num_randdir"":0,""num_randdir_good_moves"":0,""num_whilered"":0,""num_whileblue"":0,""num_blue"":0,""num_good_moves"":4}","[427.57142857142856,421.47767857142856,0.1,427.57142857142856,421.47767857142856,112.4,427.57142857142856,421.47767857142856,212.9,427.57142857142856,421.47767857142856,314.1,432.57142857142856,415.47767857142856,416.7,455.57142857142856,399.47767857142856,518.4,494.57142857142856,315.47767857142856,623.1,646.5714285714286,163.47767857142856,732.3,704.5714285714286,125.47767857142857,833.3,707.5714285714286,123.47767857142857,949.4,731.5714285714286,107.47767857142857,1049.6,731.5714285714286,107.47767857142857,1153.8,731.5714285714286,107.47767857142857,1264.2,731.5714285714286,107.47767857142857,1368.1,797.5714285714286,122.47767857142857,1472.6,797.5714285714286,122.47767857142857,1573,797.5714285714286,122.47767857142857,1678.2,797.5714285714286,122.47767857142857,1782.9,797.5714285714286,122.47767857142857,1898,797.5714285714286,122.47767857142857,1999.2,797.5714285714286,122.47767857142857,2102.4,895.5714285714286,123.47767857142857,2202.6,1049.5714285714287,168.47767857142856,2304.3,1151.5714285714287,211.47767857142856,2411.7,1150.5714285714287,211.47767857142856,2512.1,1150.5714285714287,211.47767857142856,2613.9,1150.5714285714287,211.47767857142856,2727.9,1150.5714285714287,211.47767857142856,2828.3,1150.5714285714287,211.47767857142856,2928.9,1150.5714285714287,211.47767857142856,3032.4,1150.5714285714287,211.47767857142856,3133.4,1150.5714285714287,211.47767857142856,3245.6,1150.5714285714287,211.47767857142856,3348,1150.5714285714287,211.47767857142856,3448.1,1150.5714285714287,211.47767857142856,3552.3,1150.5714285714287,211.47767857142856,3663.2,1150.5714285714287,211.47767857142856,3763.3,1150.5714285714287,211.47767857142856,3867.3,1150.5714285714287,211.47767857142856,3977.7,1150.5714285714287,211.47767857142856,4078.2,1150.5714285714287,211.47767857142856,4182.2,1150.5714285714287,211.47767857142856,4285.2,1150.5714285714287,211.47767857142856,4387.2,1150.5714285714287,211.47767857142856,4487.2,1150.5714285714287,211.47767857142856,4588.1,1150.5714285714287,211.47767857142856,4688.3,1150.5714285714287,211.47767857142856,4788.4,1150.5714285714287,211.47767857142856,4892.1,1150.5714285714287,211.47767857142856,4996.1]","[1490.7,1490.7,1000,0,490.7,""smooth"",""right"",""right"",""good_move"",4310.8,2819.7,2405.8,1491.1,413.9,""smooth"",""right"",""right"",""good_move"",8244,3933.1,3558.4,4310.9,374.7,""smooth"",""up"",""up"",""good_move"",11062.2,2817.9,2468.6,8244.3,349.3,""smooth"",""up"",""up"",""good_move""]"
"2264","","<div style=""width:500px;"">
  <p>What determined the result of this run?</p>
  </div>","100","html-slider-response","69","934715","0.0-7.0-1.11","112","1","2025-07-31 13:12:22","36c45c0696341be0efffe67d72a12abb","41.145.209.151","Mozilla/5.0 (Windows NT 10.0; Win64; x64) AppleWebKit/537.36 (KHTML, like Gecko) Chrome/138.0.0.0 Safari/537.36","WebKit","Chrome","138.0.0.0","Windows","10.0","https://app.prolific.com/","en-US,en;q=0.9","60a50457d02bfc23c02d4717","683dba9a53627eb9ab41b36a","688b6ba7e4fb3f3b871a32b2","0","60a50457d02bfc23c02d4717","0","2025-07-31T13:27:59.795Z","","","","AttribQ","","","","","","","","","","","50","","","","","","","","","","","","","","","","","","","","","","","","","","",""
"2456","","<div style=""width:500px;"">
  <p>How much control did you have over the ball?</p>
  </div>","100","html-slider-response","70","937173","0.0-7.0-2.11","112","1","2025-07-31 13:12:22","36c45c0696341be0efffe67d72a12abb","41.145.209.151","Mozilla/5.0 (Windows NT 10.0; Win64; x64) AppleWebKit/537.36 (KHTML, like Gecko) Chrome/138.0.0.0 Safari/537.36","WebKit","Chrome","138.0.0.0","Windows","10.0","https://app.prolific.com/","en-US,en;q=0.9","60a50457d02bfc23c02d4717","683dba9a53627eb9ab41b36a","688b6ba7e4fb3f3b871a32b2","0","60a50457d02bfc23c02d4717","0","2025-07-31T13:28:02.253Z","","","","ControlQ","","","","","","","","","","","50","","","","","","","","","","","","","","","","","","","","","","","","","","",""
"3076","","<div style=""width:500px;"">
  <p>How would you describe your current emotional state?</p>
  </div>","78","html-slider-response","71","940250","0.0-7.0-3.11","112","1","2025-07-31 13:12:22","36c45c0696341be0efffe67d72a12abb","41.145.209.151","Mozilla/5.0 (Windows NT 10.0; Win64; x64) AppleWebKit/537.36 (KHTML, like Gecko) Chrome/138.0.0.0 Safari/537.36","WebKit","Chrome","138.0.0.0","Windows","10.0","https://app.prolific.com/","en-US,en;q=0.9","60a50457d02bfc23c02d4717","683dba9a53627eb9ab41b36a","688b6ba7e4fb3f3b871a32b2","0","60a50457d02bfc23c02d4717","0","2025-07-31T13:28:05.330Z","","","","StressQ","","","","","","","","","","","50","","","","","","","","","","","","","","","","","","","","","","","","","","",""
"2216","","<div style=""width:500px;"">
  <p>What best describes how you currently feel?</p>
  </div>","90","html-slider-response","72","942467","0.0-7.0-4.11","112","1","2025-07-31 13:12:22","36c45c0696341be0efffe67d72a12abb","41.145.209.151","Mozilla/5.0 (Windows NT 10.0; Win64; x64) AppleWebKit/537.36 (KHTML, like Gecko) Chrome/138.0.0.0 Safari/537.36","WebKit","Chrome","138.0.0.0","Windows","10.0","https://app.prolific.com/","en-US,en;q=0.9","60a50457d02bfc23c02d4717","683dba9a53627eb9ab41b36a","688b6ba7e4fb3f3b871a32b2","0","60a50457d02bfc23c02d4717","0","2025-07-31T13:28:07.547Z","","","","MotivationQ","","","","","","","","","","","50","","","","","","","","","","","","","","","","","","","","","","","","","","",""
"","","","","ctl-task-cpt","73","962458","0.0-7.0-0.12","112","1","2025-07-31 13:12:22","36c45c0696341be0efffe67d72a12abb","41.145.209.151","Mozilla/5.0 (Windows NT 10.0; Win64; x64) AppleWebKit/537.36 (KHTML, like Gecko) Chrome/138.0.0.0 Safari/537.36","WebKit","Chrome","138.0.0.0","Windows","10.0","https://app.prolific.com/","en-US,en;q=0.9","60a50457d02bfc23c02d4717","683dba9a53627eb9ab41b36a","688b6ba7e4fb3f3b871a32b2","0","60a50457d02bfc23c02d4717","0","2025-07-31T13:28:27.538Z","","","","","","","","","","","","","","","","win-only","2","g1:SE,g2:NW","0.8","13","0","948698.3","1145","6145.6","16982.8","1","4","4","6","1","1","1","17","16","0.12878787878787878","1149.3","3000","1830","[""down"",""right""]","{""num_key_presses"":4,""num_perfect"":4,""num_errors"":0,""num_randdir"":0,""num_randdir_good_moves"":0,""num_whilered"":0,""num_whileblue"":0,""num_blue"":0,""num_good_moves"":4}","[418.57142857142856,419.47767857142856,0.5,418.57142857142856,419.47767857142856,101.7,418.57142857142856,419.47767857142856,202.9,418.57142857142856,419.47767857142856,306.4,418.57142857142856,419.47767857142856,410.9,429.57142857142856,422.47767857142856,511,516.5714285714286,502.47767857142856,613.4,597.5714285714286,602.4776785714286,722.4,654.5714285714286,647.4776785714286,828.2,684.5714285714286,663.4776785714286,931.3,722.5714285714286,698.4776785714286,1040.4,768.5714285714286,756.4776785714286,1153.3,774.5714285714286,764.4776785714286,1256.1,774.5714285714286,764.4776785714286,1361.2,775.5714285714286,765.4776785714286,1466.1,775.5714285714286,765.4776785714286,1570.3,787.5714285714286,765.4776785714286,1670.6,889.5714285714286,739.4776785714286,1771.3,1170.5714285714287,651.4776785714286,1871.5,1216.5714285714287,636.4776785714286,1972,1375.5714285714287,663.4776785714286,2079.8,1375.5714285714287,663.4776785714286,2186.2,1375.5714285714287,663.4776785714286,2288,1375.5714285714287,663.4776785714286,2391.2,1375.5714285714287,663.4776785714286,2496.5,1375.5714285714287,725.4776785714286,2601.3,1370.5714285714287,718.4776785714286,2705.5,1370.5714285714287,718.4776785714286,2817.3,1370.5714285714287,718.4776785714286,2920.9,1370.5714285714287,718.4776785714286,3021.1,1370.5714285714287,718.4776785714286,3137.8,1370.5714285714287,718.4776785714286,3241,1370.5714285714287,718.4776785714286,3341.6,1370.5714285714287,718.4776785714286,3445.2,1370.5714285714287,718.4776785714286,3547,1370.5714285714287,718.4776785714286,3651.2,1370.5714285714287,718.4776785714286,3765.3,1370.5714285714287,718.4776785714286,3866.3,1370.5714285714287,718.4776785714286,3970.3,1370.5714285714287,718.4776785714286,4070.9,1370.5714285714287,718.4776785714286,4175.7,1370.5714285714287,718.4776785714286,4276.5,1370.5714285714287,718.4776785714286,4381.4,1370.5714285714287,718.4776785714286,4485.3,1370.5714285714287,718.4776785714286,4587.6,1370.5714285714287,718.4776785714286,4689.6,1370.5714285714287,718.4776785714286,4791.3,1370.5714285714287,718.4776785714286,4895.3,1370.5714285714287,718.4776785714286,4996.2]","[1469.7,1469.7,1000,0,469.7,""smooth"",""right"",""right"",""good_move"",5304.3,3834.2,3297.8,1470.1,536.4,""smooth"",""down"",""down"",""good_move"",8365.6,3061.1,2741.7,5304.5,319.4,""smooth"",""right"",""right"",""good_move"",10694.1,2328.2,1964.1,8365.9,364.1,""smooth"",""down"",""down"",""good_move""]"
"5730","","<div style=""width:500px;"">
  <p>What determined the result of this run?</p>
  </div>","100","html-slider-response","74","968189","0.0-7.0-1.12","112","1","2025-07-31 13:12:22","36c45c0696341be0efffe67d72a12abb","41.145.209.151","Mozilla/5.0 (Windows NT 10.0; Win64; x64) AppleWebKit/537.36 (KHTML, like Gecko) Chrome/138.0.0.0 Safari/537.36","WebKit","Chrome","138.0.0.0","Windows","10.0","https://app.prolific.com/","en-US,en;q=0.9","60a50457d02bfc23c02d4717","683dba9a53627eb9ab41b36a","688b6ba7e4fb3f3b871a32b2","0","60a50457d02bfc23c02d4717","0","2025-07-31T13:28:33.269Z","","","","AttribQ","","","","","","","","","","","50","","","","","","","","","","","","","","","","","","","","","","","","","","",""
"2012","","<div style=""width:500px;"">
  <p>How much control did you have over the ball?</p>
  </div>","100","html-slider-response","75","970203","0.0-7.0-2.12","112","1","2025-07-31 13:12:22","36c45c0696341be0efffe67d72a12abb","41.145.209.151","Mozilla/5.0 (Windows NT 10.0; Win64; x64) AppleWebKit/537.36 (KHTML, like Gecko) Chrome/138.0.0.0 Safari/537.36","WebKit","Chrome","138.0.0.0","Windows","10.0","https://app.prolific.com/","en-US,en;q=0.9","60a50457d02bfc23c02d4717","683dba9a53627eb9ab41b36a","688b6ba7e4fb3f3b871a32b2","0","60a50457d02bfc23c02d4717","0","2025-07-31T13:28:35.283Z","","","","ControlQ","","","","","","","","","","","50","","","","","","","","","","","","","","","","","","","","","","","","","","",""
"3214","","<div style=""width:500px;"">
  <p>How would you describe your current emotional state?</p>
  </div>","67","html-slider-response","76","973418","0.0-7.0-3.12","112","1","2025-07-31 13:12:22","36c45c0696341be0efffe67d72a12abb","41.145.209.151","Mozilla/5.0 (Windows NT 10.0; Win64; x64) AppleWebKit/537.36 (KHTML, like Gecko) Chrome/138.0.0.0 Safari/537.36","WebKit","Chrome","138.0.0.0","Windows","10.0","https://app.prolific.com/","en-US,en;q=0.9","60a50457d02bfc23c02d4717","683dba9a53627eb9ab41b36a","688b6ba7e4fb3f3b871a32b2","0","60a50457d02bfc23c02d4717","0","2025-07-31T13:28:38.499Z","","","","StressQ","","","","","","","","","","","50","","","","","","","","","","","","","","","","","","","","","","","","","","",""
"1886","","<div style=""width:500px;"">
  <p>What best describes how you currently feel?</p>
  </div>","68","html-slider-response","77","975307","0.0-7.0-4.12","112","1","2025-07-31 13:12:22","36c45c0696341be0efffe67d72a12abb","41.145.209.151","Mozilla/5.0 (Windows NT 10.0; Win64; x64) AppleWebKit/537.36 (KHTML, like Gecko) Chrome/138.0.0.0 Safari/537.36","WebKit","Chrome","138.0.0.0","Windows","10.0","https://app.prolific.com/","en-US,en;q=0.9","60a50457d02bfc23c02d4717","683dba9a53627eb9ab41b36a","688b6ba7e4fb3f3b871a32b2","0","60a50457d02bfc23c02d4717","0","2025-07-31T13:28:40.387Z","","","","MotivationQ","","","","","","","","","","","50","","","","","","","","","","","","","","","","","","","","","","","","","","",""
