"rt","response_timestamp","stimulus","response","trial_type","trial_index","time_elapsed","internal_node_id","run_id","condition","recorded_at","source_code_version","ip","user_agent","device","browser","browser_version","platform","platform_version","referer","accept_language","PROLIFIC_PID","STUDY_ID","SESSION_ID","BATCH","prolific_id","batch","realtime","success","question_order","question_id","eventType","responses","item_order","radio_event_ids","radio_event_times","key_event_times","mouse_event_times","straightlining","zigzagging","honeypot","view_history","slider_start","which_type","canvas_config","goals_layout","control_level","trial_number","tutorial_trial_number","trial_start_time","phase1_start_time","phase2_start_time","phase3_start_time","goal_1_value","goal_1_distance","goal_2_value","goal_2_distance","goal_selected","outcome","outcome_total","participant_final_score","participant_initial_score","participant_final_score_prop","goal_choice_rt","allocated_time","allocated_time_remaining","goal_direction","counts","mouse_movements","key_presses"
"7309","1754475533546","<p style='font-size:40px;line-height:1.25'><strong>Welcome to the experiment!</strong></p><p style='font-size:1.1em;line-height:1.25'>Thank you for participanting in our experiment again! You will be asked to play the Dysfunctional Ball Game again. We will briefly recap the rules before we start.</p><p style='font-size:1.1em;line-height:1.25'>Press <strong>Next</strong> to continue.</p>","0","custom-html-button-response","0","7310","0.0-0.0","177","1","2025-08-06 10:18:46","36c45c0696341be0efffe67d72a12abb","169.1.3.252","Mozilla/5.0 (Windows NT 10.0; Win64; x64) AppleWebKit/537.36 (KHTML, like Gecko) Chrome/138.0.0.0 Safari/537.36","WebKit","Chrome","138.0.0.0","Windows","10.0","https://app.prolific.com/","en-US,en;q=0.9","60aad516e34718d318bfb44d","6877649eabb845cf142cd221","68932bcf5183624bf30c40b4","1","60aad516e34718d318bfb44d","1","2025-08-06T10:18:53.547Z","","","","","","","","","","","","","","","","","","","","","","","","","","","","","","","","","","","","","","","","","",""
"3844","","","","fullscreen","1","12161","0.0-1.0","177","1","2025-08-06 10:18:46","36c45c0696341be0efffe67d72a12abb","169.1.3.252","Mozilla/5.0 (Windows NT 10.0; Win64; x64) AppleWebKit/537.36 (KHTML, like Gecko) Chrome/138.0.0.0 Safari/537.36","WebKit","Chrome","138.0.0.0","Windows","10.0","https://app.prolific.com/","en-US,en;q=0.9","60aad516e34718d318bfb44d","6877649eabb845cf142cd221","68932bcf5183624bf30c40b4","1","60aad516e34718d318bfb44d","1","","true","","","","","","","","","","","","","","","","","","","","","","","","","","","","","","","","","","","","","","","","",""
"5774","1754475544173"," <p style='font-size:1.1em;line-height:1.25'>Thank you for closing all other tabs.</p><p style='font-size:1.1em;line-height:1.25'>We will now invite you to fill in some questionnaires, before starting the game.<br>This will take about 5 minutes.<br></p><p style='font-size:1.1em;line-height:1.25'>Press the <strong>Next</strong> button to continue.</p>","0","custom-html-button-response","2","17937","0.0-2.0","177","1","2025-08-06 10:18:46","36c45c0696341be0efffe67d72a12abb","169.1.3.252","Mozilla/5.0 (Windows NT 10.0; Win64; x64) AppleWebKit/537.36 (KHTML, like Gecko) Chrome/138.0.0.0 Safari/537.36","WebKit","Chrome","138.0.0.0","Windows","10.0","https://app.prolific.com/","en-US,en;q=0.9","60aad516e34718d318bfb44d","6877649eabb845cf142cd221","68932bcf5183624bf30c40b4","1","60aad516e34718d318bfb44d","1","2025-08-06T10:19:04.174Z","","","","","","","","","","","","","","","","","","","","","","","","","","","","","","","","","","","","","","","","","",""
"3456","","","{""assigned_sex"":""female""}","survey-multi-choice","3","21395","0.0-3.0-0.0","177","1","2025-08-06 10:18:46","36c45c0696341be0efffe67d72a12abb","169.1.3.252","Mozilla/5.0 (Windows NT 10.0; Win64; x64) AppleWebKit/537.36 (KHTML, like Gecko) Chrome/138.0.0.0 Safari/537.36","WebKit","Chrome","138.0.0.0","Windows","10.0","https://app.prolific.com/","en-US,en;q=0.9","60aad516e34718d318bfb44d","6877649eabb845cf142cd221","68932bcf5183624bf30c40b4","1","60aad516e34718d318bfb44d","1","","","[0]","0","demographics","","","","","","","","","","","","","","","","","","","","","","","","","","","","","","","","","","","","","",""
"7071","1754475554703","<p style='font-size:1.1em;line-height:1.25'>In the following, we will perform a baseline assessment. This means that we will ask you a few questions relating to your experiences over the past month.<br></p><p style='font-size:1.1em;line-height:1.25'>Press the <strong>Next</strong> button to continue.</p>","0","custom-html-button-response","4","28466","0.0-4.0-0.0","177","1","2025-08-06 10:18:46","36c45c0696341be0efffe67d72a12abb","169.1.3.252","Mozilla/5.0 (Windows NT 10.0; Win64; x64) AppleWebKit/537.36 (KHTML, like Gecko) Chrome/138.0.0.0 Safari/537.36","WebKit","Chrome","138.0.0.0","Windows","10.0","https://app.prolific.com/","en-US,en;q=0.9","60aad516e34718d318bfb44d","6877649eabb845cf142cd221","68932bcf5183624bf30c40b4","1","60aad516e34718d318bfb44d","1","2025-08-06T10:19:14.704Z","","","","","","","","","","","","","","","","","","","","","","","","","","","","","","","","","","","","","","","","","",""
"124803.5","","","","survey-template","5","153273","0.0-4.0-1.0","177","1","2025-08-06 10:18:46","36c45c0696341be0efffe67d72a12abb","169.1.3.252","Mozilla/5.0 (Windows NT 10.0; Win64; x64) AppleWebKit/537.36 (KHTML, like Gecko) Chrome/138.0.0.0 Safari/537.36","WebKit","Chrome","138.0.0.0","Windows","10.0","https://app.prolific.com/","en-US,en;q=0.9","60aad516e34718d318bfb44d","6877649eabb845cf142cd221","68932bcf5183624bf30c40b4","1","60aad516e34718d318bfb44d","1","2025-08-06T10:21:19.510Z","","","","pss","{""Q01"":""2"",""Q02"":""2"",""Q03"":""2"",""Q04"":""2"",""Q05"":""1"",""Q06"":""2"",""Q07"":""2"",""Q08"":""2"",""Q09"":""3"",""Q10"":""2""}","[0,1,2,3,4,5,6,7,8,9]","[""Q01"",""Q02"",""Q03"",""Q04"",""Q05"",""Q05"",""Q05"",""Q06"",""Q07"",""Q08"",""Q09"",""Q10""]","[15335.700000047684,23772.600000023842,29136.5,55184.700000047684,63546.200000047684,75862.70000004768,77023.5,89092,99540.70000004768,107888.5,115582.40000003576,123766.30000001192]","[]","[16.80000001192093,14525.600000023842,15335.700000047684,23772.600000023842,28605.400000035763,29136.5,55184.700000047684,61919.10000002384,62475.200000047684,63546.200000047684,75862.70000004768,77023.5,80056.40000003576,86940,89092,98984.90000003576,99540.70000004768,107521,107888.5,115582.40000003576,123766.30000001192,124800.90000003576]","0.8","0.4444444444444444","0","","","","","","","","","","","","","","","","","","","","","","","","","","","","",""
"4975","1754475684486","<p style='font-size:1.1em;line-height:1.25'>Thank you for your answers! Now we will ask you a few more questions relating to your feelings in the last 24 hours.<br></p><p style='font-size:1.1em;line-height:1.25'>Press the <strong>Next</strong> button to continue.</p>","0","custom-html-button-response","6","158250","0.0-4.0-2.0","177","1","2025-08-06 10:18:46","36c45c0696341be0efffe67d72a12abb","169.1.3.252","Mozilla/5.0 (Windows NT 10.0; Win64; x64) AppleWebKit/537.36 (KHTML, like Gecko) Chrome/138.0.0.0 Safari/537.36","WebKit","Chrome","138.0.0.0","Windows","10.0","https://app.prolific.com/","en-US,en;q=0.9","60aad516e34718d318bfb44d","6877649eabb845cf142cd221","68932bcf5183624bf30c40b4","1","60aad516e34718d318bfb44d","1","2025-08-06T10:21:24.487Z","","","","","","","","","","","","","","","","","","","","","","","","","","","","","","","","","","","","","","","","","",""
"124596.09999996424","","","","survey-template","7","282849","0.0-4.0-3.0","177","1","2025-08-06 10:18:46","36c45c0696341be0efffe67d72a12abb","169.1.3.252","Mozilla/5.0 (Windows NT 10.0; Win64; x64) AppleWebKit/537.36 (KHTML, like Gecko) Chrome/138.0.0.0 Safari/537.36","WebKit","Chrome","138.0.0.0","Windows","10.0","https://app.prolific.com/","en-US,en;q=0.9","60aad516e34718d318bfb44d","6877649eabb845cf142cd221","68932bcf5183624bf30c40b4","1","60aad516e34718d318bfb44d","1","2025-08-06T10:23:29.086Z","","","","drsp","{""Q01"":""1"",""Q02"":""1"",""Q03"":""1"",""Q04"":""3"",""Q05"":""1"",""Q06"":""1"",""Q07"":""2"",""Q08"":""1"",""Q09"":""1"",""Q10"":""2"",""Q11"":""3"",""Q12"":""0"",""Q13"":""5"",""Q14"":""1"",""Q15"":""0"",""Q16"":""0"",""Q17"":""3"",""Q18"":""1"",""Q19"":""2"",""Q20"":""2"",""Q21"":""1"",""Q22"":""1""}","[0,1,2,3,4,5,6,7,8,9,10,11,12,13,14,15,16,17,18,19,20,21]","[""Q01"",""Q02"",""Q03"",""Q04"",""Q05"",""Q06"",""Q07"",""Q08"",""Q09"",""Q10"",""Q11"",""Q12"",""Q13"",""Q14"",""Q14"",""Q15"",""Q16"",""Q17"",""Q18"",""Q19"",""Q20"",""Q21"",""Q22""]","[3470.5,5600,8901,12403.399999976158,15382.5,19655.80000001192,21695.69999998808,24605.899999976158,29519,33173.19999998808,36681.69999998808,41122.59999996424,43229.89999997616,47534.89999997616,49004.39999997616,80738,87068.39999997616,90188,93255.69999998808,100478.30000001192,107417.89999997616,111714.89999997616,115067.30000001192]","[]","[11.099999964237213,3470.5,5600,7814.300000011921,8278.5,8901,11556.800000011921,12403.399999976158,15382.5,19655.80000001192,21695.69999998808,24605.899999976158,29084.899999976158,29519,33173.19999998808,36681.69999998808,41122.59999996424,43229.89999997616,46898.80000001192,47534.89999997616,49004.39999997616,80738,86146.09999996424,87068.39999997616,89566.5,90188,93255.69999998808,95415.19999998808,100478.30000001192,107417.89999997616,111714.89999997616,115067.30000001192,124591.89999997616]","0.5","0.38095238095238093","0","","","","","","","","","","","","","","","","","","","","","","","","","","","","",""
"15843.600000023842","","","","survey-template","8","298694","0.0-4.0-4.0","177","1","2025-08-06 10:18:46","36c45c0696341be0efffe67d72a12abb","169.1.3.252","Mozilla/5.0 (Windows NT 10.0; Win64; x64) AppleWebKit/537.36 (KHTML, like Gecko) Chrome/138.0.0.0 Safari/537.36","WebKit","Chrome","138.0.0.0","Windows","10.0","https://app.prolific.com/","en-US,en;q=0.9","60aad516e34718d318bfb44d","6877649eabb845cf142cd221","68932bcf5183624bf30c40b4","1","60aad516e34718d318bfb44d","1","2025-08-06T10:23:44.931Z","","","","stress","{""Q01"":""3"",""Q02"":""4"",""Q03"":""2""}","[0,1,2]","[""Q01"",""Q02"",""Q03"",""Q03""]","[3728.199999988079,9510.699999988079,14183.800000011921,14866.600000023842]","[]","[3728.199999988079,7103.300000011921,8941,9510.699999988079,14183.800000011921,14866.600000023842,15842.800000011921]","0.3333333333333333","0.5","0","","","","","","","","","","","","","","","","","","","","","","","","","","","","",""
"103499","","","","instructions","9","402193","0.0-5.0-0.0","177","1","2025-08-06 10:18:46","36c45c0696341be0efffe67d72a12abb","169.1.3.252","Mozilla/5.0 (Windows NT 10.0; Win64; x64) AppleWebKit/537.36 (KHTML, like Gecko) Chrome/138.0.0.0 Safari/537.36","WebKit","Chrome","138.0.0.0","Windows","10.0","https://app.prolific.com/","en-US,en;q=0.9","60aad516e34718d318bfb44d","6877649eabb845cf142cd221","68932bcf5183624bf30c40b4","1","60aad516e34718d318bfb44d","1","","","","","","","","","","","","","","","[{""page_index"":0,""viewing_time"":103498}]","","","","","","","","","","","","","","","","","","","","","","","","","","","",""
"13447","","<p>Before you start with this game please answer the following three questions yourself. </p>
  <p>Through this game, we measure several aspects of your cognitive performance, such as reaction times, multi-tasking capabilities </p>
  <p>and the ability to assess the situation you are in.</p>
  <p></p>
  <p><b>How good do you usually are in such tasks?</b></p>","59","html-slider-response","10","415642","0.0-6.0-0.0","177","1","2025-08-06 10:18:46","36c45c0696341be0efffe67d72a12abb","169.1.3.252","Mozilla/5.0 (Windows NT 10.0; Win64; x64) AppleWebKit/537.36 (KHTML, like Gecko) Chrome/138.0.0.0 Safari/537.36","WebKit","Chrome","138.0.0.0","Windows","10.0","https://app.prolific.com/","en-US,en;q=0.9","60aad516e34718d318bfb44d","6877649eabb845cf142cd221","68932bcf5183624bf30c40b4","1","60aad516e34718d318bfb44d","1","2025-08-06T10:25:41.879Z","","","","PreSkillQ","","","","","","","","","","","50","","","","","","","","","","","","","","","","","","","","","","","","","","",""
"4722","","<div style=""width:500px;"">
  <p>How well do you think you will perform in this task compared to other participants?</p>
  </div>","67","html-slider-response","11","420365","0.0-6.0-1.0","177","1","2025-08-06 10:18:46","36c45c0696341be0efffe67d72a12abb","169.1.3.252","Mozilla/5.0 (Windows NT 10.0; Win64; x64) AppleWebKit/537.36 (KHTML, like Gecko) Chrome/138.0.0.0 Safari/537.36","WebKit","Chrome","138.0.0.0","Windows","10.0","https://app.prolific.com/","en-US,en;q=0.9","60aad516e34718d318bfb44d","6877649eabb845cf142cd221","68932bcf5183624bf30c40b4","1","60aad516e34718d318bfb44d","1","2025-08-06T10:25:46.603Z","","","","PrePerfQ","","","","","","","","","","","50","","","","","","","","","","","","","","","","","","","","","","","","","","",""
"5461","","<div style=""width:500px;"">
  <p>What best describes how you currently feel?</p>
  </div>","40","html-slider-response","12","425827","0.0-6.0-2.0","177","1","2025-08-06 10:18:46","36c45c0696341be0efffe67d72a12abb","169.1.3.252","Mozilla/5.0 (Windows NT 10.0; Win64; x64) AppleWebKit/537.36 (KHTML, like Gecko) Chrome/138.0.0.0 Safari/537.36","WebKit","Chrome","138.0.0.0","Windows","10.0","https://app.prolific.com/","en-US,en;q=0.9","60aad516e34718d318bfb44d","6877649eabb845cf142cd221","68932bcf5183624bf30c40b4","1","60aad516e34718d318bfb44d","1","2025-08-06T10:25:52.064Z","","","","PreMotivationQ","","","","","","","","","","","50","","","","","","","","","","","","","","","","","","","","","","","","","","",""
"","","","","ctl-task-cpt","13","466656","0.0-7.0-0.0","177","1","2025-08-06 10:18:46","36c45c0696341be0efffe67d72a12abb","169.1.3.252","Mozilla/5.0 (Windows NT 10.0; Win64; x64) AppleWebKit/537.36 (KHTML, like Gecko) Chrome/138.0.0.0 Safari/537.36","WebKit","Chrome","138.0.0.0","Windows","10.0","https://app.prolific.com/","en-US,en;q=0.9","60aad516e34718d318bfb44d","6877649eabb845cf142cd221","68932bcf5183624bf30c40b4","1","60aad516e34718d318bfb44d","1","2025-08-06T10:26:32.894Z","","","","","","","","","","","","","","","","win-only","1","g1:NE,g2:SW","1","1","0","428341.6","2203.3","7207.5","37825.1","1","4","4","6","2","4","3","3","0","0.022727272727272728","1041.2","3000","210","[""down"",""left""]","{""num_key_presses"":8,""num_perfect"":7,""num_errors"":1,""num_randdir"":0,""num_randdir_good_moves"":0,""num_whilered"":0,""num_whileblue"":1,""num_blue"":4,""num_good_moves"":7}","[415.3214133126395,420.32142761775424,0.3,415.3214133126395,420.32142761775424,102.7,414.0714133126395,426.57142761775424,204.1,406.5714133126395,466.57142761775424,307.3,464.0714133126395,501.57142761775424,407.7,339.0714133126395,585.3214276177542,507.8,271.5714133126395,707.8214276177542,613.6,206.5714133126395,752.8214276177542,718.4,136.5714133126395,762.8214276177542,819.4,106.5714133126395,762.8214276177542,924.7,91.5714133126395,760.3214276177542,1027.9,91.5714133126395,760.3214276177542,1128.6,91.5714133126395,760.3214276177542,1233,91.5714133126395,760.3214276177542,1333.7,245.3214133126395,734.0714276177542,1437.9,245.3214133126395,734.0714276177542,1539.4,330.3214133126395,671.5714276177542,1642.5,479.0714133126395,654.0714276177542,1745.9,726.5714133126395,699.0714276177542,1848,762.8214133126395,705.3214276177542,1948.1,762.8214133126395,705.3214276177542,2049,762.8214133126395,705.3214276177542,2153.1,762.8214133126395,705.3214276177542,2257.9,762.8214133126395,705.3214276177542,2363.5,762.8214133126395,705.3214276177542,2468,761.5714133126395,706.5714276177542,2573,761.5714133126395,706.5714276177542,2677.7,761.5714133126395,706.5714276177542,2777.9,761.5714133126395,706.5714276177542,2878.7,761.5714133126395,706.5714276177542,2982.5,761.5714133126395,706.5714276177542,3083.2,759.0714133126395,704.0714276177542,3187.7,759.0714133126395,704.0714276177542,3293.3,759.0714133126395,704.0714276177542,3394.2,759.0714133126395,704.0714276177542,3497.7,759.0714133126395,704.0714276177542,3598.8,759.0714133126395,704.0714276177542,3702.9,759.0714133126395,704.0714276177542,3807.7,831.5714133126395,709.0714276177542,3907.8,965.3214133126395,706.5714276177542,4012.6,1166.5714133126396,669.0714276177542,4113,1186.5714133126396,615.3214276177542,4213.4,1185.3214133126396,607.8214276177542,4317.7,1181.5714133126396,607.8214276177542,4418.5,1177.8214133126396,607.8214276177542,4522.5,1176.5714133126396,607.8214276177542,4623.9,1176.5714133126396,607.8214276177542,4728.8,1175.3214133126396,607.8214276177542,4832.6,1174.0714133126396,607.8214276177542,4937.3]","[1325.7,1325.7,1000,0,325.7,""smooth"",""down"",""down"",""good_move"",3968.7,2642.5,2322.7,1326.3,319.7,""while_blue"",""down"",""up"",""bad_move"",6959.2,2989.6,2658.4,3969.6,331.2,""smooth"",""down"",""down"",""good_move"",9357.4,2398,1952.9,6959.4,445.1,""smooth"",""down"",""down"",""good_move"",15671.9,6314.2,2007.6,13209.8,454.5,""smooth"",""down"",""down"",""good_move"",18263.3,2591.3,2146.7,15672,444.6,""smooth"",""left"",""left"",""good_move"",20834.5,2570.5,2188.5,18264,382,""smooth"",""left"",""left"",""good_move"",30527.5,9692.3,2402,27679,446.5,""smooth"",""left"",""left"",""good_move""]"
"5189","","<div style=""width:500px;"">
  <p>What determined the result of this run?</p>
  </div>","84","html-slider-response","14","471848","0.0-7.0-1.0","177","1","2025-08-06 10:18:46","36c45c0696341be0efffe67d72a12abb","169.1.3.252","Mozilla/5.0 (Windows NT 10.0; Win64; x64) AppleWebKit/537.36 (KHTML, like Gecko) Chrome/138.0.0.0 Safari/537.36","WebKit","Chrome","138.0.0.0","Windows","10.0","https://app.prolific.com/","en-US,en;q=0.9","60aad516e34718d318bfb44d","6877649eabb845cf142cd221","68932bcf5183624bf30c40b4","1","60aad516e34718d318bfb44d","1","2025-08-06T10:26:38.085Z","","","","AttribQ","","","","","","","","","","","50","","","","","","","","","","","","","","","","","","","","","","","","","","",""
"2849","","<div style=""width:500px;"">
  <p>How much control did you have over the ball?</p>
  </div>","100","html-slider-response","15","474697","0.0-7.0-2.0","177","1","2025-08-06 10:18:46","36c45c0696341be0efffe67d72a12abb","169.1.3.252","Mozilla/5.0 (Windows NT 10.0; Win64; x64) AppleWebKit/537.36 (KHTML, like Gecko) Chrome/138.0.0.0 Safari/537.36","WebKit","Chrome","138.0.0.0","Windows","10.0","https://app.prolific.com/","en-US,en;q=0.9","60aad516e34718d318bfb44d","6877649eabb845cf142cd221","68932bcf5183624bf30c40b4","1","60aad516e34718d318bfb44d","1","2025-08-06T10:26:40.934Z","","","","ControlQ","","","","","","","","","","","50","","","","","","","","","","","","","","","","","","","","","","","","","","",""
"3262","","<div style=""width:500px;"">
  <p>How would you describe your current emotional state?</p>
  </div>","63","html-slider-response","16","477960","0.0-7.0-3.0","177","1","2025-08-06 10:18:46","36c45c0696341be0efffe67d72a12abb","169.1.3.252","Mozilla/5.0 (Windows NT 10.0; Win64; x64) AppleWebKit/537.36 (KHTML, like Gecko) Chrome/138.0.0.0 Safari/537.36","WebKit","Chrome","138.0.0.0","Windows","10.0","https://app.prolific.com/","en-US,en;q=0.9","60aad516e34718d318bfb44d","6877649eabb845cf142cd221","68932bcf5183624bf30c40b4","1","60aad516e34718d318bfb44d","1","2025-08-06T10:26:44.197Z","","","","StressQ","","","","","","","","","","","50","","","","","","","","","","","","","","","","","","","","","","","","","","",""
"3832","","<div style=""width:500px;"">
  <p>What best describes how you currently feel?</p>
  </div>","42","html-slider-response","17","481793","0.0-7.0-4.0","177","1","2025-08-06 10:18:46","36c45c0696341be0efffe67d72a12abb","169.1.3.252","Mozilla/5.0 (Windows NT 10.0; Win64; x64) AppleWebKit/537.36 (KHTML, like Gecko) Chrome/138.0.0.0 Safari/537.36","WebKit","Chrome","138.0.0.0","Windows","10.0","https://app.prolific.com/","en-US,en;q=0.9","60aad516e34718d318bfb44d","6877649eabb845cf142cd221","68932bcf5183624bf30c40b4","1","60aad516e34718d318bfb44d","1","2025-08-06T10:26:48.030Z","","","","MotivationQ","","","","","","","","","","","50","","","","","","","","","","","","","","","","","","","","","","","","","","",""
"","","","","ctl-task-cpt","18","513483","0.0-7.0-0.1","177","1","2025-08-06 10:18:46","36c45c0696341be0efffe67d72a12abb","169.1.3.252","Mozilla/5.0 (Windows NT 10.0; Win64; x64) AppleWebKit/537.36 (KHTML, like Gecko) Chrome/138.0.0.0 Safari/537.36","WebKit","Chrome","138.0.0.0","Windows","10.0","https://app.prolific.com/","en-US,en;q=0.9","60aad516e34718d318bfb44d","6877649eabb845cf142cd221","68932bcf5183624bf30c40b4","1","60aad516e34718d318bfb44d","1","2025-08-06T10:27:19.720Z","","","","","","","","","","","","","","","","win-only","0","g1:NW,g2:SE","0.9","2","0","484306.3","4493.6","9496","28685.4","1","4","8","6","2","8","8","11","3","0.08333333333333333","1184.7","3000","280","[""down"",""right""]","{""num_key_presses"":6,""num_perfect"":5,""num_errors"":0,""num_randdir"":1,""num_randdir_good_moves"":1,""num_whilered"":0,""num_whileblue"":0,""num_blue"":1,""num_good_moves"":6}","[412.8214133126395,422.82142761775424,0.3,412.8214133126395,422.82142761775424,102.4,412.8214133126395,429.07142761775424,203.1,411.5714133126395,441.57142761775424,306.8,394.0714133126395,460.32142761775424,406.8,437.8214133126395,514.0714276177542,507.1,694.0714133126395,774.0714276177542,607.5,801.5714133126395,856.5714276177542,712.7,821.5714133126395,862.8214276177542,812.8,826.5714133126395,862.8214276177542,912.8,799.0714133126395,806.5714276177542,1013.7,777.8214133126395,774.0714276177542,1114.7,775.3214133126395,761.5714276177542,1217.9,775.3214133126395,761.5714276177542,1322.3,816.5714133126395,782.8214276177542,1424.2,1001.5714133126395,802.8214276177542,1528.2,1111.5714133126396,792.8214276177542,1633,1119.0714133126396,786.5714276177542,1737.7,1119.0714133126396,786.5714276177542,1838,1119.0714133126396,786.5714276177542,1938.7,1119.0714133126396,786.5714276177542,2042.7,1119.0714133126396,786.5714276177542,2147.7,1119.0714133126396,786.5714276177542,2253.1,1119.0714133126396,786.5714276177542,2357,1119.0714133126396,786.5714276177542,2457.2,1119.0714133126396,786.5714276177542,2561.9,1119.0714133126396,786.5714276177542,2662.3,1119.0714133126396,786.5714276177542,2763.4,1119.0714133126396,786.5714276177542,2867.6,1119.0714133126396,786.5714276177542,2972.9,1119.0714133126396,786.5714276177542,3076.7,1119.0714133126396,786.5714276177542,3177.3,1119.0714133126396,786.5714276177542,3277.4,1119.0714133126396,786.5714276177542,3383.1,1117.8214133126396,784.0714276177542,3488.1,1117.8214133126396,784.0714276177542,3592,1117.8214133126396,784.0714276177542,3697,1117.8214133126396,784.0714276177542,3801.9,1117.8214133126396,784.0714276177542,3902.8,1117.8214133126396,784.0714276177542,4003.1,1117.8214133126396,784.0714276177542,4103.3,1117.8214133126396,784.0714276177542,4203.5,1117.8214133126396,784.0714276177542,4307.2,1117.8214133126396,784.0714276177542,4412.2,1117.8214133126396,784.0714276177542,4517.6,1117.8214133126396,784.0714276177542,4617.9,1117.8214133126396,784.0714276177542,4721.8,1117.8214133126396,782.8214276177542,4821.8,1117.8214133126396,782.8214276177542,4922.9]","[5085,5085.1,2575.2,2006,503.9,""smooth"",""down"",""down"",""good_move"",7753,2667.3,2235.8,5085.8,431.4,""smooth"",""down"",""down"",""good_move"",10808.2,3054.9,2510.8,7753.3,544.1,""smooth"",""down"",""down"",""good_move"",13171.4,2362.8,1995.2,10808.6,367.6,""smooth"",""right"",""right"",""good_move"",16153.6,2981.6,2586.8,13172,394.8,""oops"",""right"",""right"",""good_move"",19102.5,2948.1,2439.8,16154.5,508.3,""smooth"",""right"",""right"",""good_move""]"
"2824","","<div style=""width:500px;"">
  <p>What determined the result of this run?</p>
  </div>","97","html-slider-response","19","516309","0.0-7.0-1.1","177","1","2025-08-06 10:18:46","36c45c0696341be0efffe67d72a12abb","169.1.3.252","Mozilla/5.0 (Windows NT 10.0; Win64; x64) AppleWebKit/537.36 (KHTML, like Gecko) Chrome/138.0.0.0 Safari/537.36","WebKit","Chrome","138.0.0.0","Windows","10.0","https://app.prolific.com/","en-US,en;q=0.9","60aad516e34718d318bfb44d","6877649eabb845cf142cd221","68932bcf5183624bf30c40b4","1","60aad516e34718d318bfb44d","1","2025-08-06T10:27:22.546Z","","","","AttribQ","","","","","","","","","","","50","","","","","","","","","","","","","","","","","","","","","","","","","","",""
"2473","","<div style=""width:500px;"">
  <p>How much control did you have over the ball?</p>
  </div>","99","html-slider-response","20","518783","0.0-7.0-2.1","177","1","2025-08-06 10:18:46","36c45c0696341be0efffe67d72a12abb","169.1.3.252","Mozilla/5.0 (Windows NT 10.0; Win64; x64) AppleWebKit/537.36 (KHTML, like Gecko) Chrome/138.0.0.0 Safari/537.36","WebKit","Chrome","138.0.0.0","Windows","10.0","https://app.prolific.com/","en-US,en;q=0.9","60aad516e34718d318bfb44d","6877649eabb845cf142cd221","68932bcf5183624bf30c40b4","1","60aad516e34718d318bfb44d","1","2025-08-06T10:27:25.020Z","","","","ControlQ","","","","","","","","","","","50","","","","","","","","","","","","","","","","","","","","","","","","","","",""
"2159","","<div style=""width:500px;"">
  <p>How would you describe your current emotional state?</p>
  </div>","46","html-slider-response","21","520943","0.0-7.0-3.1","177","1","2025-08-06 10:18:46","36c45c0696341be0efffe67d72a12abb","169.1.3.252","Mozilla/5.0 (Windows NT 10.0; Win64; x64) AppleWebKit/537.36 (KHTML, like Gecko) Chrome/138.0.0.0 Safari/537.36","WebKit","Chrome","138.0.0.0","Windows","10.0","https://app.prolific.com/","en-US,en;q=0.9","60aad516e34718d318bfb44d","6877649eabb845cf142cd221","68932bcf5183624bf30c40b4","1","60aad516e34718d318bfb44d","1","2025-08-06T10:27:27.180Z","","","","StressQ","","","","","","","","","","","50","","","","","","","","","","","","","","","","","","","","","","","","","","",""
"3329","","<div style=""width:500px;"">
  <p>What best describes how you currently feel?</p>
  </div>","40","html-slider-response","22","524273","0.0-7.0-4.1","177","1","2025-08-06 10:18:46","36c45c0696341be0efffe67d72a12abb","169.1.3.252","Mozilla/5.0 (Windows NT 10.0; Win64; x64) AppleWebKit/537.36 (KHTML, like Gecko) Chrome/138.0.0.0 Safari/537.36","WebKit","Chrome","138.0.0.0","Windows","10.0","https://app.prolific.com/","en-US,en;q=0.9","60aad516e34718d318bfb44d","6877649eabb845cf142cd221","68932bcf5183624bf30c40b4","1","60aad516e34718d318bfb44d","1","2025-08-06T10:27:30.511Z","","","","MotivationQ","","","","","","","","","","","50","","","","","","","","","","","","","","","","","","","","","","","","","","",""
"","","","","ctl-task-cpt","23","559321","0.0-7.0-0.2","177","1","2025-08-06 10:18:46","36c45c0696341be0efffe67d72a12abb","169.1.3.252","Mozilla/5.0 (Windows NT 10.0; Win64; x64) AppleWebKit/537.36 (KHTML, like Gecko) Chrome/138.0.0.0 Safari/537.36","WebKit","Chrome","138.0.0.0","Windows","10.0","https://app.prolific.com/","en-US,en;q=0.9","60aad516e34718d318bfb44d","6877649eabb845cf142cd221","68932bcf5183624bf30c40b4","1","60aad516e34718d318bfb44d","1","2025-08-06T10:28:05.559Z","","","","","","","","","","","","","","","","win-only","1","g1:NE,g2:SW","0.8","3","0","526787.8","4447.8","9450.9","32031.1","1","4","8","6","2","8","8","19","11","0.14393939393939395","1266.9","3000","300","[""down"",""left""]","{""num_key_presses"":8,""num_perfect"":6,""num_errors"":0,""num_randdir"":2,""num_randdir_good_moves"":1,""num_whilered"":0,""num_whileblue"":0,""num_blue"":0,""num_good_moves"":7}","[415.3214133126395,411.57142761775424,0.7,415.3214133126395,411.57142761775424,102.6,415.3214133126395,414.07142761775424,202.7,425.3214133126395,435.32142761775424,303.1,497.8214133126395,414.07142761775424,404.9,561.5714133126395,380.32142761775424,509.1,505.3214133126395,406.57142761775424,613.5,272.8214133126395,651.5714276177542,718,206.5714133126395,740.3214276177542,818,156.5714133126395,784.0714276177542,923.2,130.3214133126395,785.3214276177542,1023.3,91.5714133126395,776.5714276177542,1129,84.0714133126395,765.3214276177542,1229,84.0714133126395,761.5714276177542,1332.9,84.0714133126395,761.5714276177542,1433.1,84.0714133126395,761.5714276177542,1533.5,121.5714133126395,837.8214276177542,1638.4,242.8214133126395,960.3214276177542,1743.3,390.3214133126395,960.3214276177542,1848,431.5714133126395,960.3214276177542,1948.1,441.5714133126395,960.3214276177542,2053.6,461.5714133126395,960.3214276177542,2158.1,466.5714133126395,960.3214276177542,2262.7,466.5714133126395,960.3214276177542,2363,466.5714133126395,960.3214276177542,2464,466.5714133126395,960.3214276177542,2569,466.5714133126395,960.3214276177542,2673.6,466.5714133126395,960.3214276177542,2774.7,466.5714133126395,960.3214276177542,2878.8,466.5714133126395,960.3214276177542,2983.4,466.5714133126395,960.3214276177542,3087.8,466.5714133126395,960.3214276177542,3188.1,466.5714133126395,960.3214276177542,3292.7,466.5714133126395,960.3214276177542,3393.7,466.5714133126395,960.3214276177542,3493.8,466.5714133126395,960.3214276177542,3597.8,466.5714133126395,960.3214276177542,3698,466.5714133126395,960.3214276177542,3803.7,466.5714133126395,960.3214276177542,3907.9,466.5714133126395,960.3214276177542,4008,466.5714133126395,960.3214276177542,4109.5,466.5714133126395,960.3214276177542,4215.7,466.5714133126395,960.3214276177542,4318.2,466.5714133126395,960.3214276177542,4423.2,466.5714133126395,960.3214276177542,4527.7,466.5714133126395,960.3214276177542,4627.8,466.5714133126395,960.3214276177542,4728.3,466.5714133126395,960.3214276177542,4833.1,466.5714133126395,960.3214276177542,4933.3]","[1447.5,1447.5,1000,0,447.5,""oops"",""down"",""up"",""bad_move"",4178.2,2728.3,2369.6,1449.9,358.7,""smooth"",""down"",""down"",""good_move"",7088.9,2909.9,2602.1,4179.1,307.8,""smooth"",""down"",""down"",""good_move"",10295.7,3206.3,2907.6,7089.4,298.7,""smooth"",""down"",""down"",""good_move"",13428.2,3132.4,2812.7,10295.9,319.7,""smooth"",""down"",""down"",""good_move"",16255.5,2826.8,2515.7,13428.7,311.1,""oops"",""left"",""left"",""good_move"",19131.6,2874.4,2583.7,16257.3,290.7,""smooth"",""left"",""left"",""good_move"",22494.5,3362.1,2956.7,19132.4,405.4,""smooth"",""left"",""left"",""good_move""]"
"2534","","<div style=""width:500px;"">
  <p>What determined the result of this run?</p>
  </div>","76","html-slider-response","24","561857","0.0-7.0-1.2","177","1","2025-08-06 10:18:46","36c45c0696341be0efffe67d72a12abb","169.1.3.252","Mozilla/5.0 (Windows NT 10.0; Win64; x64) AppleWebKit/537.36 (KHTML, like Gecko) Chrome/138.0.0.0 Safari/537.36","WebKit","Chrome","138.0.0.0","Windows","10.0","https://app.prolific.com/","en-US,en;q=0.9","60aad516e34718d318bfb44d","6877649eabb845cf142cd221","68932bcf5183624bf30c40b4","1","60aad516e34718d318bfb44d","1","2025-08-06T10:28:08.094Z","","","","AttribQ","","","","","","","","","","","50","","","","","","","","","","","","","","","","","","","","","","","","","","",""
"5030","","<div style=""width:500px;"">
  <p>How much control did you have over the ball?</p>
  </div>","95","html-slider-response","25","566888","0.0-7.0-2.2","177","1","2025-08-06 10:18:46","36c45c0696341be0efffe67d72a12abb","169.1.3.252","Mozilla/5.0 (Windows NT 10.0; Win64; x64) AppleWebKit/537.36 (KHTML, like Gecko) Chrome/138.0.0.0 Safari/537.36","WebKit","Chrome","138.0.0.0","Windows","10.0","https://app.prolific.com/","en-US,en;q=0.9","60aad516e34718d318bfb44d","6877649eabb845cf142cd221","68932bcf5183624bf30c40b4","1","60aad516e34718d318bfb44d","1","2025-08-06T10:28:13.125Z","","","","ControlQ","","","","","","","","","","","50","","","","","","","","","","","","","","","","","","","","","","","","","","",""
"3157","","<div style=""width:500px;"">
  <p>How would you describe your current emotional state?</p>
  </div>","66","html-slider-response","26","570046","0.0-7.0-3.2","177","1","2025-08-06 10:18:46","36c45c0696341be0efffe67d72a12abb","169.1.3.252","Mozilla/5.0 (Windows NT 10.0; Win64; x64) AppleWebKit/537.36 (KHTML, like Gecko) Chrome/138.0.0.0 Safari/537.36","WebKit","Chrome","138.0.0.0","Windows","10.0","https://app.prolific.com/","en-US,en;q=0.9","60aad516e34718d318bfb44d","6877649eabb845cf142cd221","68932bcf5183624bf30c40b4","1","60aad516e34718d318bfb44d","1","2025-08-06T10:28:16.283Z","","","","StressQ","","","","","","","","","","","50","","","","","","","","","","","","","","","","","","","","","","","","","","",""
"4110","","<div style=""width:500px;"">
  <p>What best describes how you currently feel?</p>
  </div>","64","html-slider-response","27","574157","0.0-7.0-4.2","177","1","2025-08-06 10:18:46","36c45c0696341be0efffe67d72a12abb","169.1.3.252","Mozilla/5.0 (Windows NT 10.0; Win64; x64) AppleWebKit/537.36 (KHTML, like Gecko) Chrome/138.0.0.0 Safari/537.36","WebKit","Chrome","138.0.0.0","Windows","10.0","https://app.prolific.com/","en-US,en;q=0.9","60aad516e34718d318bfb44d","6877649eabb845cf142cd221","68932bcf5183624bf30c40b4","1","60aad516e34718d318bfb44d","1","2025-08-06T10:28:20.394Z","","","","MotivationQ","","","","","","","","","","","50","","","","","","","","","","","","","","","","","","","","","","","","","","",""
"","","","","ctl-task-cpt","28","611367","0.0-7.0-0.3","177","1","2025-08-06 10:18:46","36c45c0696341be0efffe67d72a12abb","169.1.3.252","Mozilla/5.0 (Windows NT 10.0; Win64; x64) AppleWebKit/537.36 (KHTML, like Gecko) Chrome/138.0.0.0 Safari/537.36","WebKit","Chrome","138.0.0.0","Windows","10.0","https://app.prolific.com/","en-US,en;q=0.9","60aad516e34718d318bfb44d","6877649eabb845cf142cd221","68932bcf5183624bf30c40b4","1","60aad516e34718d318bfb44d","1","2025-08-06T10:28:57.604Z","","","","","","","","","","","","","","","","win-only","2","g1:SE,g2:NW","0.7","4","0","576670.9","9291.6","14296.3","34191.4","1","4","4","6","1","-1","-1","18","19","0.13636363636363635","989.2","3000","-3015","[""down"",""right""]","{""num_key_presses"":6,""num_perfect"":3,""num_errors"":0,""num_randdir"":3,""num_randdir_good_moves"":0,""num_whilered"":0,""num_whileblue"":0,""num_blue"":0,""num_good_moves"":3}","[410.3214133126395,412.82142761775424,0.5,410.3214133126395,412.82142761775424,104.7,410.3214133126395,414.07142761775424,205.1,410.3214133126395,415.32142761775424,305.8,415.3214133126395,421.57142761775424,410.1,620.3214133126395,602.8214276177542,514.9,696.5714133126395,697.8214276177542,619.2,710.3214133126395,706.5714276177542,724.5,740.3214133126395,717.8214276177542,824.7,756.5714133126395,726.5714276177542,929.5,756.5714133126395,726.5714276177542,1029.5,756.5714133126395,726.5714276177542,1130,756.5714133126395,726.5714276177542,1235.2,770.3214133126395,737.8214276177542,1340.1,892.8214133126395,836.5714276177542,1445.9,910.3214133126395,837.8214276177542,1549.1,912.8214133126395,831.5714276177542,1654.4,911.5714133126395,825.3214276177542,1759.7,900.3214133126395,819.0714276177542,1864.5,895.3214133126395,816.5714276177542,1969.1,892.8214133126395,814.0714276177542,2069.1,892.8214133126395,814.0714276177542,2171.5,892.8214133126395,814.0714276177542,2275.1,892.8214133126395,814.0714276177542,2379.2,892.8214133126395,814.0714276177542,2484.4,892.8214133126395,814.0714276177542,2589.9,892.8214133126395,814.0714276177542,2694.4,891.5714133126395,814.0714276177542,2794.4,891.5714133126395,814.0714276177542,2894.4,890.3214133126395,811.5714276177542,2998.8,887.8214133126395,811.5714276177542,3099,886.5714133126395,811.5714276177542,3205.1,886.5714133126395,809.0714276177542,3305.3,885.3214133126395,809.0714276177542,3409.7,882.8214133126395,806.5714276177542,3514.1,882.8214133126395,806.5714276177542,3615.1,882.8214133126395,806.5714276177542,3719.2,917.8214133126395,805.3214276177542,3819.6,1311.5714133126396,796.5714276177542,3919.6,1351.5714133126396,701.5714276177542,4024.1,1341.5714133126396,672.8214276177542,4124.1,1342.8214133126396,660.3214276177542,4224.1,1342.8214133126396,660.3214276177542,4324.2,1342.8214133126396,660.3214276177542,4430.5,1342.8214133126396,660.3214276177542,4534.6,1342.8214133126396,660.3214276177542,4634.9,1342.8214133126396,660.3214276177542,4738.9,1342.8214133126396,660.3214276177542,4839.2,1342.8214133126396,660.3214276177542,4944.4]","[1428.8,1428.8,1000,0,428.8,""oops"",""down"",""up"",""bad_move"",4003.8,2574.4,2103.8,1429.4,470.6,""smooth"",""down"",""down"",""good_move"",7606.1,3601.6,3187.3,4004.5,414.3,""oops"",""down"",""up"",""bad_move"",11156.5,3550.2,2838.8,7606.3,711.4,""smooth"",""down"",""down"",""good_move"",14266.8,3109.9,2780.7,11156.9,329.2,""smooth"",""down"",""down"",""good_move"",16857.1,2589.6,2214.8,14267.5,374.8,""oops"",""right"",""up"",""bad_move""]"
"2448","","<div style=""width:500px;"">
  <p>What determined the result of this run?</p>
  </div>","1","html-slider-response","29","613816","0.0-7.0-1.3","177","1","2025-08-06 10:18:46","36c45c0696341be0efffe67d72a12abb","169.1.3.252","Mozilla/5.0 (Windows NT 10.0; Win64; x64) AppleWebKit/537.36 (KHTML, like Gecko) Chrome/138.0.0.0 Safari/537.36","WebKit","Chrome","138.0.0.0","Windows","10.0","https://app.prolific.com/","en-US,en;q=0.9","60aad516e34718d318bfb44d","6877649eabb845cf142cd221","68932bcf5183624bf30c40b4","1","60aad516e34718d318bfb44d","1","2025-08-06T10:29:00.053Z","","","","AttribQ","","","","","","","","","","","50","","","","","","","","","","","","","","","","","","","","","","","","","","",""
"3772","","<div style=""width:500px;"">
  <p>How much control did you have over the ball?</p>
  </div>","3","html-slider-response","30","617589","0.0-7.0-2.3","177","1","2025-08-06 10:18:46","36c45c0696341be0efffe67d72a12abb","169.1.3.252","Mozilla/5.0 (Windows NT 10.0; Win64; x64) AppleWebKit/537.36 (KHTML, like Gecko) Chrome/138.0.0.0 Safari/537.36","WebKit","Chrome","138.0.0.0","Windows","10.0","https://app.prolific.com/","en-US,en;q=0.9","60aad516e34718d318bfb44d","6877649eabb845cf142cd221","68932bcf5183624bf30c40b4","1","60aad516e34718d318bfb44d","1","2025-08-06T10:29:03.826Z","","","","ControlQ","","","","","","","","","","","50","","","","","","","","","","","","","","","","","","","","","","","","","","",""
"3331","","<div style=""width:500px;"">
  <p>How would you describe your current emotional state?</p>
  </div>","41","html-slider-response","31","620920","0.0-7.0-3.3","177","1","2025-08-06 10:18:46","36c45c0696341be0efffe67d72a12abb","169.1.3.252","Mozilla/5.0 (Windows NT 10.0; Win64; x64) AppleWebKit/537.36 (KHTML, like Gecko) Chrome/138.0.0.0 Safari/537.36","WebKit","Chrome","138.0.0.0","Windows","10.0","https://app.prolific.com/","en-US,en;q=0.9","60aad516e34718d318bfb44d","6877649eabb845cf142cd221","68932bcf5183624bf30c40b4","1","60aad516e34718d318bfb44d","1","2025-08-06T10:29:07.158Z","","","","StressQ","","","","","","","","","","","50","","","","","","","","","","","","","","","","","","","","","","","","","","",""
"2090","","<div style=""width:500px;"">
  <p>What best describes how you currently feel?</p>
  </div>","42","html-slider-response","32","623011","0.0-7.0-4.3","177","1","2025-08-06 10:18:46","36c45c0696341be0efffe67d72a12abb","169.1.3.252","Mozilla/5.0 (Windows NT 10.0; Win64; x64) AppleWebKit/537.36 (KHTML, like Gecko) Chrome/138.0.0.0 Safari/537.36","WebKit","Chrome","138.0.0.0","Windows","10.0","https://app.prolific.com/","en-US,en;q=0.9","60aad516e34718d318bfb44d","6877649eabb845cf142cd221","68932bcf5183624bf30c40b4","1","60aad516e34718d318bfb44d","1","2025-08-06T10:29:09.249Z","","","","MotivationQ","","","","","","","","","","","50","","","","","","","","","","","","","","","","","","","","","","","","","","",""
"","","","","ctl-task-cpt","33","657221","0.0-7.0-0.4","177","1","2025-08-06 10:18:46","36c45c0696341be0efffe67d72a12abb","169.1.3.252","Mozilla/5.0 (Windows NT 10.0; Win64; x64) AppleWebKit/537.36 (KHTML, like Gecko) Chrome/138.0.0.0 Safari/537.36","WebKit","Chrome","138.0.0.0","Windows","10.0","https://app.prolific.com/","en-US,en;q=0.9","60aad516e34718d318bfb44d","6877649eabb845cf142cd221","68932bcf5183624bf30c40b4","1","60aad516e34718d318bfb44d","1","2025-08-06T10:29:43.458Z","","","","","","","","","","","","","","","","win-only","3","g1:SW,g2:NE","0.6","5","0","625526","4319.5","9321.5","31190.9","1","4","4","6","1","1","1","19","18","0.14393939393939395","989.7","3000","1155","[""down"",""left""]","{""num_key_presses"":4,""num_perfect"":3,""num_errors"":0,""num_randdir"":1,""num_randdir_good_moves"":1,""num_whilered"":0,""num_whileblue"":0,""num_blue"":3,""num_good_moves"":4}","[414.0714133126395,410.32142761775424,0.8,414.0714133126395,409.07142761775424,101.5,410.3214133126395,416.57142761775424,201.7,401.5714133126395,461.57142761775424,301.7,381.5714133126395,486.57142761775424,402,296.5714133126395,597.8214276177542,507.4,172.8214133126395,750.3214276177542,612.6,97.8214133126395,829.0714276177542,716.2,89.0714133126395,826.5714276177542,816.2,59.07141331263951,811.5714276177542,917.6,56.57141331263951,797.8214276177542,1022.4,56.57141331263951,796.5714276177542,1126.2,66.5714133126395,805.3214276177542,1226.9,270.3214133126395,919.0714276177542,1331.2,510.3214133126395,960.3214276177542,1431.3,526.5714133126395,960.3214276177542,1533.1,526.5714133126395,960.3214276177542,1633.5,527.8214133126395,960.3214276177542,1737.4,555.3214133126395,960.3214276177542,1837.7,707.8214133126395,960.3214276177542,1941.7,886.5714133126395,959.0714276177542,2042.2,930.3214133126395,951.5714276177542,2142.9,941.5714133126395,951.5714276177542,2248.6,974.0714133126395,956.5714276177542,2351.8,1019.0714133126395,952.8214276177542,2453.2,1086.5714133126396,926.5714276177542,2556.9,1086.5714133126396,926.5714276177542,2656.9,1086.5714133126396,926.5714276177542,2757.1,1097.8214133126396,919.0714276177542,2862.5,1109.0714133126396,907.8214276177542,2962.7,1111.5714133126396,902.8214276177542,3066.4,1112.8214133126396,901.5714276177542,3166.7,1112.8214133126396,901.5714276177542,3271.5,1112.8214133126396,901.5714276177542,3371.7,1112.8214133126396,901.5714276177542,3472.5,1112.8214133126396,901.5714276177542,3577.2,1112.8214133126396,900.3214276177542,3686.6,1112.8214133126396,900.3214276177542,3787,1112.8214133126396,900.3214276177542,3891.8,1112.8214133126396,900.3214276177542,3991.9,1112.8214133126396,900.3214276177542,4092.2,1112.8214133126396,900.3214276177542,4196.7,1112.8214133126396,900.3214276177542,4298.4,1112.8214133126396,900.3214276177542,4402.2,1112.8214133126396,900.3214276177542,4502.2,1112.8214133126396,900.3214276177542,4602.5,1112.8214133126396,900.3214276177542,4706.9,1112.8214133126396,900.3214276177542,4807,1112.8214133126396,900.3214276177542,4911.5]","[5229.7,5229.7,2707.5,2004.6,517.6,""smooth"",""down"",""down"",""good_move"",12790.4,7560.1,3028.2,9335.3,426.9,""smooth"",""down"",""down"",""good_move"",19321.7,6531.1,2272.8,16579.8,469.1,""oops"",""left"",""left"",""good_move"",21780.5,2457.5,1999.7,19323,457.8,""smooth"",""left"",""left"",""good_move""]"
"1587","","<div style=""width:500px;"">
  <p>What determined the result of this run?</p>
  </div>","18","html-slider-response","34","658810","0.0-7.0-1.4","177","1","2025-08-06 10:18:46","36c45c0696341be0efffe67d72a12abb","169.1.3.252","Mozilla/5.0 (Windows NT 10.0; Win64; x64) AppleWebKit/537.36 (KHTML, like Gecko) Chrome/138.0.0.0 Safari/537.36","WebKit","Chrome","138.0.0.0","Windows","10.0","https://app.prolific.com/","en-US,en;q=0.9","60aad516e34718d318bfb44d","6877649eabb845cf142cd221","68932bcf5183624bf30c40b4","1","60aad516e34718d318bfb44d","1","2025-08-06T10:29:45.047Z","","","","AttribQ","","","","","","","","","","","50","","","","","","","","","","","","","","","","","","","","","","","","","","",""
"2916","","<div style=""width:500px;"">
  <p>How much control did you have over the ball?</p>
  </div>","89","html-slider-response","35","661727","0.0-7.0-2.4","177","1","2025-08-06 10:18:46","36c45c0696341be0efffe67d72a12abb","169.1.3.252","Mozilla/5.0 (Windows NT 10.0; Win64; x64) AppleWebKit/537.36 (KHTML, like Gecko) Chrome/138.0.0.0 Safari/537.36","WebKit","Chrome","138.0.0.0","Windows","10.0","https://app.prolific.com/","en-US,en;q=0.9","60aad516e34718d318bfb44d","6877649eabb845cf142cd221","68932bcf5183624bf30c40b4","1","60aad516e34718d318bfb44d","1","2025-08-06T10:29:47.964Z","","","","ControlQ","","","","","","","","","","","50","","","","","","","","","","","","","","","","","","","","","","","","","","",""
"3014","","<div style=""width:500px;"">
  <p>How would you describe your current emotional state?</p>
  </div>","59","html-slider-response","36","664742","0.0-7.0-3.4","177","1","2025-08-06 10:18:46","36c45c0696341be0efffe67d72a12abb","169.1.3.252","Mozilla/5.0 (Windows NT 10.0; Win64; x64) AppleWebKit/537.36 (KHTML, like Gecko) Chrome/138.0.0.0 Safari/537.36","WebKit","Chrome","138.0.0.0","Windows","10.0","https://app.prolific.com/","en-US,en;q=0.9","60aad516e34718d318bfb44d","6877649eabb845cf142cd221","68932bcf5183624bf30c40b4","1","60aad516e34718d318bfb44d","1","2025-08-06T10:29:50.979Z","","","","StressQ","","","","","","","","","","","50","","","","","","","","","","","","","","","","","","","","","","","","","","",""
"2909","","<div style=""width:500px;"">
  <p>What best describes how you currently feel?</p>
  </div>","45","html-slider-response","37","667652","0.0-7.0-4.4","177","1","2025-08-06 10:18:46","36c45c0696341be0efffe67d72a12abb","169.1.3.252","Mozilla/5.0 (Windows NT 10.0; Win64; x64) AppleWebKit/537.36 (KHTML, like Gecko) Chrome/138.0.0.0 Safari/537.36","WebKit","Chrome","138.0.0.0","Windows","10.0","https://app.prolific.com/","en-US,en;q=0.9","60aad516e34718d318bfb44d","6877649eabb845cf142cd221","68932bcf5183624bf30c40b4","1","60aad516e34718d318bfb44d","1","2025-08-06T10:29:53.889Z","","","","MotivationQ","","","","","","","","","","","50","","","","","","","","","","","","","","","","","","","","","","","","","","",""
"","","","","ctl-task-cpt","38","693425","0.0-7.0-0.5","177","1","2025-08-06 10:18:46","36c45c0696341be0efffe67d72a12abb","169.1.3.252","Mozilla/5.0 (Windows NT 10.0; Win64; x64) AppleWebKit/537.36 (KHTML, like Gecko) Chrome/138.0.0.0 Safari/537.36","WebKit","Chrome","138.0.0.0","Windows","10.0","https://app.prolific.com/","en-US,en;q=0.9","60aad516e34718d318bfb44d","6877649eabb845cf142cd221","68932bcf5183624bf30c40b4","1","60aad516e34718d318bfb44d","1","2025-08-06T10:30:19.662Z","","","","","","","","","","","","","","","","win-only","1","g1:NE,g2:SW","0.5","6","0","670167.4","4035.7","9037","22761.9","1","4","8","6","1","1","1","20","19","0.15151515151515152","994.8","3000","1430","[""up"",""right""]","{""num_key_presses"":4,""num_perfect"":4,""num_errors"":0,""num_randdir"":0,""num_randdir_good_moves"":0,""num_whilered"":0,""num_whileblue"":0,""num_blue"":1,""num_good_moves"":4}","[422.8214133126395,410.32142761775424,0.4,422.8214133126395,409.07142761775424,105,422.8214133126395,414.07142761775424,205.7,516.5714133126395,449.07142761775424,309.7,675.3214133126395,344.07142761775424,411.1,816.5714133126395,92.82142761775425,514.9,826.5714133126395,56.57142761775425,615.6,831.5714133126395,25.321427617754253,720.5,806.5714133126395,40.32142761775425,826.8,792.8214133126395,64.07142761775425,930.6,792.8214133126395,64.07142761775425,1034.7,792.8214133126395,64.07142761775425,1138.3,801.5714133126395,146.57142761775424,1242.7,861.5714133126395,359.07142761775424,1345.8,960.3214133126395,470.32142761775424,1449.8,985.3214133126395,472.82142761775424,1551.2,985.3214133126395,472.82142761775424,1654.8,984.0714133126395,472.82142761775424,1755.4,984.0714133126395,472.82142761775424,1860.4,984.0714133126395,472.82142761775424,1960.9,984.0714133126395,472.82142761775424,2061.1,984.0714133126395,472.82142761775424,2165.4,984.0714133126395,472.82142761775424,2271.2,984.0714133126395,472.82142761775424,2375.7,984.0714133126395,472.82142761775424,2476.2,984.0714133126395,472.82142761775424,2583.4,984.0714133126395,472.82142761775424,2686.3,984.0714133126395,472.82142761775424,2790.7,984.0714133126395,472.82142761775424,2895.2,984.0714133126395,472.82142761775424,2999.9,984.0714133126395,472.82142761775424,3104.8,984.0714133126395,472.82142761775424,3205.8,984.0714133126395,472.82142761775424,3310.8,984.0714133126395,472.82142761775424,3411.3,984.0714133126395,472.82142761775424,3516,984.0714133126395,472.82142761775424,3619.6,984.0714133126395,472.82142761775424,3720.8,984.0714133126395,472.82142761775424,3826.7,984.0714133126395,472.82142761775424,3930.7,984.0714133126395,472.82142761775424,4034.6,984.0714133126395,472.82142761775424,4135.3,984.0714133126395,472.82142761775424,4240.9,984.0714133126395,472.82142761775424,4346,984.0714133126395,472.82142761775424,4449.6,984.0714133126395,472.82142761775424,4549.6,984.0714133126395,472.82142761775424,4650,984.0714133126395,472.82142761775424,4756,984.0714133126395,472.82142761775424,4860.7,984.0714133126395,472.82142761775424,4965.8]","[1404.5,1404.5,1000,0,404.5,""smooth"",""up"",""up"",""good_move"",3956.1,2550.4,2209.9,1405.7,340.5,""smooth"",""up"",""up"",""good_move"",10234.6,6278.4,2201.7,7538.2,494.7,""smooth"",""right"",""right"",""good_move"",13638.4,3403.5,3031.8,10234.9,371.7,""smooth"",""right"",""right"",""good_move""]"
"2789","","<div style=""width:500px;"">
  <p>What determined the result of this run?</p>
  </div>","17","html-slider-response","39","696215","0.0-7.0-1.5","177","1","2025-08-06 10:18:46","36c45c0696341be0efffe67d72a12abb","169.1.3.252","Mozilla/5.0 (Windows NT 10.0; Win64; x64) AppleWebKit/537.36 (KHTML, like Gecko) Chrome/138.0.0.0 Safari/537.36","WebKit","Chrome","138.0.0.0","Windows","10.0","https://app.prolific.com/","en-US,en;q=0.9","60aad516e34718d318bfb44d","6877649eabb845cf142cd221","68932bcf5183624bf30c40b4","1","60aad516e34718d318bfb44d","1","2025-08-06T10:30:22.452Z","","","","AttribQ","","","","","","","","","","","50","","","","","","","","","","","","","","","","","","","","","","","","","","",""
"7310","","<div style=""width:500px;"">
  <p>How much control did you have over the ball?</p>
  </div>","100","html-slider-response","40","703527","0.0-7.0-2.5","177","1","2025-08-06 10:18:46","36c45c0696341be0efffe67d72a12abb","169.1.3.252","Mozilla/5.0 (Windows NT 10.0; Win64; x64) AppleWebKit/537.36 (KHTML, like Gecko) Chrome/138.0.0.0 Safari/537.36","WebKit","Chrome","138.0.0.0","Windows","10.0","https://app.prolific.com/","en-US,en;q=0.9","60aad516e34718d318bfb44d","6877649eabb845cf142cd221","68932bcf5183624bf30c40b4","1","60aad516e34718d318bfb44d","1","2025-08-06T10:30:29.764Z","","","","ControlQ","","","","","","","","","","","50","","","","","","","","","","","","","","","","","","","","","","","","","","",""
"3163","","<div style=""width:500px;"">
  <p>How would you describe your current emotional state?</p>
  </div>","61","html-slider-response","41","706691","0.0-7.0-3.5","177","1","2025-08-06 10:18:46","36c45c0696341be0efffe67d72a12abb","169.1.3.252","Mozilla/5.0 (Windows NT 10.0; Win64; x64) AppleWebKit/537.36 (KHTML, like Gecko) Chrome/138.0.0.0 Safari/537.36","WebKit","Chrome","138.0.0.0","Windows","10.0","https://app.prolific.com/","en-US,en;q=0.9","60aad516e34718d318bfb44d","6877649eabb845cf142cd221","68932bcf5183624bf30c40b4","1","60aad516e34718d318bfb44d","1","2025-08-06T10:30:32.928Z","","","","StressQ","","","","","","","","","","","50","","","","","","","","","","","","","","","","","","","","","","","","","","",""
"3396","","<div style=""width:500px;"">
  <p>What best describes how you currently feel?</p>
  </div>","45","html-slider-response","42","710088","0.0-7.0-4.5","177","1","2025-08-06 10:18:46","36c45c0696341be0efffe67d72a12abb","169.1.3.252","Mozilla/5.0 (Windows NT 10.0; Win64; x64) AppleWebKit/537.36 (KHTML, like Gecko) Chrome/138.0.0.0 Safari/537.36","WebKit","Chrome","138.0.0.0","Windows","10.0","https://app.prolific.com/","en-US,en;q=0.9","60aad516e34718d318bfb44d","6877649eabb845cf142cd221","68932bcf5183624bf30c40b4","1","60aad516e34718d318bfb44d","1","2025-08-06T10:30:36.326Z","","","","MotivationQ","","","","","","","","","","","50","","","","","","","","","","","","","","","","","","","","","","","","","","",""
"","","","","ctl-task-cpt","43","749093","0.0-7.0-0.6","177","1","2025-08-06 10:18:46","36c45c0696341be0efffe67d72a12abb","169.1.3.252","Mozilla/5.0 (Windows NT 10.0; Win64; x64) AppleWebKit/537.36 (KHTML, like Gecko) Chrome/138.0.0.0 Safari/537.36","WebKit","Chrome","138.0.0.0","Windows","10.0","https://app.prolific.com/","en-US,en;q=0.9","60aad516e34718d318bfb44d","6877649eabb845cf142cd221","68932bcf5183624bf30c40b4","1","60aad516e34718d318bfb44d","1","2025-08-06T10:31:15.331Z","","","","","","","","","","","","","","","","win-only","3","g1:SW,g2:NE","0.4","7","0","712603.2","3889.7","8890.8","35985.5","1","4","4","6","2","4","4","24","20","0.18181818181818182","1185.5","3000","655","[""up"",""right""]","{""num_key_presses"":6,""num_perfect"":2,""num_errors"":0,""num_randdir"":4,""num_randdir_good_moves"":4,""num_whilered"":0,""num_whileblue"":0,""num_blue"":3,""num_good_moves"":6}","[414.0714133126395,420.32142761775424,0.3,414.0714133126395,420.32142761775424,100.5,414.0714133126395,422.82142761775424,201.2,469.0714133126395,426.57142761775424,301.9,415.3214133126395,449.07142761775424,403.6,350.3214133126395,489.07142761775424,506.3,641.5714133126395,272.82142761775424,612.7,647.8214133126395,215.32142761775424,717.6,655.3214133126395,202.82142761775424,820.4,721.5714133126395,152.82142761775424,922.1,775.3214133126395,110.32142761775425,1025.6,784.0714133126395,91.57142761775425,1127.5,784.0714133126395,91.57142761775425,1231.6,784.0714133126395,91.57142761775425,1336.1,781.5714133126395,106.57142761775425,1436.3,782.8214133126395,332.82142761775424,1542.5,837.8214133126395,562.8214276177542,1646.2,890.3214133126395,709.0714276177542,1747.2,897.8214133126395,736.5714276177542,1847.6,901.5714133126395,751.5714276177542,1951.2,901.5714133126395,752.8214276177542,2051.7,901.5714133126395,752.8214276177542,2156.3,901.5714133126395,752.8214276177542,2260.7,901.5714133126395,752.8214276177542,2365.9,901.5714133126395,752.8214276177542,2467.4,901.5714133126395,752.8214276177542,2571.9,901.5714133126395,752.8214276177542,2675.7,901.5714133126395,752.8214276177542,2775.7,901.5714133126395,752.8214276177542,2876,901.5714133126395,752.8214276177542,2977.4,901.5714133126395,752.8214276177542,3082.4,901.5714133126395,752.8214276177542,3185.8,899.0714133126395,750.3214276177542,3286.9,897.8214133126395,750.3214276177542,3390.6,897.8214133126395,750.3214276177542,3491.8,897.8214133126395,750.3214276177542,3595.6,897.8214133126395,750.3214276177542,3697.5,896.5714133126395,750.3214276177542,3800.8,896.5714133126395,749.0714276177542,3901.1,896.5714133126395,749.0714276177542,4001.1,896.5714133126395,749.0714276177542,4108.1,896.5714133126395,749.0714276177542,4210.8,896.5714133126395,749.0714276177542,4311,896.5714133126395,749.0714276177542,4411.2,896.5714133126395,749.0714276177542,4511.3,896.5714133126395,749.0714276177542,4615.9,896.5714133126395,749.0714276177542,4716.1,896.5714133126395,749.0714276177542,4816.2,896.5714133126395,749.0714276177542,4917.4]","[1386.6,1386.6,1000,0,386.6,""oops"",""up"",""up"",""good_move"",11997.7,10610.4,2630.2,8979.7,387.8,""oops"",""up"",""up"",""good_move"",15598.1,3599.9,3173.1,11998.2,426.8,""smooth"",""right"",""right"",""good_move"",17969.8,2371.2,1948.6,15598.6,422.6,""oops"",""right"",""up"",""good_move"",24534.6,6564.6,2663.8,21501.1,369.7,""smooth"",""right"",""right"",""good_move"",27010.6,2475.7,2086.6,24534.9,389.1,""oops"",""right"",""right"",""good_move""]"
"2197","","<div style=""width:500px;"">
  <p>What determined the result of this run?</p>
  </div>","76","html-slider-response","44","751293","0.0-7.0-1.6","177","1","2025-08-06 10:18:46","36c45c0696341be0efffe67d72a12abb","169.1.3.252","Mozilla/5.0 (Windows NT 10.0; Win64; x64) AppleWebKit/537.36 (KHTML, like Gecko) Chrome/138.0.0.0 Safari/537.36","WebKit","Chrome","138.0.0.0","Windows","10.0","https://app.prolific.com/","en-US,en;q=0.9","60aad516e34718d318bfb44d","6877649eabb845cf142cd221","68932bcf5183624bf30c40b4","1","60aad516e34718d318bfb44d","1","2025-08-06T10:31:17.530Z","","","","AttribQ","","","","","","","","","","","50","","","","","","","","","","","","","","","","","","","","","","","","","","",""
"3330","","<div style=""width:500px;"">
  <p>How much control did you have over the ball?</p>
  </div>","80","html-slider-response","45","754624","0.0-7.0-2.6","177","1","2025-08-06 10:18:46","36c45c0696341be0efffe67d72a12abb","169.1.3.252","Mozilla/5.0 (Windows NT 10.0; Win64; x64) AppleWebKit/537.36 (KHTML, like Gecko) Chrome/138.0.0.0 Safari/537.36","WebKit","Chrome","138.0.0.0","Windows","10.0","https://app.prolific.com/","en-US,en;q=0.9","60aad516e34718d318bfb44d","6877649eabb845cf142cd221","68932bcf5183624bf30c40b4","1","60aad516e34718d318bfb44d","1","2025-08-06T10:31:20.862Z","","","","ControlQ","","","","","","","","","","","50","","","","","","","","","","","","","","","","","","","","","","","","","","",""
"2480","","<div style=""width:500px;"">
  <p>How would you describe your current emotional state?</p>
  </div>","85","html-slider-response","46","757106","0.0-7.0-3.6","177","1","2025-08-06 10:18:46","36c45c0696341be0efffe67d72a12abb","169.1.3.252","Mozilla/5.0 (Windows NT 10.0; Win64; x64) AppleWebKit/537.36 (KHTML, like Gecko) Chrome/138.0.0.0 Safari/537.36","WebKit","Chrome","138.0.0.0","Windows","10.0","https://app.prolific.com/","en-US,en;q=0.9","60aad516e34718d318bfb44d","6877649eabb845cf142cd221","68932bcf5183624bf30c40b4","1","60aad516e34718d318bfb44d","1","2025-08-06T10:31:23.343Z","","","","StressQ","","","","","","","","","","","50","","","","","","","","","","","","","","","","","","","","","","","","","","",""
"2040","","<div style=""width:500px;"">
  <p>What best describes how you currently feel?</p>
  </div>","68","html-slider-response","47","759147","0.0-7.0-4.6","177","1","2025-08-06 10:18:46","36c45c0696341be0efffe67d72a12abb","169.1.3.252","Mozilla/5.0 (Windows NT 10.0; Win64; x64) AppleWebKit/537.36 (KHTML, like Gecko) Chrome/138.0.0.0 Safari/537.36","WebKit","Chrome","138.0.0.0","Windows","10.0","https://app.prolific.com/","en-US,en;q=0.9","60aad516e34718d318bfb44d","6877649eabb845cf142cd221","68932bcf5183624bf30c40b4","1","60aad516e34718d318bfb44d","1","2025-08-06T10:31:25.384Z","","","","MotivationQ","","","","","","","","","","","50","","","","","","","","","","","","","","","","","","","","","","","","","","",""
"","","","","ctl-task-cpt","48","802458","0.0-7.0-0.7","177","1","2025-08-06 10:18:46","36c45c0696341be0efffe67d72a12abb","169.1.3.252","Mozilla/5.0 (Windows NT 10.0; Win64; x64) AppleWebKit/537.36 (KHTML, like Gecko) Chrome/138.0.0.0 Safari/537.36","WebKit","Chrome","138.0.0.0","Windows","10.0","https://app.prolific.com/","en-US,en;q=0.9","60aad516e34718d318bfb44d","6877649eabb845cf142cd221","68932bcf5183624bf30c40b4","1","60aad516e34718d318bfb44d","1","2025-08-06T10:32:08.695Z","","","","","","","","","","","","","","","","win-only","3","g1:SW,g2:NE","0.3","8","0","761661.9","4347.6","9352.1","40290.8","1","4","8","6","1","-1","-1","23","24","0.17424242424242425","1088.7","3000","-2990","[""down"",""left""]","{""num_key_presses"":7,""num_perfect"":2,""num_errors"":0,""num_randdir"":5,""num_randdir_good_moves"":3,""num_whilered"":0,""num_whileblue"":0,""num_blue"":3,""num_good_moves"":5}","[416.5714133126395,417.82142761775424,0.3,416.5714133126395,417.82142761775424,103.3,416.5714133126395,417.82142761775424,204,521.5714133126395,414.07142761775424,306.1,371.5714133126395,482.82142761775424,409,226.5714133126395,675.3214276177542,512.6,226.5714133126395,751.5714276177542,613.9,214.0714133126395,771.5714276177542,714.2,166.5714133126395,777.8214276177542,818.6,111.5714133126395,764.0714276177542,918.7,100.3214133126395,761.5714276177542,1018.8,97.8214133126395,761.5714276177542,1123.7,97.8214133126395,761.5714276177542,1228.2,111.5714133126395,765.3214276177542,1332.7,331.5714133126395,801.5714276177542,1432.8,617.8214133126395,826.5714276177542,1534.3,845.3214133126395,802.8214276177542,1638.9,896.5714133126395,779.0714276177542,1744.9,902.8214133126395,775.3214276177542,1848.9,902.8214133126395,775.3214276177542,1953.1,902.8214133126395,775.3214276177542,2053.1,902.8214133126395,775.3214276177542,2159.1,937.8214133126395,759.0714276177542,2264.3,964.0714133126395,735.3214276177542,2370.4,966.5714133126395,721.5714276177542,2474.1,966.5714133126395,721.5714276177542,2574.7,966.5714133126395,721.5714276177542,2679.3,966.5714133126395,721.5714276177542,2783.8,966.5714133126395,721.5714276177542,2889.2,966.5714133126395,721.5714276177542,2993.3,966.5714133126395,721.5714276177542,3094.3,966.5714133126395,721.5714276177542,3199,966.5714133126395,721.5714276177542,3303,966.5714133126395,721.5714276177542,3403.4,966.5714133126395,721.5714276177542,3504.2,966.5714133126395,721.5714276177542,3611.1,966.5714133126395,721.5714276177542,3718.6,966.5714133126395,721.5714276177542,3819.3,966.5714133126395,721.5714276177542,3922.9,966.5714133126395,721.5714276177542,4023.5,966.5714133126395,721.5714276177542,4123.7,966.5714133126395,721.5714276177542,4229.6,966.5714133126395,721.5714276177542,4332.6,966.5714133126395,721.5714276177542,4433.1,966.5714133126395,721.5714276177542,4534,966.5714133126395,721.5714276177542,4638.3,966.5714133126395,721.5714276177542,4738.5,966.5714133126395,721.5714276177542,4839.6,966.5714133126395,721.5714276177542,4943.7]","[1448.2,1448.2,1000,0,448.2,""oops"",""down"",""down"",""good_move"",4745.1,3296.4,2951.4,1448.7,345,""smooth"",""down"",""down"",""good_move"",7806.3,3061,2668.8,4745.3,392.2,""oops"",""left"",""right"",""bad_move"",10222.7,2415.5,2032.5,7807.2,383,""oops"",""left"",""left"",""good_move"",22863.2,12640,1913.2,20518.9,431.2,""oops"",""left"",""right"",""bad_move"",25243.6,2379.9,1834.9,22863.7,545,""smooth"",""left"",""left"",""good_move"",28015.8,2771.6,2455.2,25244.2,316.4,""oops"",""left"",""left"",""good_move""]"
"2176","","<div style=""width:500px;"">
  <p>What determined the result of this run?</p>
  </div>","26","html-slider-response","49","804635","0.0-7.0-1.7","177","1","2025-08-06 10:18:46","36c45c0696341be0efffe67d72a12abb","169.1.3.252","Mozilla/5.0 (Windows NT 10.0; Win64; x64) AppleWebKit/537.36 (KHTML, like Gecko) Chrome/138.0.0.0 Safari/537.36","WebKit","Chrome","138.0.0.0","Windows","10.0","https://app.prolific.com/","en-US,en;q=0.9","60aad516e34718d318bfb44d","6877649eabb845cf142cd221","68932bcf5183624bf30c40b4","1","60aad516e34718d318bfb44d","1","2025-08-06T10:32:10.872Z","","","","AttribQ","","","","","","","","","","","50","","","","","","","","","","","","","","","","","","","","","","","","","","",""
"3660","","<div style=""width:500px;"">
  <p>How much control did you have over the ball?</p>
  </div>","15","html-slider-response","50","808297","0.0-7.0-2.7","177","1","2025-08-06 10:18:46","36c45c0696341be0efffe67d72a12abb","169.1.3.252","Mozilla/5.0 (Windows NT 10.0; Win64; x64) AppleWebKit/537.36 (KHTML, like Gecko) Chrome/138.0.0.0 Safari/537.36","WebKit","Chrome","138.0.0.0","Windows","10.0","https://app.prolific.com/","en-US,en;q=0.9","60aad516e34718d318bfb44d","6877649eabb845cf142cd221","68932bcf5183624bf30c40b4","1","60aad516e34718d318bfb44d","1","2025-08-06T10:32:14.534Z","","","","ControlQ","","","","","","","","","","","50","","","","","","","","","","","","","","","","","","","","","","","","","","",""
"3027","","<div style=""width:500px;"">
  <p>How would you describe your current emotional state?</p>
  </div>","76","html-slider-response","51","811326","0.0-7.0-3.7","177","1","2025-08-06 10:18:46","36c45c0696341be0efffe67d72a12abb","169.1.3.252","Mozilla/5.0 (Windows NT 10.0; Win64; x64) AppleWebKit/537.36 (KHTML, like Gecko) Chrome/138.0.0.0 Safari/537.36","WebKit","Chrome","138.0.0.0","Windows","10.0","https://app.prolific.com/","en-US,en;q=0.9","60aad516e34718d318bfb44d","6877649eabb845cf142cd221","68932bcf5183624bf30c40b4","1","60aad516e34718d318bfb44d","1","2025-08-06T10:32:17.563Z","","","","StressQ","","","","","","","","","","","50","","","","","","","","","","","","","","","","","","","","","","","","","","",""
"2768","","<div style=""width:500px;"">
  <p>What best describes how you currently feel?</p>
  </div>","67","html-slider-response","52","814095","0.0-7.0-4.7","177","1","2025-08-06 10:18:46","36c45c0696341be0efffe67d72a12abb","169.1.3.252","Mozilla/5.0 (Windows NT 10.0; Win64; x64) AppleWebKit/537.36 (KHTML, like Gecko) Chrome/138.0.0.0 Safari/537.36","WebKit","Chrome","138.0.0.0","Windows","10.0","https://app.prolific.com/","en-US,en;q=0.9","60aad516e34718d318bfb44d","6877649eabb845cf142cd221","68932bcf5183624bf30c40b4","1","60aad516e34718d318bfb44d","1","2025-08-06T10:32:20.332Z","","","","MotivationQ","","","","","","","","","","","50","","","","","","","","","","","","","","","","","","","","","","","","","","",""
"","","","","ctl-task-cpt","53","839411","0.0-7.0-0.8","177","1","2025-08-06 10:18:46","36c45c0696341be0efffe67d72a12abb","169.1.3.252","Mozilla/5.0 (Windows NT 10.0; Win64; x64) AppleWebKit/537.36 (KHTML, like Gecko) Chrome/138.0.0.0 Safari/537.36","WebKit","Chrome","138.0.0.0","Windows","10.0","https://app.prolific.com/","en-US,en;q=0.9","60aad516e34718d318bfb44d","6877649eabb845cf142cd221","68932bcf5183624bf30c40b4","1","60aad516e34718d318bfb44d","1","2025-08-06T10:32:45.648Z","","","","","","","","","","","","","","","","win-only","2","g1:SE,g2:NW","0.4","9","0","816609.9","3977.7","8982.7","22295.3","1","4","4","6","1","1","1","24","23","0.18181818181818182","855","3000","1310","[""down"",""right""]","{""num_key_presses"":4,""num_perfect"":3,""num_errors"":0,""num_randdir"":1,""num_randdir_good_moves"":1,""num_whilered"":0,""num_whileblue"":0,""num_blue"":1,""num_good_moves"":4}","[414.0714133126395,411.57142761775424,0.3,414.0714133126395,411.57142761775424,103.1,414.0714133126395,415.32142761775424,203.3,414.0714133126395,486.57142761775424,303.3,451.5714133126395,536.5714276177542,403.7,611.5714133126395,694.0714276177542,508.7,716.5714133126395,746.5714276177542,613.2,721.5714133126395,766.5714276177542,714.1,725.3214133126395,771.5714276177542,818,726.5714133126395,771.5714276177542,919.5,726.5714133126395,771.5714276177542,1023.1,776.5714133126395,781.5714276177542,1124.2,1057.8214133126396,791.5714276177542,1228.3,1151.5714133126396,766.5714276177542,1333.4,1161.5714133126396,750.3214276177542,1438.7,1171.5714133126396,736.5714276177542,1544.3,1171.5714133126396,735.3214276177542,1648.9,1171.5714133126396,735.3214276177542,1753.5,1171.5714133126396,735.3214276177542,1854.3,1171.5714133126396,735.3214276177542,1958.3,1171.5714133126396,735.3214276177542,2063,1171.5714133126396,735.3214276177542,2163.8,1171.5714133126396,735.3214276177542,2267.9,1171.5714133126396,735.3214276177542,2368.1,1171.5714133126396,735.3214276177542,2468.3,1171.5714133126396,735.3214276177542,2573.1,1171.5714133126396,735.3214276177542,2673.1,1171.5714133126396,735.3214276177542,2773.6,1171.5714133126396,735.3214276177542,2874.1,1171.5714133126396,735.3214276177542,2978.8,1171.5714133126396,735.3214276177542,3083,1171.5714133126396,735.3214276177542,3183.6,1171.5714133126396,735.3214276177542,3287.7,1171.5714133126396,735.3214276177542,3387.7,1171.5714133126396,735.3214276177542,3488.7,1171.5714133126396,735.3214276177542,3593,1171.5714133126396,735.3214276177542,3694.5,1171.5714133126396,735.3214276177542,3798.5,1171.5714133126396,735.3214276177542,3903.6,1171.5714133126396,735.3214276177542,4008.5,1171.5714133126396,735.3214276177542,4113.7,1171.5714133126396,735.3214276177542,4217.8,1171.5714133126396,735.3214276177542,4318.4,1171.5714133126396,735.3214276177542,4423.8,1171.5714133126396,735.3214276177542,4528.3,1171.5714133126396,735.3214276177542,4632.7,1171.5714133126396,735.3214276177542,4734.4,1171.5714133126396,735.3214276177542,4834.7,1171.5714133126396,735.3214276177542,4938.1]","[4593.1,4593.1,2080.6,2003.9,508.6,""smooth"",""down"",""down"",""good_move"",7352.6,2758.8,2351.4,4593.8,407.4,""smooth"",""down"",""down"",""good_move"",10458.6,3105.6,2742.2,7353,363.4,""oops"",""right"",""right"",""good_move"",13221.8,2762.6,2320.9,10459.2,441.7,""smooth"",""right"",""right"",""good_move""]"
"2132","","<div style=""width:500px;"">
  <p>What determined the result of this run?</p>
  </div>","25","html-slider-response","54","841545","0.0-7.0-1.8","177","1","2025-08-06 10:18:46","36c45c0696341be0efffe67d72a12abb","169.1.3.252","Mozilla/5.0 (Windows NT 10.0; Win64; x64) AppleWebKit/537.36 (KHTML, like Gecko) Chrome/138.0.0.0 Safari/537.36","WebKit","Chrome","138.0.0.0","Windows","10.0","https://app.prolific.com/","en-US,en;q=0.9","60aad516e34718d318bfb44d","6877649eabb845cf142cd221","68932bcf5183624bf30c40b4","1","60aad516e34718d318bfb44d","1","2025-08-06T10:32:47.782Z","","","","AttribQ","","","","","","","","","","","50","","","","","","","","","","","","","","","","","","","","","","","","","","",""
"2728","","<div style=""width:500px;"">
  <p>How much control did you have over the ball?</p>
  </div>","87","html-slider-response","55","844274","0.0-7.0-2.8","177","1","2025-08-06 10:18:46","36c45c0696341be0efffe67d72a12abb","169.1.3.252","Mozilla/5.0 (Windows NT 10.0; Win64; x64) AppleWebKit/537.36 (KHTML, like Gecko) Chrome/138.0.0.0 Safari/537.36","WebKit","Chrome","138.0.0.0","Windows","10.0","https://app.prolific.com/","en-US,en;q=0.9","60aad516e34718d318bfb44d","6877649eabb845cf142cd221","68932bcf5183624bf30c40b4","1","60aad516e34718d318bfb44d","1","2025-08-06T10:32:50.512Z","","","","ControlQ","","","","","","","","","","","50","","","","","","","","","","","","","","","","","","","","","","","","","","",""
"2684","","<div style=""width:500px;"">
  <p>How would you describe your current emotional state?</p>
  </div>","68","html-slider-response","56","846959","0.0-7.0-3.8","177","1","2025-08-06 10:18:46","36c45c0696341be0efffe67d72a12abb","169.1.3.252","Mozilla/5.0 (Windows NT 10.0; Win64; x64) AppleWebKit/537.36 (KHTML, like Gecko) Chrome/138.0.0.0 Safari/537.36","WebKit","Chrome","138.0.0.0","Windows","10.0","https://app.prolific.com/","en-US,en;q=0.9","60aad516e34718d318bfb44d","6877649eabb845cf142cd221","68932bcf5183624bf30c40b4","1","60aad516e34718d318bfb44d","1","2025-08-06T10:32:53.196Z","","","","StressQ","","","","","","","","","","","50","","","","","","","","","","","","","","","","","","","","","","","","","","",""
"2819","","<div style=""width:500px;"">
  <p>What best describes how you currently feel?</p>
  </div>","69","html-slider-response","57","849779","0.0-7.0-4.8","177","1","2025-08-06 10:18:46","36c45c0696341be0efffe67d72a12abb","169.1.3.252","Mozilla/5.0 (Windows NT 10.0; Win64; x64) AppleWebKit/537.36 (KHTML, like Gecko) Chrome/138.0.0.0 Safari/537.36","WebKit","Chrome","138.0.0.0","Windows","10.0","https://app.prolific.com/","en-US,en;q=0.9","60aad516e34718d318bfb44d","6877649eabb845cf142cd221","68932bcf5183624bf30c40b4","1","60aad516e34718d318bfb44d","1","2025-08-06T10:32:56.016Z","","","","MotivationQ","","","","","","","","","","","50","","","","","","","","","","","","","","","","","","","","","","","","","","",""
"","","","","ctl-task-cpt","58","893329","0.0-7.0-0.9","177","1","2025-08-06 10:18:46","36c45c0696341be0efffe67d72a12abb","169.1.3.252","Mozilla/5.0 (Windows NT 10.0; Win64; x64) AppleWebKit/537.36 (KHTML, like Gecko) Chrome/138.0.0.0 Safari/537.36","WebKit","Chrome","138.0.0.0","Windows","10.0","https://app.prolific.com/","en-US,en;q=0.9","60aad516e34718d318bfb44d","6877649eabb845cf142cd221","68932bcf5183624bf30c40b4","1","60aad516e34718d318bfb44d","1","2025-08-06T10:33:39.566Z","","","","","","","","","","","","","","","","win-only","0","g1:NW,g2:SE","0.5","10","0","852293.8","4545.2","9546.8","40530.5","1","4","8","6","1","-1","-1","23","24","0.17424242424242425","1377.8","3000","-3005","[""left"",""up""]","{""num_key_presses"":7,""num_perfect"":5,""num_errors"":0,""num_randdir"":2,""num_randdir_good_moves"":0,""num_whilered"":0,""num_whileblue"":0,""num_blue"":2,""num_good_moves"":5}","[422.8214133126395,419.07142761775424,0.2,422.8214133126395,417.82142761775424,101.1,422.8214133126395,424.07142761775424,206.5,444.0714133126395,495.32142761775424,310.2,469.0714133126395,546.5714276177542,410.8,209.0714133126395,257.82142761775424,511.6,135.3214133126395,155.32142761775424,615.2,145.3214133126395,145.32142761775424,715.4,151.5714133126395,139.07142761775424,821.5,149.0714133126395,132.82142761775424,922.2,149.0714133126395,132.82142761775424,1026.1,129.0714133126395,50.32142761775425,1130.2,91.5714133126395,36.57142761775425,1231,90.3214133126395,34.07142761775425,1336.4,90.3214133126395,32.82142761775425,1440.4,90.3214133126395,32.82142761775425,1540.5,104.0714133126395,70.32142761775425,1640.8,341.5714133126395,500.32142761775424,1741.1,651.5714133126395,666.5714276177542,1841.2,651.5714133126395,666.5714276177542,1941.7,651.5714133126395,666.5714276177542,2045.8,740.3214133126395,747.8214276177542,2145.9,1137.8214133126396,796.5714276177542,2246.2,1194.0714133126396,777.8214276177542,2350.6,1196.5714133126396,774.0714276177542,2452,1196.5714133126396,774.0714276177542,2556.8,1196.5714133126396,774.0714276177542,2662,1196.5714133126396,774.0714276177542,2765,1224.0714133126396,766.5714276177542,2865.9,1224.0714133126396,757.8214276177542,2966.7,1224.0714133126396,756.5714276177542,3070.6,1224.0714133126396,756.5714276177542,3175.8,1224.0714133126396,756.5714276177542,3276.5,1224.0714133126396,756.5714276177542,3380.4,1224.0714133126396,756.5714276177542,3480.5,1224.0714133126396,756.5714276177542,3581.5,1224.0714133126396,756.5714276177542,3685.8,1224.0714133126396,756.5714276177542,3785.8,1224.0714133126396,756.5714276177542,3890.8,1224.0714133126396,756.5714276177542,3990.9,1224.0714133126396,756.5714276177542,4095.8,1224.0714133126396,756.5714276177542,4201.4,1224.0714133126396,756.5714276177542,4305.1,1224.0714133126396,756.5714276177542,4406.5,1224.0714133126396,756.5714276177542,4510.1,1224.0714133126396,756.5714276177542,4613.3,1224.0714133126396,756.5714276177542,4715.5,1224.0714133126396,756.5714276177542,4815.5,1224.0714133126396,756.5714276177542,4920.7]","[1380,1380,1000,0,380,""oops"",""up"",""down"",""bad_move"",4435.5,3054.8,2672.8,1380.7,382,""smooth"",""left"",""left"",""good_move"",7975.9,3539.8,3183.2,4436.1,356.6,""smooth"",""left"",""left"",""good_move"",11103.7,3127.3,2775.7,7976.4,351.6,""oops"",""up"",""down"",""bad_move"",18417,7312.4,3290.5,14549.5,577,""smooth"",""up"",""up"",""good_move"",21155.4,2737.9,2378.9,18417.5,359,""smooth"",""up"",""up"",""good_move"",23357.6,2202,1822.8,21155.6,379.2,""smooth"",""up"",""up"",""good_move""]"
"2216","","<div style=""width:500px;"">
  <p>What determined the result of this run?</p>
  </div>","1","html-slider-response","59","895546","0.0-7.0-1.9","177","1","2025-08-06 10:18:46","36c45c0696341be0efffe67d72a12abb","169.1.3.252","Mozilla/5.0 (Windows NT 10.0; Win64; x64) AppleWebKit/537.36 (KHTML, like Gecko) Chrome/138.0.0.0 Safari/537.36","WebKit","Chrome","138.0.0.0","Windows","10.0","https://app.prolific.com/","en-US,en;q=0.9","60aad516e34718d318bfb44d","6877649eabb845cf142cd221","68932bcf5183624bf30c40b4","1","60aad516e34718d318bfb44d","1","2025-08-06T10:33:41.783Z","","","","AttribQ","","","","","","","","","","","50","","","","","","","","","","","","","","","","","","","","","","","","","","",""
"2135","","<div style=""width:500px;"">
  <p>How much control did you have over the ball?</p>
  </div>","15","html-slider-response","60","897683","0.0-7.0-2.9","177","1","2025-08-06 10:18:46","36c45c0696341be0efffe67d72a12abb","169.1.3.252","Mozilla/5.0 (Windows NT 10.0; Win64; x64) AppleWebKit/537.36 (KHTML, like Gecko) Chrome/138.0.0.0 Safari/537.36","WebKit","Chrome","138.0.0.0","Windows","10.0","https://app.prolific.com/","en-US,en;q=0.9","60aad516e34718d318bfb44d","6877649eabb845cf142cd221","68932bcf5183624bf30c40b4","1","60aad516e34718d318bfb44d","1","2025-08-06T10:33:43.920Z","","","","ControlQ","","","","","","","","","","","50","","","","","","","","","","","","","","","","","","","","","","","","","","",""
"2730","","<div style=""width:500px;"">
  <p>How would you describe your current emotional state?</p>
  </div>","84","html-slider-response","61","900414","0.0-7.0-3.9","177","1","2025-08-06 10:18:46","36c45c0696341be0efffe67d72a12abb","169.1.3.252","Mozilla/5.0 (Windows NT 10.0; Win64; x64) AppleWebKit/537.36 (KHTML, like Gecko) Chrome/138.0.0.0 Safari/537.36","WebKit","Chrome","138.0.0.0","Windows","10.0","https://app.prolific.com/","en-US,en;q=0.9","60aad516e34718d318bfb44d","6877649eabb845cf142cd221","68932bcf5183624bf30c40b4","1","60aad516e34718d318bfb44d","1","2025-08-06T10:33:46.651Z","","","","StressQ","","","","","","","","","","","50","","","","","","","","","","","","","","","","","","","","","","","","","","",""
"2983","","<div style=""width:500px;"">
  <p>What best describes how you currently feel?</p>
  </div>","32","html-slider-response","62","903398","0.0-7.0-4.9","177","1","2025-08-06 10:18:46","36c45c0696341be0efffe67d72a12abb","169.1.3.252","Mozilla/5.0 (Windows NT 10.0; Win64; x64) AppleWebKit/537.36 (KHTML, like Gecko) Chrome/138.0.0.0 Safari/537.36","WebKit","Chrome","138.0.0.0","Windows","10.0","https://app.prolific.com/","en-US,en;q=0.9","60aad516e34718d318bfb44d","6877649eabb845cf142cd221","68932bcf5183624bf30c40b4","1","60aad516e34718d318bfb44d","1","2025-08-06T10:33:49.635Z","","","","MotivationQ","","","","","","","","","","","50","","","","","","","","","","","","","","","","","","","","","","","","","","",""
"","","","","ctl-task-cpt","63","935333","0.0-7.0-0.10","177","1","2025-08-06 10:18:46","36c45c0696341be0efffe67d72a12abb","169.1.3.252","Mozilla/5.0 (Windows NT 10.0; Win64; x64) AppleWebKit/537.36 (KHTML, like Gecko) Chrome/138.0.0.0 Safari/537.36","WebKit","Chrome","138.0.0.0","Windows","10.0","https://app.prolific.com/","en-US,en;q=0.9","60aad516e34718d318bfb44d","6877649eabb845cf142cd221","68932bcf5183624bf30c40b4","1","60aad516e34718d318bfb44d","1","2025-08-06T10:34:21.570Z","","","","","","","","","","","","","","","","win-only","0","g1:NW,g2:SE","0.6","11","0","905913.4","3814.4","8818.1","28915.7","1","4","4","6","1","1","1","24","23","0.18181818181818182","869.8","3000","1145","[""left"",""up""]","{""num_key_presses"":6,""num_perfect"":4,""num_errors"":0,""num_randdir"":2,""num_randdir_good_moves"":1,""num_whilered"":0,""num_whileblue"":0,""num_blue"":1,""num_good_moves"":5}","[411.5714133126395,421.57142761775424,0.2,411.5714133126395,421.57142761775424,102.4,416.5714133126395,421.57142761775424,202.6,447.8214133126395,436.57142761775424,308.2,405.3214133126395,399.07142761775424,411.3,156.5714133126395,175.32142761775424,516.3,154.0714133126395,150.32142761775424,618.4,104.0714133126395,124.07142761775425,722.6,41.57141331263951,86.57142761775425,827.8,42.82141331263951,84.07142761775425,929.4,42.82141331263951,84.07142761775425,1031.9,71.5714133126395,111.57142761775425,1133.7,306.5714133126395,264.07142761775424,1237.7,542.8214133126395,384.07142761775424,1341.5,647.8214133126395,401.57142761775424,1442,730.3214133126395,386.57142761775424,1542.2,730.3214133126395,386.57142761775424,1647,736.5714133126395,391.57142761775424,1750.3,780.3214133126395,452.82142761775424,1851.9,915.3214133126395,601.5714276177542,1956.8,971.5714133126395,640.3214276177542,2058,974.0714133126395,640.3214276177542,2162.4,974.0714133126395,640.3214276177542,2262.9,974.0714133126395,640.3214276177542,2366.6,974.0714133126395,640.3214276177542,2466.8,974.0714133126395,640.3214276177542,2567.5,974.0714133126395,640.3214276177542,2670.9,974.0714133126395,640.3214276177542,2772.7,974.0714133126395,640.3214276177542,2877.5,974.0714133126395,640.3214276177542,2981,974.0714133126395,640.3214276177542,3081.2,974.0714133126395,640.3214276177542,3181.7,974.0714133126395,640.3214276177542,3281.8,974.0714133126395,640.3214276177542,3386.7,974.0714133126395,640.3214276177542,3492,974.0714133126395,640.3214276177542,3596.1,974.0714133126395,640.3214276177542,3696.4,974.0714133126395,640.3214276177542,3797.5,974.0714133126395,640.3214276177542,3901.2,974.0714133126395,640.3214276177542,4001.5,974.0714133126395,640.3214276177542,4102.4,974.0714133126395,640.3214276177542,4206.5,974.0714133126395,640.3214276177542,4306.7,974.0714133126395,640.3214276177542,4411,974.0714133126395,640.3214276177542,4513.5,974.0714133126395,640.3214276177542,4618.6,974.0714133126395,640.3214276177542,4722.3,974.0714133126395,640.3214276177542,4826.2,974.0714133126395,640.3214276177542,4926.6]","[1350.3,1350.3,1000,0,350.3,""smooth"",""up"",""up"",""good_move"",3952.4,2601.6,2298.7,1350.8,302.9,""smooth"",""up"",""up"",""good_move"",6939.6,2987.1,2649.3,3952.5,337.8,""oops"",""left"",""right"",""bad_move"",10593,3653.1,3344.8,6939.9,308.3,""oops"",""left"",""left"",""good_move"",17239.4,6646.1,2902.6,14014.9,321.9,""smooth"",""left"",""left"",""good_move"",20014,2773.6,2478.2,17240.4,295.4,""smooth"",""left"",""left"",""good_move""]"
"1822","","<div style=""width:500px;"">
  <p>What determined the result of this run?</p>
  </div>","16","html-slider-response","64","937157","0.0-7.0-1.10","177","1","2025-08-06 10:18:46","36c45c0696341be0efffe67d72a12abb","169.1.3.252","Mozilla/5.0 (Windows NT 10.0; Win64; x64) AppleWebKit/537.36 (KHTML, like Gecko) Chrome/138.0.0.0 Safari/537.36","WebKit","Chrome","138.0.0.0","Windows","10.0","https://app.prolific.com/","en-US,en;q=0.9","60aad516e34718d318bfb44d","6877649eabb845cf142cd221","68932bcf5183624bf30c40b4","1","60aad516e34718d318bfb44d","1","2025-08-06T10:34:23.394Z","","","","AttribQ","","","","","","","","","","","50","","","","","","","","","","","","","","","","","","","","","","","","","","",""
"4462","","<div style=""width:500px;"">
  <p>How much control did you have over the ball?</p>
  </div>","57","html-slider-response","65","941620","0.0-7.0-2.10","177","1","2025-08-06 10:18:46","36c45c0696341be0efffe67d72a12abb","169.1.3.252","Mozilla/5.0 (Windows NT 10.0; Win64; x64) AppleWebKit/537.36 (KHTML, like Gecko) Chrome/138.0.0.0 Safari/537.36","WebKit","Chrome","138.0.0.0","Windows","10.0","https://app.prolific.com/","en-US,en;q=0.9","60aad516e34718d318bfb44d","6877649eabb845cf142cd221","68932bcf5183624bf30c40b4","1","60aad516e34718d318bfb44d","1","2025-08-06T10:34:27.857Z","","","","ControlQ","","","","","","","","","","","50","","","","","","","","","","","","","","","","","","","","","","","","","","",""
"3442","","<div style=""width:500px;"">
  <p>How would you describe your current emotional state?</p>
  </div>","65","html-slider-response","66","945063","0.0-7.0-3.10","177","1","2025-08-06 10:18:46","36c45c0696341be0efffe67d72a12abb","169.1.3.252","Mozilla/5.0 (Windows NT 10.0; Win64; x64) AppleWebKit/537.36 (KHTML, like Gecko) Chrome/138.0.0.0 Safari/537.36","WebKit","Chrome","138.0.0.0","Windows","10.0","https://app.prolific.com/","en-US,en;q=0.9","60aad516e34718d318bfb44d","6877649eabb845cf142cd221","68932bcf5183624bf30c40b4","1","60aad516e34718d318bfb44d","1","2025-08-06T10:34:31.300Z","","","","StressQ","","","","","","","","","","","50","","","","","","","","","","","","","","","","","","","","","","","","","","",""
"3770","","<div style=""width:500px;"">
  <p>What best describes how you currently feel?</p>
  </div>","62","html-slider-response","67","948834","0.0-7.0-4.10","177","1","2025-08-06 10:18:46","36c45c0696341be0efffe67d72a12abb","169.1.3.252","Mozilla/5.0 (Windows NT 10.0; Win64; x64) AppleWebKit/537.36 (KHTML, like Gecko) Chrome/138.0.0.0 Safari/537.36","WebKit","Chrome","138.0.0.0","Windows","10.0","https://app.prolific.com/","en-US,en;q=0.9","60aad516e34718d318bfb44d","6877649eabb845cf142cd221","68932bcf5183624bf30c40b4","1","60aad516e34718d318bfb44d","1","2025-08-06T10:34:35.071Z","","","","MotivationQ","","","","","","","","","","","50","","","","","","","","","","","","","","","","","","","","","","","","","","",""
"","","","","ctl-task-cpt","68","972376","0.0-7.0-0.11","177","1","2025-08-06 10:18:46","36c45c0696341be0efffe67d72a12abb","169.1.3.252","Mozilla/5.0 (Windows NT 10.0; Win64; x64) AppleWebKit/537.36 (KHTML, like Gecko) Chrome/138.0.0.0 Safari/537.36","WebKit","Chrome","138.0.0.0","Windows","10.0","https://app.prolific.com/","en-US,en;q=0.9","60aad516e34718d318bfb44d","6877649eabb845cf142cd221","68932bcf5183624bf30c40b4","1","60aad516e34718d318bfb44d","1","2025-08-06T10:34:58.613Z","","","","","","","","","","","","","","","","win-only","3","g1:SW,g2:NE","0.7","12","0","951349","5091","10092","20522.4","1","4","8","6","1","1","1","25","24","0.1893939393939394","893.2","3000","1650","[""down"",""left""]","{""num_key_presses"":4,""num_perfect"":2,""num_errors"":0,""num_randdir"":2,""num_randdir_good_moves"":2,""num_whilered"":0,""num_whileblue"":0,""num_blue"":0,""num_good_moves"":4}","[412.8214133126395,414.07142761775424,0.3,412.8214133126395,414.07142761775424,105.9,412.8214133126395,421.57142761775424,209.7,412.8214133126395,421.57142761775424,316.1,337.8214133126395,546.5714276177542,424.6,261.5714133126395,741.5714276177542,524.7,226.5714133126395,749.0714276177542,625.9,132.8214133126395,755.3214276177542,730.2,86.5714133126395,759.0714276177542,830.8,86.5714133126395,759.0714276177542,934.6,86.5714133126395,759.0714276177542,1036.1,214.0714133126395,754.0714276177542,1140.5,697.8214133126395,752.8214276177542,1245.5,950.3214133126395,669.0714276177542,1349.6,1041.5714133126396,629.0714276177542,1450.1,1046.5714133126396,629.0714276177542,1554.5,1046.5714133126396,629.0714276177542,1657.5,1046.5714133126396,629.0714276177542,1759.4,1046.5714133126396,629.0714276177542,1861.8,1046.5714133126396,629.0714276177542,1961.8,1046.5714133126396,629.0714276177542,2065.1,1046.5714133126396,629.0714276177542,2169.5,1046.5714133126396,629.0714276177542,2270.2,1046.5714133126396,629.0714276177542,2375.6,1046.5714133126396,629.0714276177542,2477.3,1046.5714133126396,629.0714276177542,2580.6,1046.5714133126396,629.0714276177542,2684.6,1046.5714133126396,629.0714276177542,2785.3,1046.5714133126396,629.0714276177542,2889.9,1046.5714133126396,629.0714276177542,2990.4,1046.5714133126396,629.0714276177542,3095.7,1046.5714133126396,629.0714276177542,3199.9,1046.5714133126396,629.0714276177542,3300.4,1046.5714133126396,629.0714276177542,3400.6,1046.5714133126396,629.0714276177542,3505,1046.5714133126396,629.0714276177542,3606.2,1046.5714133126396,629.0714276177542,3710.6,1046.5714133126396,629.0714276177542,3815.9,1046.5714133126396,629.0714276177542,3919.6,1046.5714133126396,629.0714276177542,4020.5,1046.5714133126396,629.0714276177542,4126.2,1046.5714133126396,629.0714276177542,4231.5,1046.5714133126396,629.0714276177542,4335.9,1046.5714133126396,629.0714276177542,4436.1,1046.5714133126396,629.0714276177542,4540,1046.5714133126396,629.0714276177542,4645.2,1046.5714133126396,629.0714276177542,4750.8,1046.5714133126396,629.0714276177542,4855.3,1046.5714133126396,629.0714276177542,4955.3]","[1387.9,1387.9,1000,0,387.9,""oops"",""down"",""left"",""good_move"",4469,3080.9,2726.1,1388.2,354.8,""smooth"",""down"",""down"",""good_move"",7718.7,3248.9,2930.4,4469.8,318.5,""smooth"",""down"",""down"",""good_move"",10344,2624.9,2295.7,7719.1,329.2,""oops"",""left"",""left"",""good_move""]"
"3052","","<div style=""width:500px;"">
  <p>What determined the result of this run?</p>
  </div>","2","html-slider-response","69","975431","0.0-7.0-1.11","177","1","2025-08-06 10:18:46","36c45c0696341be0efffe67d72a12abb","169.1.3.252","Mozilla/5.0 (Windows NT 10.0; Win64; x64) AppleWebKit/537.36 (KHTML, like Gecko) Chrome/138.0.0.0 Safari/537.36","WebKit","Chrome","138.0.0.0","Windows","10.0","https://app.prolific.com/","en-US,en;q=0.9","60aad516e34718d318bfb44d","6877649eabb845cf142cd221","68932bcf5183624bf30c40b4","1","60aad516e34718d318bfb44d","1","2025-08-06T10:35:01.668Z","","","","AttribQ","","","","","","","","","","","50","","","","","","","","","","","","","","","","","","","","","","","","","","",""
"2683","","<div style=""width:500px;"">
  <p>How much control did you have over the ball?</p>
  </div>","83","html-slider-response","70","978115","0.0-7.0-2.11","177","1","2025-08-06 10:18:46","36c45c0696341be0efffe67d72a12abb","169.1.3.252","Mozilla/5.0 (Windows NT 10.0; Win64; x64) AppleWebKit/537.36 (KHTML, like Gecko) Chrome/138.0.0.0 Safari/537.36","WebKit","Chrome","138.0.0.0","Windows","10.0","https://app.prolific.com/","en-US,en;q=0.9","60aad516e34718d318bfb44d","6877649eabb845cf142cd221","68932bcf5183624bf30c40b4","1","60aad516e34718d318bfb44d","1","2025-08-06T10:35:04.352Z","","","","ControlQ","","","","","","","","","","","50","","","","","","","","","","","","","","","","","","","","","","","","","","",""
"3127","","<div style=""width:500px;"">
  <p>How would you describe your current emotional state?</p>
  </div>","66","html-slider-response","71","981243","0.0-7.0-3.11","177","1","2025-08-06 10:18:46","36c45c0696341be0efffe67d72a12abb","169.1.3.252","Mozilla/5.0 (Windows NT 10.0; Win64; x64) AppleWebKit/537.36 (KHTML, like Gecko) Chrome/138.0.0.0 Safari/537.36","WebKit","Chrome","138.0.0.0","Windows","10.0","https://app.prolific.com/","en-US,en;q=0.9","60aad516e34718d318bfb44d","6877649eabb845cf142cd221","68932bcf5183624bf30c40b4","1","60aad516e34718d318bfb44d","1","2025-08-06T10:35:07.480Z","","","","StressQ","","","","","","","","","","","50","","","","","","","","","","","","","","","","","","","","","","","","","","",""
"3374","","<div style=""width:500px;"">
  <p>What best describes how you currently feel?</p>
  </div>","68","html-slider-response","72","984619","0.0-7.0-4.11","177","1","2025-08-06 10:18:46","36c45c0696341be0efffe67d72a12abb","169.1.3.252","Mozilla/5.0 (Windows NT 10.0; Win64; x64) AppleWebKit/537.36 (KHTML, like Gecko) Chrome/138.0.0.0 Safari/537.36","WebKit","Chrome","138.0.0.0","Windows","10.0","https://app.prolific.com/","en-US,en;q=0.9","60aad516e34718d318bfb44d","6877649eabb845cf142cd221","68932bcf5183624bf30c40b4","1","60aad516e34718d318bfb44d","1","2025-08-06T10:35:10.856Z","","","","MotivationQ","","","","","","","","","","","50","","","","","","","","","","","","","","","","","","","","","","","","","","",""
"","","","","ctl-task-cpt","73","1006664","0.0-7.0-0.12","177","1","2025-08-06 10:18:46","36c45c0696341be0efffe67d72a12abb","169.1.3.252","Mozilla/5.0 (Windows NT 10.0; Win64; x64) AppleWebKit/537.36 (KHTML, like Gecko) Chrome/138.0.0.0 Safari/537.36","WebKit","Chrome","138.0.0.0","Windows","10.0","https://app.prolific.com/","en-US,en;q=0.9","60aad516e34718d318bfb44d","6877649eabb845cf142cd221","68932bcf5183624bf30c40b4","1","60aad516e34718d318bfb44d","1","2025-08-06T10:35:32.901Z","","","","","","","","","","","","","","","","win-only","1","g1:NE,g2:SW","0.8","13","0","987134","2966.9","7971","19025.8","1","4","4","6","1","1","1","26","25","0.19696969696969696","886.3","3000","1610","[""up"",""right""]","{""num_key_presses"":4,""num_perfect"":4,""num_errors"":0,""num_randdir"":0,""num_randdir_good_moves"":0,""num_whilered"":0,""num_whileblue"":0,""num_blue"":0,""num_good_moves"":4}","[412.8214133126395,416.57142761775424,0.2,412.8214133126395,416.57142761775424,104.2,412.8214133126395,420.32142761775424,209.9,467.8214133126395,437.82142761775424,314.3,501.5714133126395,426.57142761775424,414.7,736.5714133126395,241.57142761775424,518.3,796.5714133126395,146.57142761775424,618.8,790.3214133126395,126.57142761775425,719.6,762.8214133126395,86.57142761775425,823.6,757.8214133126395,81.57142761775425,930.2,757.8214133126395,82.82142761775425,1034.1,796.5714133126395,171.57142761775424,1135,979.0714133126395,391.57142761775424,1239.2,1159.0714133126396,625.3214276177542,1339.2,1201.5714133126396,667.8214276177542,1440.9,1216.5714133126396,679.0714276177542,1544.5,1216.5714133126396,679.0714276177542,1648.3,1219.0714133126396,681.5714276177542,1750.2,1220.3214133126396,681.5714276177542,1854.8,1220.3214133126396,681.5714276177542,1958.8,1220.3214133126396,681.5714276177542,2064,1220.3214133126396,681.5714276177542,2164.5,1220.3214133126396,681.5714276177542,2265.8,1220.3214133126396,679.0714276177542,2370.5,1219.0714133126396,676.5714276177542,2475.4,1219.0714133126396,676.5714276177542,2579.5,1219.0714133126396,676.5714276177542,2683.8,1219.0714133126396,676.5714276177542,2784,1219.0714133126396,676.5714276177542,2884,1219.0714133126396,676.5714276177542,2988.6,1214.0714133126396,667.8214276177542,3094.8,1211.5714133126396,665.3214276177542,3199.5,1211.5714133126396,665.3214276177542,3299.7,1211.5714133126396,665.3214276177542,3404.5,1211.5714133126396,665.3214276177542,3508.4,1211.5714133126396,665.3214276177542,3608.7,1211.5714133126396,665.3214276177542,3710.4,1211.5714133126396,665.3214276177542,3814.6,1211.5714133126396,665.3214276177542,3918.5,1211.5714133126396,665.3214276177542,4019,1211.5714133126396,665.3214276177542,4119.2,1211.5714133126396,665.3214276177542,4219.5,1211.5714133126396,665.3214276177542,4324.6,1211.5714133126396,665.3214276177542,4426.5,1211.5714133126396,665.3214276177542,4528.6,1211.5714133126396,665.3214276177542,4628.7,1211.5714133126396,665.3214276177542,4729.7,1211.5714133126396,665.3214276177542,4833.7,1211.5714133126396,665.3214276177542,4933.9]","[1353.9,1353.9,1000,0,353.9,""smooth"",""up"",""up"",""good_move"",4797.3,3443,3108.9,1354.3,334.2,""smooth"",""up"",""up"",""good_move"",8163.7,3366.3,3000.4,4797.5,365.9,""smooth"",""right"",""right"",""good_move"",10968.5,2804.4,2427.2,8164.1,377.2,""smooth"",""right"",""right"",""good_move""]"
"3056","","<div style=""width:500px;"">
  <p>What determined the result of this run?</p>
  </div>","6","html-slider-response","74","1009722","0.0-7.0-1.12","177","1","2025-08-06 10:18:46","36c45c0696341be0efffe67d72a12abb","169.1.3.252","Mozilla/5.0 (Windows NT 10.0; Win64; x64) AppleWebKit/537.36 (KHTML, like Gecko) Chrome/138.0.0.0 Safari/537.36","WebKit","Chrome","138.0.0.0","Windows","10.0","https://app.prolific.com/","en-US,en;q=0.9","60aad516e34718d318bfb44d","6877649eabb845cf142cd221","68932bcf5183624bf30c40b4","1","60aad516e34718d318bfb44d","1","2025-08-06T10:35:35.959Z","","","","AttribQ","","","","","","","","","","","50","","","","","","","","","","","","","","","","","","","","","","","","","","",""
"4243","","<div style=""width:500px;"">
  <p>How much control did you have over the ball?</p>
  </div>","98","html-slider-response","75","1013966","0.0-7.0-2.12","177","1","2025-08-06 10:18:46","36c45c0696341be0efffe67d72a12abb","169.1.3.252","Mozilla/5.0 (Windows NT 10.0; Win64; x64) AppleWebKit/537.36 (KHTML, like Gecko) Chrome/138.0.0.0 Safari/537.36","WebKit","Chrome","138.0.0.0","Windows","10.0","https://app.prolific.com/","en-US,en;q=0.9","60aad516e34718d318bfb44d","6877649eabb845cf142cd221","68932bcf5183624bf30c40b4","1","60aad516e34718d318bfb44d","1","2025-08-06T10:35:40.203Z","","","","ControlQ","","","","","","","","","","","50","","","","","","","","","","","","","","","","","","","","","","","","","","",""
"3314","","<div style=""width:500px;"">
  <p>How would you describe your current emotional state?</p>
  </div>","53","html-slider-response","76","1017282","0.0-7.0-3.12","177","1","2025-08-06 10:18:46","36c45c0696341be0efffe67d72a12abb","169.1.3.252","Mozilla/5.0 (Windows NT 10.0; Win64; x64) AppleWebKit/537.36 (KHTML, like Gecko) Chrome/138.0.0.0 Safari/537.36","WebKit","Chrome","138.0.0.0","Windows","10.0","https://app.prolific.com/","en-US,en;q=0.9","60aad516e34718d318bfb44d","6877649eabb845cf142cd221","68932bcf5183624bf30c40b4","1","60aad516e34718d318bfb44d","1","2025-08-06T10:35:43.519Z","","","","StressQ","","","","","","","","","","","50","","","","","","","","","","","","","","","","","","","","","","","","","","",""
"2361","","<div style=""width:500px;"">
  <p>What best describes how you currently feel?</p>
  </div>","55","html-slider-response","77","1019644","0.0-7.0-4.12","177","1","2025-08-06 10:18:46","36c45c0696341be0efffe67d72a12abb","169.1.3.252","Mozilla/5.0 (Windows NT 10.0; Win64; x64) AppleWebKit/537.36 (KHTML, like Gecko) Chrome/138.0.0.0 Safari/537.36","WebKit","Chrome","138.0.0.0","Windows","10.0","https://app.prolific.com/","en-US,en;q=0.9","60aad516e34718d318bfb44d","6877649eabb845cf142cd221","68932bcf5183624bf30c40b4","1","60aad516e34718d318bfb44d","1","2025-08-06T10:35:45.881Z","","","","MotivationQ","","","","","","","","","","","50","","","","","","","","","","","","","","","","","","","","","","","","","","",""
"","","","","ctl-task-cpt","78","1053450","0.0-7.0-0.13","177","1","2025-08-06 10:18:46","36c45c0696341be0efffe67d72a12abb","169.1.3.252","Mozilla/5.0 (Windows NT 10.0; Win64; x64) AppleWebKit/537.36 (KHTML, like Gecko) Chrome/138.0.0.0 Safari/537.36","WebKit","Chrome","138.0.0.0","Windows","10.0","https://app.prolific.com/","en-US,en;q=0.9","60aad516e34718d318bfb44d","6877649eabb845cf142cd221","68932bcf5183624bf30c40b4","1","60aad516e34718d318bfb44d","1","2025-08-06T10:36:19.687Z","","","","","","","","","","","","","","","","win-only","3","g1:SW,g2:NE","0.9","14","0","1022159.1","3260.1","8261.5","30785.9","1","4","8","6","2","8","8","34","26","0.25757575757575757","758.3","3000","665","[""up"",""right""]","{""num_key_presses"":6,""num_perfect"":6,""num_errors"":0,""num_randdir"":0,""num_randdir_good_moves"":0,""num_whilered"":0,""num_whileblue"":0,""num_blue"":2,""num_good_moves"":6}","[411.5714133126395,411.57142761775424,0.3,411.5714133126395,411.57142761775424,102.6,414.0714133126395,415.32142761775424,207,504.0714133126395,409.07142761775424,310.8,706.5714133126395,231.57142761775424,416.6,781.5714133126395,132.82142761775424,520.5,772.8214133126395,110.32142761775425,625.7,762.8214133126395,101.57142761775425,731.1,762.8214133126395,100.32142761775425,831.8,762.8214133126395,106.57142761775425,936.6,924.0714133126395,222.82142761775424,1041.3,1165.3214133126396,310.32142761775424,1146.6,1174.0714133126396,317.82142761775424,1246.6,1174.0714133126396,317.82142761775424,1346.7,1174.0714133126396,317.82142761775424,1451.7,1174.0714133126396,320.32142761775424,1555.5,1174.0714133126396,320.32142761775424,1655.5,1174.0714133126396,320.32142761775424,1758.9,1174.0714133126396,320.32142761775424,1860.9,1174.0714133126396,320.32142761775424,1965.7,1174.0714133126396,320.32142761775424,2065.7,1174.0714133126396,320.32142761775424,2172.3,1174.0714133126396,320.32142761775424,2276.1,1174.0714133126396,320.32142761775424,2376.2,1174.0714133126396,320.32142761775424,2481.1,1174.0714133126396,320.32142761775424,2582.8,1174.0714133126396,320.32142761775424,2686.7,1174.0714133126396,320.32142761775424,2790.4,1174.0714133126396,320.32142761775424,2892.4,1174.0714133126396,320.32142761775424,2995.3,1174.0714133126396,320.32142761775424,3096,1174.0714133126396,320.32142761775424,3196,1174.0714133126396,320.32142761775424,3297.5,1174.0714133126396,320.32142761775424,3401.3,1174.0714133126396,320.32142761775424,3501.4,1174.0714133126396,320.32142761775424,3603.9,1174.0714133126396,320.32142761775424,3706.6,1174.0714133126396,320.32142761775424,3807.1,1174.0714133126396,320.32142761775424,3910.5,1174.0714133126396,320.32142761775424,4011.4,1174.0714133126396,320.32142761775424,4111.9,1174.0714133126396,320.32142761775424,4215.8,1174.0714133126396,320.32142761775424,4322.5,1174.0714133126396,320.32142761775424,4425.8,1174.0714133126396,320.32142761775424,4531.2,1174.0714133126396,320.32142761775424,4632.7,1174.0714133126396,320.32142761775424,4737.1,1174.0714133126396,320.32142761775424,4841.6,1174.0714133126396,320.32142761775424,4945.8]","[1393.3,1393.3,1000,0,393.4,""smooth"",""up"",""up"",""good_move"",8424.4,7030.5,2527.3,5483.7,413.4,""smooth"",""up"",""up"",""good_move"",10844.5,2419,1763.1,8425.5,655.9,""smooth"",""right"",""right"",""good_move"",13756.2,2911.4,2606.6,10844.9,304.7,""smooth"",""right"",""right"",""good_move"",16433.4,2677.1,2357.1,13756.4,320,""smooth"",""right"",""right"",""good_move"",22434.1,6000,2471,19660.4,302.7,""smooth"",""up"",""up"",""good_move""]"
"5382","","<div style=""width:500px;"">
  <p>What determined the result of this run?</p>
