"rt","response_timestamp","stimulus","response","trial_type","trial_index","time_elapsed","internal_node_id","run_id","condition","recorded_at","source_code_version","ip","user_agent","device","browser","browser_version","platform","platform_version","referer","accept_language","PROLIFIC_PID","STUDY_ID","SESSION_ID","BATCH","prolific_id","batch","realtime","success","question_order","question_id","eventType","responses","item_order","radio_event_ids","radio_event_times","key_event_times","mouse_event_times","straightlining","zigzagging","honeypot","view_history","slider_start","which_type","canvas_config","goals_layout","control_level","trial_number","tutorial_trial_number","trial_start_time","phase1_start_time","phase2_start_time","phase3_start_time","goal_1_value","goal_1_distance","goal_2_value","goal_2_distance","goal_selected","outcome","outcome_total","participant_final_score","participant_initial_score","participant_final_score_prop","goal_choice_rt","allocated_time","allocated_time_remaining","goal_direction","counts","mouse_movements","key_presses"
"4892","1754470311369","<p style='font-size:40px;line-height:1.25'><strong>Welcome to the experiment!</strong></p><p style='font-size:1.1em;line-height:1.25'>Thank you for participanting in our experiment again! You will be asked to play the Dysfunctional Ball Game again. We will briefly recap the rules before we start.</p><p style='font-size:1.1em;line-height:1.25'>Press <strong>Next</strong> to continue.</p>","0","custom-html-button-response","0","4897","0.0-0.0","134","1","2025-08-06 08:51:43","36c45c0696341be0efffe67d72a12abb","154.117.143.238","Mozilla/5.0 (Windows NT 10.0; Win64; x64) AppleWebKit/537.36 (KHTML, like Gecko) Chrome/138.0.0.0 Safari/537.36","WebKit","Chrome","138.0.0.0","Windows","10.0","https://app.prolific.com/","en-US,en;q=0.9","60ad28c6d838565067ab1b6c","6877649eabb845cf142cd221","68931799b2ffc4ae12c5afcd","1","60ad28c6d838565067ab1b6c","1","2025-08-06T08:51:51.371Z","","","","","","","","","","","","","","","","","","","","","","","","","","","","","","","","","","","","","","","","","",""
"1616","","","","fullscreen","1","7527","0.0-1.0","134","1","2025-08-06 08:51:43","36c45c0696341be0efffe67d72a12abb","154.117.143.238","Mozilla/5.0 (Windows NT 10.0; Win64; x64) AppleWebKit/537.36 (KHTML, like Gecko) Chrome/138.0.0.0 Safari/537.36","WebKit","Chrome","138.0.0.0","Windows","10.0","https://app.prolific.com/","en-US,en;q=0.9","60ad28c6d838565067ab1b6c","6877649eabb845cf142cd221","68931799b2ffc4ae12c5afcd","1","60ad28c6d838565067ab1b6c","1","","true","","","","","","","","","","","","","","","","","","","","","","","","","","","","","","","","","","","","","","","","",""
"2677","1754470316680"," <p style='font-size:1.1em;line-height:1.25'>Thank you for closing all other tabs.</p><p style='font-size:1.1em;line-height:1.25'>We will now invite you to fill in some questionnaires, before starting the game.<br>This will take about 5 minutes.<br></p><p style='font-size:1.1em;line-height:1.25'>Press the <strong>Next</strong> button to continue.</p>","0","custom-html-button-response","2","10207","0.0-2.0","134","1","2025-08-06 08:51:43","36c45c0696341be0efffe67d72a12abb","154.117.143.238","Mozilla/5.0 (Windows NT 10.0; Win64; x64) AppleWebKit/537.36 (KHTML, like Gecko) Chrome/138.0.0.0 Safari/537.36","WebKit","Chrome","138.0.0.0","Windows","10.0","https://app.prolific.com/","en-US,en;q=0.9","60ad28c6d838565067ab1b6c","6877649eabb845cf142cd221","68931799b2ffc4ae12c5afcd","1","60ad28c6d838565067ab1b6c","1","2025-08-06T08:51:56.681Z","","","","","","","","","","","","","","","","","","","","","","","","","","","","","","","","","","","","","","","","","",""
"8213","","","{""assigned_sex"":""female""}","survey-multi-choice","3","18424","0.0-3.0-0.0","134","1","2025-08-06 08:51:43","36c45c0696341be0efffe67d72a12abb","154.117.143.238","Mozilla/5.0 (Windows NT 10.0; Win64; x64) AppleWebKit/537.36 (KHTML, like Gecko) Chrome/138.0.0.0 Safari/537.36","WebKit","Chrome","138.0.0.0","Windows","10.0","https://app.prolific.com/","en-US,en;q=0.9","60ad28c6d838565067ab1b6c","6877649eabb845cf142cd221","68931799b2ffc4ae12c5afcd","1","60ad28c6d838565067ab1b6c","1","","","[0]","0","demographics","","","","","","","","","","","","","","","","","","","","","","","","","","","","","","","","","","","","","",""
"20353","1754470345253","<p style='font-size:1.1em;line-height:1.25'>In the following, we will perform a baseline assessment. This means that we will ask you a few questions relating to your experiences over the past month.<br></p><p style='font-size:1.1em;line-height:1.25'>Press the <strong>Next</strong> button to continue.</p>","0","custom-html-button-response","4","38779","0.0-4.0-0.0","134","1","2025-08-06 08:51:43","36c45c0696341be0efffe67d72a12abb","154.117.143.238","Mozilla/5.0 (Windows NT 10.0; Win64; x64) AppleWebKit/537.36 (KHTML, like Gecko) Chrome/138.0.0.0 Safari/537.36","WebKit","Chrome","138.0.0.0","Windows","10.0","https://app.prolific.com/","en-US,en;q=0.9","60ad28c6d838565067ab1b6c","6877649eabb845cf142cd221","68931799b2ffc4ae12c5afcd","1","60ad28c6d838565067ab1b6c","1","2025-08-06T08:52:25.254Z","","","","","","","","","","","","","","","","","","","","","","","","","","","","","","","","","","","","","","","","","",""
"66777","","","","survey-template","5","105576","0.0-4.0-1.0","134","1","2025-08-06 08:51:43","36c45c0696341be0efffe67d72a12abb","154.117.143.238","Mozilla/5.0 (Windows NT 10.0; Win64; x64) AppleWebKit/537.36 (KHTML, like Gecko) Chrome/138.0.0.0 Safari/537.36","WebKit","Chrome","138.0.0.0","Windows","10.0","https://app.prolific.com/","en-US,en;q=0.9","60ad28c6d838565067ab1b6c","6877649eabb845cf142cd221","68931799b2ffc4ae12c5afcd","1","60ad28c6d838565067ab1b6c","1","2025-08-06T08:53:32.051Z","","","","pss","{""Q01"":""3"",""Q02"":""3"",""Q03"":""3"",""Q04"":""2"",""Q05"":""3"",""Q06"":""2"",""Q07"":""1"",""Q08"":""2"",""Q09"":""2"",""Q10"":""2""}","[0,1,2,3,4,5,6,7,8,9]","[""Q01"",""Q01"",""Q02"",""Q03"",""Q04"",""Q05"",""Q05"",""Q06"",""Q07"",""Q08"",""Q09"",""Q10""]","[9977.5,17553.79999999702,25172.40000000596,27233.40000000596,35813.90000000596,39996,41279.60000000894,45846.40000000596,52177,55610.90000000596,60536,65419.29999999702]","[]","[0.20000000298023224,9977.5,16812.5,17553.79999999702,25172.40000000596,27233.40000000596,34920,35813.90000000596,39996,41279.60000000894,44858.70000000298,45846.40000000596,52177,55610.90000000596,60536,65419.29999999702,66769.90000000596]","0.5","0.5555555555555556","0","","","","","","","","","","","","","","","","","","","","","","","","","","","","",""
"4058","1754470416111","<p style='font-size:1.1em;line-height:1.25'>Thank you for your answers! Now we will ask you a few more questions relating to your feelings in the last 24 hours.<br></p><p style='font-size:1.1em;line-height:1.25'>Press the <strong>Next</strong> button to continue.</p>","0","custom-html-button-response","6","109638","0.0-4.0-2.0","134","1","2025-08-06 08:51:43","36c45c0696341be0efffe67d72a12abb","154.117.143.238","Mozilla/5.0 (Windows NT 10.0; Win64; x64) AppleWebKit/537.36 (KHTML, like Gecko) Chrome/138.0.0.0 Safari/537.36","WebKit","Chrome","138.0.0.0","Windows","10.0","https://app.prolific.com/","en-US,en;q=0.9","60ad28c6d838565067ab1b6c","6877649eabb845cf142cd221","68931799b2ffc4ae12c5afcd","1","60ad28c6d838565067ab1b6c","1","2025-08-06T08:53:36.112Z","","","","","","","","","","","","","","","","","","","","","","","","","","","","","","","","","","","","","","","","","",""
"59001.20000000298","","","","survey-template","7","168647","0.0-4.0-3.0","134","1","2025-08-06 08:51:43","36c45c0696341be0efffe67d72a12abb","154.117.143.238","Mozilla/5.0 (Windows NT 10.0; Win64; x64) AppleWebKit/537.36 (KHTML, like Gecko) Chrome/138.0.0.0 Safari/537.36","WebKit","Chrome","138.0.0.0","Windows","10.0","https://app.prolific.com/","en-US,en;q=0.9","60ad28c6d838565067ab1b6c","6877649eabb845cf142cd221","68931799b2ffc4ae12c5afcd","1","60ad28c6d838565067ab1b6c","1","2025-08-06T08:54:35.122Z","","","","drsp","{""Q01"":""2"",""Q02"":""2"",""Q03"":""2"",""Q04"":""3"",""Q05"":""1"",""Q06"":""4"",""Q07"":""3"",""Q08"":""2"",""Q09"":""2"",""Q10"":""2"",""Q11"":""3"",""Q12"":""3"",""Q13"":""5"",""Q14"":""3"",""Q15"":""3"",""Q16"":""3"",""Q17"":""3"",""Q18"":""2"",""Q19"":""2"",""Q20"":""2"",""Q21"":""2"",""Q22"":""2""}","[0,1,2,3,4,5,6,7,8,9,10,11,12,13,14,15,16,17,18,19,20,21]","[""Q01"",""Q02"",""Q03"",""Q04"",""Q04"",""Q04"",""Q05"",""Q06"",""Q07"",""Q08"",""Q09"",""Q10"",""Q11"",""Q11"",""Q12"",""Q13"",""Q14"",""Q15"",""Q16"",""Q17"",""Q18"",""Q19"",""Q21"",""Q20"",""Q22""]","[3378,4708,7195.300000011921,9027.40000000596,10750.300000011921,11917.20000000298,13866.300000011921,16192.90000000596,19915.70000000298,21250.60000000894,24159,25391.10000000894,28260.10000000894,28398.60000000894,29428.90000000596,31757,34294.10000000894,36957.60000000894,38438.70000000298,39860,40920.80000001192,45482.60000000894,54511.20000000298,56450.80000001192,57619.60000000894]","[]","[0,3378,4708,7195.300000011921,9027.40000000596,10750.300000011921,11917.20000000298,13866.300000011921,16192.90000000596,17734.90000000596,19289.70000000298,19915.70000000298,21250.60000000894,24159,25391.10000000894,26964.90000000596,28260.10000000894,28398.60000000894,29428.90000000596,31757,34294.10000000894,36957.60000000894,38438.70000000298,39860,40920.80000001192,43861,45482.60000000894,53279.5,54511.20000000298,55529.90000000596,56450.80000001192,57619.60000000894,58991.10000000894]","0.5","0.23809523809523808","0","","","","","","","","","","","","","","","","","","","","","","","","","","","","",""
"140945","","","","survey-template","8","309596","0.0-4.0-4.0","134","1","2025-08-06 08:51:43","36c45c0696341be0efffe67d72a12abb","154.117.143.238","Mozilla/5.0 (Windows NT 10.0; Win64; x64) AppleWebKit/537.36 (KHTML, like Gecko) Chrome/138.0.0.0 Safari/537.36","WebKit","Chrome","138.0.0.0","Windows","10.0","https://app.prolific.com/","en-US,en;q=0.9","60ad28c6d838565067ab1b6c","6877649eabb845cf142cd221","68931799b2ffc4ae12c5afcd","1","60ad28c6d838565067ab1b6c","1","2025-08-06T08:56:56.071Z","","","","stress","{""Q01"":""3"",""Q02"":""3"",""Q03"":""2""}","[0,1,2]","[""Q01"",""Q02"",""Q03""]","[135647.09999999404,136893.19999998808,139797.29999999702]","[]","[135647.09999999404,136893.19999998808,138556.89999999106,139206.79999999702,139797.29999999702,140942.59999999404]","0.6666666666666666","0.5","0","","","","","","","","","","","","","","","","","","","","","","","","","","","","",""
"81393","","","","instructions","9","390993","0.0-5.0-0.0","134","1","2025-08-06 08:51:43","36c45c0696341be0efffe67d72a12abb","154.117.143.238","Mozilla/5.0 (Windows NT 10.0; Win64; x64) AppleWebKit/537.36 (KHTML, like Gecko) Chrome/138.0.0.0 Safari/537.36","WebKit","Chrome","138.0.0.0","Windows","10.0","https://app.prolific.com/","en-US,en;q=0.9","60ad28c6d838565067ab1b6c","6877649eabb845cf142cd221","68931799b2ffc4ae12c5afcd","1","60ad28c6d838565067ab1b6c","1","","","","","","","","","","","","","","","[{""page_index"":0,""viewing_time"":81391}]","","","","","","","","","","","","","","","","","","","","","","","","","","","",""
"3989","","<p>Before you start with this game please answer the following three questions yourself. </p>
  <p>Through this game, we measure several aspects of your cognitive performance, such as reaction times, multi-tasking capabilities </p>
  <p>and the ability to assess the situation you are in.</p>
  <p></p>
  <p><b>How good do you usually are in such tasks?</b></p>","76","html-slider-response","10","394986","0.0-6.0-0.0","134","1","2025-08-06 08:51:43","36c45c0696341be0efffe67d72a12abb","154.117.143.238","Mozilla/5.0 (Windows NT 10.0; Win64; x64) AppleWebKit/537.36 (KHTML, like Gecko) Chrome/138.0.0.0 Safari/537.36","WebKit","Chrome","138.0.0.0","Windows","10.0","https://app.prolific.com/","en-US,en;q=0.9","60ad28c6d838565067ab1b6c","6877649eabb845cf142cd221","68931799b2ffc4ae12c5afcd","1","60ad28c6d838565067ab1b6c","1","2025-08-06T08:58:21.461Z","","","","PreSkillQ","","","","","","","","","","","50","","","","","","","","","","","","","","","","","","","","","","","","","","",""
"2507","","<div style=""width:500px;"">
  <p>How well do you think you will perform in this task compared to other participants?</p>
  </div>","78","html-slider-response","11","397497","0.0-6.0-1.0","134","1","2025-08-06 08:51:43","36c45c0696341be0efffe67d72a12abb","154.117.143.238","Mozilla/5.0 (Windows NT 10.0; Win64; x64) AppleWebKit/537.36 (KHTML, like Gecko) Chrome/138.0.0.0 Safari/537.36","WebKit","Chrome","138.0.0.0","Windows","10.0","https://app.prolific.com/","en-US,en;q=0.9","60ad28c6d838565067ab1b6c","6877649eabb845cf142cd221","68931799b2ffc4ae12c5afcd","1","60ad28c6d838565067ab1b6c","1","2025-08-06T08:58:23.972Z","","","","PrePerfQ","","","","","","","","","","","50","","","","","","","","","","","","","","","","","","","","","","","","","","",""
"5246","","<div style=""width:500px;"">
  <p>What best describes how you currently feel?</p>
  </div>","28","html-slider-response","12","402745","0.0-6.0-2.0","134","1","2025-08-06 08:51:43","36c45c0696341be0efffe67d72a12abb","154.117.143.238","Mozilla/5.0 (Windows NT 10.0; Win64; x64) AppleWebKit/537.36 (KHTML, like Gecko) Chrome/138.0.0.0 Safari/537.36","WebKit","Chrome","138.0.0.0","Windows","10.0","https://app.prolific.com/","en-US,en;q=0.9","60ad28c6d838565067ab1b6c","6877649eabb845cf142cd221","68931799b2ffc4ae12c5afcd","1","60ad28c6d838565067ab1b6c","1","2025-08-06T08:58:29.219Z","","","","PreMotivationQ","","","","","","","","","","","50","","","","","","","","","","","","","","","","","","","","","","","","","","",""
"","","","","ctl-task-cpt","13","434029","0.0-7.0-0.0","134","1","2025-08-06 08:51:43","36c45c0696341be0efffe67d72a12abb","154.117.143.238","Mozilla/5.0 (Windows NT 10.0; Win64; x64) AppleWebKit/537.36 (KHTML, like Gecko) Chrome/138.0.0.0 Safari/537.36","WebKit","Chrome","138.0.0.0","Windows","10.0","https://app.prolific.com/","en-US,en;q=0.9","60ad28c6d838565067ab1b6c","6877649eabb845cf142cd221","68931799b2ffc4ae12c5afcd","1","60ad28c6d838565067ab1b6c","1","2025-08-06T08:59:00.504Z","","","","","","","","","","","","","","","","win-only","3","g1:SW,g2:NE","1","1","0","407031.7","1872.6","6885.9","28276.3","1","4","4","6","2","4","4","4","0","0.030303030303030304","1361.9","3000","725","[""up"",""right""]","{""num_key_presses"":6,""num_perfect"":6,""num_errors"":0,""num_randdir"":0,""num_randdir_good_moves"":0,""num_whilered"":0,""num_whileblue"":0,""num_blue"":1,""num_good_moves"":6}","[351.9642857142857,344.71428666796004,0.7,351.9642857142857,344.71428666796004,101.1,351.9642857142857,344.71428666796004,201.1,351.9642857142857,344.71428666796004,301.4,351.9642857142857,344.71428666796004,410,351.9642857142857,344.71428666796004,512.1,351.9642857142857,344.71428666796004,613.2,351.9642857142857,344.71428666796004,719.7,530.7142857142857,92.21428666796004,826.6,586.9642857142857,29.71428666796003,930.1,604.4642857142857,17.21428666796003,1033.8,624.4642857142857,27.21428666796003,1140.1,643.2142857142857,77.21428666796004,1243,643.2142857142857,77.21428666796004,1346.7,643.2142857142857,77.21428666796004,1450.2,643.2142857142857,77.21428666796004,1556.3,643.2142857142857,77.21428666796004,1660.9,643.2142857142857,77.21428666796004,1761.5,643.2142857142857,77.21428666796004,1862.4,629.4642857142857,78.46428666796004,1969.5,514.4642857142857,82.21428666796004,2069.6,433.2142857142857,42.21428666796003,2179.1,296.9642857142857,-99.03571333203996,2287,296.9642857142857,-99.03571333203996,2394.2,296.9642857142857,-99.03571333203996,2500.7,296.9642857142857,-99.03571333203996,2608.1,296.9642857142857,-99.03571333203996,2713.4,296.9642857142857,-99.03571333203996,2813.5,296.9642857142857,-99.03571333203996,2922.5,296.9642857142857,-99.03571333203996,3031.8,296.9642857142857,-99.03571333203996,3138.9,296.9642857142857,-99.03571333203996,3239.6,296.9642857142857,-99.03571333203996,3339.7,296.9642857142857,-99.03571333203996,3445.3,296.9642857142857,-99.03571333203996,3547.2,296.9642857142857,-99.03571333203996,3651.3,296.9642857142857,-99.03571333203996,3758.7,296.9642857142857,-99.03571333203996,3863.8,296.9642857142857,-99.03571333203996,3970,296.9642857142857,-99.03571333203996,4076.7,296.9642857142857,-99.03571333203996,4178.3,296.9642857142857,-99.03571333203996,4279,296.9642857142857,-99.03571333203996,4381,296.9642857142857,-99.03571333203996,4486.8,296.9642857142857,-99.03571333203996,4593.2,296.9642857142857,-99.03571333203996,4714.4,296.9642857142857,-99.03571333203996,4819.6,296.9642857142857,-99.03571333203996,4926.3]","[1406.7,1406.7,1000,0.1,406.7,""smooth"",""up"",""up"",""good_move"",5043.1,3635.3,2792.1,1407.8,843.2,""smooth"",""up"",""up"",""good_move"",11027.3,5982.3,2434.3,8250.8,342.3,""smooth"",""right"",""right"",""good_move"",14323.8,3295.4,2843.8,11028.4,451.6,""smooth"",""up"",""up"",""good_move"",18026.1,3701.6,2898.3,14324.5,803.3,""smooth"",""right"",""right"",""good_move"",21269.3,3241.9,2870.1,18027.4,371.8,""smooth"",""right"",""right"",""good_move""]"
"27380","","<div style=""width:500px;"">
  <p>What determined the result of this run?</p>
  </div>","78","html-slider-response","14","461413","0.0-7.0-1.0","134","1","2025-08-06 08:51:43","36c45c0696341be0efffe67d72a12abb","154.117.143.238","Mozilla/5.0 (Windows NT 10.0; Win64; x64) AppleWebKit/537.36 (KHTML, like Gecko) Chrome/138.0.0.0 Safari/537.36","WebKit","Chrome","138.0.0.0","Windows","10.0","https://app.prolific.com/","en-US,en;q=0.9","60ad28c6d838565067ab1b6c","6877649eabb845cf142cd221","68931799b2ffc4ae12c5afcd","1","60ad28c6d838565067ab1b6c","1","2025-08-06T08:59:27.887Z","","","","AttribQ","","","","","","","","","","","50","","","","","","","","","","","","","","","","","","","","","","","","","","",""
"2317","","<div style=""width:500px;"">
  <p>How much control did you have over the ball?</p>
  </div>","80","html-slider-response","15","463732","0.0-7.0-2.0","134","1","2025-08-06 08:51:43","36c45c0696341be0efffe67d72a12abb","154.117.143.238","Mozilla/5.0 (Windows NT 10.0; Win64; x64) AppleWebKit/537.36 (KHTML, like Gecko) Chrome/138.0.0.0 Safari/537.36","WebKit","Chrome","138.0.0.0","Windows","10.0","https://app.prolific.com/","en-US,en;q=0.9","60ad28c6d838565067ab1b6c","6877649eabb845cf142cd221","68931799b2ffc4ae12c5afcd","1","60ad28c6d838565067ab1b6c","1","2025-08-06T08:59:30.206Z","","","","ControlQ","","","","","","","","","","","50","","","","","","","","","","","","","","","","","","","","","","","","","","",""
"2816","","<div style=""width:500px;"">
  <p>How would you describe your current emotional state?</p>
  </div>","21","html-slider-response","16","466551","0.0-7.0-3.0","134","1","2025-08-06 08:51:43","36c45c0696341be0efffe67d72a12abb","154.117.143.238","Mozilla/5.0 (Windows NT 10.0; Win64; x64) AppleWebKit/537.36 (KHTML, like Gecko) Chrome/138.0.0.0 Safari/537.36","WebKit","Chrome","138.0.0.0","Windows","10.0","https://app.prolific.com/","en-US,en;q=0.9","60ad28c6d838565067ab1b6c","6877649eabb845cf142cd221","68931799b2ffc4ae12c5afcd","1","60ad28c6d838565067ab1b6c","1","2025-08-06T08:59:33.025Z","","","","StressQ","","","","","","","","","","","50","","","","","","","","","","","","","","","","","","","","","","","","","","",""
"2782","","<div style=""width:500px;"">
  <p>What best describes how you currently feel?</p>
  </div>","38","html-slider-response","17","469335","0.0-7.0-4.0","134","1","2025-08-06 08:51:43","36c45c0696341be0efffe67d72a12abb","154.117.143.238","Mozilla/5.0 (Windows NT 10.0; Win64; x64) AppleWebKit/537.36 (KHTML, like Gecko) Chrome/138.0.0.0 Safari/537.36","WebKit","Chrome","138.0.0.0","Windows","10.0","https://app.prolific.com/","en-US,en;q=0.9","60ad28c6d838565067ab1b6c","6877649eabb845cf142cd221","68931799b2ffc4ae12c5afcd","1","60ad28c6d838565067ab1b6c","1","2025-08-06T08:59:35.809Z","","","","MotivationQ","","","","","","","","","","","50","","","","","","","","","","","","","","","","","","","","","","","","","","",""
"","","","","ctl-task-cpt","18","500586","0.0-7.0-0.1","134","1","2025-08-06 08:51:43","36c45c0696341be0efffe67d72a12abb","154.117.143.238","Mozilla/5.0 (Windows NT 10.0; Win64; x64) AppleWebKit/537.36 (KHTML, like Gecko) Chrome/138.0.0.0 Safari/537.36","WebKit","Chrome","138.0.0.0","Windows","10.0","https://app.prolific.com/","en-US,en;q=0.9","60ad28c6d838565067ab1b6c","6877649eabb845cf142cd221","68931799b2ffc4ae12c5afcd","1","60ad28c6d838565067ab1b6c","1","2025-08-06T09:00:07.060Z","","","","","","","","","","","","","","","","win-only","0","g1:NW,g2:SE","0.9","2","0","473617.4","1085.6","6088","28235","1","4","8","6","2","8","8","12","4","0.09090909090909091","1218.7","3000","1235","[""down"",""right""]","{""num_key_presses"":6,""num_perfect"":5,""num_errors"":0,""num_randdir"":1,""num_randdir_good_moves"":1,""num_whilered"":0,""num_whileblue"":0,""num_blue"":2,""num_good_moves"":6}","[243.48213713509696,244.2321423803057,0.3,243.48213713509696,244.2321423803057,105.5,243.48213713509696,244.2321423803057,214.9,243.48213713509696,244.2321423803057,316,243.48213713509696,244.2321423803057,422.1,243.48213713509696,244.2321423803057,522.1,291.60713713509693,291.1071423803057,628.1,393.48213713509693,377.9821423803057,733.7,410.35713713509693,396.1071423803057,834.9,419.10713713509693,406.1071423803057,936.5,426.60713713509693,419.2321423803057,1047.3,429.10713713509693,424.8571423803057,1153.1,429.10713713509693,424.8571423803057,1254.9,429.10713713509693,424.8571423803057,1362.2,429.10713713509693,424.8571423803057,1463.5,429.10713713509693,424.8571423803057,1565.2,429.10713713509693,424.8571423803057,1665.4,429.10713713509693,424.8571423803057,1765.4,429.10713713509693,424.8571423803057,1865.4,429.10713713509693,424.8571423803057,1968.6,429.10713713509693,424.8571423803057,2075.3,402.23213713509693,317.3571423803057,2182.7,338.48213713509693,212.9821423803057,2287.1,320.35713713509693,204.2321423803057,2392.7,332.23213713509693,96.1071423803057,2495,354.10713713509693,59.232142380305696,2596.6,388.48213713509693,47.357142380305696,2701.2,436.60713713509693,-67.6428576196943,2808.2,436.60713713509693,-67.6428576196943,2910.3,436.60713713509693,-67.6428576196943,3015.4,436.60713713509693,-67.6428576196943,3118.4,436.60713713509693,-67.6428576196943,3219.9,436.60713713509693,-67.6428576196943,3327.2,436.60713713509693,-67.6428576196943,3430.2,436.60713713509693,-67.6428576196943,3533.7,436.60713713509693,-67.6428576196943,3635.1,436.60713713509693,-67.6428576196943,3735.7,436.60713713509693,-67.6428576196943,3865.1,436.60713713509693,-67.6428576196943,3970.5,436.60713713509693,-67.6428576196943,4103,436.60713713509693,-67.6428576196943,4232.6,436.60713713509693,-67.6428576196943,4334.5,436.60713713509693,-67.6428576196943,4467.8,436.60713713509693,-67.6428576196943,4568.5,436.60713713509693,-67.6428576196943,4671.9,436.60713713509693,-67.6428576196943,4775.8,294.10713713509693,177.9821423803057,4876,261.60713713509693,296.1071423803057,4976.1]","[1497.9,1498,1000,0,498,""smooth"",""down"",""down"",""good_move"",4505.5,3006.6,2598.6,1498.9,408,""smooth"",""down"",""down"",""good_move"",7221.5,2715,2332.4,4506.5,382.6,""smooth"",""down"",""down"",""good_move"",13263.7,6041.7,2607.2,10294.9,361.6,""smooth"",""right"",""right"",""good_move"",15791.4,2526.8,2187.1,13264.6,339.7,""oops"",""right"",""right"",""good_move"",22020.6,6228.6,2560.8,19061.5,398.3,""smooth"",""right"",""right"",""good_move""]"
"13558","","<div style=""width:500px;"">
  <p>What determined the result of this run?</p>
  </div>","81","html-slider-response","19","514145","0.0-7.0-1.1","134","1","2025-08-06 08:51:43","36c45c0696341be0efffe67d72a12abb","154.117.143.238","Mozilla/5.0 (Windows NT 10.0; Win64; x64) AppleWebKit/537.36 (KHTML, like Gecko) Chrome/138.0.0.0 Safari/537.36","WebKit","Chrome","138.0.0.0","Windows","10.0","https://app.prolific.com/","en-US,en;q=0.9","60ad28c6d838565067ab1b6c","6877649eabb845cf142cd221","68931799b2ffc4ae12c5afcd","1","60ad28c6d838565067ab1b6c","1","2025-08-06T09:00:20.619Z","","","","AttribQ","","","","","","","","","","","50","","","","","","","","","","","","","","","","","","","","","","","","","","",""
"2434","","<div style=""width:500px;"">
  <p>How much control did you have over the ball?</p>
  </div>","78","html-slider-response","20","516582","0.0-7.0-2.1","134","1","2025-08-06 08:51:43","36c45c0696341be0efffe67d72a12abb","154.117.143.238","Mozilla/5.0 (Windows NT 10.0; Win64; x64) AppleWebKit/537.36 (KHTML, like Gecko) Chrome/138.0.0.0 Safari/537.36","WebKit","Chrome","138.0.0.0","Windows","10.0","https://app.prolific.com/","en-US,en;q=0.9","60ad28c6d838565067ab1b6c","6877649eabb845cf142cd221","68931799b2ffc4ae12c5afcd","1","60ad28c6d838565067ab1b6c","1","2025-08-06T09:00:23.056Z","","","","ControlQ","","","","","","","","","","","50","","","","","","","","","","","","","","","","","","","","","","","","","","",""
"2514","","<div style=""width:500px;"">
  <p>How would you describe your current emotional state?</p>
  </div>","33","html-slider-response","21","519098","0.0-7.0-3.1","134","1","2025-08-06 08:51:43","36c45c0696341be0efffe67d72a12abb","154.117.143.238","Mozilla/5.0 (Windows NT 10.0; Win64; x64) AppleWebKit/537.36 (KHTML, like Gecko) Chrome/138.0.0.0 Safari/537.36","WebKit","Chrome","138.0.0.0","Windows","10.0","https://app.prolific.com/","en-US,en;q=0.9","60ad28c6d838565067ab1b6c","6877649eabb845cf142cd221","68931799b2ffc4ae12c5afcd","1","60ad28c6d838565067ab1b6c","1","2025-08-06T09:00:25.573Z","","","","StressQ","","","","","","","","","","","50","","","","","","","","","","","","","","","","","","","","","","","","","","",""
"2385","","<div style=""width:500px;"">
  <p>What best describes how you currently feel?</p>
  </div>","42","html-slider-response","22","521486","0.0-7.0-4.1","134","1","2025-08-06 08:51:43","36c45c0696341be0efffe67d72a12abb","154.117.143.238","Mozilla/5.0 (Windows NT 10.0; Win64; x64) AppleWebKit/537.36 (KHTML, like Gecko) Chrome/138.0.0.0 Safari/537.36","WebKit","Chrome","138.0.0.0","Windows","10.0","https://app.prolific.com/","en-US,en;q=0.9","60ad28c6d838565067ab1b6c","6877649eabb845cf142cd221","68931799b2ffc4ae12c5afcd","1","60ad28c6d838565067ab1b6c","1","2025-08-06T09:00:27.960Z","","","","MotivationQ","","","","","","","","","","","50","","","","","","","","","","","","","","","","","","","","","","","","","","",""
"","","","","ctl-task-cpt","23","560237","0.0-7.0-0.2","134","1","2025-08-06 08:51:43","36c45c0696341be0efffe67d72a12abb","154.117.143.238","Mozilla/5.0 (Windows NT 10.0; Win64; x64) AppleWebKit/537.36 (KHTML, like Gecko) Chrome/138.0.0.0 Safari/537.36","WebKit","Chrome","138.0.0.0","Windows","10.0","https://app.prolific.com/","en-US,en;q=0.9","60ad28c6d838565067ab1b6c","6877649eabb845cf142cd221","68931799b2ffc4ae12c5afcd","1","60ad28c6d838565067ab1b6c","1","2025-08-06T09:01:06.711Z","","","","","","","","","","","","","","","","win-only","1","g1:NE,g2:SW","0.8","3","0","525771.8","1257.5","6264.8","35733","1","4","4","6","2","4","4","16","12","0.12121212121212122","2033.7","3000","645","[""down"",""left""]","{""num_key_presses"":8,""num_perfect"":7,""num_errors"":0,""num_randdir"":1,""num_randdir_good_moves"":0,""num_whilered"":0,""num_whileblue"":0,""num_blue"":2,""num_good_moves"":7}","[244.10713713509696,244.8571423803057,0.2,244.10713713509696,244.8571423803057,100.7,244.10713713509696,244.8571423803057,203.4,244.10713713509696,244.8571423803057,306.2,244.10713713509696,244.8571423803057,409.9,244.10713713509696,244.8571423803057,514.2,244.10713713509696,244.8571423803057,617.7,244.10713713509696,244.8571423803057,722.2,244.10713713509696,244.8571423803057,824.9,244.10713713509696,244.8571423803057,934.1,244.10713713509696,244.8571423803057,1039.5,244.10713713509696,244.8571423803057,1143.6,244.10713713509696,244.8571423803057,1248.9,244.10713713509696,244.8571423803057,1357.1,245.35713713509696,236.1071423803057,1459.1,126.60713713509696,377.3571423803057,1563.8,87.23213713509696,427.3571423803057,1666.5,63.482137135096956,434.8571423803057,1769,24.107137135096956,454.8571423803057,1875,24.107137135096956,456.1071423803057,1977.6,24.107137135096956,456.1071423803057,2077.8,24.107137135096956,456.1071423803057,2185.2,24.107137135096956,456.1071423803057,2290.8,24.107137135096956,456.1071423803057,2400.7,24.107137135096956,456.1071423803057,2501.1,126.60713713509696,504.2321423803057,2604.6,226.60713713509696,494.2321423803057,2708.3,226.60713713509696,494.2321423803057,2809.7,231.60713713509696,492.9821423803057,2910.8,276.60713713509693,416.1071423803057,3016.3,314.10713713509693,356.1071423803057,3120.3,430.35713713509693,104.8571423803057,3223.9,460.35713713509693,-68.8928576196943,3324.9,460.35713713509693,-68.8928576196943,3425,460.35713713509693,-68.8928576196943,3528.3,460.35713713509693,-68.8928576196943,3628.3,460.35713713509693,-68.8928576196943,3737.2,460.35713713509693,-68.8928576196943,3840,460.35713713509693,-68.8928576196943,3949.6,460.35713713509693,-68.8928576196943,4055.9,460.35713713509693,-68.8928576196943,4159.9,460.35713713509693,-68.8928576196943,4265.7,460.35713713509693,-68.8928576196943,4367.3,460.35713713509693,-68.8928576196943,4470.3,460.35713713509693,-68.8928576196943,4575.1,460.35713713509693,-68.8928576196943,4683.1,460.35713713509693,-68.8928576196943,4783.8,460.35713713509693,-68.8928576196943,4889.7,460.35713713509693,-68.8928576196943,4994.8]","[1535.7,1535.7,1000,0,535.7,""smooth"",""down"",""down"",""good_move"",4836.4,3299.9,2934.4,1536.5,365.5,""smooth"",""left"",""left"",""good_move"",15368.5,10530.8,2382.4,12531.5,454.6,""smooth"",""down"",""down"",""good_move"",17661.3,2292.6,1828,15368.7,464.7,""oops"",""left"",""right"",""bad_move"",20491.8,2829.2,2418,17662.6,411.2,""smooth"",""down"",""down"",""good_move"",23287.9,2795.2,2402.8,20492.7,392.4,""smooth"",""left"",""left"",""good_move"",26259.3,2970.6,2574.2,23288.8,396.4,""smooth"",""left"",""left"",""good_move"",29336.9,3077.1,2734.3,26259.8,342.8,""smooth"",""left"",""left"",""good_move""]"
"35491","","<div style=""width:500px;"">
  <p>What determined the result of this run?</p>
  </div>","77","html-slider-response","24","595730","0.0-7.0-1.2","134","1","2025-08-06 08:51:43","36c45c0696341be0efffe67d72a12abb","154.117.143.238","Mozilla/5.0 (Windows NT 10.0; Win64; x64) AppleWebKit/537.36 (KHTML, like Gecko) Chrome/138.0.0.0 Safari/537.36","WebKit","Chrome","138.0.0.0","Windows","10.0","https://app.prolific.com/","en-US,en;q=0.9","60ad28c6d838565067ab1b6c","6877649eabb845cf142cd221","68931799b2ffc4ae12c5afcd","1","60ad28c6d838565067ab1b6c","1","2025-08-06T09:01:42.204Z","","","","AttribQ","","","","","","","","","","","50","","","","","","","","","","","","","","","","","","","","","","","","","","",""
"2224","","<div style=""width:500px;"">
  <p>How much control did you have over the ball?</p>
  </div>","82","html-slider-response","25","597956","0.0-7.0-2.2","134","1","2025-08-06 08:51:43","36c45c0696341be0efffe67d72a12abb","154.117.143.238","Mozilla/5.0 (Windows NT 10.0; Win64; x64) AppleWebKit/537.36 (KHTML, like Gecko) Chrome/138.0.0.0 Safari/537.36","WebKit","Chrome","138.0.0.0","Windows","10.0","https://app.prolific.com/","en-US,en;q=0.9","60ad28c6d838565067ab1b6c","6877649eabb845cf142cd221","68931799b2ffc4ae12c5afcd","1","60ad28c6d838565067ab1b6c","1","2025-08-06T09:01:44.431Z","","","","ControlQ","","","","","","","","","","","50","","","","","","","","","","","","","","","","","","","","","","","","","","",""
"3122","","<div style=""width:500px;"">
  <p>How would you describe your current emotional state?</p>
  </div>","29","html-slider-response","26","601081","0.0-7.0-3.2","134","1","2025-08-06 08:51:43","36c45c0696341be0efffe67d72a12abb","154.117.143.238","Mozilla/5.0 (Windows NT 10.0; Win64; x64) AppleWebKit/537.36 (KHTML, like Gecko) Chrome/138.0.0.0 Safari/537.36","WebKit","Chrome","138.0.0.0","Windows","10.0","https://app.prolific.com/","en-US,en;q=0.9","60ad28c6d838565067ab1b6c","6877649eabb845cf142cd221","68931799b2ffc4ae12c5afcd","1","60ad28c6d838565067ab1b6c","1","2025-08-06T09:01:47.555Z","","","","StressQ","","","","","","","","","","","50","","","","","","","","","","","","","","","","","","","","","","","","","","",""
"2421","","<div style=""width:500px;"">
  <p>What best describes how you currently feel?</p>
  </div>","40","html-slider-response","27","603505","0.0-7.0-4.2","134","1","2025-08-06 08:51:43","36c45c0696341be0efffe67d72a12abb","154.117.143.238","Mozilla/5.0 (Windows NT 10.0; Win64; x64) AppleWebKit/537.36 (KHTML, like Gecko) Chrome/138.0.0.0 Safari/537.36","WebKit","Chrome","138.0.0.0","Windows","10.0","https://app.prolific.com/","en-US,en;q=0.9","60ad28c6d838565067ab1b6c","6877649eabb845cf142cd221","68931799b2ffc4ae12c5afcd","1","60ad28c6d838565067ab1b6c","1","2025-08-06T09:01:49.979Z","","","","MotivationQ","","","","","","","","","","","50","","","","","","","","","","","","","","","","","","","","","","","","","","",""
"","","","","ctl-task-cpt","28","659238","0.0-7.0-0.3","134","1","2025-08-06 08:51:43","36c45c0696341be0efffe67d72a12abb","154.117.143.238","Mozilla/5.0 (Windows NT 10.0; Win64; x64) AppleWebKit/537.36 (KHTML, like Gecko) Chrome/138.0.0.0 Safari/537.36","WebKit","Chrome","138.0.0.0","Windows","10.0","https://app.prolific.com/","en-US,en;q=0.9","60ad28c6d838565067ab1b6c","6877649eabb845cf142cd221","68931799b2ffc4ae12c5afcd","1","60ad28c6d838565067ab1b6c","1","2025-08-06T09:02:45.713Z","","","","","","","","","","","","","","","","win-only","2","g1:SE,g2:NW","0.7","4","0","607790.1","1122.3","6126.6","52722.1","1","4","8","6","2","-8","-9","7","16","0.05303030303030303","1215.1","3000","-2360","[""left"",""up""]","{""num_key_presses"":11,""num_perfect"":7,""num_errors"":1,""num_randdir"":3,""num_randdir_good_moves"":0,""num_whilered"":0,""num_whileblue"":1,""num_blue"":5,""num_good_moves"":7}","[240.35713713509696,232.3571423803057,0.4,240.35713713509696,232.3571423803057,107.7,240.35713713509696,232.3571423803057,210.1,240.35713713509696,232.3571423803057,318.4,240.35713713509696,232.3571423803057,418.9,240.35713713509696,232.3571423803057,522.6,233.48213713509696,224.8571423803057,627.5,114.10713713509696,99.2321423803057,736.4,98.48213713509696,79.2321423803057,838.6,88.48213713509696,72.9821423803057,940.9,56.607137135096956,52.357142380305696,1043.5,54.107137135096956,49.857142380305696,1148.6,54.107137135096956,49.857142380305696,1250.2,54.107137135096956,49.857142380305696,1352.2,54.107137135096956,49.857142380305696,1455.5,54.107137135096956,49.857142380305696,1563.6,54.107137135096956,49.857142380305696,1672.3,54.107137135096956,49.857142380305696,1778,51.607137135096956,147.3571423803057,1880.2,45.357137135096956,259.8571423803057,1986.1,41.607137135096956,347.9821423803057,2090.2,32.232137135096956,426.1071423803057,2190.8,26.607137135096956,456.1071423803057,2291.3,23.482137135096956,462.3571423803057,2391.6,18.482137135096956,462.9821423803057,2493.4,13.482137135096956,462.9821423803057,2593.8,7.232137135096956,451.1071423803057,2700.1,3.4821371350969557,442.3571423803057,2802.2,-20.892862864903044,416.1071423803057,2903.8,-29.642862864903044,416.1071423803057,3007.5,-32.767862864903044,416.1071423803057,3109.3,-36.517862864903044,407.9821423803057,3210.2,-37.767862864903044,406.1071423803057,3318.7,98.48213713509696,254.2321423803057,3419.5,365.35713713509693,-47.017857619694304,3527.4,365.35713713509693,-47.017857619694304,3631.3,365.35713713509693,-47.017857619694304,3733.4,365.35713713509693,-47.017857619694304,3838.9,365.35713713509693,-47.017857619694304,3942.2,365.35713713509693,-47.017857619694304,4052.8,365.35713713509693,-47.017857619694304,4157.4,365.35713713509693,-47.017857619694304,4265.6,365.35713713509693,-47.017857619694304,4371.8,365.35713713509693,-47.017857619694304,4472.3,365.35713713509693,-47.017857619694304,4577.4,365.35713713509693,-47.017857619694304,4685.5,365.35713713509693,-47.017857619694304,4785.5,365.35713713509693,-47.017857619694304,4889.9,365.35713713509693,-47.017857619694304,4994.6]","[8579.1,8579.1,2815.8,5271.7,491.6,""smooth"",""up"",""up"",""good_move"",11155.8,2575.2,2189.4,8580.6,385.8,""smooth"",""left"",""left"",""good_move"",14022.4,2866,2469.7,11156.4,396.3,""oops"",""up"",""right"",""bad_move"",16988.6,2965.2,2553.4,14023.4,411.8,""oops"",""up"",""right"",""bad_move"",22877.2,5888.3,2308.4,20245.9,322.9,""oops"",""up"",""down"",""bad_move"",25363.7,2486.2,2082.4,22877.6,403.8,""smooth"",""left"",""left"",""good_move"",28204.6,2840.4,2527.7,25364.2,312.7,""smooth"",""left"",""left"",""good_move"",31251.7,3046.6,2755,28205.1,291.6,""while_blue"",""left"",""right"",""bad_move"",33763.9,2511.5,2105.7,31252.5,405.7,""smooth"",""left"",""left"",""good_move"",40697.3,6932.8,3015.8,37384.3,297.2,""smooth"",""left"",""left"",""good_move"",44015.5,3317.7,3013.5,40697.8,304.3,""smooth"",""left"",""left"",""good_move""]"
"10262","","<div style=""width:500px;"">
  <p>What determined the result of this run?</p>
  </div>","80","html-slider-response","29","669501","0.0-7.0-1.3","134","1","2025-08-06 08:51:43","36c45c0696341be0efffe67d72a12abb","154.117.143.238","Mozilla/5.0 (Windows NT 10.0; Win64; x64) AppleWebKit/537.36 (KHTML, like Gecko) Chrome/138.0.0.0 Safari/537.36","WebKit","Chrome","138.0.0.0","Windows","10.0","https://app.prolific.com/","en-US,en;q=0.9","60ad28c6d838565067ab1b6c","6877649eabb845cf142cd221","68931799b2ffc4ae12c5afcd","1","60ad28c6d838565067ab1b6c","1","2025-08-06T09:02:55.976Z","","","","AttribQ","","","","","","","","","","","50","","","","","","","","","","","","","","","","","","","","","","","","","","",""
"1908","","<div style=""width:500px;"">
  <p>How much control did you have over the ball?</p>
  </div>","80","html-slider-response","30","671411","0.0-7.0-2.3","134","1","2025-08-06 08:51:43","36c45c0696341be0efffe67d72a12abb","154.117.143.238","Mozilla/5.0 (Windows NT 10.0; Win64; x64) AppleWebKit/537.36 (KHTML, like Gecko) Chrome/138.0.0.0 Safari/537.36","WebKit","Chrome","138.0.0.0","Windows","10.0","https://app.prolific.com/","en-US,en;q=0.9","60ad28c6d838565067ab1b6c","6877649eabb845cf142cd221","68931799b2ffc4ae12c5afcd","1","60ad28c6d838565067ab1b6c","1","2025-08-06T09:02:57.885Z","","","","ControlQ","","","","","","","","","","","50","","","","","","","","","","","","","","","","","","","","","","","","","","",""
"2032","","<div style=""width:500px;"">
  <p>How would you describe your current emotional state?</p>
  </div>","28","html-slider-response","31","673444","0.0-7.0-3.3","134","1","2025-08-06 08:51:43","36c45c0696341be0efffe67d72a12abb","154.117.143.238","Mozilla/5.0 (Windows NT 10.0; Win64; x64) AppleWebKit/537.36 (KHTML, like Gecko) Chrome/138.0.0.0 Safari/537.36","WebKit","Chrome","138.0.0.0","Windows","10.0","https://app.prolific.com/","en-US,en;q=0.9","60ad28c6d838565067ab1b6c","6877649eabb845cf142cd221","68931799b2ffc4ae12c5afcd","1","60ad28c6d838565067ab1b6c","1","2025-08-06T09:02:59.919Z","","","","StressQ","","","","","","","","","","","50","","","","","","","","","","","","","","","","","","","","","","","","","","",""
"6252","","<div style=""width:500px;"">
  <p>What best describes how you currently feel?</p>
  </div>","73","html-slider-response","32","679698","0.0-7.0-4.3","134","1","2025-08-06 08:51:43","36c45c0696341be0efffe67d72a12abb","154.117.143.238","Mozilla/5.0 (Windows NT 10.0; Win64; x64) AppleWebKit/537.36 (KHTML, like Gecko) Chrome/138.0.0.0 Safari/537.36","WebKit","Chrome","138.0.0.0","Windows","10.0","https://app.prolific.com/","en-US,en;q=0.9","60ad28c6d838565067ab1b6c","6877649eabb845cf142cd221","68931799b2ffc4ae12c5afcd","1","60ad28c6d838565067ab1b6c","1","2025-08-06T09:03:06.173Z","","","","MotivationQ","","","","","","","","","","","50","","","","","","","","","","","","","","","","","","","","","","","","","","",""
"","","","","ctl-task-cpt","33","707272","0.0-7.0-0.4","134","1","2025-08-06 08:51:43","36c45c0696341be0efffe67d72a12abb","154.117.143.238","Mozilla/5.0 (Windows NT 10.0; Win64; x64) AppleWebKit/537.36 (KHTML, like Gecko) Chrome/138.0.0.0 Safari/537.36","WebKit","Chrome","138.0.0.0","Windows","10.0","https://app.prolific.com/","en-US,en;q=0.9","60ad28c6d838565067ab1b6c","6877649eabb845cf142cd221","68931799b2ffc4ae12c5afcd","1","60ad28c6d838565067ab1b6c","1","2025-08-06T09:03:33.747Z","","","","","","","","","","","","","","","","win-only","1","g1:NE,g2:SW","0.6","5","0","683984.5","989.6","5996.3","24560.9","1","4","8","6","2","8","8","15","7","0.11363636363636363","994.9","3000","1310","[""down"",""left""]","{""num_key_presses"":6,""num_perfect"":5,""num_errors"":0,""num_randdir"":1,""num_randdir_good_moves"":1,""num_whilered"":0,""num_whileblue"":0,""num_blue"":1,""num_good_moves"":6}","[237.23213713509696,237.3571423803057,0.1,237.23213713509696,237.3571423803057,108.4,237.23213713509696,237.3571423803057,212.3,237.23213713509696,237.3571423803057,318,237.23213713509696,237.3571423803057,421.1,225.35713713509696,257.3571423803057,522.3,73.48213713509696,429.8571423803057,630.4,58.482137135096956,432.9821423803057,739.4,53.482137135096956,432.3571423803057,840.6,52.232137135096956,432.3571423803057,941.9,52.232137135096956,432.3571423803057,1043.6,52.232137135096956,432.3571423803057,1145,52.232137135096956,432.3571423803057,1248.8,52.232137135096956,432.3571423803057,1354,87.23213713509696,444.8571423803057,1458.1,208.48213713509696,491.1071423803057,1561.6,217.23213713509696,496.1071423803057,1661.8,228.48213713509696,499.8571423803057,1764.8,246.60713713509696,497.3571423803057,1868.4,396.60713713509693,177.9821423803057,1974,488.48213713509693,-67.6428576196943,2081.4,488.48213713509693,-67.6428576196943,2183.8,488.48213713509693,-67.6428576196943,2291.8,488.48213713509693,-67.6428576196943,2394,488.48213713509693,-67.6428576196943,2497.9,488.48213713509693,-67.6428576196943,2598.1,488.48213713509693,-67.6428576196943,2699.7,488.48213713509693,-67.6428576196943,2805.9,488.48213713509693,-67.6428576196943,2906.7,488.48213713509693,-67.6428576196943,3010,488.48213713509693,-67.6428576196943,3116,488.48213713509693,-67.6428576196943,3218.8,488.48213713509693,-67.6428576196943,3329.7,488.48213713509693,-67.6428576196943,3429.8,488.48213713509693,-67.6428576196943,3530,488.48213713509693,-67.6428576196943,3637.1,488.48213713509693,-67.6428576196943,3738.2,488.48213713509693,-67.6428576196943,3843.7,488.48213713509693,-67.6428576196943,3948.4,488.48213713509693,-67.6428576196943,4057.8,488.48213713509693,-67.6428576196943,4165,488.48213713509693,-67.6428576196943,4273.1,488.48213713509693,-67.6428576196943,4380.3,488.48213713509693,-67.6428576196943,4480.7,488.48213713509693,-67.6428576196943,4581.9,488.48213713509693,-67.6428576196943,4690.4,488.48213713509693,-67.6428576196943,4791.9,488.48213713509693,-67.6428576196943,4894.9,488.48213713509693,-67.6428576196943,4996.8]","[4987.2,4987.2,2548.8,2008.5,429.9,""smooth"",""down"",""down"",""good_move"",7547.5,2558.9,2153.3,4988.6,405.6,""smooth"",""left"",""left"",""good_move"",10243.8,2694.5,2335.3,7549.3,359.2,""smooth"",""down"",""down"",""good_move"",12840.9,2596.6,2226.8,10244.3,369.8,""oops"",""left"",""left"",""good_move"",15898.1,3056.5,2682.1,12841.6,374.4,""smooth"",""down"",""down"",""good_move"",18444.9,2545.6,2165.3,15899.4,380.2,""smooth"",""left"",""left"",""good_move""]"
"160197","","<div style=""width:500px;"">
  <p>What determined the result of this run?</p>
  </div>","84","html-slider-response","34","867472","0.0-7.0-1.4","134","1","2025-08-06 08:51:43","36c45c0696341be0efffe67d72a12abb","154.117.143.238","Mozilla/5.0 (Windows NT 10.0; Win64; x64) AppleWebKit/537.36 (KHTML, like Gecko) Chrome/138.0.0.0 Safari/537.36","WebKit","Chrome","138.0.0.0","Windows","10.0","https://app.prolific.com/","en-US,en;q=0.9","60ad28c6d838565067ab1b6c","6877649eabb845cf142cd221","68931799b2ffc4ae12c5afcd","1","60ad28c6d838565067ab1b6c","1","2025-08-06T09:06:13.946Z","","","","AttribQ","","","","","","","","","","","50","","","","","","","","","","","","","","","","","","","","","","","","","","",""
"4056","","<div style=""width:500px;"">
  <p>How much control did you have over the ball?</p>
  </div>","74","html-slider-response","35","871529","0.0-7.0-2.4","134","1","2025-08-06 08:51:43","36c45c0696341be0efffe67d72a12abb","154.117.143.238","Mozilla/5.0 (Windows NT 10.0; Win64; x64) AppleWebKit/537.36 (KHTML, like Gecko) Chrome/138.0.0.0 Safari/537.36","WebKit","Chrome","138.0.0.0","Windows","10.0","https://app.prolific.com/","en-US,en;q=0.9","60ad28c6d838565067ab1b6c","6877649eabb845cf142cd221","68931799b2ffc4ae12c5afcd","1","60ad28c6d838565067ab1b6c","1","2025-08-06T09:06:18.003Z","","","","ControlQ","","","","","","","","","","","50","","","","","","","","","","","","","","","","","","","","","","","","","","",""
"3135","","<div style=""width:500px;"">
  <p>How would you describe your current emotional state?</p>
  </div>","26","html-slider-response","36","874667","0.0-7.0-3.4","134","1","2025-08-06 08:51:43","36c45c0696341be0efffe67d72a12abb","154.117.143.238","Mozilla/5.0 (Windows NT 10.0; Win64; x64) AppleWebKit/537.36 (KHTML, like Gecko) Chrome/138.0.0.0 Safari/537.36","WebKit","Chrome","138.0.0.0","Windows","10.0","https://app.prolific.com/","en-US,en;q=0.9","60ad28c6d838565067ab1b6c","6877649eabb845cf142cd221","68931799b2ffc4ae12c5afcd","1","60ad28c6d838565067ab1b6c","1","2025-08-06T09:06:21.141Z","","","","StressQ","","","","","","","","","","","50","","","","","","","","","","","","","","","","","","","","","","","","","","",""
"1992","","<div style=""width:500px;"">
  <p>What best describes how you currently feel?</p>
  </div>","77","html-slider-response","37","876661","0.0-7.0-4.4","134","1","2025-08-06 08:51:43","36c45c0696341be0efffe67d72a12abb","154.117.143.238","Mozilla/5.0 (Windows NT 10.0; Win64; x64) AppleWebKit/537.36 (KHTML, like Gecko) Chrome/138.0.0.0 Safari/537.36","WebKit","Chrome","138.0.0.0","Windows","10.0","https://app.prolific.com/","en-US,en;q=0.9","60ad28c6d838565067ab1b6c","6877649eabb845cf142cd221","68931799b2ffc4ae12c5afcd","1","60ad28c6d838565067ab1b6c","1","2025-08-06T09:06:23.135Z","","","","MotivationQ","","","","","","","","","","","50","","","","","","","","","","","","","","","","","","","","","","","","","","",""
"","","","","ctl-task-cpt","38","923218","0.0-7.0-0.5","134","1","2025-08-06 08:51:43","36c45c0696341be0efffe67d72a12abb","154.117.143.238","Mozilla/5.0 (Windows NT 10.0; Win64; x64) AppleWebKit/537.36 (KHTML, like Gecko) Chrome/138.0.0.0 Safari/537.36","WebKit","Chrome","138.0.0.0","Windows","10.0","https://app.prolific.com/","en-US,en;q=0.9","60ad28c6d838565067ab1b6c","6877649eabb845cf142cd221","68931799b2ffc4ae12c5afcd","1","60ad28c6d838565067ab1b6c","1","2025-08-06T09:07:09.692Z","","","","","","","","","","","","","","","","win-only","0","g1:NW,g2:SE","0.5","6","0","880946.5","1157","6159.3","43532","1","4","4","6","2","-4","-4","11","15","0.08333333333333333","1004.5","3000","-2170","[""down"",""right""]","{""num_key_presses"":10,""num_perfect"":5,""num_errors"":0,""num_randdir"":5,""num_randdir_good_moves"":0,""num_whilered"":0,""num_whileblue"":0,""num_blue"":2,""num_good_moves"":5}","[239.10713713509696,244.2321423803057,0.5,239.10713713509696,244.2321423803057,108.9,239.10713713509696,244.2321423803057,209.7,239.10713713509696,244.2321423803057,310.5,239.10713713509696,244.2321423803057,419.1,311.60713713509693,329.8571423803057,521.9,421.60713713509693,444.2321423803057,627.6,427.23213713509693,442.9821423803057,733.5,435.35713713509693,439.2321423803057,836.4,438.48213713509693,442.3571423803057,938.4,438.48213713509693,442.9821423803057,1048.6,438.48213713509693,442.9821423803057,1149.6,438.48213713509693,442.9821423803057,1250.7,438.48213713509693,442.9821423803057,1350.7,473.48213713509693,467.9821423803057,1454.2,501.60713713509693,471.1071423803057,1560.3,520.357137135097,461.1071423803057,1664.8,523.482137135097,457.9821423803057,1775.1,523.482137135097,457.9821423803057,1876.8,523.482137135097,457.9821423803057,1982.2,523.482137135097,457.9821423803057,2083.2,523.482137135097,457.9821423803057,2183.9,523.482137135097,457.9821423803057,2298.1,523.482137135097,457.9821423803057,2399.5,523.482137135097,457.9821423803057,2503.4,523.482137135097,457.9821423803057,2605.4,523.482137135097,457.9821423803057,2710.5,523.482137135097,457.9821423803057,2814,523.482137135097,457.9821423803057,2923.4,523.482137135097,457.9821423803057,3025.4,523.482137135097,457.9821423803057,3131.8,523.482137135097,457.9821423803057,3232,523.482137135097,457.9821423803057,3341.3,527.232137135097,452.9821423803057,3448.3,532.232137135097,444.2321423803057,3548.8,533.482137135097,442.9821423803057,3649,528.482137135097,292.9821423803057,3749.1,516.607137135097,-5.767857619694304,3849.4,516.607137135097,-25.142857619694304,3951.2,499.10713713509693,-48.892857619694304,4054.6,496.60713713509693,-67.0178576196943,4159.4,496.60713713509693,-67.0178576196943,4264.2,496.60713713509693,-67.0178576196943,4366.2,496.60713713509693,-67.0178576196943,4472.3,496.60713713509693,-67.0178576196943,4575.8,496.60713713509693,-67.0178576196943,4683.2,496.60713713509693,-67.0178576196943,4783.6,496.60713713509693,-67.0178576196943,4883.8,496.60713713509693,-67.0178576196943,4994]","[1469.6,1469.6,1000,0,469.6,""oops"",""right"",""up"",""bad_move"",4192.3,2721.9,2267.6,1470.4,454.3,""smooth"",""right"",""right"",""good_move"",14542.5,10349,2507.6,11655.5,379.4,""oops"",""right"",""up"",""bad_move"",17856.8,3313.9,2884.2,14542.9,429.7,""smooth"",""down"",""down"",""good_move"",20047.2,2189,1762.8,17858.2,426.2,""oops"",""down"",""left"",""bad_move"",23083.7,3035.6,2694.9,20048.1,340.7,""smooth"",""down"",""down"",""good_move"",26146.2,3061.8,2759.8,23084.5,301.9,""oops"",""down"",""up"",""bad_move"",28908.1,2761.2,2280.1,26146.9,481.2,""smooth"",""down"",""down"",""good_move"",31614.7,2705.5,2371,28909.3,334.4,""oops"",""down"",""up"",""bad_move"",34227.2,2611.8,2147.5,31615.4,464.3,""smooth"",""right"",""right"",""good_move""]"
"146746","","<div style=""width:500px;"">
  <p>What determined the result of this run?</p>
  </div>","78","html-slider-response","39","1069966","0.0-7.0-1.5","134","1","2025-08-06 08:51:43","36c45c0696341be0efffe67d72a12abb","154.117.143.238","Mozilla/5.0 (Windows NT 10.0; Win64; x64) AppleWebKit/537.36 (KHTML, like Gecko) Chrome/138.0.0.0 Safari/537.36","WebKit","Chrome","138.0.0.0","Windows","10.0","https://app.prolific.com/","en-US,en;q=0.9","60ad28c6d838565067ab1b6c","6877649eabb845cf142cd221","68931799b2ffc4ae12c5afcd","1","60ad28c6d838565067ab1b6c","1","2025-08-06T09:09:36.441Z","","","","AttribQ","","","","","","","","","","","50","","","","","","","","","","","","","","","","","","","","","","","","","","",""
"5272","","<div style=""width:500px;"">
  <p>How much control did you have over the ball?</p>
  </div>","75","html-slider-response","40","1075240","0.0-7.0-2.5","134","1","2025-08-06 08:51:43","36c45c0696341be0efffe67d72a12abb","154.117.143.238","Mozilla/5.0 (Windows NT 10.0; Win64; x64) AppleWebKit/537.36 (KHTML, like Gecko) Chrome/138.0.0.0 Safari/537.36","WebKit","Chrome","138.0.0.0","Windows","10.0","https://app.prolific.com/","en-US,en;q=0.9","60ad28c6d838565067ab1b6c","6877649eabb845cf142cd221","68931799b2ffc4ae12c5afcd","1","60ad28c6d838565067ab1b6c","1","2025-08-06T09:09:41.714Z","","","","ControlQ","","","","","","","","","","","50","","","","","","","","","","","","","","","","","","","","","","","","","","",""
"2825","","<div style=""width:500px;"">
  <p>How would you describe your current emotional state?</p>
  </div>","30","html-slider-response","41","1078066","0.0-7.0-3.5","134","1","2025-08-06 08:51:43","36c45c0696341be0efffe67d72a12abb","154.117.143.238","Mozilla/5.0 (Windows NT 10.0; Win64; x64) AppleWebKit/537.36 (KHTML, like Gecko) Chrome/138.0.0.0 Safari/537.36","WebKit","Chrome","138.0.0.0","Windows","10.0","https://app.prolific.com/","en-US,en;q=0.9","60ad28c6d838565067ab1b6c","6877649eabb845cf142cd221","68931799b2ffc4ae12c5afcd","1","60ad28c6d838565067ab1b6c","1","2025-08-06T09:09:44.541Z","","","","StressQ","","","","","","","","","","","50","","","","","","","","","","","","","","","","","","","","","","","","","","",""
"3365","","<div style=""width:500px;"">
  <p>What best describes how you currently feel?</p>
  </div>","60","html-slider-response","42","1081433","0.0-7.0-4.5","134","1","2025-08-06 08:51:43","36c45c0696341be0efffe67d72a12abb","154.117.143.238","Mozilla/5.0 (Windows NT 10.0; Win64; x64) AppleWebKit/537.36 (KHTML, like Gecko) Chrome/138.0.0.0 Safari/537.36","WebKit","Chrome","138.0.0.0","Windows","10.0","https://app.prolific.com/","en-US,en;q=0.9","60ad28c6d838565067ab1b6c","6877649eabb845cf142cd221","68931799b2ffc4ae12c5afcd","1","60ad28c6d838565067ab1b6c","1","2025-08-06T09:09:47.907Z","","","","MotivationQ","","","","","","","","","","","50","","","","","","","","","","","","","","","","","","","","","","","","","","",""
"","","","","ctl-task-cpt","43","1134702","0.0-7.0-0.6","134","1","2025-08-06 08:51:43","36c45c0696341be0efffe67d72a12abb","154.117.143.238","Mozilla/5.0 (Windows NT 10.0; Win64; x64) AppleWebKit/537.36 (KHTML, like Gecko) Chrome/138.0.0.0 Safari/537.36","WebKit","Chrome","138.0.0.0","Windows","10.0","https://app.prolific.com/","en-US,en;q=0.9","60ad28c6d838565067ab1b6c","6877649eabb845cf142cd221","68931799b2ffc4ae12c5afcd","1","60ad28c6d838565067ab1b6c","1","2025-08-06T09:10:41.176Z","","","","","","","","","","","","","","","","win-only","2","g1:SE,g2:NW","0.4","7","0","1085716.7","1270.2","6270.8","50261.1","1","4","8","6","2","-8","-8","3","11","0.022727272727272728","927.6","3000","-2145","[""left"",""up""]","{""num_key_presses"":12,""num_perfect"":4,""num_errors"":0,""num_randdir"":8,""num_randdir_good_moves"":4,""num_whilered"":0,""num_whileblue"":0,""num_blue"":3,""num_good_moves"":8}","[233.48213713509696,239.2321423803057,0.4,233.48213713509696,239.2321423803057,107.8,233.48213713509696,239.2321423803057,208.1,233.48213713509696,239.2321423803057,311.6,233.48213713509696,239.2321423803057,421.3,94.10713713509696,94.8571423803057,525.4,49.107137135096956,57.357142380305696,627.6,48.482137135096956,54.232142380305696,730.7,46.607137135096956,49.857142380305696,837.7,46.607137135096956,49.857142380305696,939.2,46.607137135096956,49.857142380305696,1040.2,46.607137135096956,49.857142380305696,1142.3,46.607137135096956,49.857142380305696,1245.7,318.48213713509693,156.1071423803057,1346.8,492.23213713509693,202.9821423803057,1449.8,499.10713713509693,206.1071423803057,1561.6,524.107137135097,201.1071423803057,1666.4,533.482137135097,197.9821423803057,1766.6,533.482137135097,197.9821423803057,1875.3,533.482137135097,197.9821423803057,1976.8,533.482137135097,197.9821423803057,2080,533.482137135097,197.9821423803057,2181.6,533.482137135097,197.9821423803057,2290.8,536.607137135097,174.2321423803057,2393.3,534.107137135097,144.2321423803057,2493.7,528.482137135097,132.9821423803057,2596.6,523.482137135097,117.9821423803057,2697.9,522.232137135097,117.9821423803057,2803.4,522.232137135097,117.9821423803057,2905.7,522.232137135097,117.9821423803057,3007.2,522.232137135097,117.9821423803057,3109.4,522.232137135097,114.8571423803057,3211.4,521.607137135097,39.857142380305696,3313.9,524.107137135097,-65.7678576196943,3415.8,524.107137135097,-65.7678576196943,3515.9,524.107137135097,-65.7678576196943,3616.5,524.107137135097,-65.7678576196943,3723.3,524.107137135097,-65.7678576196943,3825.3,524.107137135097,-65.7678576196943,3930.2,524.107137135097,-65.7678576196943,4032.9,524.107137135097,-65.7678576196943,4140.8,524.107137135097,-65.7678576196943,4242.9,524.107137135097,-65.7678576196943,4346.2,524.107137135097,-65.7678576196943,4446.7,524.107137135097,-65.7678576196943,4547.2,524.107137135097,-65.7678576196943,4655.5,524.107137135097,-65.7678576196943,4757.3,524.107137135097,-65.7678576196943,4859.4,524.107137135097,-65.7678576196943,4960.9]","[1407.8,1407.8,1000,0,407.8,""smooth"",""up"",""up"",""good_move"",4194.1,2784.8,2419.7,1409.3,365.1,""oops"",""left"",""down"",""bad_move"",7156.3,2960.9,2620.7,4195.4,340.2,""oops"",""up"",""left"",""good_move"",10469.5,3312.5,2992.7,7157,319.8,""smooth"",""left"",""left"",""good_move"",13260.1,2790.2,2472.9,10469.9,317.3,""smooth"",""up"",""up"",""good_move"",15797.3,2536.6,2172.6,13260.8,364,""oops"",""up"",""up"",""good_move"",18484.4,2686.4,2372.7,15798,313.7,""oops"",""up"",""down"",""bad_move"",20963.1,2477.9,2127.5,18485.2,350.4,""smooth"",""left"",""left"",""good_move"",30114.9,9151.3,2249,27506.6,359.3,""oops"",""up"",""right"",""bad_move"",32876.2,2760.3,2383.1,30115.9,377.2,""oops"",""up"",""down"",""bad_move"",39022.6,6145.2,2270.2,36415.2,337.3,""oops"",""left"",""up"",""good_move"",40731.6,1708.1,1317.7,39023.6,390.3,""oops"",""left"",""up"",""good_move""]"
"111123","","<div style=""width:500px;"">
  <p>What determined the result of this run?</p>
  </div>","82","html-slider-response","44","1245827","0.0-7.0-1.6","134","1","2025-08-06 08:51:43","36c45c0696341be0efffe67d72a12abb","154.117.143.238","Mozilla/5.0 (Windows NT 10.0; Win64; x64) AppleWebKit/537.36 (KHTML, like Gecko) Chrome/138.0.0.0 Safari/537.36","WebKit","Chrome","138.0.0.0","Windows","10.0","https://app.prolific.com/","en-US,en;q=0.9","60ad28c6d838565067ab1b6c","6877649eabb845cf142cd221","68931799b2ffc4ae12c5afcd","1","60ad28c6d838565067ab1b6c","1","2025-08-06T09:12:32.301Z","","","","AttribQ","","","","","","","","","","","50","","","","","","","","","","","","","","","","","","","","","","","","","","",""
"1701","","<div style=""width:500px;"">
  <p>How much control did you have over the ball?</p>
  </div>","81","html-slider-response","45","1247529","0.0-7.0-2.6","134","1","2025-08-06 08:51:43","36c45c0696341be0efffe67d72a12abb","154.117.143.238","Mozilla/5.0 (Windows NT 10.0; Win64; x64) AppleWebKit/537.36 (KHTML, like Gecko) Chrome/138.0.0.0 Safari/537.36","WebKit","Chrome","138.0.0.0","Windows","10.0","https://app.prolific.com/","en-US,en;q=0.9","60ad28c6d838565067ab1b6c","6877649eabb845cf142cd221","68931799b2ffc4ae12c5afcd","1","60ad28c6d838565067ab1b6c","1","2025-08-06T09:12:34.003Z","","","","ControlQ","","","","","","","","","","","50","","","","","","","","","","","","","","","","","","","","","","","","","","",""
"3976","","<div style=""width:500px;"">
  <p>How would you describe your current emotional state?</p>
  </div>","28","html-slider-response","46","1251507","0.0-7.0-3.6","134","1","2025-08-06 08:51:43","36c45c0696341be0efffe67d72a12abb","154.117.143.238","Mozilla/5.0 (Windows NT 10.0; Win64; x64) AppleWebKit/537.36 (KHTML, like Gecko) Chrome/138.0.0.0 Safari/537.36","WebKit","Chrome","138.0.0.0","Windows","10.0","https://app.prolific.com/","en-US,en;q=0.9","60ad28c6d838565067ab1b6c","6877649eabb845cf142cd221","68931799b2ffc4ae12c5afcd","1","60ad28c6d838565067ab1b6c","1","2025-08-06T09:12:37.981Z","","","","StressQ","","","","","","","","","","","50","","","","","","","","","","","","","","","","","","","","","","","","","","",""
"4721","","<div style=""width:500px;"">
  <p>What best describes how you currently feel?</p>
  </div>","62","html-slider-response","47","1256230","0.0-7.0-4.6","134","1","2025-08-06 08:51:43","36c45c0696341be0efffe67d72a12abb","154.117.143.238","Mozilla/5.0 (Windows NT 10.0; Win64; x64) AppleWebKit/537.36 (KHTML, like Gecko) Chrome/138.0.0.0 Safari/537.36","WebKit","Chrome","138.0.0.0","Windows","10.0","https://app.prolific.com/","en-US,en;q=0.9","60ad28c6d838565067ab1b6c","6877649eabb845cf142cd221","68931799b2ffc4ae12c5afcd","1","60ad28c6d838565067ab1b6c","1","2025-08-06T09:12:42.704Z","","","","MotivationQ","","","","","","","","","","","50","","","","","","","","","","","","","","","","","","","","","","","","","","",""
"","","","","ctl-task-cpt","48","1312136","0.0-7.0-0.7","134","1","2025-08-06 08:51:43","36c45c0696341be0efffe67d72a12abb","154.117.143.238","Mozilla/5.0 (Windows NT 10.0; Win64; x64) AppleWebKit/537.36 (KHTML, like Gecko) Chrome/138.0.0.0 Safari/537.36","WebKit","Chrome","138.0.0.0","Windows","10.0","https://app.prolific.com/","en-US,en;q=0.9","60ad28c6d838565067ab1b6c","6877649eabb845cf142cd221","68931799b2ffc4ae12c5afcd","1","60ad28c6d838565067ab1b6c","1","2025-08-06T09:13:38.610Z","","","","","","","","","","","","","","","","win-only","0","g1:NW,g2:SE","0.3","8","0","1260514.6","1872.9","6887.6","52896.4","1","4","4","6","2","-4","-5","0","3","0","1198.7","3000","-2030","[""down"",""right""]","{""num_key_presses"":14,""num_perfect"":3,""num_errors"":1,""num_randdir"":10,""num_randdir_good_moves"":3,""num_whilered"":0,""num_whileblue"":0,""num_blue"":2,""num_good_moves"":6}","[238.48213713509696,232.9821423803057,0.5,238.48213713509696,232.9821423803057,100.6,238.48213713509696,232.9821423803057,201.6,238.48213713509696,232.9821423803057,305.3,238.48213713509696,232.9821423803057,405.6,238.48213713509696,232.9821423803057,513,401.60713713509693,401.1071423803057,618.1,464.10713713509693,439.8571423803057,718.1,464.10713713509693,439.8571423803057,819.1,464.10713713509693,439.8571423803057,928.8,461.60713713509693,439.8571423803057,1030.6,446.60713713509693,439.8571423803057,1131.7,446.60713713509693,439.8571423803057,1244.6,446.60713713509693,439.8571423803057,1346.4,446.60713713509693,439.8571423803057,1446.6,446.60713713509693,439.8571423803057,1555.1,446.60713713509693,439.8571423803057,1667.2,446.60713713509693,439.8571423803057,1770.4,514.107137135097,332.9821423803057,1887.9,531.607137135097,321.1071423803057,1989.1,536.607137135097,316.1071423803057,2095.1,536.607137135097,314.8571423803057,2202.9,536.607137135097,314.8571423803057,2309.8,536.607137135097,314.8571423803057,2414.1,536.607137135097,314.8571423803057,2518.2,536.607137135097,314.8571423803057,2621.6,536.607137135097,314.8571423803057,2723.5,536.607137135097,314.8571423803057,2824.4,536.607137135097,314.8571423803057,2924.7,536.607137135097,314.8571423803057,3032.2,536.607137135097,314.8571423803057,3145.9,536.607137135097,314.8571423803057,3249.1,536.607137135097,314.8571423803057,3354.9,536.607137135097,314.8571423803057,3467.2,536.607137135097,314.8571423803057,3578.4,536.607137135097,314.8571423803057,3678.4,536.607137135097,314.8571423803057,3789.9,536.607137135097,314.8571423803057,3891.1,536.607137135097,314.8571423803057,3995.4,536.607137135097,314.8571423803057,4100.8,536.607137135097,314.8571423803057,4205.6,536.607137135097,314.8571423803057,4308.4,536.607137135097,314.8571423803057,4408.7,536.607137135097,314.8571423803057,4515.1,536.607137135097,314.8571423803057,4619,536.607137135097,314.8571423803057,4728.5,536.607137135097,314.8571423803057,4834.7,536.607137135097,314.8571423803057,4948.1]","[1400.5,1400.5,1000,0,400.5,""oops"",""right"",""down"",""good_move"",3566.8,2165.6,1759.6,1401.2,406,""oops"",""right"",""down"",""good_move"",6850,3282.6,2951.4,3567.4,331.2,""oops"",""right"",""left"",""bad_move"",7025.4,174.6,2480.8,6850.8,-2306.2,""error"",""-"",""-"",""no_move"",11364.7,4338.9,2964.3,8033.8,366.6,""oops"",""down"",""left"",""bad_move"",13722.3,2357,1967.6,11365.3,389.4,""smooth"",""down"",""down"",""good_move"",16061.2,2338.1,1967.2,13723.1,370.9,""oops"",""right"",""right"",""good_move"",18881.8,2820.1,2495.9,16061.7,324.2,""smooth"",""right"",""right"",""good_move"",24202.9,5320.7,1711.8,22095.6,395.5,""oops"",""right"",""up"",""bad_move"",27494.9,3291.4,2919,24203.6,372.3,""oops"",""right"",""up"",""bad_move"",30127.5,2632,2324.4,27495.5,307.6,""smooth"",""right"",""right"",""good_move"",37328,7199.3,2586.3,34441,300.7,""oops"",""right"",""up"",""bad_move"",40931,3602.3,3277.1,37328.7,325.2,""oops"",""right"",""up"",""bad_move"",43799.4,2868.1,2512.9,40931.3,355.2,""oops"",""right"",""up"",""bad_move""]"
"3924","","<div style=""width:500px;"">
  <p>What determined the result of this run?</p>
  </div>","0","html-slider-response","49","1316061","0.0-7.0-1.7","134","1","2025-08-06 08:51:43","36c45c0696341be0efffe67d72a12abb","154.117.143.238","Mozilla/5.0 (Windows NT 10.0; Win64; x64) AppleWebKit/537.36 (KHTML, like Gecko) Chrome/138.0.0.0 Safari/537.36","WebKit","Chrome","138.0.0.0","Windows","10.0","https://app.prolific.com/","en-US,en;q=0.9","60ad28c6d838565067ab1b6c","6877649eabb845cf142cd221","68931799b2ffc4ae12c5afcd","1","60ad28c6d838565067ab1b6c","1","2025-08-06T09:13:42.535Z","","","","AttribQ","","","","","","","","","","","50","","","","","","","","","","","","","","","","","","","","","","","","","","",""
"3434","","<div style=""width:500px;"">
  <p>How much control did you have over the ball?</p>
  </div>","14","html-slider-response","50","1319496","0.0-7.0-2.7","134","1","2025-08-06 08:51:43","36c45c0696341be0efffe67d72a12abb","154.117.143.238","Mozilla/5.0 (Windows NT 10.0; Win64; x64) AppleWebKit/537.36 (KHTML, like Gecko) Chrome/138.0.0.0 Safari/537.36","WebKit","Chrome","138.0.0.0","Windows","10.0","https://app.prolific.com/","en-US,en;q=0.9","60ad28c6d838565067ab1b6c","6877649eabb845cf142cd221","68931799b2ffc4ae12c5afcd","1","60ad28c6d838565067ab1b6c","1","2025-08-06T09:13:45.971Z","","","","ControlQ","","","","","","","","","","","50","","","","","","","","","","","","","","","","","","","","","","","","","","",""
"2785","","<div style=""width:500px;"">
  <p>How would you describe your current emotional state?</p>
  </div>","58","html-slider-response","51","1322283","0.0-7.0-3.7","134","1","2025-08-06 08:51:43","36c45c0696341be0efffe67d72a12abb","154.117.143.238","Mozilla/5.0 (Windows NT 10.0; Win64; x64) AppleWebKit/537.36 (KHTML, like Gecko) Chrome/138.0.0.0 Safari/537.36","WebKit","Chrome","138.0.0.0","Windows","10.0","https://app.prolific.com/","en-US,en;q=0.9","60ad28c6d838565067ab1b6c","6877649eabb845cf142cd221","68931799b2ffc4ae12c5afcd","1","60ad28c6d838565067ab1b6c","1","2025-08-06T09:13:48.757Z","","","","StressQ","","","","","","","","","","","50","","","","","","","","","","","","","","","","","","","","","","","","","","",""
"4035","","<div style=""width:500px;"">
  <p>What best describes how you currently feel?</p>
  </div>","42","html-slider-response","52","1326320","0.0-7.0-4.7","134","1","2025-08-06 08:51:43","36c45c0696341be0efffe67d72a12abb","154.117.143.238","Mozilla/5.0 (Windows NT 10.0; Win64; x64) AppleWebKit/537.36 (KHTML, like Gecko) Chrome/138.0.0.0 Safari/537.36","WebKit","Chrome","138.0.0.0","Windows","10.0","https://app.prolific.com/","en-US,en;q=0.9","60ad28c6d838565067ab1b6c","6877649eabb845cf142cd221","68931799b2ffc4ae12c5afcd","1","60ad28c6d838565067ab1b6c","1","2025-08-06T09:13:52.794Z","","","","MotivationQ","","","","","","","","","","","50","","","","","","","","","","","","","","","","","","","","","","","","","","",""
"","","","","ctl-task-cpt","53","1383262","0.0-7.0-0.8","134","1","2025-08-06 08:51:43","36c45c0696341be0efffe67d72a12abb","154.117.143.238","Mozilla/5.0 (Windows NT 10.0; Win64; x64) AppleWebKit/537.36 (KHTML, like Gecko) Chrome/138.0.0.0 Safari/537.36","WebKit","Chrome","138.0.0.0","Windows","10.0","https://app.prolific.com/","en-US,en;q=0.9","60ad28c6d838565067ab1b6c","6877649eabb845cf142cd221","68931799b2ffc4ae12c5afcd","1","60ad28c6d838565067ab1b6c","1","2025-08-06T09:14:49.736Z","","","","","","","","","","","","","","","","win-only","0","g1:NW,g2:SE","0.4","9","0","1330605.5","1341","6344.6","53926.2","1","4","8","6","2","-8","-8","0","0","0","1135.7","3000","-1995","[""down"",""right""]","{""num_key_presses"":11,""num_perfect"":4,""num_errors"":0,""num_randdir"":7,""num_randdir_good_moves"":2,""num_whilered"":0,""num_whileblue"":0,""num_blue"":4,""num_good_moves"":6}","[241.60713713509696,239.2321423803057,0.4,241.60713713509696,239.2321423803057,100.2,241.60713713509696,239.2321423803057,202,241.60713713509696,239.2321423803057,304.9,241.60713713509696,239.2321423803057,405.5,240.35713713509696,239.8571423803057,505.8,310.35713713509693,372.9821423803057,614.7,375.35713713509693,424.2321423803057,716.4,388.48213713509693,429.2321423803057,820.5,407.23213713509693,431.1071423803057,921.6,429.10713713509693,432.9821423803057,1030.3,429.10713713509693,432.9821423803057,1146.3,429.10713713509693,432.9821423803057,1252.9,429.10713713509693,432.9821423803057,1358,429.10713713509693,432.9821423803057,1464.7,497.23213713509693,324.2321423803057,1567.1,544.107137135097,262.9821423803057,1670,549.107137135097,262.3571423803057,1771.1,563.482137135097,256.1071423803057,1887.3,563.482137135097,256.1071423803057,1987.8,563.482137135097,256.1071423803057,2090.9,563.482137135097,256.1071423803057,2203.3,563.482137135097,256.1071423803057,2308.5,563.482137135097,256.1071423803057,2412.9,563.482137135097,256.1071423803057,2524.4,563.482137135097,256.1071423803057,2627.9,563.482137135097,256.1071423803057,2735.4,563.482137135097,256.1071423803057,2837.4,563.482137135097,256.1071423803057,2942.1,563.482137135097,256.1071423803057,3054.4,563.482137135097,256.1071423803057,3158.8,563.482137135097,256.1071423803057,3273.7,563.482137135097,256.1071423803057,3378.6,563.482137135097,256.1071423803057,3486.6,563.482137135097,256.1071423803057,3589.9,563.482137135097,256.1071423803057,3692.7,563.482137135097,256.1071423803057,3794.8,563.482137135097,256.1071423803057,3903.8,563.482137135097,256.1071423803057,4012.3,563.482137135097,256.1071423803057,4119.9,563.482137135097,256.1071423803057,4223.3,563.482137135097,256.1071423803057,4327.2,563.482137135097,256.1071423803057,4428.2,563.482137135097,256.1071423803057,4541.3,563.482137135097,256.1071423803057,4644.8,563.482137135097,256.1071423803057,4758.9,563.482137135097,256.1071423803057,4862.8,563.482137135097,256.1071423803057,4963.8]","[1427.2,1427.2,1000,0,427.2,""smooth"",""down"",""down"",""good_move"",4644.8,3216.7,2762.4,1428.4,454.1,""oops"",""down"",""left"",""bad_move"",10433.6,5787.6,2112.5,7922.8,398.3,""oops"",""down"",""left"",""bad_move"",17018.8,6584.9,2830.1,13781.9,406.8,""oops"",""down"",""up"",""bad_move"",27447.9,10428.7,3119.7,23912.3,415.9,""oops"",""right"",""down"",""good_move"",30469.5,3021.1,2602.5,27448.5,418.6,""oops"",""right"",""up"",""bad_move"",32561,2090.8,1639.7,30470.2,451.1,""smooth"",""right"",""right"",""good_move"",35201.7,2639.8,2264.1,32561.9,375.7,""smooth"",""right"",""right"",""good_move"",38641.7,3439.5,3092,35202.2,347.6,""smooth"",""right"",""right"",""good_move"",41177.5,2535.5,2179.4,38642,356.1,""oops"",""down"",""right"",""good_move"",44692.4,3514.7,3244.7,41177.7,270.1,""oops"",""down"",""up"",""bad_move""]"
"2630","","<div style=""width:500px;"">
  <p>What determined the result of this run?</p>
  </div>","0","html-slider-response","54","1385894","0.0-7.0-1.8","134","1","2025-08-06 08:51:43","36c45c0696341be0efffe67d72a12abb","154.117.143.238","Mozilla/5.0 (Windows NT 10.0; Win64; x64) AppleWebKit/537.36 (KHTML, like Gecko) Chrome/138.0.0.0 Safari/537.36","WebKit","Chrome","138.0.0.0","Windows","10.0","https://app.prolific.com/","en-US,en;q=0.9","60ad28c6d838565067ab1b6c","6877649eabb845cf142cd221","68931799b2ffc4ae12c5afcd","1","60ad28c6d838565067ab1b6c","1","2025-08-06T09:14:52.369Z","","","","AttribQ","","","","","","","","","","","50","","","","","","","","","","","","","","","","","","","","","","","","","","",""
"2362","","<div style=""width:500px;"">
  <p>How much control did you have over the ball?</p>
  </div>","4","html-slider-response","55","1388258","0.0-7.0-2.8","134","1","2025-08-06 08:51:43","36c45c0696341be0efffe67d72a12abb","154.117.143.238","Mozilla/5.0 (Windows NT 10.0; Win64; x64) AppleWebKit/537.36 (KHTML, like Gecko) Chrome/138.0.0.0 Safari/537.36","WebKit","Chrome","138.0.0.0","Windows","10.0","https://app.prolific.com/","en-US,en;q=0.9","60ad28c6d838565067ab1b6c","6877649eabb845cf142cd221","68931799b2ffc4ae12c5afcd","1","60ad28c6d838565067ab1b6c","1","2025-08-06T09:14:54.732Z","","","","ControlQ","","","","","","","","","","","50","","","","","","","","","","","","","","","","","","","","","","","","","","",""
"14853","","<div style=""width:500px;"">
  <p>How would you describe your current emotional state?</p>
  </div>","62","html-slider-response","56","1403113","0.0-7.0-3.8","134","1","2025-08-06 08:51:43","36c45c0696341be0efffe67d72a12abb","154.117.143.238","Mozilla/5.0 (Windows NT 10.0; Win64; x64) AppleWebKit/537.36 (KHTML, like Gecko) Chrome/138.0.0.0 Safari/537.36","WebKit","Chrome","138.0.0.0","Windows","10.0","https://app.prolific.com/","en-US,en;q=0.9","60ad28c6d838565067ab1b6c","6877649eabb845cf142cd221","68931799b2ffc4ae12c5afcd","1","60ad28c6d838565067ab1b6c","1","2025-08-06T09:15:09.587Z","","","","StressQ","","","","","","","","","","","50","","","","","","","","","","","","","","","","","","","","","","","","","","",""
"2490","","<div style=""width:500px;"">
  <p>What best describes how you currently feel?</p>
  </div>","37","html-slider-response","57","1405606","0.0-7.0-4.8","134","1","2025-08-06 08:51:43","36c45c0696341be0efffe67d72a12abb","154.117.143.238","Mozilla/5.0 (Windows NT 10.0; Win64; x64) AppleWebKit/537.36 (KHTML, like Gecko) Chrome/138.0.0.0 Safari/537.36","WebKit","Chrome","138.0.0.0","Windows","10.0","https://app.prolific.com/","en-US,en;q=0.9","60ad28c6d838565067ab1b6c","6877649eabb845cf142cd221","68931799b2ffc4ae12c5afcd","1","60ad28c6d838565067ab1b6c","1","2025-08-06T09:15:12.080Z","","","","MotivationQ","","","","","","","","","","","50","","","","","","","","","","","","","","","","","","","","","","","","","","",""
"","","","","ctl-task-cpt","58","1440575","0.0-7.0-0.9","134","1","2025-08-06 08:51:43","36c45c0696341be0efffe67d72a12abb","154.117.143.238","Mozilla/5.0 (Windows NT 10.0; Win64; x64) AppleWebKit/537.36 (KHTML, like Gecko) Chrome/138.0.0.0 Safari/537.36","WebKit","Chrome","138.0.0.0","Windows","10.0","https://app.prolific.com/","en-US,en;q=0.9","60ad28c6d838565067ab1b6c","6877649eabb845cf142cd221","68931799b2ffc4ae12c5afcd","1","60ad28c6d838565067ab1b6c","1","2025-08-06T09:15:47.049Z","","","","","","","","","","","","","","","","win-only","1","g1:NE,g2:SW","0.5","10","0","1409890.4","2118.5","7123.9","31949.8","1","4","4","6","2","4","3","3","0","0.022727272727272728","989.5","3000","1185","[""down"",""left""]","{""num_key_presses"":9,""num_perfect"":5,""num_errors"":1,""num_randdir"":3,""num_randdir_good_moves"":2,""num_whilered"":0,""num_whileblue"":0,""num_blue"":0,""num_good_moves"":7}","[237.23213713509696,237.9821423803057,0.3,237.23213713509696,237.9821423803057,103.6,237.23213713509696,237.9821423803057,207.3,237.23213713509696,237.9821423803057,308.1,237.23213713509696,237.9821423803057,417.3,36.607137135096956,397.9821423803057,520.3,31.607137135096956,402.3571423803057,631.7,29.107137135096956,404.8571423803057,737.2,23.482137135096956,414.2321423803057,837.8,23.482137135096956,416.1071423803057,943.4,23.482137135096956,416.1071423803057,1050.6,23.482137135096956,416.1071423803057,1155.8,23.482137135096956,416.1071423803057,1258.4,211.60713713509696,374.8571423803057,1360.1,426.60713713509693,332.9821423803057,1466,430.35713713509693,337.3571423803057,1574.1,457.23213713509693,334.8571423803057,1677.9,504.10713713509693,322.3571423803057,1778.1,514.107137135097,322.3571423803057,1879.8,521.607137135097,321.1071423803057,1981.4,521.607137135097,321.1071423803057,2083.9,521.607137135097,321.1071423803057,2193.1,521.607137135097,321.1071423803057,2293.1,521.607137135097,321.1071423803057,2398.3,521.607137135097,321.1071423803057,2499.9,521.607137135097,321.1071423803057,2603.7,521.607137135097,321.1071423803057,2710,521.607137135097,321.1071423803057,2822.4,521.607137135097,321.1071423803057,2922.8,521.607137135097,321.1071423803057,3023.1,521.607137135097,321.1071423803057,3132.9,521.607137135097,321.1071423803057,3233.7,521.607137135097,321.1071423803057,3337.5,521.607137135097,321.1071423803057,3449.8,521.607137135097,321.1071423803057,3554.8,521.607137135097,321.1071423803057,3661.1,521.607137135097,321.1071423803057,3769.1,521.607137135097,321.1071423803057,3869.5,521.607137135097,321.1071423803057,3971.8,521.607137135097,321.1071423803057,4071.8,521.607137135097,321.1071423803057,4175.6,521.607137135097,321.1071423803057,4275.9,521.607137135097,321.1071423803057,4386.3,521.607137135097,321.1071423803057,4495.3,521.607137135097,321.1071423803057,4602.1,521.607137135097,321.1071423803057,4702.7,521.607137135097,321.1071423803057,4802.7,521.607137135097,321.1071423803057,4909.9]","[119,119,1000,0,-881,""error"",""-"",""-"",""no_move"",4812.3,4693.2,3321.1,1127.8,363.4,""oops"",""down"",""down"",""good_move"",7468.4,2655.2,2259,4813.3,396.1,""oops"",""left"",""up"",""bad_move"",9750.7,2281.8,1918.3,7469,363.4,""oops"",""left"",""left"",""good_move"",12613,2861.5,2503.4,9751.5,358.1,""smooth"",""left"",""left"",""good_move"",16015.1,3401.7,3066.3,12613.5,335.4,""smooth"",""down"",""down"",""good_move"",18832.1,2816.4,2462.3,16015.7,354.1,""smooth"",""down"",""down"",""good_move"",21363.6,2531.1,2209.5,18832.6,321.5,""smooth"",""down"",""down"",""good_move"",24687.2,3323.2,2933.1,21364,390.1,""smooth"",""left"",""left"",""good_move""]"
"5806","","<div style=""width:500px;"">
  <p>What determined the result of this run?</p>
  </div>","80","html-slider-response","59","1446383","0.0-7.0-1.9","134","1","2025-08-06 08:51:43","36c45c0696341be0efffe67d72a12abb","154.117.143.238","Mozilla/5.0 (Windows NT 10.0; Win64; x64) AppleWebKit/537.36 (KHTML, like Gecko) Chrome/138.0.0.0 Safari/537.36","WebKit","Chrome","138.0.0.0","Windows","10.0","https://app.prolific.com/","en-US,en;q=0.9","60ad28c6d838565067ab1b6c","6877649eabb845cf142cd221","68931799b2ffc4ae12c5afcd","1","60ad28c6d838565067ab1b6c","1","2025-08-06T09:15:52.857Z","","","","AttribQ","","","","","","","","","","","50","","","","","","","","","","","","","","","","","","","","","","","","","","",""
"11859","","<div style=""width:500px;"">
  <p>How much control did you have over the ball?</p>
  </div>","27","html-slider-response","60","1458243","0.0-7.0-2.9","134","1","2025-08-06 08:51:43","36c45c0696341be0efffe67d72a12abb","154.117.143.238","Mozilla/5.0 (Windows NT 10.0; Win64; x64) AppleWebKit/537.36 (KHTML, like Gecko) Chrome/138.0.0.0 Safari/537.36","WebKit","Chrome","138.0.0.0","Windows","10.0","https://app.prolific.com/","en-US,en;q=0.9","60ad28c6d838565067ab1b6c","6877649eabb845cf142cd221","68931799b2ffc4ae12c5afcd","1","60ad28c6d838565067ab1b6c","1","2025-08-06T09:16:04.717Z","","","","ControlQ","","","","","","","","","","","50","","","","","","","","","","","","","","","","","","","","","","","","","","",""
"12201","","<div style=""width:500px;"">
  <p>How would you describe your current emotional state?</p>
  </div>","68","html-slider-response","61","1470446","0.0-7.0-3.9","134","1","2025-08-06 08:51:43","36c45c0696341be0efffe67d72a12abb","154.117.143.238","Mozilla/5.0 (Windows NT 10.0; Win64; x64) AppleWebKit/537.36 (KHTML, like Gecko) Chrome/138.0.0.0 Safari/537.36","WebKit","Chrome","138.0.0.0","Windows","10.0","https://app.prolific.com/","en-US,en;q=0.9","60ad28c6d838565067ab1b6c","6877649eabb845cf142cd221","68931799b2ffc4ae12c5afcd","1","60ad28c6d838565067ab1b6c","1","2025-08-06T09:16:16.920Z","","","","StressQ","","","","","","","","","","","50","","","","","","","","","","","","","","","","","","","","","","","","","","",""
"4704","","<div style=""width:500px;"">
  <p>What best describes how you currently feel?</p>
  </div>","40","html-slider-response","62","1475152","0.0-7.0-4.9","134","1","2025-08-06 08:51:43","36c45c0696341be0efffe67d72a12abb","154.117.143.238","Mozilla/5.0 (Windows NT 10.0; Win64; x64) AppleWebKit/537.36 (KHTML, like Gecko) Chrome/138.0.0.0 Safari/537.36","WebKit","Chrome","138.0.0.0","Windows","10.0","https://app.prolific.com/","en-US,en;q=0.9","60ad28c6d838565067ab1b6c","6877649eabb845cf142cd221","68931799b2ffc4ae12c5afcd","1","60ad28c6d838565067ab1b6c","1","2025-08-06T09:16:21.626Z","","","","MotivationQ","","","","","","","","","","","50","","","","","","","","","","","","","","","","","","","","","","","","","","",""
"","","","","ctl-task-cpt","63","1526036","0.0-7.0-0.10","134","1","2025-08-06 08:51:43","36c45c0696341be0efffe67d72a12abb","154.117.143.238","Mozilla/5.0 (Windows NT 10.0; Win64; x64) AppleWebKit/537.36 (KHTML, like Gecko) Chrome/138.0.0.0 Safari/537.36","WebKit","Chrome","138.0.0.0","Windows","10.0","https://app.prolific.com/","en-US,en;q=0.9","60ad28c6d838565067ab1b6c","6877649eabb845cf142cd221","68931799b2ffc4ae12c5afcd","1","60ad28c6d838565067ab1b6c","1","2025-08-06T09:17:12.510Z","","","","","","","","","","","","","","","","win-only","0","g1:NW,g2:SE","0.6","11","0","1479437","1606","6609.4","47855.8","1","4","8","6","2","-8","-11","0","3","0","1103.3","3000","-2010","[""down"",""right""]","{""num_key_presses"":13,""num_perfect"":6,""num_errors"":3,""num_randdir"":4,""num_randdir_good_moves"":1,""num_whilered"":0,""num_whileblue"":0,""num_blue"":2,""num_good_moves"":7}","[245.35713713509696,239.8571423803057,0.3,245.35713713509696,239.8571423803057,101.1,245.35713713509696,239.8571423803057,205.1,245.35713713509696,239.8571423803057,306.6,245.35713713509696,239.8571423803057,417.1,251.60713713509696,249.2321423803057,532.3,356.60713713509693,399.8571423803057,635.8,400.35713713509693,459.8571423803057,737.3,406.60713713509693,467.3571423803057,841.1,418.48213713509693,472.3571423803057,943,417.23213713509693,472.3571423803057,1045.7,417.23213713509693,472.3571423803057,1150,417.23213713509693,472.3571423803057,1256.1,417.23213713509693,472.3571423803057,1356.2,421.60713713509693,464.8571423803057,1456.3,519.107137135097,317.9821423803057,1563.3,543.482137135097,279.2321423803057,1669.5,555.357137135097,262.3571423803057,1770,569.107137135097,239.2321423803057,1871.5,569.107137135097,239.2321423803057,1977.6,569.107137135097,239.2321423803057,2085.1,569.107137135097,239.2321423803057,2190.3,569.107137135097,239.2321423803057,2300.7,569.107137135097,239.2321423803057,2403.4,569.107137135097,239.2321423803057,2509.8,569.107137135097,239.2321423803057,2613.9,569.107137135097,239.2321423803057,2716.7,569.107137135097,239.2321423803057,2822.4,569.107137135097,239.2321423803057,2931.5,569.107137135097,239.2321423803057,3031.5,569.107137135097,239.2321423803057,3134.7,569.107137135097,239.2321423803057,3240.7,569.107137135097,239.2321423803057,3348.9,569.107137135097,239.2321423803057,3457.9,569.107137135097,239.2321423803057,3560.5,569.107137135097,239.2321423803057,3660.6,569.107137135097,239.2321423803057,3760.8,569.107137135097,239.2321423803057,3867.6,569.107137135097,239.2321423803057,3971.4,569.107137135097,239.2321423803057,4077.4,569.107137135097,239.2321423803057,4191.4,569.107137135097,239.2321423803057,4299.4,569.107137135097,239.2321423803057,4400.9,569.107137135097,239.2321423803057,4508.3,569.107137135097,239.2321423803057,4615,569.107137135097,239.2321423803057,4722.9,569.107137135097,239.2321423803057,4824.5,569.107137135097,239.2321423803057,4927.1]","[1449,1449,1000,0,449,""smooth"",""down"",""down"",""good_move"",4336.3,2886.1,2500.2,1450.2,385.9,""smooth"",""right"",""right"",""good_move"",6684,2347.3,1949.2,4336.7,398.1,""oops"",""down"",""right"",""good_move"",12833.6,6149.3,1359.6,11004.8,469.3,""oops"",""down"",""up"",""bad_move"",19778.2,6944.1,3318.5,16054.3,405.4,""oops"",""right"",""up"",""bad_move"",23174.4,3395.7,2995.4,19778.7,400.3,""smooth"",""right"",""right"",""good_move"",25797.5,2621.6,1477.3,23176,1144.2,""oops"",""down"",""up"",""bad_move"",28418.7,2620.8,2320.5,25797.9,300.3,""smooth"",""down"",""down"",""good_move"",28551.5,131.7,3208,28419.8,-3076.3,""error"",""-"",""-"",""no_move"",31869.7,3317.4,1968.3,29556.2,345.2,""smooth"",""down"",""down"",""good_move"",34167.9,2297.9,1956.3,31870,341.6,""smooth"",""down"",""down"",""good_move"",36815.4,2646.9,2872.6,34168.5,-225.7,""error"",""-"",""-"",""no_move"",38105.5,1289.8,2433.4,37817.9,-2145.8,""error"",""-"",""-"",""no_move""]"
"345917","","<div style=""width:500px;"">
  <p>What determined the result of this run?</p>
  </div>","79","html-slider-response","64","1871954","0.0-7.0-1.10","134","1","2025-08-06 08:51:43","36c45c0696341be0efffe67d72a12abb","154.117.143.238","Mozilla/5.0 (Windows NT 10.0; Win64; x64) AppleWebKit/537.36 (KHTML, like Gecko) Chrome/138.0.0.0 Safari/537.36","WebKit","Chrome","138.0.0.0","Windows","10.0","https://app.prolific.com/","en-US,en;q=0.9","60ad28c6d838565067ab1b6c","6877649eabb845cf142cd221","68931799b2ffc4ae12c5afcd","1","60ad28c6d838565067ab1b6c","1","2025-08-06T09:22:58.429Z","","","","AttribQ","","","","","","","","","","","50","","","","","","","","","","","","","","","","","","","","","","","","","","",""
"17369","","<div style=""width:500px;"">
  <p>How much control did you have over the ball?</p>
  </div>","4","html-slider-response","65","1889325","0.0-7.0-2.10","134","1","2025-08-06 08:51:43","36c45c0696341be0efffe67d72a12abb","154.117.143.238","Mozilla/5.0 (Windows NT 10.0; Win64; x64) AppleWebKit/537.36 (KHTML, like Gecko) Chrome/138.0.0.0 Safari/537.36","WebKit","Chrome","138.0.0.0","Windows","10.0","https://app.prolific.com/","en-US,en;q=0.9","60ad28c6d838565067ab1b6c","6877649eabb845cf142cd221","68931799b2ffc4ae12c5afcd","1","60ad28c6d838565067ab1b6c","1","2025-08-06T09:23:15.799Z","","","","ControlQ","","","","","","","","","","","50","","","","","","","","","","","","","","","","","","","","","","","","","","",""
"31735","","<div style=""width:500px;"">
  <p>How would you describe your current emotional state?</p>
  </div>","62","html-slider-response","66","1921063","0.0-7.0-3.10","134","1","2025-08-06 08:51:43","36c45c0696341be0efffe67d72a12abb","154.117.143.238","Mozilla/5.0 (Windows NT 10.0; Win64; x64) AppleWebKit/537.36 (KHTML, like Gecko) Chrome/138.0.0.0 Safari/537.36","WebKit","Chrome","138.0.0.0","Windows","10.0","https://app.prolific.com/","en-US,en;q=0.9","60ad28c6d838565067ab1b6c","6877649eabb845cf142cd221","68931799b2ffc4ae12c5afcd","1","60ad28c6d838565067ab1b6c","1","2025-08-06T09:23:47.537Z","","","","StressQ","","","","","","","","","","","50","","","","","","","","","","","","","","","","","","","","","","","","","","",""
"3532","","<div style=""width:500px;"">
  <p>What best describes how you currently feel?</p>
  </div>","37","html-slider-response","67","1924597","0.0-7.0-4.10","134","1","2025-08-06 08:51:43","36c45c0696341be0efffe67d72a12abb","154.117.143.238","Mozilla/5.0 (Windows NT 10.0; Win64; x64) AppleWebKit/537.36 (KHTML, like Gecko) Chrome/138.0.0.0 Safari/537.36","WebKit","Chrome","138.0.0.0","Windows","10.0","https://app.prolific.com/","en-US,en;q=0.9","60ad28c6d838565067ab1b6c","6877649eabb845cf142cd221","68931799b2ffc4ae12c5afcd","1","60ad28c6d838565067ab1b6c","1","2025-08-06T09:23:51.071Z","","","","MotivationQ","","","","","","","","","","","50","","","","","","","","","","","","","","","","","","","","","","","","","","",""
"","","","","ctl-task-cpt","68","1953095","0.0-7.0-0.11","134","1","2025-08-06 08:51:43","36c45c0696341be0efffe67d72a12abb","154.117.143.238","Mozilla/5.0 (Windows NT 10.0; Win64; x64) AppleWebKit/537.36 (KHTML, like Gecko) Chrome/138.0.0.0 Safari/537.36","WebKit","Chrome","138.0.0.0","Windows","10.0","https://app.prolific.com/","en-US,en;q=0.9","60ad28c6d838565067ab1b6c","6877649eabb845cf142cd221","68931799b2ffc4ae12c5afcd","1","60ad28c6d838565067ab1b6c","1","2025-08-06T09:24:19.569Z","","","","","","","","","","","","","","","","win-only","1","g1:NE,g2:SW","0.7","12","0","1928881.3","1486.9","6488.8","25486.1","1","4","4","6","2","4","4","4","0","0.030303030303030304","1107.2","3000","155","[""down"",""left""]","{""num_key_presses"":6,""num_perfect"":5,""num_errors"":0,""num_randdir"":1,""num_randdir_good_moves"":1,""num_whilered"":0,""num_whileblue"":0,""num_blue"":0,""num_good_moves"":6}","[238.48213713509696,236.1071423803057,0.2,238.48213713509696,236.1071423803057,102.5,238.48213713509696,236.1071423803057,215.7,238.48213713509696,236.1071423803057,326.8,238.48213713509696,236.1071423803057,431,78.48213713509696,419.2321423803057,538.9,55.357137135096956,417.3571423803057,641.2,55.357137135096956,417.3571423803057,745.1,55.357137135096956,417.3571423803057,846.4,42.232137135096956,419.2321423803057,947.5,38.482137135096956,421.1071423803057,1056,38.482137135096956,421.1071423803057,1158.5,38.482137135096956,421.1071423803057,1258.8,38.482137135096956,421.1071423803057,1365.1,38.482137135096956,421.1071423803057,1470,38.482137135096956,421.1071423803057,1572.1,38.482137135096956,421.1071423803057,1673.7,38.482137135096956,421.1071423803057,1780.6,38.482137135096956,421.1071423803057,1889.6,38.482137135096956,421.1071423803057,1995,38.482137135096956,421.1071423803057,2104.6,38.482137135096956,421.1071423803057,2208.8,38.482137135096956,421.1071423803057,2310.3,38.482137135096956,421.1071423803057,2424.6,38.482137135096956,421.1071423803057,2529.8,38.482137135096956,421.1071423803057,2634.9,38.482137135096956,421.1071423803057,2736.8,38.482137135096956,421.1071423803057,2838.5,38.482137135096956,421.1071423803057,2944.5,38.482137135096956,421.1071423803057,3045.2,38.482137135096956,421.1071423803057,3146,38.482137135096956,421.1071423803057,3246.1,38.482137135096956,421.1071423803057,3352.2,38.482137135096956,421.1071423803057,3459.4,38.482137135096956,421.1071423803057,3562,38.482137135096956,421.1071423803057,3675.3,38.482137135096956,421.1071423803057,3777.1,38.482137135096956,421.1071423803057,3884.7,38.482137135096956,421.1071423803057,3985.5,38.482137135096956,421.1071423803057,4092.6,38.482137135096956,421.1071423803057,4194.2,38.482137135096956,421.1071423803057,4298.3,38.482137135096956,421.1071423803057,4399.7,38.482137135096956,421.1071423803057,4506.9,38.482137135096956,421.1071423803057,4610,38.482137135096956,421.1071423803057,4720.8,38.482137135096956,421.1071423803057,4830,38.482137135096956,421.1071423803057,4935.6]","[3847.4,3847.4,1000,0,2847.4,""smooth"",""down"",""down"",""good_move"",7005.1,3157.3,2796.6,3847.8,360.7,""smooth"",""left"",""left"",""good_move"",10091.9,3085.6,2747.8,7006.3,337.8,""smooth"",""down"",""down"",""good_move"",13141.5,3049.2,2752.3,10092.3,296.9,""smooth"",""left"",""left"",""good_move"",15312.2,2169.9,1789.2,13142.3,380.7,""oops"",""down"",""left"",""good_move"",18851.8,3539,3203,15312.8,336,""smooth"",""down"",""down"",""good_move""]"
"5684","","<div style=""width:500px;"">
  <p>What determined the result of this run?</p>
  </div>","9","html-slider-response","69","1958781","0.0-7.0-1.11","134","1","2025-08-06 08:51:43","36c45c0696341be0efffe67d72a12abb","154.117.143.238","Mozilla/5.0 (Windows NT 10.0; Win64; x64) AppleWebKit/537.36 (KHTML, like Gecko) Chrome/138.0.0.0 Safari/537.36","WebKit","Chrome","138.0.0.0","Windows","10.0","https://app.prolific.com/","en-US,en;q=0.9","60ad28c6d838565067ab1b6c","6877649eabb845cf142cd221","68931799b2ffc4ae12c5afcd","1","60ad28c6d838565067ab1b6c","1","2025-08-06T09:24:25.255Z","","","","AttribQ","","","","","","","","","","","50","","","","","","","","","","","","","","","","","","","","","","","","","","",""
"16859","","<div style=""width:500px;"">
  <p>How much control did you have over the ball?</p>
  </div>","75","html-slider-response","70","1975642","0.0-7.0-2.11","134","1","2025-08-06 08:51:43","36c45c0696341be0efffe67d72a12abb","154.117.143.238","Mozilla/5.0 (Windows NT 10.0; Win64; x64) AppleWebKit/537.36 (KHTML, like Gecko) Chrome/138.0.0.0 Safari/537.36","WebKit","Chrome","138.0.0.0","Windows","10.0","https://app.prolific.com/","en-US,en;q=0.9","60ad28c6d838565067ab1b6c","6877649eabb845cf142cd221","68931799b2ffc4ae12c5afcd","1","60ad28c6d838565067ab1b6c","1","2025-08-06T09:24:42.116Z","","","","ControlQ","","","","","","","","","","","50","","","","","","","","","","","","","","","","","","","","","","","","","","",""
"83120","","<div style=""width:500px;"">
  <p>How would you describe your current emotional state?</p>
  </div>","77","html-slider-response","71","2058763","0.0-7.0-3.11","134","1","2025-08-06 08:51:43","36c45c0696341be0efffe67d72a12abb","154.117.143.238","Mozilla/5.0 (Windows NT 10.0; Win64; x64) AppleWebKit/537.36 (KHTML, like Gecko) Chrome/138.0.0.0 Safari/537.36","WebKit","Chrome","138.0.0.0","Windows","10.0","https://app.prolific.com/","en-US,en;q=0.9","60ad28c6d838565067ab1b6c","6877649eabb845cf142cd221","68931799b2ffc4ae12c5afcd","1","60ad28c6d838565067ab1b6c","1","2025-08-06T09:26:05.238Z","","","","StressQ","","","","","","","","","","","50","","","","","","","","","","","","","","","","","","","","","","","","","","",""
"5187","","<div style=""width:500px;"">
  <p>What best describes how you currently feel?</p>
  </div>","38","html-slider-response","72","2063953","0.0-7.0-4.11","134","1","2025-08-06 08:51:43","36c45c0696341be0efffe67d72a12abb","154.117.143.238","Mozilla/5.0 (Windows NT 10.0; Win64; x64) AppleWebKit/537.36 (KHTML, like Gecko) Chrome/138.0.0.0 Safari/537.36","WebKit","Chrome","138.0.0.0","Windows","10.0","https://app.prolific.com/","en-US,en;q=0.9","60ad28c6d838565067ab1b6c","6877649eabb845cf142cd221","68931799b2ffc4ae12c5afcd","1","60ad28c6d838565067ab1b6c","1","2025-08-06T09:26:10.427Z","","","","MotivationQ","","","","","","","","","","","50","","","","","","","","","","","","","","","","","","","","","","","","","","",""
"","","","","ctl-task-cpt","73","2109959","0.0-7.0-0.12","134","1","2025-08-06 08:51:43","36c45c0696341be0efffe67d72a12abb","154.117.143.238","Mozilla/5.0 (Windows NT 10.0; Win64; x64) AppleWebKit/537.36 (KHTML, like Gecko) Chrome/138.0.0.0 Safari/537.36","WebKit","Chrome","138.0.0.0","Windows","10.0","https://app.prolific.com/","en-US,en;q=0.9","60ad28c6d838565067ab1b6c","6877649eabb845cf142cd221","68931799b2ffc4ae12c5afcd","1","60ad28c6d838565067ab1b6c","1","2025-08-06T09:26:56.433Z","","","","","","","","","","","","","","","","win-only","2","g1:SE,g2:NW","0.8","13","0","2068237.6","2632.2","7633.4","42985.5","1","4","4","6","2","4","4","8","4","0.06060606060606061","1569.4","3000","1205","[""left"",""up""]","{""num_key_presses"":8,""num_perfect"":6,""num_errors"":0,""num_randdir"":2,""num_randdir_good_moves"":1,""num_whilered"":0,""num_whileblue"":0,""num_blue"":4,""num_good_moves"":7}","[237.23213713509696,237.3571423803057,0.2,237.23213713509696,237.3571423803057,103,237.23213713509696,237.3571423803057,207.4,237.23213713509696,237.3571423803057,315.7,237.23213713509696,237.3571423803057,417.7,237.23213713509696,237.3571423803057,534.6,242.23213713509696,229.8571423803057,637.4,258.48213713509693,217.9821423803057,739.7,260.35713713509693,219.2321423803057,841.3,267.23213713509693,219.8571423803057,945.8,192.23213713509696,227.3571423803057,1049.6,49.107137135096956,86.1071423803057,1150.9,46.607137135096956,84.2321423803057,1261.9,27.232137135096956,64.2321423803057,1369.2,26.607137135096956,62.982142380305696,1473.9,26.607137135096956,62.357142380305696,1574.3,26.607137135096956,62.357142380305696,1677.4,26.607137135096956,62.357142380305696,1790.3,26.607137135096956,62.357142380305696,1896.6,26.607137135096956,62.357142380305696,2001,26.607137135096956,62.357142380305696,2101.4,26.607137135096956,62.357142380305696,2201.7,26.607137135096956,62.357142380305696,2306.7,26.607137135096956,62.357142380305696,2410.4,26.607137135096956,62.357142380305696,2512.8,26.607137135096956,62.357142380305696,2622.7,26.607137135096956,62.357142380305696,2733.7,26.607137135096956,62.357142380305696,2836.6,26.607137135096956,62.357142380305696,2940,26.607137135096956,62.357142380305696,3041.8,26.607137135096956,62.357142380305696,3142.3,26.607137135096956,62.357142380305696,3245.8,26.607137135096956,62.357142380305696,3354.9,26.607137135096956,62.357142380305696,3457.4,26.607137135096956,62.357142380305696,3560.5,26.607137135096956,62.357142380305696,3670.1,26.607137135096956,62.357142380305696,3785.2,26.607137135096956,62.357142380305696,3886.2,26.607137135096956,62.357142380305696,3994.9,26.607137135096956,62.357142380305696,4101.8,26.607137135096956,62.357142380305696,4202.1,26.607137135096956,62.357142380305696,4303.1,26.607137135096956,62.357142380305696,4405.2,26.607137135096956,62.357142380305696,4512.1,26.607137135096956,62.357142380305696,4623.5,26.607137135096956,62.357142380305696,4723.7,26.607137135096956,62.357142380305696,4824.2,26.607137135096956,62.357142380305696,4930.9]","[1449.3,1449.3,1000,0,449.3,""smooth"",""left"",""left"",""good_move"",11121.8,9671.6,2537.7,8268.1,316,""smooth"",""up"",""up"",""good_move"",14490.3,3368.1,3014.1,11122.2,354,""oops"",""left"",""down"",""bad_move"",16719,2228.2,1896.8,14490.8,331.4,""oops"",""up"",""up"",""good_move"",23390,6670.7,2558.3,20418.6,413.1,""smooth"",""up"",""up"",""good_move"",26487.4,3097,2727.8,23390.4,369.2,""smooth"",""up"",""up"",""good_move"",32284.7,5797,1463.4,30428.3,393,""smooth"",""left"",""left"",""good_move"",35162.6,2877.5,2504.9,32285.1,372.6,""smooth"",""left"",""left"",""good_move""]"
"6995","","<div style=""width:500px;"">
  <p>What determined the result of this run?</p>
  </div>","41","html-slider-response","74","2116956","0.0-7.0-1.12","134","1","2025-08-06 08:51:43","36c45c0696341be0efffe67d72a12abb","154.117.143.238","Mozilla/5.0 (Windows NT 10.0; Win64; x64) AppleWebKit/537.36 (KHTML, like Gecko) Chrome/138.0.0.0 Safari/537.36","WebKit","Chrome","138.0.0.0","Windows","10.0","https://app.prolific.com/","en-US,en;q=0.9","60ad28c6d838565067ab1b6c","6877649eabb845cf142cd221","68931799b2ffc4ae12c5afcd","1","60ad28c6d838565067ab1b6c","1","2025-08-06T09:27:03.430Z","","","","AttribQ","","","","","","","","","","","50","","","","","","","","","","","","","","","","","","","","","","","","","","",""
"16528","","<div style=""width:500px;"">
  <p>How much control did you have over the ball?</p>
  </div>","66","html-slider-response","75","2133485","0.0-7.0-2.12","134","1","2025-08-06 08:51:43","36c45c0696341be0efffe67d72a12abb","154.117.143.238","Mozilla/5.0 (Windows NT 10.0; Win64; x64) AppleWebKit/537.36 (KHTML, like Gecko) Chrome/138.0.0.0 Safari/537.36","WebKit","Chrome","138.0.0.0","Windows","10.0","https://app.prolific.com/","en-US,en;q=0.9","60ad28c6d838565067ab1b6c","6877649eabb845cf142cd221","68931799b2ffc4ae12c5afcd","1","60ad28c6d838565067ab1b6c","1","2025-08-06T09:27:19.959Z","","","","ControlQ","","","","","","","","","","","50","","","","","","","","","","","","","","","","","","","","","","","","","","",""
"36494","","<div style=""width:500px;"">
  <p>How would you describe your current emotional state?</p>
  </div>","61","html-slider-response","76","2169981","0.0-7.0-3.12","134","1","2025-08-06 08:51:43","36c45c0696341be0efffe67d72a12abb","154.117.143.238","Mozilla/5.0 (Windows NT 10.0; Win64; x64) AppleWebKit/537.36 (KHTML, like Gecko) Chrome/138.0.0.0 Safari/537.36","WebKit","Chrome","138.0.0.0","Windows","10.0","https://app.prolific.com/","en-US,en;q=0.9","60ad28c6d838565067ab1b6c","6877649eabb845cf142cd221","68931799b2ffc4ae12c5afcd","1","60ad28c6d838565067ab1b6c","1","2025-08-06T09:27:56.456Z","","","","StressQ","","","","","","","","","","","50","","","","","","","","","","","","","","","","","","","","","","","","","","",""
"44745","","<div style=""width:500px;"">
  <p>What best describes how you currently feel?</p>
  </div>","38","html-slider-response","77","2214728","0.0-7.0-4.12","134","1","2025-08-06 08:51:43","36c45c0696341be0efffe67d72a12abb","154.117.143.238","Mozilla/5.0 (Windows NT 10.0; Win64; x64) AppleWebKit/537.36 (KHTML, like Gecko) Chrome/138.0.0.0 Safari/537.36","WebKit","Chrome","138.0.0.0","Windows","10.0","https://app.prolific.com/","en-US,en;q=0.9","60ad28c6d838565067ab1b6c","6877649eabb845cf142cd221","68931799b2ffc4ae12c5afcd","1","60ad28c6d838565067ab1b6c","1","2025-08-06T09:28:41.202Z","","","","MotivationQ","","","","","","","","","","","50","","","","","","","","","","","","","","","","","","","","","","","","","","",""
