"rt","response_timestamp","stimulus","response","trial_type","trial_index","time_elapsed","internal_node_id","run_id","condition","recorded_at","source_code_version","ip","user_agent","device","browser","browser_version","platform","platform_version","referer","accept_language","PROLIFIC_PID","STUDY_ID","SESSION_ID","BATCH","prolific_id","batch","realtime","success","question_order","question_id","eventType","responses","item_order","radio_event_ids","radio_event_times","key_event_times","mouse_event_times","straightlining","zigzagging","honeypot","view_history","slider_start","which_type","canvas_config","goals_layout","control_level","trial_number","tutorial_trial_number","trial_start_time","phase1_start_time","phase2_start_time","phase3_start_time","goal_1_value","goal_1_distance","goal_2_value","goal_2_distance","goal_selected","outcome","outcome_total","participant_final_score","participant_initial_score","participant_final_score_prop","goal_choice_rt","allocated_time","allocated_time_remaining","goal_direction","counts","mouse_movements","key_presses"
"2177","1754470214316","<p style='font-size:40px;line-height:1.25'><strong>Welcome to the experiment!</strong></p><p style='font-size:1.1em;line-height:1.25'>Thank you for participanting in our experiment again! You will be asked to play the Dysfunctional Ball Game again. We will briefly recap the rules before we start.</p><p style='font-size:1.1em;line-height:1.25'>Press <strong>Next</strong> to continue.</p>","0","custom-html-button-response","0","2180","0.0-0.0","124","1","2025-08-06 08:50:07","36c45c0696341be0efffe67d72a12abb","192.143.74.139","Mozilla/5.0 (Windows NT 10.0; Win64; x64) AppleWebKit/537.36 (KHTML, like Gecko) Chrome/138.0.0.0 Safari/537.36 Edg/138.0.0.0","WebKit","Edge","138.0.0.0","Windows","10.0","https://app.prolific.com/","en-US,en;q=0.9","60c8a4ece55be5a30e0ccc5c","6877649eabb845cf142cd221","6893170e3ca9750202086b90","1","60c8a4ece55be5a30e0ccc5c","1","2025-08-06T08:50:14.317Z","","","","","","","","","","","","","","","","","","","","","","","","","","","","","","","","","","","","","","","","","",""
"2357","","","","fullscreen","1","5545","0.0-1.0","124","1","2025-08-06 08:50:07","36c45c0696341be0efffe67d72a12abb","192.143.74.139","Mozilla/5.0 (Windows NT 10.0; Win64; x64) AppleWebKit/537.36 (KHTML, like Gecko) Chrome/138.0.0.0 Safari/537.36 Edg/138.0.0.0","WebKit","Edge","138.0.0.0","Windows","10.0","https://app.prolific.com/","en-US,en;q=0.9","60c8a4ece55be5a30e0ccc5c","6877649eabb845cf142cd221","6893170e3ca9750202086b90","1","60c8a4ece55be5a30e0ccc5c","1","","true","","","","","","","","","","","","","","","","","","","","","","","","","","","","","","","","","","","","","","","","",""
"1435","1754470219118"," <p style='font-size:1.1em;line-height:1.25'>Thank you for closing all other tabs.</p><p style='font-size:1.1em;line-height:1.25'>We will now invite you to fill in some questionnaires, before starting the game.<br>This will take about 5 minutes.<br></p><p style='font-size:1.1em;line-height:1.25'>Press the <strong>Next</strong> button to continue.</p>","0","custom-html-button-response","2","6982","0.0-2.0","124","1","2025-08-06 08:50:07","36c45c0696341be0efffe67d72a12abb","192.143.74.139","Mozilla/5.0 (Windows NT 10.0; Win64; x64) AppleWebKit/537.36 (KHTML, like Gecko) Chrome/138.0.0.0 Safari/537.36 Edg/138.0.0.0","WebKit","Edge","138.0.0.0","Windows","10.0","https://app.prolific.com/","en-US,en;q=0.9","60c8a4ece55be5a30e0ccc5c","6877649eabb845cf142cd221","6893170e3ca9750202086b90","1","60c8a4ece55be5a30e0ccc5c","1","2025-08-06T08:50:19.119Z","","","","","","","","","","","","","","","","","","","","","","","","","","","","","","","","","","","","","","","","","",""
"5425","","","{""assigned_sex"":""female""}","survey-multi-choice","3","12409","0.0-3.0-0.0","124","1","2025-08-06 08:50:07","36c45c0696341be0efffe67d72a12abb","192.143.74.139","Mozilla/5.0 (Windows NT 10.0; Win64; x64) AppleWebKit/537.36 (KHTML, like Gecko) Chrome/138.0.0.0 Safari/537.36 Edg/138.0.0.0","WebKit","Edge","138.0.0.0","Windows","10.0","https://app.prolific.com/","en-US,en;q=0.9","60c8a4ece55be5a30e0ccc5c","6877649eabb845cf142cd221","6893170e3ca9750202086b90","1","60c8a4ece55be5a30e0ccc5c","1","","","[0]","0","demographics","","","","","","","","","","","","","","","","","","","","","","","","","","","","","","","","","","","","","",""
"5517","1754470230064","<p style='font-size:1.1em;line-height:1.25'>In the following, we will perform a baseline assessment. This means that we will ask you a few questions relating to your experiences over the past month.<br></p><p style='font-size:1.1em;line-height:1.25'>Press the <strong>Next</strong> button to continue.</p>","0","custom-html-button-response","4","17928","0.0-4.0-0.0","124","1","2025-08-06 08:50:07","36c45c0696341be0efffe67d72a12abb","192.143.74.139","Mozilla/5.0 (Windows NT 10.0; Win64; x64) AppleWebKit/537.36 (KHTML, like Gecko) Chrome/138.0.0.0 Safari/537.36 Edg/138.0.0.0","WebKit","Edge","138.0.0.0","Windows","10.0","https://app.prolific.com/","en-US,en;q=0.9","60c8a4ece55be5a30e0ccc5c","6877649eabb845cf142cd221","6893170e3ca9750202086b90","1","60c8a4ece55be5a30e0ccc5c","1","2025-08-06T08:50:30.066Z","","","","","","","","","","","","","","","","","","","","","","","","","","","","","","","","","","","","","","","","","",""
"114073.19999998808","","","","survey-template","5","132011","0.0-4.0-1.0","124","1","2025-08-06 08:50:07","36c45c0696341be0efffe67d72a12abb","192.143.74.139","Mozilla/5.0 (Windows NT 10.0; Win64; x64) AppleWebKit/537.36 (KHTML, like Gecko) Chrome/138.0.0.0 Safari/537.36 Edg/138.0.0.0","WebKit","Edge","138.0.0.0","Windows","10.0","https://app.prolific.com/","en-US,en;q=0.9","60c8a4ece55be5a30e0ccc5c","6877649eabb845cf142cd221","6893170e3ca9750202086b90","1","60c8a4ece55be5a30e0ccc5c","1","2025-08-06T08:52:24.148Z","","","","pss","{""Q01"":""2"",""Q02"":""1"",""Q03"":""2"",""Q04"":""2"",""Q05"":""2"",""Q06"":""3"",""Q07"":""1"",""Q08"":""2"",""Q09"":""1"",""Q10"":""1""}","[0,1,2,3,4,5,6,7,8,9]","[""Q01"",""Q02"",""Q03"",""Q04"",""Q05"",""Q06"",""Q07"",""Q08"",""Q09"",""Q10""]","[14312.09999999404,51193.5,63557.5,68416.69999998808,74190.90000000596,80997.19999998808,92307.09999999404,97997,106168.09999999404,112560.19999998808]","[]","[0.29999998211860657,14312.09999999404,50042,51193.5,63557.5,68416.69999998808,73152.90000000596,74190.90000000596,80997.19999998808,92307.09999999404,97997,106168.09999999404,112560.19999998808,114067.5]","0.5","0.5555555555555556","0","","","","","","","","","","","","","","","","","","","","","","","","","","","","",""
"2804","1754470346958","<p style='font-size:1.1em;line-height:1.25'>Thank you for your answers! Now we will ask you a few more questions relating to your feelings in the last 24 hours.<br></p><p style='font-size:1.1em;line-height:1.25'>Press the <strong>Next</strong> button to continue.</p>","0","custom-html-button-response","6","134822","0.0-4.0-2.0","124","1","2025-08-06 08:50:07","36c45c0696341be0efffe67d72a12abb","192.143.74.139","Mozilla/5.0 (Windows NT 10.0; Win64; x64) AppleWebKit/537.36 (KHTML, like Gecko) Chrome/138.0.0.0 Safari/537.36 Edg/138.0.0.0","WebKit","Edge","138.0.0.0","Windows","10.0","https://app.prolific.com/","en-US,en;q=0.9","60c8a4ece55be5a30e0ccc5c","6877649eabb845cf142cd221","6893170e3ca9750202086b90","1","60c8a4ece55be5a30e0ccc5c","1","2025-08-06T08:52:26.960Z","","","","","","","","","","","","","","","","","","","","","","","","","","","","","","","","","","","","","","","","","",""
"87113.29999998212","","","","survey-template","7","221949","0.0-4.0-3.0","124","1","2025-08-06 08:50:07","36c45c0696341be0efffe67d72a12abb","192.143.74.139","Mozilla/5.0 (Windows NT 10.0; Win64; x64) AppleWebKit/537.36 (KHTML, like Gecko) Chrome/138.0.0.0 Safari/537.36 Edg/138.0.0.0","WebKit","Edge","138.0.0.0","Windows","10.0","https://app.prolific.com/","en-US,en;q=0.9","60c8a4ece55be5a30e0ccc5c","6877649eabb845cf142cd221","6893170e3ca9750202086b90","1","60c8a4ece55be5a30e0ccc5c","1","2025-08-06T08:53:54.086Z","","","","drsp","{""Q01"":""0"",""Q02"":""0"",""Q03"":""0"",""Q04"":""1"",""Q05"":""1"",""Q06"":""0"",""Q07"":""0"",""Q08"":""0"",""Q09"":""1"",""Q10"":""0"",""Q11"":""1"",""Q12"":""1"",""Q13"":""5"",""Q14"":""2"",""Q15"":""0"",""Q16"":""0"",""Q17"":""1"",""Q18"":""0"",""Q19"":""2"",""Q20"":""1"",""Q21"":""0"",""Q22"":""0""}","[0,1,2,3,4,5,6,7,8,9,10,11,12,13,14,15,16,17,18,19,20,21]","[""Q01"",""Q02"",""Q03"",""Q04"",""Q05"",""Q06"",""Q07"",""Q08"",""Q09"",""Q10"",""Q11"",""Q12"",""Q13"",""Q14"",""Q15"",""Q16"",""Q17"",""Q18"",""Q19"",""Q20"",""Q21"",""Q22""]","[7064.199999988079,10092.40000000596,11402.799999982119,13201.699999988079,14681.40000000596,19700.19999998808,20893.5,24834.69999998808,26329.09999999404,29919.90000000596,32007.79999998212,34844.79999998212,40192.79999998212,48900.79999998212,51146.29999998212,52280.5,53882.19999998808,56660.59999999404,72108.09999999404,75576.09999999404,81370.69999998808,82569.19999998808]","[]","[0.19999998807907104,7064.199999988079,8639.59999999404,10092.40000000596,11402.799999982119,13201.699999988079,14681.40000000596,16795.90000000596,18696.09999999404,19700.19999998808,20893.5,24834.69999998808,26329.09999999404,29919.90000000596,32007.79999998212,34844.79999998212,40192.79999998212,48900.79999998212,51146.29999998212,52280.5,53882.19999998808,55112.09999999404,56660.59999999404,72108.09999999404,75576.09999999404,79980.69999998808,81370.69999998808,82569.19999998808,87107.90000000596]","0.5454545454545454","0.42857142857142855","0","","","","","","","","","","","","","","","","","","","","","","","","","","","","",""
"13379.299999982119","","","","survey-template","8","235331","0.0-4.0-4.0","124","1","2025-08-06 08:50:07","36c45c0696341be0efffe67d72a12abb","192.143.74.139","Mozilla/5.0 (Windows NT 10.0; Win64; x64) AppleWebKit/537.36 (KHTML, like Gecko) Chrome/138.0.0.0 Safari/537.36 Edg/138.0.0.0","WebKit","Edge","138.0.0.0","Windows","10.0","https://app.prolific.com/","en-US,en;q=0.9","60c8a4ece55be5a30e0ccc5c","6877649eabb845cf142cd221","6893170e3ca9750202086b90","1","60c8a4ece55be5a30e0ccc5c","1","2025-08-06T08:54:07.468Z","","","","stress","{""Q01"":""1"",""Q02"":""3"",""Q03"":""1""}","[0,1,2]","[""Q01"",""Q02"",""Q03""]","[3025.0999999940395,5818.5999999940395,11709.59999999404]","[]","[3025.0999999940395,5818.5999999940395,10312.5,11709.59999999404,13377.299999982119]","0.6666666666666666","1","0","","","","","","","","","","","","","","","","","","","","","","","","","","","","",""
"3195","","","","instructions","9","238528","0.0-5.0-0.0","124","1","2025-08-06 08:50:07","36c45c0696341be0efffe67d72a12abb","192.143.74.139","Mozilla/5.0 (Windows NT 10.0; Win64; x64) AppleWebKit/537.36 (KHTML, like Gecko) Chrome/138.0.0.0 Safari/537.36 Edg/138.0.0.0","WebKit","Edge","138.0.0.0","Windows","10.0","https://app.prolific.com/","en-US,en;q=0.9","60c8a4ece55be5a30e0ccc5c","6877649eabb845cf142cd221","6893170e3ca9750202086b90","1","60c8a4ece55be5a30e0ccc5c","1","","","","","","","","","","","","","","","[{""page_index"":0,""viewing_time"":3194}]","","","","","","","","","","","","","","","","","","","","","","","","","","","",""
"3715","","<p>Before you start with this game please answer the following three questions yourself. </p>
  <p>Through this game, we measure several aspects of your cognitive performance, such as reaction times, multi-tasking capabilities </p>
  <p>and the ability to assess the situation you are in.</p>
  <p></p>
  <p><b>How good do you usually are in such tasks?</b></p>","86","html-slider-response","10","242282","0.0-6.0-0.0","124","1","2025-08-06 08:50:07","36c45c0696341be0efffe67d72a12abb","192.143.74.139","Mozilla/5.0 (Windows NT 10.0; Win64; x64) AppleWebKit/537.36 (KHTML, like Gecko) Chrome/138.0.0.0 Safari/537.36 Edg/138.0.0.0","WebKit","Edge","138.0.0.0","Windows","10.0","https://app.prolific.com/","en-US,en;q=0.9","60c8a4ece55be5a30e0ccc5c","6877649eabb845cf142cd221","6893170e3ca9750202086b90","1","60c8a4ece55be5a30e0ccc5c","1","2025-08-06T08:54:14.419Z","","","","PreSkillQ","","","","","","","","","","","50","","","","","","","","","","","","","","","","","","","","","","","","","","",""
"5098","","<div style=""width:500px;"">
  <p>How well do you think you will perform in this task compared to other participants?</p>
  </div>","83","html-slider-response","11","247383","0.0-6.0-1.0","124","1","2025-08-06 08:50:07","36c45c0696341be0efffe67d72a12abb","192.143.74.139","Mozilla/5.0 (Windows NT 10.0; Win64; x64) AppleWebKit/537.36 (KHTML, like Gecko) Chrome/138.0.0.0 Safari/537.36 Edg/138.0.0.0","WebKit","Edge","138.0.0.0","Windows","10.0","https://app.prolific.com/","en-US,en;q=0.9","60c8a4ece55be5a30e0ccc5c","6877649eabb845cf142cd221","6893170e3ca9750202086b90","1","60c8a4ece55be5a30e0ccc5c","1","2025-08-06T08:54:19.520Z","","","","PrePerfQ","","","","","","","","","","","50","","","","","","","","","","","","","","","","","","","","","","","","","","",""
"3704","","<div style=""width:500px;"">
  <p>What best describes how you currently feel?</p>
  </div>","93","html-slider-response","12","251090","0.0-6.0-2.0","124","1","2025-08-06 08:50:07","36c45c0696341be0efffe67d72a12abb","192.143.74.139","Mozilla/5.0 (Windows NT 10.0; Win64; x64) AppleWebKit/537.36 (KHTML, like Gecko) Chrome/138.0.0.0 Safari/537.36 Edg/138.0.0.0","WebKit","Edge","138.0.0.0","Windows","10.0","https://app.prolific.com/","en-US,en;q=0.9","60c8a4ece55be5a30e0ccc5c","6877649eabb845cf142cd221","6893170e3ca9750202086b90","1","60c8a4ece55be5a30e0ccc5c","1","2025-08-06T08:54:23.227Z","","","","PreMotivationQ","","","","","","","","","","","50","","","","","","","","","","","","","","","","","","","","","","","","","","",""
"","","","","ctl-task-cpt","13","275344","0.0-7.0-0.0","124","1","2025-08-06 08:50:07","36c45c0696341be0efffe67d72a12abb","192.143.74.139","Mozilla/5.0 (Windows NT 10.0; Win64; x64) AppleWebKit/537.36 (KHTML, like Gecko) Chrome/138.0.0.0 Safari/537.36 Edg/138.0.0.0","WebKit","Edge","138.0.0.0","Windows","10.0","https://app.prolific.com/","en-US,en;q=0.9","60c8a4ece55be5a30e0ccc5c","6877649eabb845cf142cd221","6893170e3ca9750202086b90","1","60c8a4ece55be5a30e0ccc5c","1","2025-08-06T08:54:47.481Z","","","","","","","","","","","","","","","","win-only","0","g1:NW,g2:SE","1","1","0","255822","1514.5","6516.9","21240.3","1","4","8","6","1","1","1","1","0","0.007575757575757576","1739.9","3000","1350","[""left"",""up""]","{""num_key_presses"":4,""num_perfect"":4,""num_errors"":0,""num_randdir"":0,""num_randdir_good_moves"":0,""num_whilered"":0,""num_whileblue"":0,""num_blue"":1,""num_good_moves"":4}","[296.22232142857143,295.12857142857143,0.2,296.22232142857143,295.12857142857143,103.2,296.22232142857143,295.12857142857143,207.5,296.22232142857143,295.12857142857143,311.6,296.22232142857143,295.12857142857143,412,296.22232142857143,295.12857142857143,516.1,296.22232142857143,295.12857142857143,621.7,296.22232142857143,295.12857142857143,726.2,290.22232142857143,287.12857142857143,827.4,174.22232142857143,102.12857142857143,931.7,153.22232142857143,67.12857142857143,1037.7,143.22232142857143,65.12857142857143,1141.6,73.22232142857143,52.128571428571426,1243,61.222321428571426,37.128571428571426,1343.5,60.222321428571426,36.128571428571426,1446.2,60.222321428571426,36.128571428571426,1552.9,60.222321428571426,36.128571428571426,1653,60.222321428571426,36.128571428571426,1754.5,60.222321428571426,36.128571428571426,1856.6,60.222321428571426,36.128571428571426,1957.8,60.222321428571426,36.128571428571426,2061.3,60.222321428571426,36.128571428571426,2161.8,60.222321428571426,36.128571428571426,2261.9,60.222321428571426,36.128571428571426,2367.6,60.222321428571426,36.128571428571426,2471.3,96.22232142857143,79.12857142857143,2571.9,251.22232142857143,273.12857142857143,2677.3,251.22232142857143,273.12857142857143,2777.3,251.22232142857143,273.12857142857143,2881.7,251.22232142857143,273.12857142857143,2986.4,251.22232142857143,273.12857142857143,3091.9,251.22232142857143,273.12857142857143,3192.1,251.22232142857143,273.12857142857143,3297,251.22232142857143,273.12857142857143,3402.3,251.22232142857143,273.12857142857143,3506.7,251.22232142857143,273.12857142857143,3607.5,251.22232142857143,273.12857142857143,3711.7,251.22232142857143,273.12857142857143,3811.9,251.22232142857143,273.12857142857143,3911.9,251.22232142857143,273.12857142857143,4015.8,251.22232142857143,273.12857142857143,4115.9,251.22232142857143,273.12857142857143,4218,251.22232142857143,273.12857142857143,4321.7,251.22232142857143,273.12857142857143,4427.9,251.22232142857143,273.12857142857143,4532,251.22232142857143,273.12857142857143,4636.6,251.22232142857143,273.12857142857143,4736.6,251.22232142857143,273.12857142857143,4841.7,251.22232142857143,273.12857142857143,4947.1]","[1551.5,1551.5,1000,0,551.5,""smooth"",""left"",""left"",""good_move"",4588.2,3036.2,2537.9,1552,498.3,""smooth"",""left"",""left"",""good_move"",8067.3,3478.8,3034.9,4588.5,443.9,""smooth"",""up"",""up"",""good_move"",14614.9,6547.2,2709.5,11369.5,536,""smooth"",""up"",""up"",""good_move""]"
"3702","","<div style=""width:500px;"">
  <p>What determined the result of this run?</p>
  </div>","96","html-slider-response","14","279047","0.0-7.0-1.0","124","1","2025-08-06 08:50:07","36c45c0696341be0efffe67d72a12abb","192.143.74.139","Mozilla/5.0 (Windows NT 10.0; Win64; x64) AppleWebKit/537.36 (KHTML, like Gecko) Chrome/138.0.0.0 Safari/537.36 Edg/138.0.0.0","WebKit","Edge","138.0.0.0","Windows","10.0","https://app.prolific.com/","en-US,en;q=0.9","60c8a4ece55be5a30e0ccc5c","6877649eabb845cf142cd221","6893170e3ca9750202086b90","1","60c8a4ece55be5a30e0ccc5c","1","2025-08-06T08:54:51.184Z","","","","AttribQ","","","","","","","","","","","50","","","","","","","","","","","","","","","","","","","","","","","","","","",""
"3014","","<div style=""width:500px;"">
  <p>How much control did you have over the ball?</p>
  </div>","100","html-slider-response","15","282063","0.0-7.0-2.0","124","1","2025-08-06 08:50:07","36c45c0696341be0efffe67d72a12abb","192.143.74.139","Mozilla/5.0 (Windows NT 10.0; Win64; x64) AppleWebKit/537.36 (KHTML, like Gecko) Chrome/138.0.0.0 Safari/537.36 Edg/138.0.0.0","WebKit","Edge","138.0.0.0","Windows","10.0","https://app.prolific.com/","en-US,en;q=0.9","60c8a4ece55be5a30e0ccc5c","6877649eabb845cf142cd221","6893170e3ca9750202086b90","1","60c8a4ece55be5a30e0ccc5c","1","2025-08-06T08:54:54.200Z","","","","ControlQ","","","","","","","","","","","50","","","","","","","","","","","","","","","","","","","","","","","","","","",""
"3092","","<div style=""width:500px;"">
  <p>How would you describe your current emotional state?</p>
  </div>","0","html-slider-response","16","285156","0.0-7.0-3.0","124","1","2025-08-06 08:50:07","36c45c0696341be0efffe67d72a12abb","192.143.74.139","Mozilla/5.0 (Windows NT 10.0; Win64; x64) AppleWebKit/537.36 (KHTML, like Gecko) Chrome/138.0.0.0 Safari/537.36 Edg/138.0.0.0","WebKit","Edge","138.0.0.0","Windows","10.0","https://app.prolific.com/","en-US,en;q=0.9","60c8a4ece55be5a30e0ccc5c","6877649eabb845cf142cd221","6893170e3ca9750202086b90","1","60c8a4ece55be5a30e0ccc5c","1","2025-08-06T08:54:57.293Z","","","","StressQ","","","","","","","","","","","50","","","","","","","","","","","","","","","","","","","","","","","","","","",""
"3701","","<div style=""width:500px;"">
  <p>What best describes how you currently feel?</p>
  </div>","98","html-slider-response","17","288858","0.0-7.0-4.0","124","1","2025-08-06 08:50:07","36c45c0696341be0efffe67d72a12abb","192.143.74.139","Mozilla/5.0 (Windows NT 10.0; Win64; x64) AppleWebKit/537.36 (KHTML, like Gecko) Chrome/138.0.0.0 Safari/537.36 Edg/138.0.0.0","WebKit","Edge","138.0.0.0","Windows","10.0","https://app.prolific.com/","en-US,en;q=0.9","60c8a4ece55be5a30e0ccc5c","6877649eabb845cf142cd221","6893170e3ca9750202086b90","1","60c8a4ece55be5a30e0ccc5c","1","2025-08-06T08:55:00.995Z","","","","MotivationQ","","","","","","","","","","","50","","","","","","","","","","","","","","","","","","","","","","","","","","",""
"","","","","ctl-task-cpt","18","313986","0.0-7.0-0.1","124","1","2025-08-06 08:50:07","36c45c0696341be0efffe67d72a12abb","192.143.74.139","Mozilla/5.0 (Windows NT 10.0; Win64; x64) AppleWebKit/537.36 (KHTML, like Gecko) Chrome/138.0.0.0 Safari/537.36 Edg/138.0.0.0","WebKit","Edge","138.0.0.0","Windows","10.0","https://app.prolific.com/","en-US,en;q=0.9","60c8a4ece55be5a30e0ccc5c","6877649eabb845cf142cd221","6893170e3ca9750202086b90","1","60c8a4ece55be5a30e0ccc5c","1","2025-08-06T08:55:26.123Z","","","","","","","","","","","","","","","","win-only","1","g1:NE,g2:SW","0.9","2","0","293581.7","2204.6","7208.2","22115.6","1","4","4","6","1","1","1","2","1","0.015151515151515152","1839.5","3000","1380","[""up"",""right""]","{""num_key_presses"":4,""num_perfect"":4,""num_errors"":0,""num_randdir"":0,""num_randdir_good_moves"":0,""num_whilered"":0,""num_whileblue"":0,""num_blue"":1,""num_good_moves"":4}","[297.22232142857143,298.12857142857143,0.3,297.22232142857143,298.12857142857143,100.9,297.22232142857143,298.12857142857143,201.4,297.22232142857143,298.12857142857143,305.9,297.22232142857143,298.12857142857143,406,297.22232142857143,298.12857142857143,511.8,297.22232142857143,298.12857142857143,616.1,297.22232142857143,298.12857142857143,716.3,402.22232142857143,165.12857142857143,817,500.22232142857143,62.128571428571426,922.5,522.2223214285714,20.128571428571426,1022.8,523.2223214285714,14.128571428571426,1122.9,522.2223214285714,13.128571428571426,1226.1,522.2223214285714,12.128571428571426,1331.3,520.2223214285714,12.128571428571426,1436,531.2223214285714,41.128571428571426,1541.6,534.2223214285714,47.128571428571426,1642,534.2223214285714,48.128571428571426,1742.4,534.2223214285714,48.128571428571426,1846.3,534.2223214285714,48.128571428571426,1951.3,534.2223214285714,48.128571428571426,2056.3,534.2223214285714,48.128571428571426,2162,534.2223214285714,48.128571428571426,2262,534.2223214285714,48.128571428571426,2366.1,534.2223214285714,48.128571428571426,2466.2,534.2223214285714,48.128571428571426,2567,534.2223214285714,48.128571428571426,2671.3,534.2223214285714,48.128571428571426,2771.5,534.2223214285714,48.128571428571426,2876.8,539.2223214285714,87.12857142857143,2980.6,545.2223214285714,146.12857142857143,3081,559.2223214285714,204.12857142857143,3181.5,639.2223214285714,292.12857142857143,3287.8,639.2223214285714,292.12857142857143,3391,639.2223214285714,292.12857142857143,3491.9,639.2223214285714,292.12857142857143,3596.2,639.2223214285714,292.12857142857143,3697.1,639.2223214285714,292.12857142857143,3801.4,639.2223214285714,292.12857142857143,3906.1,639.2223214285714,292.12857142857143,4006.4,639.2223214285714,292.12857142857143,4111.6,639.2223214285714,292.12857142857143,4216.2,639.2223214285714,292.12857142857143,4320.9,639.2223214285714,292.12857142857143,4421.1,639.2223214285714,292.12857142857143,4521.2,639.2223214285714,292.12857142857143,4621.2,639.2223214285714,292.12857142857143,4726.7,639.2223214285714,292.12857142857143,4831.6,639.2223214285714,292.12857142857143,4936.8]","[5756.9,5756.9,3243.2,2008.5,505.2,""smooth"",""up"",""up"",""good_move"",8399.5,2642.3,2206.8,5757.2,435.5,""smooth"",""up"",""up"",""good_move"",11599,3199.4,2663.8,8399.6,535.6,""smooth"",""right"",""right"",""good_move"",14800.3,3201.1,2829.5,11599.2,371.6,""smooth"",""right"",""right"",""good_move""]"
"4867","","<div style=""width:500px;"">
  <p>What determined the result of this run?</p>
  </div>","99","html-slider-response","19","318854","0.0-7.0-1.1","124","1","2025-08-06 08:50:07","36c45c0696341be0efffe67d72a12abb","192.143.74.139","Mozilla/5.0 (Windows NT 10.0; Win64; x64) AppleWebKit/537.36 (KHTML, like Gecko) Chrome/138.0.0.0 Safari/537.36 Edg/138.0.0.0","WebKit","Edge","138.0.0.0","Windows","10.0","https://app.prolific.com/","en-US,en;q=0.9","60c8a4ece55be5a30e0ccc5c","6877649eabb845cf142cd221","6893170e3ca9750202086b90","1","60c8a4ece55be5a30e0ccc5c","1","2025-08-06T08:55:30.991Z","","","","AttribQ","","","","","","","","","","","50","","","","","","","","","","","","","","","","","","","","","","","","","","",""
"3807","","<div style=""width:500px;"">
  <p>How much control did you have over the ball?</p>
  </div>","97","html-slider-response","20","322662","0.0-7.0-2.1","124","1","2025-08-06 08:50:07","36c45c0696341be0efffe67d72a12abb","192.143.74.139","Mozilla/5.0 (Windows NT 10.0; Win64; x64) AppleWebKit/537.36 (KHTML, like Gecko) Chrome/138.0.0.0 Safari/537.36 Edg/138.0.0.0","WebKit","Edge","138.0.0.0","Windows","10.0","https://app.prolific.com/","en-US,en;q=0.9","60c8a4ece55be5a30e0ccc5c","6877649eabb845cf142cd221","6893170e3ca9750202086b90","1","60c8a4ece55be5a30e0ccc5c","1","2025-08-06T08:55:34.800Z","","","","ControlQ","","","","","","","","","","","50","","","","","","","","","","","","","","","","","","","","","","","","","","",""
"4306","","<div style=""width:500px;"">
  <p>How would you describe your current emotional state?</p>
  </div>","7","html-slider-response","21","326970","0.0-7.0-3.1","124","1","2025-08-06 08:50:07","36c45c0696341be0efffe67d72a12abb","192.143.74.139","Mozilla/5.0 (Windows NT 10.0; Win64; x64) AppleWebKit/537.36 (KHTML, like Gecko) Chrome/138.0.0.0 Safari/537.36 Edg/138.0.0.0","WebKit","Edge","138.0.0.0","Windows","10.0","https://app.prolific.com/","en-US,en;q=0.9","60c8a4ece55be5a30e0ccc5c","6877649eabb845cf142cd221","6893170e3ca9750202086b90","1","60c8a4ece55be5a30e0ccc5c","1","2025-08-06T08:55:39.107Z","","","","StressQ","","","","","","","","","","","50","","","","","","","","","","","","","","","","","","","","","","","","","","",""
"3361","","<div style=""width:500px;"">
  <p>What best describes how you currently feel?</p>
  </div>","96","html-slider-response","22","330334","0.0-7.0-4.1","124","1","2025-08-06 08:50:07","36c45c0696341be0efffe67d72a12abb","192.143.74.139","Mozilla/5.0 (Windows NT 10.0; Win64; x64) AppleWebKit/537.36 (KHTML, like Gecko) Chrome/138.0.0.0 Safari/537.36 Edg/138.0.0.0","WebKit","Edge","138.0.0.0","Windows","10.0","https://app.prolific.com/","en-US,en;q=0.9","60c8a4ece55be5a30e0ccc5c","6877649eabb845cf142cd221","6893170e3ca9750202086b90","1","60c8a4ece55be5a30e0ccc5c","1","2025-08-06T08:55:42.471Z","","","","MotivationQ","","","","","","","","","","","50","","","","","","","","","","","","","","","","","","","","","","","","","","",""
"","","","","ctl-task-cpt","23","350317","0.0-7.0-0.2","124","1","2025-08-06 08:50:07","36c45c0696341be0efffe67d72a12abb","192.143.74.139","Mozilla/5.0 (Windows NT 10.0; Win64; x64) AppleWebKit/537.36 (KHTML, like Gecko) Chrome/138.0.0.0 Safari/537.36 Edg/138.0.0.0","WebKit","Edge","138.0.0.0","Windows","10.0","https://app.prolific.com/","en-US,en;q=0.9","60c8a4ece55be5a30e0ccc5c","6877649eabb845cf142cd221","6893170e3ca9750202086b90","1","60c8a4ece55be5a30e0ccc5c","1","2025-08-06T08:56:02.455Z","","","","","","","","","","","","","","","","win-only","1","g1:NE,g2:SW","0.8","3","0","335058.5","1362.3","6366.8","16966","1","4","8","6","1","1","1","3","2","0.022727272727272728","1252.6","3000","1240","[""up"",""right""]","{""num_key_presses"":4,""num_perfect"":4,""num_errors"":0,""num_randdir"":0,""num_randdir_good_moves"":0,""num_whilered"":0,""num_whileblue"":0,""num_blue"":0,""num_good_moves"":4}","[294.22232142857143,296.12857142857143,0.3,294.22232142857143,296.12857142857143,103.5,294.22232142857143,296.12857142857143,208.8,294.22232142857143,296.12857142857143,308.8,294.22232142857143,296.12857142857143,413.1,457.22232142857143,39.128571428571426,513.4,468.22232142857143,23.128571428571426,614.7,478.22232142857143,10.128571428571426,714.8,488.22232142857143,8.128571428571426,818.4,512.2223214285714,23.128571428571426,918.6,527.2223214285714,38.128571428571426,1023.4,527.2223214285714,38.128571428571426,1128.8,527.2223214285714,38.128571428571426,1234.3,527.2223214285714,38.128571428571426,1338.6,527.2223214285714,38.128571428571426,1443.4,527.2223214285714,38.128571428571426,1548.5,527.2223214285714,38.128571428571426,1654.2,527.2223214285714,38.128571428571426,1754.7,527.2223214285714,38.128571428571426,1858.8,527.2223214285714,38.128571428571426,1958.8,527.2223214285714,99.12857142857143,2064.1,526.2223214285714,176.12857142857143,2168.7,526.2223214285714,342.12857142857143,2273.3,526.2223214285714,342.12857142857143,2378.9,526.2223214285714,342.12857142857143,2479.8,526.2223214285714,342.12857142857143,2583.6,526.2223214285714,342.12857142857143,2684.2,526.2223214285714,342.12857142857143,2788.4,526.2223214285714,342.12857142857143,2888.7,526.2223214285714,342.12857142857143,2993.4,526.2223214285714,342.12857142857143,3093.5,526.2223214285714,342.12857142857143,3193.7,526.2223214285714,342.12857142857143,3293.7,526.2223214285714,342.12857142857143,3399.3,526.2223214285714,342.12857142857143,3504.8,526.2223214285714,342.12857142857143,3609.9,526.2223214285714,342.12857142857143,3714.1,526.2223214285714,342.12857142857143,3818.4,526.2223214285714,342.12857142857143,3918.5,526.2223214285714,342.12857142857143,4020.5,526.2223214285714,342.12857142857143,4123.4,526.2223214285714,342.12857142857143,4223.4,526.2223214285714,342.12857142857143,4324.3,526.2223214285714,342.12857142857143,4428.1,526.2223214285714,342.12857142857143,4528.8,526.2223214285714,342.12857142857143,4633.1,526.2223214285714,342.12857142857143,4740,526.2223214285714,342.12857142857143,4843.4,526.2223214285714,342.12857142857143,4943.7]","[1452.8,1452.8,1000,0,452.8,""smooth"",""up"",""up"",""good_move"",4827.8,3374.6,3032.9,1453.2,341.7,""smooth"",""right"",""right"",""good_move"",7163.8,2335.7,1871,4828.1,464.7,""smooth"",""right"",""right"",""good_move"",10504.9,3340.9,2815.2,7164,525.7,""smooth"",""up"",""up"",""good_move""]"
"3079","","<div style=""width:500px;"">
  <p>What determined the result of this run?</p>
  </div>","93","html-slider-response","24","353397","0.0-7.0-1.2","124","1","2025-08-06 08:50:07","36c45c0696341be0efffe67d72a12abb","192.143.74.139","Mozilla/5.0 (Windows NT 10.0; Win64; x64) AppleWebKit/537.36 (KHTML, like Gecko) Chrome/138.0.0.0 Safari/537.36 Edg/138.0.0.0","WebKit","Edge","138.0.0.0","Windows","10.0","https://app.prolific.com/","en-US,en;q=0.9","60c8a4ece55be5a30e0ccc5c","6877649eabb845cf142cd221","6893170e3ca9750202086b90","1","60c8a4ece55be5a30e0ccc5c","1","2025-08-06T08:56:05.534Z","","","","AttribQ","","","","","","","","","","","50","","","","","","","","","","","","","","","","","","","","","","","","","","",""
"3809","","<div style=""width:500px;"">
  <p>How much control did you have over the ball?</p>
  </div>","93","html-slider-response","25","357207","0.0-7.0-2.2","124","1","2025-08-06 08:50:07","36c45c0696341be0efffe67d72a12abb","192.143.74.139","Mozilla/5.0 (Windows NT 10.0; Win64; x64) AppleWebKit/537.36 (KHTML, like Gecko) Chrome/138.0.0.0 Safari/537.36 Edg/138.0.0.0","WebKit","Edge","138.0.0.0","Windows","10.0","https://app.prolific.com/","en-US,en;q=0.9","60c8a4ece55be5a30e0ccc5c","6877649eabb845cf142cd221","6893170e3ca9750202086b90","1","60c8a4ece55be5a30e0ccc5c","1","2025-08-06T08:56:09.344Z","","","","ControlQ","","","","","","","","","","","50","","","","","","","","","","","","","","","","","","","","","","","","","","",""
"3227","","<div style=""width:500px;"">
  <p>How would you describe your current emotional state?</p>
  </div>","10","html-slider-response","26","360435","0.0-7.0-3.2","124","1","2025-08-06 08:50:07","36c45c0696341be0efffe67d72a12abb","192.143.74.139","Mozilla/5.0 (Windows NT 10.0; Win64; x64) AppleWebKit/537.36 (KHTML, like Gecko) Chrome/138.0.0.0 Safari/537.36 Edg/138.0.0.0","WebKit","Edge","138.0.0.0","Windows","10.0","https://app.prolific.com/","en-US,en;q=0.9","60c8a4ece55be5a30e0ccc5c","6877649eabb845cf142cd221","6893170e3ca9750202086b90","1","60c8a4ece55be5a30e0ccc5c","1","2025-08-06T08:56:12.572Z","","","","StressQ","","","","","","","","","","","50","","","","","","","","","","","","","","","","","","","","","","","","","","",""
"3111","","<div style=""width:500px;"">
  <p>What best describes how you currently feel?</p>
  </div>","96","html-slider-response","27","363547","0.0-7.0-4.2","124","1","2025-08-06 08:50:07","36c45c0696341be0efffe67d72a12abb","192.143.74.139","Mozilla/5.0 (Windows NT 10.0; Win64; x64) AppleWebKit/537.36 (KHTML, like Gecko) Chrome/138.0.0.0 Safari/537.36 Edg/138.0.0.0","WebKit","Edge","138.0.0.0","Windows","10.0","https://app.prolific.com/","en-US,en;q=0.9","60c8a4ece55be5a30e0ccc5c","6877649eabb845cf142cd221","6893170e3ca9750202086b90","1","60c8a4ece55be5a30e0ccc5c","1","2025-08-06T08:56:15.684Z","","","","MotivationQ","","","","","","","","","","","50","","","","","","","","","","","","","","","","","","","","","","","","","","",""
"","","","","ctl-task-cpt","28","386502","0.0-7.0-0.3","124","1","2025-08-06 08:50:07","36c45c0696341be0efffe67d72a12abb","192.143.74.139","Mozilla/5.0 (Windows NT 10.0; Win64; x64) AppleWebKit/537.36 (KHTML, like Gecko) Chrome/138.0.0.0 Safari/537.36 Edg/138.0.0.0","WebKit","Edge","138.0.0.0","Windows","10.0","https://app.prolific.com/","en-US,en;q=0.9","60c8a4ece55be5a30e0ccc5c","6877649eabb845cf142cd221","6893170e3ca9750202086b90","1","60c8a4ece55be5a30e0ccc5c","1","2025-08-06T08:56:38.639Z","","","","","","","","","","","","","","","","win-only","3","g1:SW,g2:NE","0.7","4","0","368270.8","1054.6","6055.8","19935.6","1","4","4","6","1","1","1","4","3","0.030303030303030304","1346.8","3000","1080","[""down"",""left""]","{""num_key_presses"":4,""num_perfect"":4,""num_errors"":0,""num_randdir"":0,""num_randdir_good_moves"":0,""num_whilered"":0,""num_whileblue"":0,""num_blue"":1,""num_good_moves"":4}","[302.22232142857143,290.12857142857143,0.2,302.22232142857143,290.12857142857143,100.9,302.22232142857143,290.12857142857143,200.9,302.22232142857143,290.12857142857143,302.2,302.22232142857143,290.12857142857143,406.8,302.22232142857143,290.12857142857143,507.5,264.22232142857143,330.12857142857143,610.9,174.22232142857143,408.12857142857143,711.8,148.22232142857143,437.12857142857143,816.8,113.22232142857143,461.12857142857143,921.8,75.22232142857143,498.12857142857143,1023.4,64.22232142857143,508.12857142857143,1125.9,64.22232142857143,508.12857142857143,1226.3,64.22232142857143,508.12857142857143,1327.1,64.22232142857143,508.12857142857143,1430.9,64.22232142857143,508.12857142857143,1531.6,64.22232142857143,508.12857142857143,1636.1,64.22232142857143,508.12857142857143,1736.2,64.22232142857143,508.12857142857143,1837.7,64.22232142857143,508.12857142857143,1941,73.22232142857143,509.12857142857143,2041,189.22232142857143,532.1285714285714,2141.9,594.2223214285714,550.1285714285714,2241.9,594.2223214285714,550.1285714285714,2342.3,594.2223214285714,550.1285714285714,2443.4,594.2223214285714,550.1285714285714,2547.5,594.2223214285714,550.1285714285714,2647.6,594.2223214285714,550.1285714285714,2751.1,594.2223214285714,550.1285714285714,2855.7,594.2223214285714,550.1285714285714,2956.4,594.2223214285714,550.1285714285714,3060.9,594.2223214285714,550.1285714285714,3166.9,594.2223214285714,550.1285714285714,3267.1,594.2223214285714,550.1285714285714,3367.2,594.2223214285714,550.1285714285714,3470.9,594.2223214285714,550.1285714285714,3571.1,594.2223214285714,550.1285714285714,3671.1,594.2223214285714,550.1285714285714,3776.2,594.2223214285714,550.1285714285714,3877,594.2223214285714,550.1285714285714,3981.6,594.2223214285714,550.1285714285714,4087.1,594.2223214285714,550.1285714285714,4187.3,594.2223214285714,550.1285714285714,4291,594.2223214285714,550.1285714285714,4396.3,594.2223214285714,550.1285714285714,4497,594.2223214285714,550.1285714285714,4601,594.2223214285714,550.1285714285714,4703.2,594.2223214285714,550.1285714285714,4803.2,594.2223214285714,550.1285714285714,4907.2]","[5776.4,5776.4,3185.6,2004.7,586.1,""smooth"",""left"",""left"",""good_move"",9009,3232.2,2840.2,5776.8,392,""smooth"",""left"",""left"",""good_move"",11689.5,2680.3,2255.4,9009.2,424.9,""smooth"",""down"",""down"",""good_move"",13786.4,2096.6,1555.3,11689.8,541.3,""smooth"",""down"",""down"",""good_move""]"
"3236","","<div style=""width:500px;"">
  <p>What determined the result of this run?</p>
  </div>","95","html-slider-response","29","389739","0.0-7.0-1.3","124","1","2025-08-06 08:50:07","36c45c0696341be0efffe67d72a12abb","192.143.74.139","Mozilla/5.0 (Windows NT 10.0; Win64; x64) AppleWebKit/537.36 (KHTML, like Gecko) Chrome/138.0.0.0 Safari/537.36 Edg/138.0.0.0","WebKit","Edge","138.0.0.0","Windows","10.0","https://app.prolific.com/","en-US,en;q=0.9","60c8a4ece55be5a30e0ccc5c","6877649eabb845cf142cd221","6893170e3ca9750202086b90","1","60c8a4ece55be5a30e0ccc5c","1","2025-08-06T08:56:41.876Z","","","","AttribQ","","","","","","","","","","","50","","","","","","","","","","","","","","","","","","","","","","","","","","",""
"3242","","<div style=""width:500px;"">
  <p>How much control did you have over the ball?</p>
  </div>","95","html-slider-response","30","392982","0.0-7.0-2.3","124","1","2025-08-06 08:50:07","36c45c0696341be0efffe67d72a12abb","192.143.74.139","Mozilla/5.0 (Windows NT 10.0; Win64; x64) AppleWebKit/537.36 (KHTML, like Gecko) Chrome/138.0.0.0 Safari/537.36 Edg/138.0.0.0","WebKit","Edge","138.0.0.0","Windows","10.0","https://app.prolific.com/","en-US,en;q=0.9","60c8a4ece55be5a30e0ccc5c","6877649eabb845cf142cd221","6893170e3ca9750202086b90","1","60c8a4ece55be5a30e0ccc5c","1","2025-08-06T08:56:45.119Z","","","","ControlQ","","","","","","","","","","","50","","","","","","","","","","","","","","","","","","","","","","","","","","",""
"3889","","<div style=""width:500px;"">
  <p>How would you describe your current emotional state?</p>
  </div>","4","html-slider-response","31","396871","0.0-7.0-3.3","124","1","2025-08-06 08:50:07","36c45c0696341be0efffe67d72a12abb","192.143.74.139","Mozilla/5.0 (Windows NT 10.0; Win64; x64) AppleWebKit/537.36 (KHTML, like Gecko) Chrome/138.0.0.0 Safari/537.36 Edg/138.0.0.0","WebKit","Edge","138.0.0.0","Windows","10.0","https://app.prolific.com/","en-US,en;q=0.9","60c8a4ece55be5a30e0ccc5c","6877649eabb845cf142cd221","6893170e3ca9750202086b90","1","60c8a4ece55be5a30e0ccc5c","1","2025-08-06T08:56:49.009Z","","","","StressQ","","","","","","","","","","","50","","","","","","","","","","","","","","","","","","","","","","","","","","",""
"2898","","<div style=""width:500px;"">
  <p>What best describes how you currently feel?</p>
  </div>","95","html-slider-response","32","399770","0.0-7.0-4.3","124","1","2025-08-06 08:50:07","36c45c0696341be0efffe67d72a12abb","192.143.74.139","Mozilla/5.0 (Windows NT 10.0; Win64; x64) AppleWebKit/537.36 (KHTML, like Gecko) Chrome/138.0.0.0 Safari/537.36 Edg/138.0.0.0","WebKit","Edge","138.0.0.0","Windows","10.0","https://app.prolific.com/","en-US,en;q=0.9","60c8a4ece55be5a30e0ccc5c","6877649eabb845cf142cd221","6893170e3ca9750202086b90","1","60c8a4ece55be5a30e0ccc5c","1","2025-08-06T08:56:51.907Z","","","","MotivationQ","","","","","","","","","","","50","","","","","","","","","","","","","","","","","","","","","","","","","","",""
"","","","","ctl-task-cpt","33","418824","0.0-7.0-0.4","124","1","2025-08-06 08:50:07","36c45c0696341be0efffe67d72a12abb","192.143.74.139","Mozilla/5.0 (Windows NT 10.0; Win64; x64) AppleWebKit/537.36 (KHTML, like Gecko) Chrome/138.0.0.0 Safari/537.36 Edg/138.0.0.0","WebKit","Edge","138.0.0.0","Windows","10.0","https://app.prolific.com/","en-US,en;q=0.9","60c8a4ece55be5a30e0ccc5c","6877649eabb845cf142cd221","6893170e3ca9750202086b90","1","60c8a4ece55be5a30e0ccc5c","1","2025-08-06T08:57:10.961Z","","","","","","","","","","","","","","","","win-only","0","g1:NW,g2:SE","0.6","5","0","404494.1","1078.2","6080.6","16030.4","1","4","8","6","1","1","1","5","4","0.03787878787878788","1382.8","3000","875","[""left"",""up""]","{""num_key_presses"":4,""num_perfect"":4,""num_errors"":0,""num_randdir"":0,""num_randdir_good_moves"":0,""num_whilered"":0,""num_whileblue"":0,""num_blue"":0,""num_good_moves"":4}","[300.22232142857143,288.12857142857143,0.1,300.22232142857143,288.12857142857143,100.2,300.22232142857143,288.12857142857143,202.9,300.22232142857143,288.12857142857143,307.5,300.22232142857143,288.12857142857143,408,300.22232142857143,288.12857142857143,516.7,291.22232142857143,281.12857142857143,617.3,127.22232142857143,109.12857142857143,717.5,107.22232142857143,80.12857142857143,817.5,90.22232142857143,70.12857142857143,917.8,80.22232142857143,67.12857142857143,1022.6,72.22232142857143,63.128571428571426,1132.8,72.22232142857143,63.128571428571426,1237.6,72.22232142857143,63.128571428571426,1338.2,72.22232142857143,63.128571428571426,1445.3,72.22232142857143,63.128571428571426,1549.5,72.22232142857143,63.128571428571426,1653.2,72.22232142857143,63.128571428571426,1757,72.22232142857143,63.128571428571426,1858.5,72.22232142857143,63.128571428571426,1966.2,72.22232142857143,63.128571428571426,2067.2,275.22232142857143,123.12857142857143,2167.7,445.22232142857143,181.12857142857143,2268.7,445.22232142857143,181.12857142857143,2372.1,445.22232142857143,181.12857142857143,2473.9,445.22232142857143,181.12857142857143,2581.6,445.22232142857143,181.12857142857143,2682.2,445.22232142857143,181.12857142857143,2782.3,445.22232142857143,181.12857142857143,2887.1,445.22232142857143,181.12857142857143,2988.3,445.22232142857143,181.12857142857143,3088.7,445.22232142857143,181.12857142857143,3197.9,445.22232142857143,181.12857142857143,3302.2,445.22232142857143,181.12857142857143,3402.2,445.22232142857143,181.12857142857143,3502.3,445.22232142857143,181.12857142857143,3602.6,445.22232142857143,181.12857142857143,3707,445.22232142857143,181.12857142857143,3814.3,445.22232142857143,181.12857142857143,3914.7,445.22232142857143,181.12857142857143,4017.6,445.22232142857143,181.12857142857143,4121.9,445.22232142857143,181.12857142857143,4223.5,445.22232142857143,181.12857142857143,4331,445.22232142857143,181.12857142857143,4432.6,445.22232142857143,181.12857142857143,4533,445.22232142857143,181.12857142857143,4637.8,445.22232142857143,181.12857142857143,4737.8,445.22232142857143,181.12857142857143,4838.3,445.22232142857143,181.12857142857143,4938.4]","[1477.2,1477.2,1000,0,477.2,""smooth"",""left"",""left"",""good_move"",4943.6,3465.9,3008.9,1477.7,457,""smooth"",""left"",""left"",""good_move"",7191.9,2248,1344.8,4943.9,903.2,""smooth"",""up"",""up"",""good_move"",9847.5,2655,2065.5,7192.5,589.5,""smooth"",""up"",""up"",""good_move""]"
"6229","","<div style=""width:500px;"">
  <p>What determined the result of this run?</p>
  </div>","95","html-slider-response","34","425054","0.0-7.0-1.4","124","1","2025-08-06 08:50:07","36c45c0696341be0efffe67d72a12abb","192.143.74.139","Mozilla/5.0 (Windows NT 10.0; Win64; x64) AppleWebKit/537.36 (KHTML, like Gecko) Chrome/138.0.0.0 Safari/537.36 Edg/138.0.0.0","WebKit","Edge","138.0.0.0","Windows","10.0","https://app.prolific.com/","en-US,en;q=0.9","60c8a4ece55be5a30e0ccc5c","6877649eabb845cf142cd221","6893170e3ca9750202086b90","1","60c8a4ece55be5a30e0ccc5c","1","2025-08-06T08:57:17.191Z","","","","AttribQ","","","","","","","","","","","50","","","","","","","","","","","","","","","","","","","","","","","","","","",""
"2594","","<div style=""width:500px;"">
  <p>How much control did you have over the ball?</p>
  </div>","96","html-slider-response","35","427648","0.0-7.0-2.4","124","1","2025-08-06 08:50:07","36c45c0696341be0efffe67d72a12abb","192.143.74.139","Mozilla/5.0 (Windows NT 10.0; Win64; x64) AppleWebKit/537.36 (KHTML, like Gecko) Chrome/138.0.0.0 Safari/537.36 Edg/138.0.0.0","WebKit","Edge","138.0.0.0","Windows","10.0","https://app.prolific.com/","en-US,en;q=0.9","60c8a4ece55be5a30e0ccc5c","6877649eabb845cf142cd221","6893170e3ca9750202086b90","1","60c8a4ece55be5a30e0ccc5c","1","2025-08-06T08:57:19.785Z","","","","ControlQ","","","","","","","","","","","50","","","","","","","","","","","","","","","","","","","","","","","","","","",""
"3139","","<div style=""width:500px;"">
  <p>How would you describe your current emotional state?</p>
  </div>","6","html-slider-response","36","430788","0.0-7.0-3.4","124","1","2025-08-06 08:50:07","36c45c0696341be0efffe67d72a12abb","192.143.74.139","Mozilla/5.0 (Windows NT 10.0; Win64; x64) AppleWebKit/537.36 (KHTML, like Gecko) Chrome/138.0.0.0 Safari/537.36 Edg/138.0.0.0","WebKit","Edge","138.0.0.0","Windows","10.0","https://app.prolific.com/","en-US,en;q=0.9","60c8a4ece55be5a30e0ccc5c","6877649eabb845cf142cd221","6893170e3ca9750202086b90","1","60c8a4ece55be5a30e0ccc5c","1","2025-08-06T08:57:22.925Z","","","","StressQ","","","","","","","","","","","50","","","","","","","","","","","","","","","","","","","","","","","","","","",""
"2624","","<div style=""width:500px;"">
  <p>What best describes how you currently feel?</p>
  </div>","94","html-slider-response","37","433414","0.0-7.0-4.4","124","1","2025-08-06 08:50:07","36c45c0696341be0efffe67d72a12abb","192.143.74.139","Mozilla/5.0 (Windows NT 10.0; Win64; x64) AppleWebKit/537.36 (KHTML, like Gecko) Chrome/138.0.0.0 Safari/537.36 Edg/138.0.0.0","WebKit","Edge","138.0.0.0","Windows","10.0","https://app.prolific.com/","en-US,en;q=0.9","60c8a4ece55be5a30e0ccc5c","6877649eabb845cf142cd221","6893170e3ca9750202086b90","1","60c8a4ece55be5a30e0ccc5c","1","2025-08-06T08:57:25.551Z","","","","MotivationQ","","","","","","","","","","","50","","","","","","","","","","","","","","","","","","","","","","","","","","",""
"","","","","ctl-task-cpt","38","474254","0.0-7.0-0.5","124","1","2025-08-06 08:50:07","36c45c0696341be0efffe67d72a12abb","192.143.74.139","Mozilla/5.0 (Windows NT 10.0; Win64; x64) AppleWebKit/537.36 (KHTML, like Gecko) Chrome/138.0.0.0 Safari/537.36 Edg/138.0.0.0","WebKit","Edge","138.0.0.0","Windows","10.0","https://app.prolific.com/","en-US,en;q=0.9","60c8a4ece55be5a30e0ccc5c","6877649eabb845cf142cd221","6893170e3ca9750202086b90","1","60c8a4ece55be5a30e0ccc5c","1","2025-08-06T08:58:06.391Z","","","","","","","","","","","","","","","","win-only","3","g1:SW,g2:NE","0.5","6","0","438138.8","2009.8","7014.6","37826.3","1","4","4","6","1","-1","-1","4","5","0.030303030303030304","1205.5","3000","-2980","[""down"",""left""]","{""num_key_presses"":5,""num_perfect"":4,""num_errors"":0,""num_randdir"":1,""num_randdir_good_moves"":0,""num_whilered"":0,""num_whileblue"":0,""num_blue"":4,""num_good_moves"":4}","[296.22232142857143,294.12857142857143,0.2,296.22232142857143,294.12857142857143,100.7,296.22232142857143,294.12857142857143,207.6,296.22232142857143,294.12857142857143,311.6,296.22232142857143,294.12857142857143,416.2,272.22232142857143,310.12857142857143,523.4,49.222321428571426,577.1285714285714,626.3,49.222321428571426,577.1285714285714,726.5,49.222321428571426,577.1285714285714,831.5,49.222321428571426,577.1285714285714,938,49.222321428571426,577.1285714285714,1039,49.222321428571426,577.1285714285714,1145.3,49.222321428571426,577.1285714285714,1245.8,49.222321428571426,577.1285714285714,1347.6,49.222321428571426,577.1285714285714,1452.9,49.222321428571426,577.1285714285714,1557.3,49.222321428571426,577.1285714285714,1658,49.222321428571426,577.1285714285714,1758.5,49.222321428571426,577.1285714285714,1861.2,49.222321428571426,577.1285714285714,1966.5,49.222321428571426,577.1285714285714,2067.1,210.22232142857143,586.1285714285714,2174.2,369.22232142857143,578.1285714285714,2277.2,369.22232142857143,578.1285714285714,2380.6,369.22232142857143,578.1285714285714,2480.9,369.22232142857143,578.1285714285714,2581.7,369.22232142857143,578.1285714285714,2688.4,369.22232142857143,578.1285714285714,2788.8,369.22232142857143,578.1285714285714,2890.5,369.22232142857143,578.1285714285714,2991.6,369.22232142857143,578.1285714285714,3095.8,369.22232142857143,578.1285714285714,3196.3,369.22232142857143,578.1285714285714,3302.3,369.22232142857143,578.1285714285714,3403.3,369.22232142857143,578.1285714285714,3505.5,369.22232142857143,578.1285714285714,3607.3,369.22232142857143,578.1285714285714,3710.8,369.22232142857143,578.1285714285714,3815.9,369.22232142857143,578.1285714285714,3916.3,369.22232142857143,578.1285714285714,4024.2,369.22232142857143,578.1285714285714,4126.4,369.22232142857143,578.1285714285714,4230.7,369.22232142857143,578.1285714285714,4330.8,369.22232142857143,578.1285714285714,4431.9,369.22232142857143,578.1285714285714,4538.7,369.22232142857143,578.1285714285714,4640.5,369.22232142857143,578.1285714285714,4741.4,369.22232142857143,578.1285714285714,4846.4,369.22232142857143,578.1285714285714,4950.5]","[1603.5,1603.5,1000,0,603.5,""smooth"",""left"",""left"",""good_move"",4787.4,3183.2,2594.2,1604.2,589,""smooth"",""left"",""left"",""good_move"",14826.6,10039,1891.2,12331.2,604.2,""oops"",""down"",""up"",""bad_move"",17951.1,3124,2604.1,14827.1,519.9,""smooth"",""down"",""down"",""good_move"",24939.3,6987.8,2966,21531,442.3,""smooth"",""down"",""down"",""good_move""]"
"3162","","<div style=""width:500px;"">
  <p>What determined the result of this run?</p>
  </div>","74","html-slider-response","39","477417","0.0-7.0-1.5","124","1","2025-08-06 08:50:07","36c45c0696341be0efffe67d72a12abb","192.143.74.139","Mozilla/5.0 (Windows NT 10.0; Win64; x64) AppleWebKit/537.36 (KHTML, like Gecko) Chrome/138.0.0.0 Safari/537.36 Edg/138.0.0.0","WebKit","Edge","138.0.0.0","Windows","10.0","https://app.prolific.com/","en-US,en;q=0.9","60c8a4ece55be5a30e0ccc5c","6877649eabb845cf142cd221","6893170e3ca9750202086b90","1","60c8a4ece55be5a30e0ccc5c","1","2025-08-06T08:58:09.554Z","","","","AttribQ","","","","","","","","","","","50","","","","","","","","","","","","","","","","","","","","","","","","","","",""
"4489","","<div style=""width:500px;"">
  <p>How much control did you have over the ball?</p>
  </div>","68","html-slider-response","40","481907","0.0-7.0-2.5","124","1","2025-08-06 08:50:07","36c45c0696341be0efffe67d72a12abb","192.143.74.139","Mozilla/5.0 (Windows NT 10.0; Win64; x64) AppleWebKit/537.36 (KHTML, like Gecko) Chrome/138.0.0.0 Safari/537.36 Edg/138.0.0.0","WebKit","Edge","138.0.0.0","Windows","10.0","https://app.prolific.com/","en-US,en;q=0.9","60c8a4ece55be5a30e0ccc5c","6877649eabb845cf142cd221","6893170e3ca9750202086b90","1","60c8a4ece55be5a30e0ccc5c","1","2025-08-06T08:58:14.044Z","","","","ControlQ","","","","","","","","","","","50","","","","","","","","","","","","","","","","","","","","","","","","","","",""
"3158","","<div style=""width:500px;"">
  <p>How would you describe your current emotional state?</p>
  </div>","41","html-slider-response","41","485066","0.0-7.0-3.5","124","1","2025-08-06 08:50:07","36c45c0696341be0efffe67d72a12abb","192.143.74.139","Mozilla/5.0 (Windows NT 10.0; Win64; x64) AppleWebKit/537.36 (KHTML, like Gecko) Chrome/138.0.0.0 Safari/537.36 Edg/138.0.0.0","WebKit","Edge","138.0.0.0","Windows","10.0","https://app.prolific.com/","en-US,en;q=0.9","60c8a4ece55be5a30e0ccc5c","6877649eabb845cf142cd221","6893170e3ca9750202086b90","1","60c8a4ece55be5a30e0ccc5c","1","2025-08-06T08:58:17.203Z","","","","StressQ","","","","","","","","","","","50","","","","","","","","","","","","","","","","","","","","","","","","","","",""
"3017","","<div style=""width:500px;"">
  <p>What best describes how you currently feel?</p>
  </div>","60","html-slider-response","42","488084","0.0-7.0-4.5","124","1","2025-08-06 08:50:07","36c45c0696341be0efffe67d72a12abb","192.143.74.139","Mozilla/5.0 (Windows NT 10.0; Win64; x64) AppleWebKit/537.36 (KHTML, like Gecko) Chrome/138.0.0.0 Safari/537.36 Edg/138.0.0.0","WebKit","Edge","138.0.0.0","Windows","10.0","https://app.prolific.com/","en-US,en;q=0.9","60c8a4ece55be5a30e0ccc5c","6877649eabb845cf142cd221","6893170e3ca9750202086b90","1","60c8a4ece55be5a30e0ccc5c","1","2025-08-06T08:58:20.221Z","","","","MotivationQ","","","","","","","","","","","50","","","","","","","","","","","","","","","","","","","","","","","","","","",""
"","","","","ctl-task-cpt","43","516531","0.0-7.0-0.6","124","1","2025-08-06 08:50:07","36c45c0696341be0efffe67d72a12abb","192.143.74.139","Mozilla/5.0 (Windows NT 10.0; Win64; x64) AppleWebKit/537.36 (KHTML, like Gecko) Chrome/138.0.0.0 Safari/537.36 Edg/138.0.0.0","WebKit","Edge","138.0.0.0","Windows","10.0","https://app.prolific.com/","en-US,en;q=0.9","60c8a4ece55be5a30e0ccc5c","6877649eabb845cf142cd221","6893170e3ca9750202086b90","1","60c8a4ece55be5a30e0ccc5c","1","2025-08-06T08:58:48.668Z","","","","","","","","","","","","","","","","win-only","1","g1:NE,g2:SW","0.4","7","0","492808.1","1096.7","6101","25425.4","1","4","4","6","1","1","1","5","4","0.03787878787878788","1112.7","3000","370","[""up"",""right""]","{""num_key_presses"":6,""num_perfect"":2,""num_errors"":0,""num_randdir"":4,""num_randdir_good_moves"":3,""num_whilered"":0,""num_whileblue"":0,""num_blue"":1,""num_good_moves"":5}","[289.22232142857143,291.12857142857143,0.4,289.22232142857143,291.12857142857143,104.2,289.22232142857143,291.12857142857143,208.8,289.22232142857143,291.12857142857143,314.5,289.22232142857143,291.12857142857143,417.7,289.22232142857143,291.12857142857143,519.1,475.22232142857143,122.12857142857143,619.2,509.22232142857143,87.12857142857143,719.3,511.22232142857143,87.12857142857143,825.1,514.2223214285714,86.12857142857143,929.1,514.2223214285714,85.12857142857143,1029.1,514.2223214285714,85.12857142857143,1129.5,514.2223214285714,85.12857142857143,1234.5,514.2223214285714,85.12857142857143,1345.6,514.2223214285714,85.12857142857143,1446.6,514.2223214285714,85.12857142857143,1550,514.2223214285714,85.12857142857143,1654.3,514.2223214285714,85.12857142857143,1759.2,514.2223214285714,85.12857142857143,1862,505.22232142857143,162.12857142857143,1964.1,509.22232142857143,251.12857142857143,2066,507.22232142857143,323.12857142857143,2168.8,507.22232142857143,323.12857142857143,2269.4,507.22232142857143,323.12857142857143,2375.7,507.22232142857143,323.12857142857143,2481.9,507.22232142857143,323.12857142857143,2584.4,507.22232142857143,323.12857142857143,2684.4,507.22232142857143,323.12857142857143,2789.9,507.22232142857143,323.12857142857143,2895,507.22232142857143,323.12857142857143,2995.6,507.22232142857143,323.12857142857143,3098.7,507.22232142857143,323.12857142857143,3198.7,507.22232142857143,323.12857142857143,3299.5,507.22232142857143,323.12857142857143,3401.5,507.22232142857143,323.12857142857143,3504.2,507.22232142857143,323.12857142857143,3610.1,507.22232142857143,323.12857142857143,3710.6,507.22232142857143,323.12857142857143,3814.2,507.22232142857143,323.12857142857143,3920.1,507.22232142857143,323.12857142857143,4023.5,507.22232142857143,323.12857142857143,4123.7,507.22232142857143,323.12857142857143,4224,507.22232142857143,323.12857142857143,4324.1,507.22232142857143,323.12857142857143,4424.3,507.22232142857143,323.12857142857143,4529.9,507.22232142857143,323.12857142857143,4633.9,507.22232142857143,323.12857142857143,4734.3,507.22232142857143,323.12857142857143,4834.6,507.22232142857143,323.12857142857143,4938.8]","[1497.5,1497.5,1000,0,497.5,""oops"",""right"",""left"",""bad_move"",4625.3,3127.4,2663.4,1497.9,464,""smooth"",""up"",""up"",""good_move"",6883.8,2258.2,1891.6,4625.6,366.6,""oops"",""up"",""up"",""good_move"",10026.7,3142.8,2642,6883.9,500.8,""smooth"",""right"",""right"",""good_move"",16789.5,6762.3,2455.8,13900.2,433.5,""oops"",""right"",""right"",""good_move"",19231.8,2442.1,2023.8,16789.7,418.3,""oops"",""right"",""right"",""good_move""]"
"3442","","<div style=""width:500px;"">
  <p>What determined the result of this run?</p>
  </div>","75","html-slider-response","44","519973","0.0-7.0-1.6","124","1","2025-08-06 08:50:07","36c45c0696341be0efffe67d72a12abb","192.143.74.139","Mozilla/5.0 (Windows NT 10.0; Win64; x64) AppleWebKit/537.36 (KHTML, like Gecko) Chrome/138.0.0.0 Safari/537.36 Edg/138.0.0.0","WebKit","Edge","138.0.0.0","Windows","10.0","https://app.prolific.com/","en-US,en;q=0.9","60c8a4ece55be5a30e0ccc5c","6877649eabb845cf142cd221","6893170e3ca9750202086b90","1","60c8a4ece55be5a30e0ccc5c","1","2025-08-06T08:58:52.110Z","","","","AttribQ","","","","","","","","","","","50","","","","","","","","","","","","","","","","","","","","","","","","","","",""
"2926","","<div style=""width:500px;"">
  <p>How much control did you have over the ball?</p>
  </div>","69","html-slider-response","45","522900","0.0-7.0-2.6","124","1","2025-08-06 08:50:07","36c45c0696341be0efffe67d72a12abb","192.143.74.139","Mozilla/5.0 (Windows NT 10.0; Win64; x64) AppleWebKit/537.36 (KHTML, like Gecko) Chrome/138.0.0.0 Safari/537.36 Edg/138.0.0.0","WebKit","Edge","138.0.0.0","Windows","10.0","https://app.prolific.com/","en-US,en;q=0.9","60c8a4ece55be5a30e0ccc5c","6877649eabb845cf142cd221","6893170e3ca9750202086b90","1","60c8a4ece55be5a30e0ccc5c","1","2025-08-06T08:58:55.037Z","","","","ControlQ","","","","","","","","","","","50","","","","","","","","","","","","","","","","","","","","","","","","","","",""
"2816","","<div style=""width:500px;"">
  <p>How would you describe your current emotional state?</p>
  </div>","72","html-slider-response","46","525717","0.0-7.0-3.6","124","1","2025-08-06 08:50:07","36c45c0696341be0efffe67d72a12abb","192.143.74.139","Mozilla/5.0 (Windows NT 10.0; Win64; x64) AppleWebKit/537.36 (KHTML, like Gecko) Chrome/138.0.0.0 Safari/537.36 Edg/138.0.0.0","WebKit","Edge","138.0.0.0","Windows","10.0","https://app.prolific.com/","en-US,en;q=0.9","60c8a4ece55be5a30e0ccc5c","6877649eabb845cf142cd221","6893170e3ca9750202086b90","1","60c8a4ece55be5a30e0ccc5c","1","2025-08-06T08:58:57.854Z","","","","StressQ","","","","","","","","","","","50","","","","","","","","","","","","","","","","","","","","","","","","","","",""
"2931","","<div style=""width:500px;"">
  <p>What best describes how you currently feel?</p>
  </div>","65","html-slider-response","47","528649","0.0-7.0-4.6","124","1","2025-08-06 08:50:07","36c45c0696341be0efffe67d72a12abb","192.143.74.139","Mozilla/5.0 (Windows NT 10.0; Win64; x64) AppleWebKit/537.36 (KHTML, like Gecko) Chrome/138.0.0.0 Safari/537.36 Edg/138.0.0.0","WebKit","Edge","138.0.0.0","Windows","10.0","https://app.prolific.com/","en-US,en;q=0.9","60c8a4ece55be5a30e0ccc5c","6877649eabb845cf142cd221","6893170e3ca9750202086b90","1","60c8a4ece55be5a30e0ccc5c","1","2025-08-06T08:59:00.786Z","","","","MotivationQ","","","","","","","","","","","50","","","","","","","","","","","","","","","","","","","","","","","","","","",""
"","","","","ctl-task-cpt","48","551573","0.0-7.0-0.7","124","1","2025-08-06 08:50:07","36c45c0696341be0efffe67d72a12abb","192.143.74.139","Mozilla/5.0 (Windows NT 10.0; Win64; x64) AppleWebKit/537.36 (KHTML, like Gecko) Chrome/138.0.0.0 Safari/537.36 Edg/138.0.0.0","WebKit","Edge","138.0.0.0","Windows","10.0","https://app.prolific.com/","en-US,en;q=0.9","60c8a4ece55be5a30e0ccc5c","6877649eabb845cf142cd221","6893170e3ca9750202086b90","1","60c8a4ece55be5a30e0ccc5c","1","2025-08-06T08:59:23.710Z","","","","","","","","","","","","","","","","win-only","2","g1:SE,g2:NW","0.3","8","0","533372.7","1297","6301.9","19907.8","1","4","8","6","1","1","1","6","5","0.045454545454545456","1569.1","3000","900","[""down"",""right""]","{""num_key_presses"":4,""num_perfect"":2,""num_errors"":0,""num_randdir"":2,""num_randdir_good_moves"":2,""num_whilered"":0,""num_whileblue"":0,""num_blue"":1,""num_good_moves"":4}","[296.22232142857143,288.12857142857143,0.2,296.22232142857143,288.12857142857143,103.4,296.22232142857143,288.12857142857143,208.6,296.22232142857143,288.12857142857143,309.1,296.22232142857143,288.12857142857143,409.2,296.22232142857143,288.12857142857143,514.8,296.22232142857143,288.12857142857143,618.4,296.22232142857143,288.12857142857143,719.6,498.22232142857143,398.12857142857143,823.3,619.2223214285714,475.12857142857143,924.1,654.2223214285714,527.1285714285714,1029.1,598.2223214285714,559.1285714285714,1134.7,563.2223214285714,552.1285714285714,1239,555.2223214285714,544.1285714285714,1343.6,554.2223214285714,542.1285714285714,1444.2,554.2223214285714,542.1285714285714,1549.8,554.2223214285714,542.1285714285714,1654.9,554.2223214285714,542.1285714285714,1759.7,554.2223214285714,542.1285714285714,1864.9,554.2223214285714,542.1285714285714,1965.4,554.2223214285714,542.1285714285714,2069.3,554.2223214285714,542.1285714285714,2174.1,554.2223214285714,542.1285714285714,2279.5,554.2223214285714,542.1285714285714,2384.2,437.22232142857143,571.1285714285714,2489.2,346.22232142857143,607.1285714285714,2594.8,346.22232142857143,607.1285714285714,2702.2,346.22232142857143,607.1285714285714,2803.8,346.22232142857143,607.1285714285714,2908.7,346.22232142857143,607.1285714285714,3015.2,346.22232142857143,607.1285714285714,3118.8,346.22232142857143,607.1285714285714,3220.3,346.22232142857143,607.1285714285714,3323.6,346.22232142857143,607.1285714285714,3423.6,346.22232142857143,607.1285714285714,3531.6,346.22232142857143,607.1285714285714,3633.8,346.22232142857143,607.1285714285714,3734.3,346.22232142857143,607.1285714285714,3836.2,346.22232142857143,607.1285714285714,3939.3,346.22232142857143,607.1285714285714,4043.7,346.22232142857143,607.1285714285714,4144.7,346.22232142857143,607.1285714285714,4248.7,346.22232142857143,607.1285714285714,4349.1,346.22232142857143,607.1285714285714,4449.5,346.22232142857143,607.1285714285714,4552,346.22232142857143,607.1285714285714,4653.3,346.22232142857143,607.1285714285714,4754.2,346.22232142857143,607.1285714285714,4859.4,346.22232142857143,607.1285714285714,4969.5]","[1638.4,1638.4,1000,0,638.4,""smooth"",""right"",""right"",""good_move"",7351.1,5712.3,2246.9,4625.7,478.5,""oops"",""right"",""down"",""good_move"",10621.3,3269.9,2750,7351.4,519.9,""oops"",""right"",""right"",""good_move"",13513,2891.1,2384.3,10621.9,506.8,""smooth"",""down"",""down"",""good_move""]"
"4048","","<div style=""width:500px;"">
  <p>What determined the result of this run?</p>
  </div>","72","html-slider-response","49","555622","0.0-7.0-1.7","124","1","2025-08-06 08:50:07","36c45c0696341be0efffe67d72a12abb","192.143.74.139","Mozilla/5.0 (Windows NT 10.0; Win64; x64) AppleWebKit/537.36 (KHTML, like Gecko) Chrome/138.0.0.0 Safari/537.36 Edg/138.0.0.0","WebKit","Edge","138.0.0.0","Windows","10.0","https://app.prolific.com/","en-US,en;q=0.9","60c8a4ece55be5a30e0ccc5c","6877649eabb845cf142cd221","6893170e3ca9750202086b90","1","60c8a4ece55be5a30e0ccc5c","1","2025-08-06T08:59:27.759Z","","","","AttribQ","","","","","","","","","","","50","","","","","","","","","","","","","","","","","","","","","","","","","","",""
"2548","","<div style=""width:500px;"">
  <p>How much control did you have over the ball?</p>
  </div>","60","html-slider-response","50","558171","0.0-7.0-2.7","124","1","2025-08-06 08:50:07","36c45c0696341be0efffe67d72a12abb","192.143.74.139","Mozilla/5.0 (Windows NT 10.0; Win64; x64) AppleWebKit/537.36 (KHTML, like Gecko) Chrome/138.0.0.0 Safari/537.36 Edg/138.0.0.0","WebKit","Edge","138.0.0.0","Windows","10.0","https://app.prolific.com/","en-US,en;q=0.9","60c8a4ece55be5a30e0ccc5c","6877649eabb845cf142cd221","6893170e3ca9750202086b90","1","60c8a4ece55be5a30e0ccc5c","1","2025-08-06T08:59:30.308Z","","","","ControlQ","","","","","","","","","","","50","","","","","","","","","","","","","","","","","","","","","","","","","","",""
"4559","","<div style=""width:500px;"">
  <p>How would you describe your current emotional state?</p>
  </div>","29","html-slider-response","51","562731","0.0-7.0-3.7","124","1","2025-08-06 08:50:07","36c45c0696341be0efffe67d72a12abb","192.143.74.139","Mozilla/5.0 (Windows NT 10.0; Win64; x64) AppleWebKit/537.36 (KHTML, like Gecko) Chrome/138.0.0.0 Safari/537.36 Edg/138.0.0.0","WebKit","Edge","138.0.0.0","Windows","10.0","https://app.prolific.com/","en-US,en;q=0.9","60c8a4ece55be5a30e0ccc5c","6877649eabb845cf142cd221","6893170e3ca9750202086b90","1","60c8a4ece55be5a30e0ccc5c","1","2025-08-06T08:59:34.868Z","","","","StressQ","","","","","","","","","","","50","","","","","","","","","","","","","","","","","","","","","","","","","","",""
"3876","","<div style=""width:500px;"">
  <p>What best describes how you currently feel?</p>
  </div>","63","html-slider-response","52","566608","0.0-7.0-4.7","124","1","2025-08-06 08:50:07","36c45c0696341be0efffe67d72a12abb","192.143.74.139","Mozilla/5.0 (Windows NT 10.0; Win64; x64) AppleWebKit/537.36 (KHTML, like Gecko) Chrome/138.0.0.0 Safari/537.36 Edg/138.0.0.0","WebKit","Edge","138.0.0.0","Windows","10.0","https://app.prolific.com/","en-US,en;q=0.9","60c8a4ece55be5a30e0ccc5c","6877649eabb845cf142cd221","6893170e3ca9750202086b90","1","60c8a4ece55be5a30e0ccc5c","1","2025-08-06T08:59:38.745Z","","","","MotivationQ","","","","","","","","","","","50","","","","","","","","","","","","","","","","","","","","","","","","","","",""
"","","","","ctl-task-cpt","53","610041","0.0-7.0-0.8","124","1","2025-08-06 08:50:07","36c45c0696341be0efffe67d72a12abb","192.143.74.139","Mozilla/5.0 (Windows NT 10.0; Win64; x64) AppleWebKit/537.36 (KHTML, like Gecko) Chrome/138.0.0.0 Safari/537.36 Edg/138.0.0.0","WebKit","Edge","138.0.0.0","Windows","10.0","https://app.prolific.com/","en-US,en;q=0.9","60c8a4ece55be5a30e0ccc5c","6877649eabb845cf142cd221","6893170e3ca9750202086b90","1","60c8a4ece55be5a30e0ccc5c","1","2025-08-06T09:00:22.178Z","","","","","","","","","","","","","","","","win-only","3","g1:SW,g2:NE","0.4","9","0","571332","1408.8","6410.6","40413.2","1","4","4","6","1","-1","-1","5","6","0.03787878787878788","1268","3000","-2420","[""down"",""left""]","{""num_key_presses"":6,""num_perfect"":3,""num_errors"":0,""num_randdir"":3,""num_randdir_good_moves"":1,""num_whilered"":0,""num_whileblue"":0,""num_blue"":4,""num_good_moves"":4}","[300.22232142857143,302.12857142857143,0.3,300.22232142857143,302.12857142857143,102,300.22232142857143,302.12857142857143,202.3,300.22232142857143,302.12857142857143,306.7,300.22232142857143,302.12857142857143,407.8,300.22232142857143,302.12857142857143,516.6,219.22232142857143,395.12857142857143,617.2,148.22232142857143,468.12857142857143,722.8,102.22232142857143,495.12857142857143,823.2,80.22232142857143,504.12857142857143,927.1,69.22232142857143,509.12857142857143,1027.1,69.22232142857143,509.12857142857143,1128.3,69.22232142857143,509.12857142857143,1232,69.22232142857143,509.12857142857143,1332.6,69.22232142857143,509.12857142857143,1435.1,69.22232142857143,509.12857142857143,1537,69.22232142857143,509.12857142857143,1637.1,69.22232142857143,509.12857142857143,1737.5,69.22232142857143,509.12857142857143,1841.9,96.22232142857143,513.1285714285714,1946.9,407.22232142857143,529.1285714285714,2048.2,507.22232142857143,485.12857142857143,2149.6,507.22232142857143,485.12857142857143,2251.5,507.22232142857143,485.12857142857143,2351.9,507.22232142857143,485.12857142857143,2452.6,507.22232142857143,485.12857142857143,2557.8,507.22232142857143,485.12857142857143,2662.1,507.22232142857143,485.12857142857143,2762.4,507.22232142857143,485.12857142857143,2866.9,507.22232142857143,485.12857142857143,2967,507.22232142857143,485.12857142857143,3067.6,507.22232142857143,485.12857142857143,3171.8,507.22232142857143,485.12857142857143,3278.9,507.22232142857143,485.12857142857143,3379.5,507.22232142857143,485.12857142857143,3482.3,507.22232142857143,485.12857142857143,3584.1,507.22232142857143,485.12857142857143,3686.7,507.22232142857143,485.12857142857143,3786.8,507.22232142857143,485.12857142857143,3887.6,507.22232142857143,485.12857142857143,3988.1,507.22232142857143,485.12857142857143,4091.5,507.22232142857143,485.12857142857143,4192.3,507.22232142857143,485.12857142857143,4292.3,507.22232142857143,485.12857142857143,4397.2,507.22232142857143,485.12857142857143,4497.4,507.22232142857143,485.12857142857143,4601.5,507.22232142857143,485.12857142857143,4702,507.22232142857143,485.12857142857143,4802.5,507.22232142857143,485.12857142857143,4906.8]","[1515.7,1515.7,1000,0,515.7,""smooth"",""left"",""left"",""good_move"",4367.2,2851,2315.6,1516.2,535.4,""smooth"",""left"",""left"",""good_move"",17589.7,13221.9,2522.8,14531.1,535.8,""oops"",""down"",""right"",""bad_move"",24407,6817,2334.4,21595.1,477.5,""oops"",""left"",""right"",""bad_move"",27836.3,3428.8,2840.4,24407.5,588.4,""smooth"",""down"",""down"",""good_move"",31119.5,3282.9,2905.8,27836.6,377.1,""oops"",""down"",""left"",""good_move""]"
"3986","","<div style=""width:500px;"">
  <p>What determined the result of this run?</p>
  </div>","39","html-slider-response","54","614028","0.0-7.0-1.8","124","1","2025-08-06 08:50:07","36c45c0696341be0efffe67d72a12abb","192.143.74.139","Mozilla/5.0 (Windows NT 10.0; Win64; x64) AppleWebKit/537.36 (KHTML, like Gecko) Chrome/138.0.0.0 Safari/537.36 Edg/138.0.0.0","WebKit","Edge","138.0.0.0","Windows","10.0","https://app.prolific.com/","en-US,en;q=0.9","60c8a4ece55be5a30e0ccc5c","6877649eabb845cf142cd221","6893170e3ca9750202086b90","1","60c8a4ece55be5a30e0ccc5c","1","2025-08-06T09:00:26.165Z","","","","AttribQ","","","","","","","","","","","50","","","","","","","","","","","","","","","","","","","","","","","","","","",""
"2803","","<div style=""width:500px;"">
  <p>How much control did you have over the ball?</p>
  </div>","25","html-slider-response","55","616834","0.0-7.0-2.8","124","1","2025-08-06 08:50:07","36c45c0696341be0efffe67d72a12abb","192.143.74.139","Mozilla/5.0 (Windows NT 10.0; Win64; x64) AppleWebKit/537.36 (KHTML, like Gecko) Chrome/138.0.0.0 Safari/537.36 Edg/138.0.0.0","WebKit","Edge","138.0.0.0","Windows","10.0","https://app.prolific.com/","en-US,en;q=0.9","60c8a4ece55be5a30e0ccc5c","6877649eabb845cf142cd221","6893170e3ca9750202086b90","1","60c8a4ece55be5a30e0ccc5c","1","2025-08-06T09:00:28.971Z","","","","ControlQ","","","","","","","","","","","50","","","","","","","","","","","","","","","","","","","","","","","","","","",""
"3374","","<div style=""width:500px;"">
  <p>How would you describe your current emotional state?</p>
  </div>","61","html-slider-response","56","620208","0.0-7.0-3.8","124","1","2025-08-06 08:50:07","36c45c0696341be0efffe67d72a12abb","192.143.74.139","Mozilla/5.0 (Windows NT 10.0; Win64; x64) AppleWebKit/537.36 (KHTML, like Gecko) Chrome/138.0.0.0 Safari/537.36 Edg/138.0.0.0","WebKit","Edge","138.0.0.0","Windows","10.0","https://app.prolific.com/","en-US,en;q=0.9","60c8a4ece55be5a30e0ccc5c","6877649eabb845cf142cd221","6893170e3ca9750202086b90","1","60c8a4ece55be5a30e0ccc5c","1","2025-08-06T09:00:32.345Z","","","","StressQ","","","","","","","","","","","50","","","","","","","","","","","","","","","","","","","","","","","","","","",""
"2657","","<div style=""width:500px;"">
  <p>What best describes how you currently feel?</p>
  </div>","39","html-slider-response","57","622866","0.0-7.0-4.8","124","1","2025-08-06 08:50:07","36c45c0696341be0efffe67d72a12abb","192.143.74.139","Mozilla/5.0 (Windows NT 10.0; Win64; x64) AppleWebKit/537.36 (KHTML, like Gecko) Chrome/138.0.0.0 Safari/537.36 Edg/138.0.0.0","WebKit","Edge","138.0.0.0","Windows","10.0","https://app.prolific.com/","en-US,en;q=0.9","60c8a4ece55be5a30e0ccc5c","6877649eabb845cf142cd221","6893170e3ca9750202086b90","1","60c8a4ece55be5a30e0ccc5c","1","2025-08-06T09:00:35.003Z","","","","MotivationQ","","","","","","","","","","","50","","","","","","","","","","","","","","","","","","","","","","","","","","",""
"","","","","ctl-task-cpt","58","654839","0.0-7.0-0.9","124","1","2025-08-06 08:50:07","36c45c0696341be0efffe67d72a12abb","192.143.74.139","Mozilla/5.0 (Windows NT 10.0; Win64; x64) AppleWebKit/537.36 (KHTML, like Gecko) Chrome/138.0.0.0 Safari/537.36 Edg/138.0.0.0","WebKit","Edge","138.0.0.0","Windows","10.0","https://app.prolific.com/","en-US,en;q=0.9","60c8a4ece55be5a30e0ccc5c","6877649eabb845cf142cd221","6893170e3ca9750202086b90","1","60c8a4ece55be5a30e0ccc5c","1","2025-08-06T09:01:06.976Z","","","","","","","","","","","","","","","","win-only","3","g1:SW,g2:NE","0.5","10","0","627590.3","1102.7","6114.9","28961.6","1","4","8","6","1","1","1","6","5","0.045454545454545456","1382.2","3000","1230","[""down"",""left""]","{""num_key_presses"":4,""num_perfect"":2,""num_errors"":0,""num_randdir"":2,""num_randdir_good_moves"":2,""num_whilered"":0,""num_whileblue"":0,""num_blue"":3,""num_good_moves"":4}","[296.22232142857143,288.12857142857143,0.3,296.22232142857143,288.12857142857143,103.3,296.22232142857143,288.12857142857143,213,296.22232142857143,288.12857142857143,313,296.22232142857143,288.12857142857143,413.3,296.22232142857143,288.12857142857143,518.2,263.22232142857143,340.12857142857143,625.2,164.22232142857143,435.12857142857143,732.1,141.22232142857143,455.12857142857143,832.5,91.22232142857143,478.12857142857143,933,62.222321428571426,498.12857142857143,1033.3,49.222321428571426,513.1285714285714,1133.4,49.222321428571426,513.1285714285714,1234.1,49.222321428571426,513.1285714285714,1339.7,49.222321428571426,513.1285714285714,1446.9,49.222321428571426,513.1285714285714,1548.3,49.222321428571426,513.1285714285714,1663.1,49.222321428571426,513.1285714285714,1767.6,49.222321428571426,513.1285714285714,1867.9,49.222321428571426,513.1285714285714,1968.9,49.222321428571426,513.1285714285714,2073.6,49.222321428571426,513.1285714285714,2178.6,49.222321428571426,513.1285714285714,2283.2,110.22232142857143,536.1285714285714,2397.1,278.22232142857143,530.1285714285714,2497.8,654.2223214285714,584.1285714285714,2598.6,654.2223214285714,584.1285714285714,2712,654.2223214285714,584.1285714285714,2812.7,654.2223214285714,584.1285714285714,2912.7,654.2223214285714,584.1285714285714,3018.8,654.2223214285714,584.1285714285714,3128.4,654.2223214285714,584.1285714285714,3230.9,654.2223214285714,584.1285714285714,3333.4,654.2223214285714,584.1285714285714,3439.2,654.2223214285714,584.1285714285714,3546.3,654.2223214285714,584.1285714285714,3648.2,654.2223214285714,584.1285714285714,3748.7,654.2223214285714,584.1285714285714,3849.2,654.2223214285714,584.1285714285714,3962.2,654.2223214285714,584.1285714285714,4063.4,654.2223214285714,584.1285714285714,4168,654.2223214285714,584.1285714285714,4268.6,654.2223214285714,584.1285714285714,4369,654.2223214285714,584.1285714285714,4477.8,654.2223214285714,584.1285714285714,4577.8,654.2223214285714,584.1285714285714,4678,654.2223214285714,584.1285714285714,4782.8,654.2223214285714,584.1285714285714,4884.5,654.2223214285714,584.1285714285714,4989]","[1533.4,1533.4,1000,0,533.4,""smooth"",""left"",""left"",""good_move"",5032.4,3498.5,2845.6,1533.9,652.9,""oops"",""left"",""left"",""good_move"",7660.1,2627.5,2084.1,5032.6,543.4,""smooth"",""down"",""down"",""good_move"",22738.1,15077.7,2287.4,19876,574.7,""oops"",""down"",""down"",""good_move""]"
"4177","","<div style=""width:500px;"">
  <p>What determined the result of this run?</p>
  </div>","75","html-slider-response","59","659017","0.0-7.0-1.9","124","1","2025-08-06 08:50:07","36c45c0696341be0efffe67d72a12abb","192.143.74.139","Mozilla/5.0 (Windows NT 10.0; Win64; x64) AppleWebKit/537.36 (KHTML, like Gecko) Chrome/138.0.0.0 Safari/537.36 Edg/138.0.0.0","WebKit","Edge","138.0.0.0","Windows","10.0","https://app.prolific.com/","en-US,en;q=0.9","60c8a4ece55be5a30e0ccc5c","6877649eabb845cf142cd221","6893170e3ca9750202086b90","1","60c8a4ece55be5a30e0ccc5c","1","2025-08-06T09:01:11.154Z","","","","AttribQ","","","","","","","","","","","50","","","","","","","","","","","","","","","","","","","","","","","","","","",""
"2561","","<div style=""width:500px;"">
  <p>How much control did you have over the ball?</p>
  </div>","70","html-slider-response","60","661579","0.0-7.0-2.9","124","1","2025-08-06 08:50:07","36c45c0696341be0efffe67d72a12abb","192.143.74.139","Mozilla/5.0 (Windows NT 10.0; Win64; x64) AppleWebKit/537.36 (KHTML, like Gecko) Chrome/138.0.0.0 Safari/537.36 Edg/138.0.0.0","WebKit","Edge","138.0.0.0","Windows","10.0","https://app.prolific.com/","en-US,en;q=0.9","60c8a4ece55be5a30e0ccc5c","6877649eabb845cf142cd221","6893170e3ca9750202086b90","1","60c8a4ece55be5a30e0ccc5c","1","2025-08-06T09:01:13.716Z","","","","ControlQ","","","","","","","","","","","50","","","","","","","","","","","","","","","","","","","","","","","","","","",""
"3068","","<div style=""width:500px;"">
  <p>How would you describe your current emotional state?</p>
  </div>","33","html-slider-response","61","664648","0.0-7.0-3.9","124","1","2025-08-06 08:50:07","36c45c0696341be0efffe67d72a12abb","192.143.74.139","Mozilla/5.0 (Windows NT 10.0; Win64; x64) AppleWebKit/537.36 (KHTML, like Gecko) Chrome/138.0.0.0 Safari/537.36 Edg/138.0.0.0","WebKit","Edge","138.0.0.0","Windows","10.0","https://app.prolific.com/","en-US,en;q=0.9","60c8a4ece55be5a30e0ccc5c","6877649eabb845cf142cd221","6893170e3ca9750202086b90","1","60c8a4ece55be5a30e0ccc5c","1","2025-08-06T09:01:16.785Z","","","","StressQ","","","","","","","","","","","50","","","","","","","","","","","","","","","","","","","","","","","","","","",""
"2719","","<div style=""width:500px;"">
  <p>What best describes how you currently feel?</p>
  </div>","67","html-slider-response","62","667368","0.0-7.0-4.9","124","1","2025-08-06 08:50:07","36c45c0696341be0efffe67d72a12abb","192.143.74.139","Mozilla/5.0 (Windows NT 10.0; Win64; x64) AppleWebKit/537.36 (KHTML, like Gecko) Chrome/138.0.0.0 Safari/537.36 Edg/138.0.0.0","WebKit","Edge","138.0.0.0","Windows","10.0","https://app.prolific.com/","en-US,en;q=0.9","60c8a4ece55be5a30e0ccc5c","6877649eabb845cf142cd221","6893170e3ca9750202086b90","1","60c8a4ece55be5a30e0ccc5c","1","2025-08-06T09:01:19.505Z","","","","MotivationQ","","","","","","","","","","","50","","","","","","","","","","","","","","","","","","","","","","","","","","",""
"","","","","ctl-task-cpt","63","691013","0.0-7.0-0.10","124","1","2025-08-06 08:50:07","36c45c0696341be0efffe67d72a12abb","192.143.74.139","Mozilla/5.0 (Windows NT 10.0; Win64; x64) AppleWebKit/537.36 (KHTML, like Gecko) Chrome/138.0.0.0 Safari/537.36 Edg/138.0.0.0","WebKit","Edge","138.0.0.0","Windows","10.0","https://app.prolific.com/","en-US,en;q=0.9","60c8a4ece55be5a30e0ccc5c","6877649eabb845cf142cd221","6893170e3ca9750202086b90","1","60c8a4ece55be5a30e0ccc5c","1","2025-08-06T09:01:43.150Z","","","","","","","","","","","","","","","","win-only","3","g1:SW,g2:NE","0.6","11","0","672092.2","1163.1","6164.7","20625.4","1","4","4","6","1","1","1","7","6","0.05303030303030303","1366.2","3000","1265","[""down"",""left""]","{""num_key_presses"":4,""num_perfect"":3,""num_errors"":0,""num_randdir"":1,""num_randdir_good_moves"":1,""num_whilered"":0,""num_whileblue"":0,""num_blue"":1,""num_good_moves"":4}","[292.22232142857143,303.12857142857143,0.3,292.22232142857143,303.12857142857143,102.4,292.22232142857143,303.12857142857143,203.3,292.22232142857143,303.12857142857143,307.4,292.22232142857143,303.12857142857143,410.2,292.22232142857143,303.12857142857143,514.3,185.22232142857143,412.12857142857143,617.7,111.22232142857143,484.12857142857143,722.7,102.22232142857143,494.12857142857143,823.6,85.22232142857143,504.12857142857143,936.2,79.22232142857143,507.12857142857143,1036.7,73.22232142857143,510.12857142857143,1138.6,73.22232142857143,510.12857142857143,1244.3,73.22232142857143,510.12857142857143,1344.8,73.22232142857143,510.12857142857143,1445,73.22232142857143,510.12857142857143,1548.4,73.22232142857143,510.12857142857143,1652.9,73.22232142857143,510.12857142857143,1759.5,73.22232142857143,510.12857142857143,1866.9,73.22232142857143,510.12857142857143,1968.7,132.22232142857143,536.1285714285714,2068.7,431.22232142857143,623.1285714285714,2172.9,431.22232142857143,623.1285714285714,2275.7,431.22232142857143,623.1285714285714,2378.9,431.22232142857143,623.1285714285714,2483.9,431.22232142857143,623.1285714285714,2583.9,431.22232142857143,623.1285714285714,2686.6,431.22232142857143,623.1285714285714,2787.2,431.22232142857143,623.1285714285714,2888.5,431.22232142857143,623.1285714285714,3001.6,431.22232142857143,623.1285714285714,3103.5,431.22232142857143,623.1285714285714,3203.7,431.22232142857143,623.1285714285714,3310.4,431.22232142857143,623.1285714285714,3413.6,431.22232142857143,623.1285714285714,3515.2,431.22232142857143,623.1285714285714,3618.8,431.22232142857143,623.1285714285714,3725.1,431.22232142857143,623.1285714285714,3834.3,431.22232142857143,623.1285714285714,3938.4,431.22232142857143,623.1285714285714,4044.4,431.22232142857143,623.1285714285714,4147.9,431.22232142857143,623.1285714285714,4252.5,431.22232142857143,623.1285714285714,4352.9,431.22232142857143,623.1285714285714,4467.8,431.22232142857143,623.1285714285714,4568.5,431.22232142857143,623.1285714285714,4674.9,431.22232142857143,623.1285714285714,4778.7,431.22232142857143,623.1285714285714,4878.7,431.22232142857143,623.1285714285714,4983.3]","[4591,4591,1939.8,2008.6,642.6,""smooth"",""left"",""left"",""good_move"",7514.7,2922.9,2460.5,4591.8,462.4,""smooth"",""left"",""left"",""good_move"",10565.7,3050.8,2648.8,7514.9,402,""smooth"",""down"",""down"",""good_move"",14354.4,3788.2,3298,10566.2,490.2,""oops"",""down"",""down"",""good_move""]"
"6408","","<div style=""width:500px;"">
  <p>What determined the result of this run?</p>
  </div>","76","html-slider-response","64","697422","0.0-7.0-1.10","124","1","2025-08-06 08:50:07","36c45c0696341be0efffe67d72a12abb","192.143.74.139","Mozilla/5.0 (Windows NT 10.0; Win64; x64) AppleWebKit/537.36 (KHTML, like Gecko) Chrome/138.0.0.0 Safari/537.36 Edg/138.0.0.0","WebKit","Edge","138.0.0.0","Windows","10.0","https://app.prolific.com/","en-US,en;q=0.9","60c8a4ece55be5a30e0ccc5c","6877649eabb845cf142cd221","6893170e3ca9750202086b90","1","60c8a4ece55be5a30e0ccc5c","1","2025-08-06T09:01:49.559Z","","","","AttribQ","","","","","","","","","","","50","","","","","","","","","","","","","","","","","","","","","","","","","","",""
"3903","","<div style=""width:500px;"">
  <p>How much control did you have over the ball?</p>
  </div>","74","html-slider-response","65","701326","0.0-7.0-2.10","124","1","2025-08-06 08:50:07","36c45c0696341be0efffe67d72a12abb","192.143.74.139","Mozilla/5.0 (Windows NT 10.0; Win64; x64) AppleWebKit/537.36 (KHTML, like Gecko) Chrome/138.0.0.0 Safari/537.36 Edg/138.0.0.0","WebKit","Edge","138.0.0.0","Windows","10.0","https://app.prolific.com/","en-US,en;q=0.9","60c8a4ece55be5a30e0ccc5c","6877649eabb845cf142cd221","6893170e3ca9750202086b90","1","60c8a4ece55be5a30e0ccc5c","1","2025-08-06T09:01:53.463Z","","","","ControlQ","","","","","","","","","","","50","","","","","","","","","","","","","","","","","","","","","","","","","","",""
"3296","","<div style=""width:500px;"">
  <p>How would you describe your current emotional state?</p>
  </div>","32","html-slider-response","66","704622","0.0-7.0-3.10","124","1","2025-08-06 08:50:07","36c45c0696341be0efffe67d72a12abb","192.143.74.139","Mozilla/5.0 (Windows NT 10.0; Win64; x64) AppleWebKit/537.36 (KHTML, like Gecko) Chrome/138.0.0.0 Safari/537.36 Edg/138.0.0.0","WebKit","Edge","138.0.0.0","Windows","10.0","https://app.prolific.com/","en-US,en;q=0.9","60c8a4ece55be5a30e0ccc5c","6877649eabb845cf142cd221","6893170e3ca9750202086b90","1","60c8a4ece55be5a30e0ccc5c","1","2025-08-06T09:01:56.760Z","","","","StressQ","","","","","","","","","","","50","","","","","","","","","","","","","","","","","","","","","","","","","","",""
"3323","","<div style=""width:500px;"">
  <p>What best describes how you currently feel?</p>
  </div>","68","html-slider-response","67","707947","0.0-7.0-4.10","124","1","2025-08-06 08:50:07","36c45c0696341be0efffe67d72a12abb","192.143.74.139","Mozilla/5.0 (Windows NT 10.0; Win64; x64) AppleWebKit/537.36 (KHTML, like Gecko) Chrome/138.0.0.0 Safari/537.36 Edg/138.0.0.0","WebKit","Edge","138.0.0.0","Windows","10.0","https://app.prolific.com/","en-US,en;q=0.9","60c8a4ece55be5a30e0ccc5c","6877649eabb845cf142cd221","6893170e3ca9750202086b90","1","60c8a4ece55be5a30e0ccc5c","1","2025-08-06T09:02:00.084Z","","","","MotivationQ","","","","","","","","","","","50","","","","","","","","","","","","","","","","","","","","","","","","","","",""
"","","","","ctl-task-cpt","68","727648","0.0-7.0-0.11","124","1","2025-08-06 08:50:07","36c45c0696341be0efffe67d72a12abb","192.143.74.139","Mozilla/5.0 (Windows NT 10.0; Win64; x64) AppleWebKit/537.36 (KHTML, like Gecko) Chrome/138.0.0.0 Safari/537.36 Edg/138.0.0.0","WebKit","Edge","138.0.0.0","Windows","10.0","https://app.prolific.com/","en-US,en;q=0.9","60c8a4ece55be5a30e0ccc5c","6877649eabb845cf142cd221","6893170e3ca9750202086b90","1","60c8a4ece55be5a30e0ccc5c","1","2025-08-06T09:02:19.785Z","","","","","","","","","","","","","","","","win-only","0","g1:NW,g2:SE","0.7","12","0","712671.2","1172.4","6176.8","16681.7","1","4","8","6","1","1","1","8","7","0.06060606060606061","1036.2","3000","1020","[""left"",""up""]","{""num_key_presses"":4,""num_perfect"":4,""num_errors"":0,""num_randdir"":0,""num_randdir_good_moves"":0,""num_whilered"":0,""num_whileblue"":0,""num_blue"":0,""num_good_moves"":4}","[304.22232142857143,292.12857142857143,0.2,304.22232142857143,292.12857142857143,100.3,304.22232142857143,292.12857142857143,202.9,304.22232142857143,292.12857142857143,304.2,304.22232142857143,292.12857142857143,410.2,140.22232142857143,174.12857142857143,510.4,60.222321428571426,83.12857142857143,611.2,52.222321428571426,77.12857142857143,714.7,51.222321428571426,77.12857142857143,819.4,51.222321428571426,77.12857142857143,922.7,51.222321428571426,77.12857142857143,1025.5,51.222321428571426,77.12857142857143,1128.7,51.222321428571426,77.12857142857143,1232.7,51.222321428571426,77.12857142857143,1334.2,51.222321428571426,77.12857142857143,1440.9,51.222321428571426,77.12857142857143,1544.1,51.222321428571426,77.12857142857143,1649.2,57.222321428571426,82.12857142857143,1749.4,243.22232142857143,330.12857142857143,1853.3,275.22232142857143,357.12857142857143,1960.5,275.22232142857143,357.12857142857143,2060.7,275.22232142857143,357.12857142857143,2163.2,275.22232142857143,357.12857142857143,2264,275.22232142857143,357.12857142857143,2368.7,275.22232142857143,357.12857142857143,2476.6,275.22232142857143,357.12857142857143,2578.3,275.22232142857143,357.12857142857143,2678.3,275.22232142857143,357.12857142857143,2778.4,275.22232142857143,357.12857142857143,2878.9,275.22232142857143,357.12857142857143,2983.8,275.22232142857143,357.12857142857143,3092.9,275.22232142857143,357.12857142857143,3193.7,275.22232142857143,357.12857142857143,3297.8,275.22232142857143,357.12857142857143,3399,275.22232142857143,357.12857142857143,3502.9,275.22232142857143,357.12857142857143,3605,275.22232142857143,357.12857142857143,3706.6,275.22232142857143,357.12857142857143,3810.6,275.22232142857143,357.12857142857143,3910.9,275.22232142857143,357.12857142857143,4014,275.22232142857143,357.12857142857143,4118.2,275.22232142857143,357.12857142857143,4218.9,275.22232142857143,357.12857142857143,4326,275.22232142857143,357.12857142857143,4428.9,275.22232142857143,357.12857142857143,4534,275.22232142857143,357.12857142857143,4638.4,275.22232142857143,357.12857142857143,4740.5,275.22232142857143,357.12857142857143,4843.2,275.22232142857143,357.12857142857143,4943.6]","[1487,1487,1000,0,487,""smooth"",""left"",""left"",""good_move"",4598.2,3110.5,2643.7,1487.7,466.8,""smooth"",""left"",""left"",""good_move"",7786.9,3188.4,2525.6,4598.5,662.8,""smooth"",""up"",""up"",""good_move"",10400.7,2613.5,2132.4,7787.3,481.1,""smooth"",""up"",""up"",""good_move""]"
"4330","","<div style=""width:500px;"">
  <p>What determined the result of this run?</p>
  </div>","76","html-slider-response","69","731979","0.0-7.0-1.11","124","1","2025-08-06 08:50:07","36c45c0696341be0efffe67d72a12abb","192.143.74.139","Mozilla/5.0 (Windows NT 10.0; Win64; x64) AppleWebKit/537.36 (KHTML, like Gecko) Chrome/138.0.0.0 Safari/537.36 Edg/138.0.0.0","WebKit","Edge","138.0.0.0","Windows","10.0","https://app.prolific.com/","en-US,en;q=0.9","60c8a4ece55be5a30e0ccc5c","6877649eabb845cf142cd221","6893170e3ca9750202086b90","1","60c8a4ece55be5a30e0ccc5c","1","2025-08-06T09:02:24.116Z","","","","AttribQ","","","","","","","","","","","50","","","","","","","","","","","","","","","","","","","","","","","","","","",""
"2890","","<div style=""width:500px;"">
  <p>How much control did you have over the ball?</p>
  </div>","77","html-slider-response","70","734870","0.0-7.0-2.11","124","1","2025-08-06 08:50:07","36c45c0696341be0efffe67d72a12abb","192.143.74.139","Mozilla/5.0 (Windows NT 10.0; Win64; x64) AppleWebKit/537.36 (KHTML, like Gecko) Chrome/138.0.0.0 Safari/537.36 Edg/138.0.0.0","WebKit","Edge","138.0.0.0","Windows","10.0","https://app.prolific.com/","en-US,en;q=0.9","60c8a4ece55be5a30e0ccc5c","6877649eabb845cf142cd221","6893170e3ca9750202086b90","1","60c8a4ece55be5a30e0ccc5c","1","2025-08-06T09:02:27.007Z","","","","ControlQ","","","","","","","","","","","50","","","","","","","","","","","","","","","","","","","","","","","","","","",""
"5955","","<div style=""width:500px;"">
  <p>How would you describe your current emotional state?</p>
  </div>","27","html-slider-response","71","740826","0.0-7.0-3.11","124","1","2025-08-06 08:50:07","36c45c0696341be0efffe67d72a12abb","192.143.74.139","Mozilla/5.0 (Windows NT 10.0; Win64; x64) AppleWebKit/537.36 (KHTML, like Gecko) Chrome/138.0.0.0 Safari/537.36 Edg/138.0.0.0","WebKit","Edge","138.0.0.0","Windows","10.0","https://app.prolific.com/","en-US,en;q=0.9","60c8a4ece55be5a30e0ccc5c","6877649eabb845cf142cd221","6893170e3ca9750202086b90","1","60c8a4ece55be5a30e0ccc5c","1","2025-08-06T09:02:32.963Z","","","","StressQ","","","","","","","","","","","50","","","","","","","","","","","","","","","","","","","","","","","","","","",""
"3649","","<div style=""width:500px;"">
  <p>What best describes how you currently feel?</p>
  </div>","72","html-slider-response","72","744476","0.0-7.0-4.11","124","1","2025-08-06 08:50:07","36c45c0696341be0efffe67d72a12abb","192.143.74.139","Mozilla/5.0 (Windows NT 10.0; Win64; x64) AppleWebKit/537.36 (KHTML, like Gecko) Chrome/138.0.0.0 Safari/537.36 Edg/138.0.0.0","WebKit","Edge","138.0.0.0","Windows","10.0","https://app.prolific.com/","en-US,en;q=0.9","60c8a4ece55be5a30e0ccc5c","6877649eabb845cf142cd221","6893170e3ca9750202086b90","1","60c8a4ece55be5a30e0ccc5c","1","2025-08-06T09:02:36.613Z","","","","MotivationQ","","","","","","","","","","","50","","","","","","","","","","","","","","","","","","","","","","","","","","",""
"","","","","ctl-task-cpt","73","763613","0.0-7.0-0.12","124","1","2025-08-06 08:50:07","36c45c0696341be0efffe67d72a12abb","192.143.74.139","Mozilla/5.0 (Windows NT 10.0; Win64; x64) AppleWebKit/537.36 (KHTML, like Gecko) Chrome/138.0.0.0 Safari/537.36 Edg/138.0.0.0","WebKit","Edge","138.0.0.0","Windows","10.0","https://app.prolific.com/","en-US,en;q=0.9","60c8a4ece55be5a30e0ccc5c","6877649eabb845cf142cd221","6893170e3ca9750202086b90","1","60c8a4ece55be5a30e0ccc5c","1","2025-08-06T09:02:55.750Z","","","","","","","","","","","","","","","","win-only","3","g1:SW,g2:NE","0.8","13","0","749200.3","1171.6","6172.5","16126.4","1","4","4","6","1","1","1","9","8","0.06818181818181818","1461.9","3000","1390","[""down"",""left""]","{""num_key_presses"":4,""num_perfect"":3,""num_errors"":0,""num_randdir"":1,""num_randdir_good_moves"":1,""num_whilered"":0,""num_whileblue"":0,""num_blue"":0,""num_good_moves"":4}","[301.22232142857143,292.12857142857143,0.1,301.22232142857143,292.12857142857143,101.4,301.22232142857143,292.12857142857143,204.1,301.22232142857143,292.12857142857143,309.1,301.22232142857143,292.12857142857143,417.1,301.22232142857143,292.12857142857143,519.9,289.22232142857143,310.12857142857143,625.1,207.22232142857143,394.12857142857143,730.8,151.22232142857143,447.12857142857143,831.3,111.22232142857143,480.12857142857143,931.5,87.22232142857143,500.12857142857143,1033.5,80.22232142857143,506.12857142857143,1134.6,73.22232142857143,515.1285714285714,1239.6,72.22232142857143,516.1285714285714,1340.3,72.22232142857143,516.1285714285714,1443.8,72.22232142857143,516.1285714285714,1550,72.22232142857143,516.1285714285714,1655.4,72.22232142857143,516.1285714285714,1759.4,72.22232142857143,516.1285714285714,1859.4,72.22232142857143,516.1285714285714,1959.4,72.22232142857143,516.1285714285714,2059.9,72.22232142857143,516.1285714285714,2160.1,141.22232142857143,539.1285714285714,2265.4,271.22232142857143,557.1285714285714,2365.7,271.22232142857143,557.1285714285714,2469.1,271.22232142857143,557.1285714285714,2570.4,271.22232142857143,557.1285714285714,2674.2,271.22232142857143,557.1285714285714,2781.5,271.22232142857143,557.1285714285714,2885.3,271.22232142857143,557.1285714285714,2988.9,271.22232142857143,557.1285714285714,3089.7,271.22232142857143,557.1285714285714,3196.3,271.22232142857143,557.1285714285714,3299.5,271.22232142857143,557.1285714285714,3400.5,271.22232142857143,557.1285714285714,3500.7,271.22232142857143,557.1285714285714,3605.6,271.22232142857143,557.1285714285714,3709,271.22232142857143,557.1285714285714,3809.4,271.22232142857143,557.1285714285714,3910.1,271.22232142857143,557.1285714285714,4015,271.22232142857143,557.1285714285714,4118.4,271.22232142857143,557.1285714285714,4219.8,271.22232142857143,557.1285714285714,4324.6,271.22232142857143,557.1285714285714,4429.8,271.22232142857143,557.1285714285714,4530.7,271.22232142857143,557.1285714285714,4634.4,271.22232142857143,557.1285714285714,4739.5,271.22232142857143,557.1285714285714,4845.7,271.22232142857143,557.1285714285714,4956.3]","[1532.4,1532.4,1000,0,532.4,""smooth"",""left"",""left"",""good_move"",3956,2422.8,2012,1533.2,410.8,""smooth"",""left"",""left"",""good_move"",6876.1,2919.8,2571.2,3956.3,348.6,""smooth"",""down"",""down"",""good_move"",9847.4,2970.7,2545.3,6876.8,425.3,""oops"",""down"",""down"",""good_move""]"
"4705","","<div style=""width:500px;"">
  <p>What determined the result of this run?</p>
  </div>","90","html-slider-response","74","768319","0.0-7.0-1.12","124","1","2025-08-06 08:50:07","36c45c0696341be0efffe67d72a12abb","192.143.74.139","Mozilla/5.0 (Windows NT 10.0; Win64; x64) AppleWebKit/537.36 (KHTML, like Gecko) Chrome/138.0.0.0 Safari/537.36 Edg/138.0.0.0","WebKit","Edge","138.0.0.0","Windows","10.0","https://app.prolific.com/","en-US,en;q=0.9","60c8a4ece55be5a30e0ccc5c","6877649eabb845cf142cd221","6893170e3ca9750202086b90","1","60c8a4ece55be5a30e0ccc5c","1","2025-08-06T09:03:00.456Z","","","","AttribQ","","","","","","","","","","","50","","","","","","","","","","","","","","","","","","","","","","","","","","",""
"2792","","<div style=""width:500px;"">
  <p>How much control did you have over the ball?</p>
  </div>","91","html-slider-response","75","771112","0.0-7.0-2.12","124","1","2025-08-06 08:50:07","36c45c0696341be0efffe67d72a12abb","192.143.74.139","Mozilla/5.0 (Windows NT 10.0; Win64; x64) AppleWebKit/537.36 (KHTML, like Gecko) Chrome/138.0.0.0 Safari/537.36 Edg/138.0.0.0","WebKit","Edge","138.0.0.0","Windows","10.0","https://app.prolific.com/","en-US,en;q=0.9","60c8a4ece55be5a30e0ccc5c","6877649eabb845cf142cd221","6893170e3ca9750202086b90","1","60c8a4ece55be5a30e0ccc5c","1","2025-08-06T09:03:03.249Z","","","","ControlQ","","","","","","","","","","","50","","","","","","","","","","","","","","","","","","","","","","","","","","",""
"3711","","<div style=""width:500px;"">
  <p>How would you describe your current emotional state?</p>
  </div>","10","html-slider-response","76","774824","0.0-7.0-3.12","124","1","2025-08-06 08:50:07","36c45c0696341be0efffe67d72a12abb","192.143.74.139","Mozilla/5.0 (Windows NT 10.0; Win64; x64) AppleWebKit/537.36 (KHTML, like Gecko) Chrome/138.0.0.0 Safari/537.36 Edg/138.0.0.0","WebKit","Edge","138.0.0.0","Windows","10.0","https://app.prolific.com/","en-US,en;q=0.9","60c8a4ece55be5a30e0ccc5c","6877649eabb845cf142cd221","6893170e3ca9750202086b90","1","60c8a4ece55be5a30e0ccc5c","1","2025-08-06T09:03:06.961Z","","","","StressQ","","","","","","","","","","","50","","","","","","","","","","","","","","","","","","","","","","","","","","",""
"4234","","<div style=""width:500px;"">
  <p>What best describes how you currently feel?</p>
  </div>","91","html-slider-response","77","779059","0.0-7.0-4.12","124","1","2025-08-06 08:50:07","36c45c0696341be0efffe67d72a12abb","192.143.74.139","Mozilla/5.0 (Windows NT 10.0; Win64; x64) AppleWebKit/537.36 (KHTML, like Gecko) Chrome/138.0.0.0 Safari/537.36 Edg/138.0.0.0","WebKit","Edge","138.0.0.0","Windows","10.0","https://app.prolific.com/","en-US,en;q=0.9","60c8a4ece55be5a30e0ccc5c","6877649eabb845cf142cd221","6893170e3ca9750202086b90","1","60c8a4ece55be5a30e0ccc5c","1","2025-08-06T09:03:11.197Z","","","","MotivationQ","","","","","","","","","","","50","","","","","","","","","","","","","","","","","","","","","","","","","","",""
"","","","","ctl-task-cpt","78","814630","0.0-7.0-0.13","124","1","2025-08-06 08:50:07","36c45c0696341be0efffe67d72a12abb","192.143.74.139","Mozilla/5.0 (Windows NT 10.0; Win64; x64) AppleWebKit/537.36 (KHTML, like Gecko) Chrome/138.0.0.0 Safari/537.36 Edg/138.0.0.0","WebKit","Edge","138.0.0.0","Windows","10.0","https://app.prolific.com/","en-US,en;q=0.9","60c8a4ece55be5a30e0ccc5c","6877649eabb845cf142cd221","6893170e3ca9750202086b90","1","60c8a4ece55be5a30e0ccc5c","1","2025-08-06T09:03:46.767Z","","","","","","","","","","","","","","","","win-only","0","g1:NW,g2:SE","0.9","14","0","783783.6","1199","6202","32552.2","1","4","8","6","2","8","8","17","9","0.12878787878787878","1215.8","3000","645","[""down"",""right""]","{""num_key_presses"":6,""num_perfect"":6,""num_errors"":0,""num_randdir"":0,""num_randdir_good_moves"":0,""num_whilered"":0,""num_whileblue"":0,""num_blue"":3,""num_good_moves"":6}","[295.22232142857143,295.12857142857143,0.1,295.22232142857143,295.12857142857143,101.1,295.22232142857143,295.12857142857143,201.6,295.22232142857143,295.12857142857143,303.1,295.22232142857143,295.12857142857143,417.5,295.22232142857143,295.12857142857143,518.3,465.22232142857143,387.12857142857143,619.7,552.2223214285714,498.12857142857143,752.2,553.2223214285714,519.1285714285714,853,553.2223214285714,519.1285714285714,953,553.2223214285714,519.1285714285714,1058.7,553.2223214285714,519.1285714285714,1159,553.2223214285714,519.1285714285714,1259.5,553.2223214285714,519.1285714285714,1366.7,553.2223214285714,519.1285714285714,1468.7,553.2223214285714,519.1285714285714,1572.1,553.2223214285714,519.1285714285714,1676.1,553.2223214285714,519.1285714285714,1786.2,314.22232142857143,683.1285714285714,1890.4,246.22232142857143,683.1285714285714,1994.5,246.22232142857143,683.1285714285714,2099.6,246.22232142857143,683.1285714285714,2201.2,246.22232142857143,683.1285714285714,2301.5,246.22232142857143,683.1285714285714,2402.5,246.22232142857143,683.1285714285714,2519.5,246.22232142857143,683.1285714285714,2622.9,246.22232142857143,683.1285714285714,2724.2,246.22232142857143,683.1285714285714,2834.5,246.22232142857143,683.1285714285714,2936.6,246.22232142857143,683.1285714285714,3039.6,246.22232142857143,683.1285714285714,3143.5,246.22232142857143,683.1285714285714,3246.5,246.22232142857143,683.1285714285714,3351.1,246.22232142857143,683.1285714285714,3451.7,246.22232142857143,683.1285714285714,3566.5,246.22232142857143,683.1285714285714,3667.9,246.22232142857143,683.1285714285714,3768.2,246.22232142857143,683.1285714285714,3872.3,246.22232142857143,683.1285714285714,3973.8,246.22232142857143,683.1285714285714,4076.9,246.22232142857143,683.1285714285714,4181.5,246.22232142857143,683.1285714285714,4281.6,246.22232142857143,683.1285714285714,4399,246.22232142857143,683.1285714285714,4501.7,246.22232142857143,683.1285714285714,4601.9,246.22232142857143,683.1285714285714,4709.2,246.22232142857143,683.1285714285714,4811.8,246.22232142857143,683.1285714285714,4916.3]","[5118.6,5118.6,2495,2006.4,617.2,""smooth"",""right"",""right"",""good_move"",11816.2,6697,3062.2,8339.8,414.2,""smooth"",""right"",""right"",""good_move"",17728.1,5911.6,2214.3,15096.3,417.5,""smooth"",""right"",""right"",""good_move"",20630.4,2901.7,2394.7,17728.7,507,""smooth"",""down"",""down"",""good_move"",23654.6,3023.2,2503,20631.4,520.2,""smooth"",""down"",""down"",""good_move"",26253.4,2598.6,2190.4,23654.8,408.2,""smooth"",""down"",""down"",""good_move""]"
"3804","","<div style=""width:500px;"">
