"rt","response_timestamp","stimulus","response","trial_type","trial_index","time_elapsed","internal_node_id","run_id","condition","recorded_at","source_code_version","ip","user_agent","device","browser","browser_version","platform","platform_version","referer","accept_language","PROLIFIC_PID","STUDY_ID","SESSION_ID","BATCH","prolific_id","batch","realtime","success","question_order","question_id","eventType","responses","item_order","radio_event_ids","radio_event_times","key_event_times","mouse_event_times","straightlining","zigzagging","honeypot","view_history","slider_start","which_type","canvas_config","goals_layout","control_level","trial_number","tutorial_trial_number","trial_start_time","phase1_start_time","phase2_start_time","phase3_start_time","goal_1_value","goal_1_distance","goal_2_value","goal_2_distance","goal_selected","outcome","outcome_total","participant_final_score","participant_initial_score","participant_final_score_prop","goal_choice_rt","allocated_time","allocated_time_remaining","goal_direction","counts","mouse_movements","key_presses"
"3970","1754479602708","<p style='font-size:40px;line-height:1.25'><strong>Welcome to the experiment!</strong></p><p style='font-size:1.1em;line-height:1.25'>Thank you for participanting in our experiment again! You will be asked to play the Dysfunctional Ball Game again. We will briefly recap the rules before we start.</p><p style='font-size:1.1em;line-height:1.25'>Press <strong>Next</strong> to continue.</p>","0","custom-html-button-response","0","3978","0.0-0.0","188","1","2025-08-06 11:26:21","36c45c0696341be0efffe67d72a12abb","37.228.232.48","Mozilla/5.0 (Windows NT 10.0; Win64; x64) AppleWebKit/537.36 (KHTML, like Gecko) Chrome/138.0.0.0 Safari/537.36","WebKit","Chrome","138.0.0.0","Windows","10.0","https://app.prolific.com/","en-IE,en-US;q=0.9,en;q=0.8","60cd16e63d3924958e8d3d43","687a1a965b9f5b85a264363e","68933ba46171a6ec624b05c3","1","60cd16e63d3924958e8d3d43","1","2025-08-06T11:26:42.713Z","","","","","","","","","","","","","","","","","","","","","","","","","","","","","","","","","","","","","","","","","",""
"5062","","","","fullscreen","1","10049","0.0-1.0","188","1","2025-08-06 11:26:21","36c45c0696341be0efffe67d72a12abb","37.228.232.48","Mozilla/5.0 (Windows NT 10.0; Win64; x64) AppleWebKit/537.36 (KHTML, like Gecko) Chrome/138.0.0.0 Safari/537.36","WebKit","Chrome","138.0.0.0","Windows","10.0","https://app.prolific.com/","en-IE,en-US;q=0.9,en;q=0.8","60cd16e63d3924958e8d3d43","687a1a965b9f5b85a264363e","68933ba46171a6ec624b05c3","1","60cd16e63d3924958e8d3d43","1","","true","","","","","","","","","","","","","","","","","","","","","","","","","","","","","","","","","","","","","","","","",""
"5238","1754479614022"," <p style='font-size:1.1em;line-height:1.25'>Thank you for closing all other tabs.</p><p style='font-size:1.1em;line-height:1.25'>We will now invite you to fill in some questionnaires, before starting the game.<br>This will take about 5 minutes.<br></p><p style='font-size:1.1em;line-height:1.25'>Press the <strong>Next</strong> button to continue.</p>","0","custom-html-button-response","2","15288","0.0-2.0","188","1","2025-08-06 11:26:21","36c45c0696341be0efffe67d72a12abb","37.228.232.48","Mozilla/5.0 (Windows NT 10.0; Win64; x64) AppleWebKit/537.36 (KHTML, like Gecko) Chrome/138.0.0.0 Safari/537.36","WebKit","Chrome","138.0.0.0","Windows","10.0","https://app.prolific.com/","en-IE,en-US;q=0.9,en;q=0.8","60cd16e63d3924958e8d3d43","687a1a965b9f5b85a264363e","68933ba46171a6ec624b05c3","1","60cd16e63d3924958e8d3d43","1","2025-08-06T11:26:54.023Z","","","","","","","","","","","","","","","","","","","","","","","","","","","","","","","","","","","","","","","","","",""
"3060","","","{""assigned_sex"":""female""}","survey-multi-choice","3","18352","0.0-3.0-0.0","188","1","2025-08-06 11:26:21","36c45c0696341be0efffe67d72a12abb","37.228.232.48","Mozilla/5.0 (Windows NT 10.0; Win64; x64) AppleWebKit/537.36 (KHTML, like Gecko) Chrome/138.0.0.0 Safari/537.36","WebKit","Chrome","138.0.0.0","Windows","10.0","https://app.prolific.com/","en-IE,en-US;q=0.9,en;q=0.8","60cd16e63d3924958e8d3d43","687a1a965b9f5b85a264363e","68933ba46171a6ec624b05c3","1","60cd16e63d3924958e8d3d43","1","","","[0]","0","demographics","","","","","","","","","","","","","","","","","","","","","","","","","","","","","","","","","","","","","",""
"9588","1754479626675","<p style='font-size:1.1em;line-height:1.25'>In the following, we will perform a baseline assessment. This means that we will ask you a few questions relating to your experiences over the past month.<br></p><p style='font-size:1.1em;line-height:1.25'>Press the <strong>Next</strong> button to continue.</p>","0","custom-html-button-response","4","27943","0.0-4.0-0.0","188","1","2025-08-06 11:26:21","36c45c0696341be0efffe67d72a12abb","37.228.232.48","Mozilla/5.0 (Windows NT 10.0; Win64; x64) AppleWebKit/537.36 (KHTML, like Gecko) Chrome/138.0.0.0 Safari/537.36","WebKit","Chrome","138.0.0.0","Windows","10.0","https://app.prolific.com/","en-IE,en-US;q=0.9,en;q=0.8","60cd16e63d3924958e8d3d43","687a1a965b9f5b85a264363e","68933ba46171a6ec624b05c3","1","60cd16e63d3924958e8d3d43","1","2025-08-06T11:27:06.677Z","","","","","","","","","","","","","","","","","","","","","","","","","","","","","","","","","","","","","","","","","",""
"43359.899999999994","","","","survey-template","5","71325","0.0-4.0-1.0","188","1","2025-08-06 11:26:21","36c45c0696341be0efffe67d72a12abb","37.228.232.48","Mozilla/5.0 (Windows NT 10.0; Win64; x64) AppleWebKit/537.36 (KHTML, like Gecko) Chrome/138.0.0.0 Safari/537.36","WebKit","Chrome","138.0.0.0","Windows","10.0","https://app.prolific.com/","en-IE,en-US;q=0.9,en;q=0.8","60cd16e63d3924958e8d3d43","687a1a965b9f5b85a264363e","68933ba46171a6ec624b05c3","1","60cd16e63d3924958e8d3d43","1","2025-08-06T11:27:50.060Z","","","","pss","{""Q01"":""1"",""Q02"":""0"",""Q03"":""3"",""Q04"":""3"",""Q05"":""3"",""Q06"":""3"",""Q07"":""3"",""Q08"":""3"",""Q09"":""3"",""Q10"":""3""}","[0,1,2,3,4,5,6,7,8,9]","[""Q01"",""Q02"",""Q03"",""Q04"",""Q05"",""Q06"",""Q07"",""Q08"",""Q09"",""Q10""]","[5063.600000000006,11016.200000000012,16400.100000000006,20375.20000000001,23460.300000000017,26805.300000000017,31410.800000000017,33964.20000000001,39576.899999999994,42463.399999999994]","[]","[47,5063.600000000006,11016.200000000012,16400.100000000006,20375.20000000001,23460.300000000017,26805.300000000017,29938,31410.800000000017,33964.20000000001,39576.899999999994,41300.20000000001,42463.399999999994,43353.80000000002]","0.5","0.1111111111111111","0","","","","","","","","","","","","","","","","","","","","","","","","","","","","",""
"4381","1754479674447","<p style='font-size:1.1em;line-height:1.25'>Thank you for your answers! Now we will ask you a few more questions relating to your feelings in the last 24 hours.<br></p><p style='font-size:1.1em;line-height:1.25'>Press the <strong>Next</strong> button to continue.</p>","0","custom-html-button-response","6","75714","0.0-4.0-2.0","188","1","2025-08-06 11:26:21","36c45c0696341be0efffe67d72a12abb","37.228.232.48","Mozilla/5.0 (Windows NT 10.0; Win64; x64) AppleWebKit/537.36 (KHTML, like Gecko) Chrome/138.0.0.0 Safari/537.36","WebKit","Chrome","138.0.0.0","Windows","10.0","https://app.prolific.com/","en-IE,en-US;q=0.9,en;q=0.8","60cd16e63d3924958e8d3d43","687a1a965b9f5b85a264363e","68933ba46171a6ec624b05c3","1","60cd16e63d3924958e8d3d43","1","2025-08-06T11:27:54.448Z","","","","","","","","","","","","","","","","","","","","","","","","","","","","","","","","","","","","","","","","","",""
"50796.79999999999","","","","survey-template","7","126519","0.0-4.0-3.0","188","1","2025-08-06 11:26:21","36c45c0696341be0efffe67d72a12abb","37.228.232.48","Mozilla/5.0 (Windows NT 10.0; Win64; x64) AppleWebKit/537.36 (KHTML, like Gecko) Chrome/138.0.0.0 Safari/537.36","WebKit","Chrome","138.0.0.0","Windows","10.0","https://app.prolific.com/","en-IE,en-US;q=0.9,en;q=0.8","60cd16e63d3924958e8d3d43","687a1a965b9f5b85a264363e","68933ba46171a6ec624b05c3","1","60cd16e63d3924958e8d3d43","1","2025-08-06T11:28:45.254Z","","","","drsp","{""Q01"":""3"",""Q02"":""3"",""Q03"":""3"",""Q04"":""3"",""Q05"":""3"",""Q06"":""2"",""Q07"":""2"",""Q08"":""0"",""Q09"":""1"",""Q10"":""1"",""Q11"":""4"",""Q12"":""3"",""Q13"":""5"",""Q14"":""1"",""Q15"":""0"",""Q16"":""0"",""Q17"":""5"",""Q18"":""2"",""Q19"":""1"",""Q20"":""0"",""Q21"":""0"",""Q22"":""1""}","[0,1,2,3,4,5,6,7,8,9,10,11,12,13,14,15,16,17,18,19,20,21]","[""Q01"",""Q02"",""Q03"",""Q04"",""Q05"",""Q06"",""Q07"",""Q08"",""Q09"",""Q10"",""Q11"",""Q12"",""Q13"",""Q14"",""Q15"",""Q16"",""Q17"",""Q18"",""Q19"",""Q20"",""Q21"",""Q22""]","[2593.899999999994,4517.799999999988,5749.100000000006,7179,8617.299999999988,10258.100000000006,11309.200000000012,13225,14619.200000000012,15920.799999999988,21716.099999999977,23254.5,25484.599999999977,27692.400000000023,29455.400000000023,30884.79999999999,34330.70000000001,35599.29999999999,41697.79999999999,46234.70000000001,47834.09999999998,49687]","[]","[48.89999999999418,2593.899999999994,4517.799999999988,5749.100000000006,7179,8617.299999999988,10258.100000000006,11309.200000000012,13225,14619.200000000012,15920.799999999988,21716.099999999977,23254.5,25484.599999999977,27692.400000000023,29455.400000000023,30884.79999999999,32576.79999999999,34330.70000000001,35599.29999999999,41697.79999999999,46234.70000000001,47834.09999999998,49687,50788.40000000002]","0.2727272727272727","0.38095238095238093","0","","","","","","","","","","","","","","","","","","","","","","","","","","","","",""
"5816.600000000035","","","","survey-template","8","132341","0.0-4.0-4.0","188","1","2025-08-06 11:26:21","36c45c0696341be0efffe67d72a12abb","37.228.232.48","Mozilla/5.0 (Windows NT 10.0; Win64; x64) AppleWebKit/537.36 (KHTML, like Gecko) Chrome/138.0.0.0 Safari/537.36","WebKit","Chrome","138.0.0.0","Windows","10.0","https://app.prolific.com/","en-IE,en-US;q=0.9,en;q=0.8","60cd16e63d3924958e8d3d43","687a1a965b9f5b85a264363e","68933ba46171a6ec624b05c3","1","60cd16e63d3924958e8d3d43","1","2025-08-06T11:28:51.075Z","","","","stress","{""Q01"":""2"",""Q02"":""3"",""Q03"":""2""}","[0,1,2]","[""Q01"",""Q02"",""Q03""]","[3029.100000000035,4144.799999999988,4959]","[]","[3029.100000000035,4144.799999999988,4959,5814.5]","1","0","0","","","","","","","","","","","","","","","","","","","","","","","","","","","","",""
"21070","","","","instructions","9","153413","0.0-5.0-0.0","188","1","2025-08-06 11:26:21","36c45c0696341be0efffe67d72a12abb","37.228.232.48","Mozilla/5.0 (Windows NT 10.0; Win64; x64) AppleWebKit/537.36 (KHTML, like Gecko) Chrome/138.0.0.0 Safari/537.36","WebKit","Chrome","138.0.0.0","Windows","10.0","https://app.prolific.com/","en-IE,en-US;q=0.9,en;q=0.8","60cd16e63d3924958e8d3d43","687a1a965b9f5b85a264363e","68933ba46171a6ec624b05c3","1","60cd16e63d3924958e8d3d43","1","","","","","","","","","","","","","","","[{""page_index"":0,""viewing_time"":21069}]","","","","","","","","","","","","","","","","","","","","","","","","","","","",""
"8967","","<p>Before you start with this game please answer the following three questions yourself. </p>
  <p>Through this game, we measure several aspects of your cognitive performance, such as reaction times, multi-tasking capabilities </p>
  <p>and the ability to assess the situation you are in.</p>
  <p></p>
  <p><b>How good do you usually are in such tasks?</b></p>","88","html-slider-response","10","162388","0.0-6.0-0.0","188","1","2025-08-06 11:26:21","36c45c0696341be0efffe67d72a12abb","37.228.232.48","Mozilla/5.0 (Windows NT 10.0; Win64; x64) AppleWebKit/537.36 (KHTML, like Gecko) Chrome/138.0.0.0 Safari/537.36","WebKit","Chrome","138.0.0.0","Windows","10.0","https://app.prolific.com/","en-IE,en-US;q=0.9,en;q=0.8","60cd16e63d3924958e8d3d43","687a1a965b9f5b85a264363e","68933ba46171a6ec624b05c3","1","60cd16e63d3924958e8d3d43","1","2025-08-06T11:29:21.123Z","","","","PreSkillQ","","","","","","","","","","","50","","","","","","","","","","","","","","","","","","","","","","","","","","",""
"3509","","<div style=""width:500px;"">
  <p>How well do you think you will perform in this task compared to other participants?</p>
  </div>","100","html-slider-response","11","165902","0.0-6.0-1.0","188","1","2025-08-06 11:26:21","36c45c0696341be0efffe67d72a12abb","37.228.232.48","Mozilla/5.0 (Windows NT 10.0; Win64; x64) AppleWebKit/537.36 (KHTML, like Gecko) Chrome/138.0.0.0 Safari/537.36","WebKit","Chrome","138.0.0.0","Windows","10.0","https://app.prolific.com/","en-IE,en-US;q=0.9,en;q=0.8","60cd16e63d3924958e8d3d43","687a1a965b9f5b85a264363e","68933ba46171a6ec624b05c3","1","60cd16e63d3924958e8d3d43","1","2025-08-06T11:29:24.636Z","","","","PrePerfQ","","","","","","","","","","","50","","","","","","","","","","","","","","","","","","","","","","","","","","",""
"3534","","<div style=""width:500px;"">
  <p>What best describes how you currently feel?</p>
  </div>","100","html-slider-response","12","169438","0.0-6.0-2.0","188","1","2025-08-06 11:26:21","36c45c0696341be0efffe67d72a12abb","37.228.232.48","Mozilla/5.0 (Windows NT 10.0; Win64; x64) AppleWebKit/537.36 (KHTML, like Gecko) Chrome/138.0.0.0 Safari/537.36","WebKit","Chrome","138.0.0.0","Windows","10.0","https://app.prolific.com/","en-IE,en-US;q=0.9,en;q=0.8","60cd16e63d3924958e8d3d43","687a1a965b9f5b85a264363e","68933ba46171a6ec624b05c3","1","60cd16e63d3924958e8d3d43","1","2025-08-06T11:29:28.173Z","","","","PreMotivationQ","","","","","","","","","","","50","","","","","","","","","","","","","","","","","","","","","","","","","","",""
"","","","","ctl-task-cpt","13","202586","0.0-7.0-0.0","188","1","2025-08-06 11:26:21","36c45c0696341be0efffe67d72a12abb","37.228.232.48","Mozilla/5.0 (Windows NT 10.0; Win64; x64) AppleWebKit/537.36 (KHTML, like Gecko) Chrome/138.0.0.0 Safari/537.36","WebKit","Chrome","138.0.0.0","Windows","10.0","https://app.prolific.com/","en-IE,en-US;q=0.9,en;q=0.8","60cd16e63d3924958e8d3d43","687a1a965b9f5b85a264363e","68933ba46171a6ec624b05c3","1","60cd16e63d3924958e8d3d43","1","2025-08-06T11:30:01.320Z","","","","","","","","","","","","","","","","win-only","0","g1:NW,g2:SE","1","1","0","172942.1","5460.5","10462.5","30120.2","1","4","8","6","2","-8","-8","0","0","0","5001.7","3000","-1685","[""down"",""right""]","{""num_key_presses"":5,""num_perfect"":5,""num_errors"":0,""num_randdir"":0,""num_randdir_good_moves"":0,""num_whilered"":0,""num_whileblue"":0,""num_blue"":0,""num_good_moves"":5}","[409.0714133126395,410.32142761775424,1.2,409.0714133126395,410.32142761775424,100.3,409.0714133126395,410.32142761775424,201.6,409.0714133126395,410.32142761775424,308,409.0714133126395,410.32142761775424,411.2,409.0714133126395,410.32142761775424,511.8,409.0714133126395,410.32142761775424,620.4,409.0714133126395,410.32142761775424,720.9,431.5714133126395,436.57142761775424,823.6,701.5714133126395,660.3214276177542,926.9,806.5714133126395,786.5714276177542,1029.3,811.5714133126395,805.3214276177542,1141.1,802.8214133126395,806.5714276177542,1242.9,801.5714133126395,805.3214276177542,1355.4,794.0714133126395,805.3214276177542,1459,794.0714133126395,805.3214276177542,1563.8,794.0714133126395,805.3214276177542,1666.6,794.0714133126395,805.3214276177542,1767.9,794.0714133126395,805.3214276177542,1872.1,794.0714133126395,805.3214276177542,1975.4,794.0714133126395,805.3214276177542,2077.3,794.0714133126395,805.3214276177542,2187.4,794.0714133126395,805.3214276177542,2287.9,794.0714133126395,805.3214276177542,2391.7,794.0714133126395,805.3214276177542,2498.7,794.0714133126395,805.3214276177542,2604.2,794.0714133126395,805.3214276177542,2706.5,794.0714133126395,805.3214276177542,2808.5,794.0714133126395,805.3214276177542,2911,794.0714133126395,805.3214276177542,3011.3,794.0714133126395,805.3214276177542,3111.6,794.0714133126395,805.3214276177542,3211.6,794.0714133126395,805.3214276177542,3312.1,794.0714133126395,805.3214276177542,3412.2,794.0714133126395,805.3214276177542,3517.6,794.0714133126395,805.3214276177542,3621.8,794.0714133126395,805.3214276177542,3722,794.0714133126395,805.3214276177542,3826.7,794.0714133126395,805.3214276177542,3931.7,794.0714133126395,805.3214276177542,4031.8,794.0714133126395,805.3214276177542,4132.9,794.0714133126395,805.3214276177542,4236.8,794.0714133126395,805.3214276177542,4337.4,794.0714133126395,805.3214276177542,4441.3,794.0714133126395,805.3214276177542,4543.2,794.0714133126395,805.3214276177542,4653.9,794.0714133126395,805.3214276177542,4754.8,794.0714133126395,805.3214276177542,4855.9,794.0714133126395,805.3214276177542,4955.9]","[1369.6,1369.6,1000,0,369.6,""smooth"",""down"",""down"",""good_move"",4270.3,2899.7,2476.8,1370.7,422.8,""smooth"",""right"",""right"",""good_move"",7703.8,3432.1,3109.8,4271.7,322.3,""smooth"",""right"",""right"",""good_move"",10534.4,2830.4,2479.4,7704.1,351,""smooth"",""right"",""right"",""good_move"",13506.3,2971.4,2633.4,10534.9,338,""smooth"",""down"",""down"",""good_move""]"
"7465","","<div style=""width:500px;"">
  <p>What determined the result of this run?</p>
  </div>","82","html-slider-response","14","210062","0.0-7.0-1.0","188","1","2025-08-06 11:26:21","36c45c0696341be0efffe67d72a12abb","37.228.232.48","Mozilla/5.0 (Windows NT 10.0; Win64; x64) AppleWebKit/537.36 (KHTML, like Gecko) Chrome/138.0.0.0 Safari/537.36","WebKit","Chrome","138.0.0.0","Windows","10.0","https://app.prolific.com/","en-IE,en-US;q=0.9,en;q=0.8","60cd16e63d3924958e8d3d43","687a1a965b9f5b85a264363e","68933ba46171a6ec624b05c3","1","60cd16e63d3924958e8d3d43","1","2025-08-06T11:30:08.796Z","","","","AttribQ","","","","","","","","","","","50","","","","","","","","","","","","","","","","","","","","","","","","","","",""
"3185","","<div style=""width:500px;"">
  <p>How much control did you have over the ball?</p>
  </div>","100","html-slider-response","15","213249","0.0-7.0-2.0","188","1","2025-08-06 11:26:21","36c45c0696341be0efffe67d72a12abb","37.228.232.48","Mozilla/5.0 (Windows NT 10.0; Win64; x64) AppleWebKit/537.36 (KHTML, like Gecko) Chrome/138.0.0.0 Safari/537.36","WebKit","Chrome","138.0.0.0","Windows","10.0","https://app.prolific.com/","en-IE,en-US;q=0.9,en;q=0.8","60cd16e63d3924958e8d3d43","687a1a965b9f5b85a264363e","68933ba46171a6ec624b05c3","1","60cd16e63d3924958e8d3d43","1","2025-08-06T11:30:11.983Z","","","","ControlQ","","","","","","","","","","","50","","","","","","","","","","","","","","","","","","","","","","","","","","",""
"8110","","<div style=""width:500px;"">
  <p>How would you describe your current emotional state?</p>
  </div>","84","html-slider-response","16","221362","0.0-7.0-3.0","188","1","2025-08-06 11:26:21","36c45c0696341be0efffe67d72a12abb","37.228.232.48","Mozilla/5.0 (Windows NT 10.0; Win64; x64) AppleWebKit/537.36 (KHTML, like Gecko) Chrome/138.0.0.0 Safari/537.36","WebKit","Chrome","138.0.0.0","Windows","10.0","https://app.prolific.com/","en-IE,en-US;q=0.9,en;q=0.8","60cd16e63d3924958e8d3d43","687a1a965b9f5b85a264363e","68933ba46171a6ec624b05c3","1","60cd16e63d3924958e8d3d43","1","2025-08-06T11:30:20.097Z","","","","StressQ","","","","","","","","","","","50","","","","","","","","","","","","","","","","","","","","","","","","","","",""
"4097","","<div style=""width:500px;"">
  <p>What best describes how you currently feel?</p>
  </div>","84","html-slider-response","17","225463","0.0-7.0-4.0","188","1","2025-08-06 11:26:21","36c45c0696341be0efffe67d72a12abb","37.228.232.48","Mozilla/5.0 (Windows NT 10.0; Win64; x64) AppleWebKit/537.36 (KHTML, like Gecko) Chrome/138.0.0.0 Safari/537.36","WebKit","Chrome","138.0.0.0","Windows","10.0","https://app.prolific.com/","en-IE,en-US;q=0.9,en;q=0.8","60cd16e63d3924958e8d3d43","687a1a965b9f5b85a264363e","68933ba46171a6ec624b05c3","1","60cd16e63d3924958e8d3d43","1","2025-08-06T11:30:24.197Z","","","","MotivationQ","","","","","","","","","","","50","","","","","","","","","","","","","","","","","","","","","","","","","","",""
"","","","","ctl-task-cpt","18","248915","0.0-7.0-0.1","188","1","2025-08-06 11:26:21","36c45c0696341be0efffe67d72a12abb","37.228.232.48","Mozilla/5.0 (Windows NT 10.0; Win64; x64) AppleWebKit/537.36 (KHTML, like Gecko) Chrome/138.0.0.0 Safari/537.36","WebKit","Chrome","138.0.0.0","Windows","10.0","https://app.prolific.com/","en-IE,en-US;q=0.9,en;q=0.8","60cd16e63d3924958e8d3d43","687a1a965b9f5b85a264363e","68933ba46171a6ec624b05c3","1","60cd16e63d3924958e8d3d43","1","2025-08-06T11:30:47.649Z","","","","","","","","","","","","","","","","win-only","3","g1:SW,g2:NE","0.9","2","0","228960.2","4985.9","9991.4","20442.4","1","4","4","6","1","1","0","0","0","0","5005.5","3000","2035","[""down"",""left""]","{""num_key_presses"":4,""num_perfect"":3,""num_errors"":1,""num_randdir"":0,""num_randdir_good_moves"":0,""num_whilered"":0,""num_whileblue"":1,""num_blue"":1,""num_good_moves"":4}","[416.5714133126395,421.57142761775424,1.2,416.5714133126395,421.57142761775424,112.5,416.5714133126395,421.57142761775424,216.3,416.5714133126395,421.57142761775424,321.1,416.5714133126395,421.57142761775424,422.4,416.5714133126395,421.57142761775424,522.5,416.5714133126395,421.57142761775424,622.9,416.5714133126395,421.57142761775424,727.9,416.5714133126395,421.57142761775424,831.1,416.5714133126395,421.57142761775424,941.5,416.5714133126395,421.57142761775424,1045.8,416.5714133126395,421.57142761775424,1146,416.5714133126395,421.57142761775424,1256.5,416.5714133126395,421.57142761775424,1360.4,416.5714133126395,421.57142761775424,1461,416.5714133126395,421.57142761775424,1569.9,416.5714133126395,421.57142761775424,1671.1,416.5714133126395,421.57142761775424,1771.5,416.5714133126395,421.57142761775424,1875.7,416.5714133126395,421.57142761775424,1976.8,416.5714133126395,421.57142761775424,2089.3,416.5714133126395,421.57142761775424,2190.4,416.5714133126395,421.57142761775424,2291,416.5714133126395,421.57142761775424,2391.2,416.5714133126395,421.57142761775424,2504.9,416.5714133126395,421.57142761775424,2607.4,416.5714133126395,421.57142761775424,2710.3,416.5714133126395,421.57142761775424,2811.2,416.5714133126395,421.57142761775424,2916.6,416.5714133126395,421.57142761775424,3028.1,416.5714133126395,421.57142761775424,3136.4,416.5714133126395,421.57142761775424,3237.3,416.5714133126395,421.57142761775424,3340.3,416.5714133126395,421.57142761775424,3441.1,416.5714133126395,421.57142761775424,3541.3,416.5714133126395,421.57142761775424,3652.1,416.5714133126395,421.57142761775424,3752.1,416.5714133126395,421.57142761775424,3854.5,416.5714133126395,421.57142761775424,3957,416.5714133126395,421.57142761775424,4061.7,416.5714133126395,421.57142761775424,4180.1,416.5714133126395,421.57142761775424,4293.1,416.5714133126395,421.57142761775424,4395.3,416.5714133126395,421.57142761775424,4497.7,416.5714133126395,421.57142761775424,4598.8,416.5714133126395,421.57142761775424,4702.7,416.5714133126395,421.57142761775424,4807.7,416.5714133126395,421.57142761775424,4910.9]","[1503.5,1503.6,1000.4,0,503.2,""while_blue"",""up"",""left"",""good_move"",4841.4,3337.1,2738.4,1504.4,598.7,""smooth"",""down"",""down"",""good_move"",7464.4,2620.9,2176.3,4843.5,444.6,""smooth"",""down"",""down"",""good_move"",10331.6,2866,2549,7465.7,316.9,""smooth"",""left"",""left"",""good_move""]"
"2446","","<div style=""width:500px;"">
  <p>What determined the result of this run?</p>
  </div>","100","html-slider-response","19","251365","0.0-7.0-1.1","188","1","2025-08-06 11:26:21","36c45c0696341be0efffe67d72a12abb","37.228.232.48","Mozilla/5.0 (Windows NT 10.0; Win64; x64) AppleWebKit/537.36 (KHTML, like Gecko) Chrome/138.0.0.0 Safari/537.36","WebKit","Chrome","138.0.0.0","Windows","10.0","https://app.prolific.com/","en-IE,en-US;q=0.9,en;q=0.8","60cd16e63d3924958e8d3d43","687a1a965b9f5b85a264363e","68933ba46171a6ec624b05c3","1","60cd16e63d3924958e8d3d43","1","2025-08-06T11:30:50.100Z","","","","AttribQ","","","","","","","","","","","50","","","","","","","","","","","","","","","","","","","","","","","","","","",""
"2314","","<div style=""width:500px;"">
  <p>How much control did you have over the ball?</p>
  </div>","91","html-slider-response","20","253683","0.0-7.0-2.1","188","1","2025-08-06 11:26:21","36c45c0696341be0efffe67d72a12abb","37.228.232.48","Mozilla/5.0 (Windows NT 10.0; Win64; x64) AppleWebKit/537.36 (KHTML, like Gecko) Chrome/138.0.0.0 Safari/537.36","WebKit","Chrome","138.0.0.0","Windows","10.0","https://app.prolific.com/","en-IE,en-US;q=0.9,en;q=0.8","60cd16e63d3924958e8d3d43","687a1a965b9f5b85a264363e","68933ba46171a6ec624b05c3","1","60cd16e63d3924958e8d3d43","1","2025-08-06T11:30:52.418Z","","","","ControlQ","","","","","","","","","","","50","","","","","","","","","","","","","","","","","","","","","","","","","","",""
"2962","","<div style=""width:500px;"">
  <p>How would you describe your current emotional state?</p>
  </div>","94","html-slider-response","21","256648","0.0-7.0-3.1","188","1","2025-08-06 11:26:21","36c45c0696341be0efffe67d72a12abb","37.228.232.48","Mozilla/5.0 (Windows NT 10.0; Win64; x64) AppleWebKit/537.36 (KHTML, like Gecko) Chrome/138.0.0.0 Safari/537.36","WebKit","Chrome","138.0.0.0","Windows","10.0","https://app.prolific.com/","en-IE,en-US;q=0.9,en;q=0.8","60cd16e63d3924958e8d3d43","687a1a965b9f5b85a264363e","68933ba46171a6ec624b05c3","1","60cd16e63d3924958e8d3d43","1","2025-08-06T11:30:55.382Z","","","","StressQ","","","","","","","","","","","50","","","","","","","","","","","","","","","","","","","","","","","","","","",""
"2699","","<div style=""width:500px;"">
  <p>What best describes how you currently feel?</p>
  </div>","84","html-slider-response","22","259350","0.0-7.0-4.1","188","1","2025-08-06 11:26:21","36c45c0696341be0efffe67d72a12abb","37.228.232.48","Mozilla/5.0 (Windows NT 10.0; Win64; x64) AppleWebKit/537.36 (KHTML, like Gecko) Chrome/138.0.0.0 Safari/537.36","WebKit","Chrome","138.0.0.0","Windows","10.0","https://app.prolific.com/","en-IE,en-US;q=0.9,en;q=0.8","60cd16e63d3924958e8d3d43","687a1a965b9f5b85a264363e","68933ba46171a6ec624b05c3","1","60cd16e63d3924958e8d3d43","1","2025-08-06T11:30:58.086Z","","","","MotivationQ","","","","","","","","","","","50","","","","","","","","","","","","","","","","","","","","","","","","","","",""
"","","","","ctl-task-cpt","23","362870","0.0-7.0-0.2","188","1","2025-08-06 11:26:21","36c45c0696341be0efffe67d72a12abb","37.228.232.48","Mozilla/5.0 (Windows NT 10.0; Win64; x64) AppleWebKit/537.36 (KHTML, like Gecko) Chrome/138.0.0.0 Safari/537.36","WebKit","Chrome","138.0.0.0","Windows","10.0","https://app.prolific.com/","en-IE,en-US;q=0.9,en;q=0.8","60cd16e63d3924958e8d3d43","687a1a965b9f5b85a264363e","68933ba46171a6ec624b05c3","1","60cd16e63d3924958e8d3d43","1","2025-08-06T11:32:41.605Z","","","","","","","","","","","","","","","","win-only","0","g1:NW,g2:SE","0.8","3","0","262855.8","66072.9","71079.4","100483.5","1","4","8","6","1","-1","-1","0","0","0","5006.4","3000","-1780","[""left"",""up""]","{""num_key_presses"":6,""num_perfect"":5,""num_errors"":0,""num_randdir"":1,""num_randdir_good_moves"":1,""num_whilered"":0,""num_whileblue"":0,""num_blue"":3,""num_good_moves"":1}","[417.8214133126395,417.82142761775424,1,417.8214133126395,417.82142761775424,124.5,417.8214133126395,417.82142761775424,234.4,417.8214133126395,417.82142761775424,338.8,417.8214133126395,417.82142761775424,451,417.8214133126395,417.82142761775424,564.2,417.8214133126395,417.82142761775424,664.9,417.8214133126395,417.82142761775424,766.7,417.8214133126395,417.82142761775424,871,417.8214133126395,417.82142761775424,972.4,417.8214133126395,417.82142761775424,1074.9,417.8214133126395,417.82142761775424,1179.9,417.8214133126395,417.82142761775424,1284,417.8214133126395,417.82142761775424,1396,417.8214133126395,417.82142761775424,1498.3,417.8214133126395,417.82142761775424,1605,417.8214133126395,417.82142761775424,1705.1,417.8214133126395,417.82142761775424,1820,417.8214133126395,417.82142761775424,1925.3,417.8214133126395,417.82142761775424,2027.4,417.8214133126395,417.82142761775424,2131.9,417.8214133126395,417.82142761775424,2234.5,417.8214133126395,417.82142761775424,2338.2,417.8214133126395,417.82142761775424,2442.3,417.8214133126395,417.82142761775424,2542.8,417.8214133126395,417.82142761775424,2660.6,417.8214133126395,417.82142761775424,2766.3,417.8214133126395,417.82142761775424,2868.5,417.8214133126395,417.82142761775424,2983.2,417.8214133126395,417.82142761775424,3085.4,417.8214133126395,417.82142761775424,3203,417.8214133126395,417.82142761775424,3313.4,417.8214133126395,417.82142761775424,3413.6,417.8214133126395,417.82142761775424,3515.9,417.8214133126395,417.82142761775424,3621.3,417.8214133126395,417.82142761775424,3722.5,417.8214133126395,417.82142761775424,3825,417.8214133126395,417.82142761775424,3929.5,417.8214133126395,417.82142761775424,4032,417.8214133126395,417.82142761775424,4135.7,417.8214133126395,417.82142761775424,4236.9,417.8214133126395,417.82142761775424,4353.9,417.8214133126395,417.82142761775424,4454.9,417.8214133126395,417.82142761775424,4568.2,417.8214133126395,417.82142761775424,4675,417.8214133126395,417.82142761775424,4779.1,417.8214133126395,417.82142761775424,4880.2,417.8214133126395,417.82142761775424,4983.7]","[5154.8,5154.8,2775.2,2008.8,370.8,""smooth"",""right"",""right"",""bad_move"",7990,2834,2458.7,5156,375.3,""smooth"",""right"",""right"",""bad_move"",10197.9,2206.4,1889.5,7991.5,316.9,""oops"",""right"",""left"",""good_move"",16425,6225.4,2347.6,13740.3,337.1,""smooth"",""right"",""right"",""bad_move"",22518.5,6092.3,2550,19653.1,315.4,""smooth"",""right"",""right"",""bad_move"",24942.3,2423.5,2079.9,22518.9,343.6,""smooth"",""down"",""down"",""bad_move""]"
"15804","","<div style=""width:500px;"">
  <p>What determined the result of this run?</p>
  </div>","100","html-slider-response","24","378679","0.0-7.0-1.2","188","1","2025-08-06 11:26:21","36c45c0696341be0efffe67d72a12abb","37.228.232.48","Mozilla/5.0 (Windows NT 10.0; Win64; x64) AppleWebKit/537.36 (KHTML, like Gecko) Chrome/138.0.0.0 Safari/537.36","WebKit","Chrome","138.0.0.0","Windows","10.0","https://app.prolific.com/","en-IE,en-US;q=0.9,en;q=0.8","60cd16e63d3924958e8d3d43","687a1a965b9f5b85a264363e","68933ba46171a6ec624b05c3","1","60cd16e63d3924958e8d3d43","1","2025-08-06T11:32:57.413Z","","","","AttribQ","","","","","","","","","","","50","","","","","","","","","","","","","","","","","","","","","","","","","","",""
"2309","","<div style=""width:500px;"">
  <p>How much control did you have over the ball?</p>
  </div>","77","html-slider-response","25","380992","0.0-7.0-2.2","188","1","2025-08-06 11:26:21","36c45c0696341be0efffe67d72a12abb","37.228.232.48","Mozilla/5.0 (Windows NT 10.0; Win64; x64) AppleWebKit/537.36 (KHTML, like Gecko) Chrome/138.0.0.0 Safari/537.36","WebKit","Chrome","138.0.0.0","Windows","10.0","https://app.prolific.com/","en-IE,en-US;q=0.9,en;q=0.8","60cd16e63d3924958e8d3d43","687a1a965b9f5b85a264363e","68933ba46171a6ec624b05c3","1","60cd16e63d3924958e8d3d43","1","2025-08-06T11:32:59.726Z","","","","ControlQ","","","","","","","","","","","50","","","","","","","","","","","","","","","","","","","","","","","","","","",""
"3563","","<div style=""width:500px;"">
  <p>How would you describe your current emotional state?</p>
  </div>","82","html-slider-response","26","384560","0.0-7.0-3.2","188","1","2025-08-06 11:26:21","36c45c0696341be0efffe67d72a12abb","37.228.232.48","Mozilla/5.0 (Windows NT 10.0; Win64; x64) AppleWebKit/537.36 (KHTML, like Gecko) Chrome/138.0.0.0 Safari/537.36","WebKit","Chrome","138.0.0.0","Windows","10.0","https://app.prolific.com/","en-IE,en-US;q=0.9,en;q=0.8","60cd16e63d3924958e8d3d43","687a1a965b9f5b85a264363e","68933ba46171a6ec624b05c3","1","60cd16e63d3924958e8d3d43","1","2025-08-06T11:33:03.294Z","","","","StressQ","","","","","","","","","","","50","","","","","","","","","","","","","","","","","","","","","","","","","","",""
"4297","","<div style=""width:500px;"">
  <p>What best describes how you currently feel?</p>
  </div>","80","html-slider-response","27","388860","0.0-7.0-4.2","188","1","2025-08-06 11:26:21","36c45c0696341be0efffe67d72a12abb","37.228.232.48","Mozilla/5.0 (Windows NT 10.0; Win64; x64) AppleWebKit/537.36 (KHTML, like Gecko) Chrome/138.0.0.0 Safari/537.36","WebKit","Chrome","138.0.0.0","Windows","10.0","https://app.prolific.com/","en-IE,en-US;q=0.9,en;q=0.8","60cd16e63d3924958e8d3d43","687a1a965b9f5b85a264363e","68933ba46171a6ec624b05c3","1","60cd16e63d3924958e8d3d43","1","2025-08-06T11:33:07.594Z","","","","MotivationQ","","","","","","","","","","","50","","","","","","","","","","","","","","","","","","","","","","","","","","",""
"","","","","ctl-task-cpt","28","466015","0.0-7.0-0.3","188","1","2025-08-06 11:26:21","36c45c0696341be0efffe67d72a12abb","37.228.232.48","Mozilla/5.0 (Windows NT 10.0; Win64; x64) AppleWebKit/537.36 (KHTML, like Gecko) Chrome/138.0.0.0 Safari/537.36","WebKit","Chrome","138.0.0.0","Windows","10.0","https://app.prolific.com/","en-IE,en-US;q=0.9,en;q=0.8","60cd16e63d3924958e8d3d43","687a1a965b9f5b85a264363e","68933ba46171a6ec624b05c3","1","60cd16e63d3924958e8d3d43","1","2025-08-06T11:34:24.750Z","","","","","","","","","","","","","","","","win-only","0","g1:NW,g2:SE","0.7","4","0","392357.5","2846.9","7851.8","74142.9","1","4","4","6","1","-1","-1","0","0","0","5004.8","3000","-1645","[""left"",""up""]","{""num_key_presses"":13,""num_perfect"":10,""num_errors"":0,""num_randdir"":3,""num_randdir_good_moves"":1,""num_whilered"":0,""num_whileblue"":0,""num_blue"":7,""num_good_moves"":7}","[412.8214133126395,416.57142761775424,1.1,412.8214133126395,416.57142761775424,103.5,412.8214133126395,416.57142761775424,210.7,412.8214133126395,416.57142761775424,318.1,412.8214133126395,416.57142761775424,425.5,412.8214133126395,416.57142761775424,527.5,412.8214133126395,416.57142761775424,638.5,412.8214133126395,416.57142761775424,741.9,412.8214133126395,416.57142761775424,842.2,412.8214133126395,416.57142761775424,962.7,412.8214133126395,416.57142761775424,1065.2,412.8214133126395,416.57142761775424,1166.6,412.8214133126395,416.57142761775424,1269.7,412.8214133126395,416.57142761775424,1379.5,412.8214133126395,416.57142761775424,1489.7,412.8214133126395,416.57142761775424,1594.2,412.8214133126395,416.57142761775424,1696.4,412.8214133126395,416.57142761775424,1804,412.8214133126395,416.57142761775424,1928.3,412.8214133126395,416.57142761775424,2034.2,412.8214133126395,416.57142761775424,2143.1,412.8214133126395,416.57142761775424,2246.3,412.8214133126395,416.57142761775424,2349.2,412.8214133126395,416.57142761775424,2449.3,412.8214133126395,416.57142761775424,2569.3,412.8214133126395,416.57142761775424,2681.1,412.8214133126395,416.57142761775424,2781.5,412.8214133126395,416.57142761775424,2883.4,412.8214133126395,416.57142761775424,2985.9,412.8214133126395,416.57142761775424,3088.5,412.8214133126395,416.57142761775424,3192.2,412.8214133126395,416.57142761775424,3300.6,412.8214133126395,416.57142761775424,3402.7,412.8214133126395,416.57142761775424,3507.6,412.8214133126395,416.57142761775424,3610.4,412.8214133126395,416.57142761775424,3714.7,412.8214133126395,416.57142761775424,3816.9,412.8214133126395,416.57142761775424,3919.3,412.8214133126395,416.57142761775424,4023.9,412.8214133126395,416.57142761775424,4133.3,412.8214133126395,416.57142761775424,4239.3,412.8214133126395,416.57142761775424,4339.7,412.8214133126395,416.57142761775424,4441.7,412.8214133126395,416.57142761775424,4546.8,412.8214133126395,416.57142761775424,4652.8,412.8214133126395,416.57142761775424,4756.2,412.8214133126395,416.57142761775424,4862.4,412.8214133126395,416.57142761775424,4971.8]","[1701,1701,1000,0,701,""smooth"",""right"",""right"",""bad_move"",4548,2845.9,2497.8,1702.1,348.1,""smooth"",""right"",""right"",""bad_move"",7853.6,3304.7,2972.8,4548.9,331.9,""oops"",""right"",""down"",""bad_move"",10676.6,2821.6,2444.7,7855.1,376.8,""oops"",""down"",""right"",""bad_move"",13975,3297.6,2941.5,10677.4,356.1,""smooth"",""down"",""down"",""bad_move"",18701.4,4725.8,1305.1,16971.6,425,""smooth"",""down"",""down"",""bad_move"",36682.6,17980.2,2497.5,33869.1,316.1,""smooth"",""up"",""up"",""good_move"",39753.3,3070.2,2688.7,36683.1,381.5,""smooth"",""left"",""left"",""good_move"",42831.2,3077.4,2639.3,39753.9,438.1,""oops"",""up"",""left"",""good_move"",46202.6,3370.5,3045.7,42832.1,324.8,""smooth"",""left"",""left"",""good_move"",49456,3253.1,2901,46202.9,352.1,""smooth"",""left"",""left"",""good_move"",52620,3163.1,2810,49456.9,353.1,""smooth"",""up"",""up"",""good_move"",63307.4,10687,2032.6,60960,314.8,""smooth"",""up"",""up"",""good_move""]"
"4852","","<div style=""width:500px;"">
  <p>What determined the result of this run?</p>
  </div>","89","html-slider-response","29","470872","0.0-7.0-1.3","188","1","2025-08-06 11:26:21","36c45c0696341be0efffe67d72a12abb","37.228.232.48","Mozilla/5.0 (Windows NT 10.0; Win64; x64) AppleWebKit/537.36 (KHTML, like Gecko) Chrome/138.0.0.0 Safari/537.36","WebKit","Chrome","138.0.0.0","Windows","10.0","https://app.prolific.com/","en-IE,en-US;q=0.9,en;q=0.8","60cd16e63d3924958e8d3d43","687a1a965b9f5b85a264363e","68933ba46171a6ec624b05c3","1","60cd16e63d3924958e8d3d43","1","2025-08-06T11:34:29.606Z","","","","AttribQ","","","","","","","","","","","50","","","","","","","","","","","","","","","","","","","","","","","","","","",""
"2519","","<div style=""width:500px;"">
  <p>How much control did you have over the ball?</p>
  </div>","88","html-slider-response","30","473395","0.0-7.0-2.3","188","1","2025-08-06 11:26:21","36c45c0696341be0efffe67d72a12abb","37.228.232.48","Mozilla/5.0 (Windows NT 10.0; Win64; x64) AppleWebKit/537.36 (KHTML, like Gecko) Chrome/138.0.0.0 Safari/537.36","WebKit","Chrome","138.0.0.0","Windows","10.0","https://app.prolific.com/","en-IE,en-US;q=0.9,en;q=0.8","60cd16e63d3924958e8d3d43","687a1a965b9f5b85a264363e","68933ba46171a6ec624b05c3","1","60cd16e63d3924958e8d3d43","1","2025-08-06T11:34:32.129Z","","","","ControlQ","","","","","","","","","","","50","","","","","","","","","","","","","","","","","","","","","","","","","","",""
"2788","","<div style=""width:500px;"">
  <p>How would you describe your current emotional state?</p>
  </div>","28","html-slider-response","31","476187","0.0-7.0-3.3","188","1","2025-08-06 11:26:21","36c45c0696341be0efffe67d72a12abb","37.228.232.48","Mozilla/5.0 (Windows NT 10.0; Win64; x64) AppleWebKit/537.36 (KHTML, like Gecko) Chrome/138.0.0.0 Safari/537.36","WebKit","Chrome","138.0.0.0","Windows","10.0","https://app.prolific.com/","en-IE,en-US;q=0.9,en;q=0.8","60cd16e63d3924958e8d3d43","687a1a965b9f5b85a264363e","68933ba46171a6ec624b05c3","1","60cd16e63d3924958e8d3d43","1","2025-08-06T11:34:34.922Z","","","","StressQ","","","","","","","","","","","50","","","","","","","","","","","","","","","","","","","","","","","","","","",""
"3796","","<div style=""width:500px;"">
  <p>What best describes how you currently feel?</p>
  </div>","89","html-slider-response","32","479989","0.0-7.0-4.3","188","1","2025-08-06 11:26:21","36c45c0696341be0efffe67d72a12abb","37.228.232.48","Mozilla/5.0 (Windows NT 10.0; Win64; x64) AppleWebKit/537.36 (KHTML, like Gecko) Chrome/138.0.0.0 Safari/537.36","WebKit","Chrome","138.0.0.0","Windows","10.0","https://app.prolific.com/","en-IE,en-US;q=0.9,en;q=0.8","60cd16e63d3924958e8d3d43","687a1a965b9f5b85a264363e","68933ba46171a6ec624b05c3","1","60cd16e63d3924958e8d3d43","1","2025-08-06T11:34:38.723Z","","","","MotivationQ","","","","","","","","","","","50","","","","","","","","","","","","","","","","","","","","","","","","","","",""
"","","","","ctl-task-cpt","33","513713","0.0-7.0-0.4","188","1","2025-08-06 11:26:21","36c45c0696341be0efffe67d72a12abb","37.228.232.48","Mozilla/5.0 (Windows NT 10.0; Win64; x64) AppleWebKit/537.36 (KHTML, like Gecko) Chrome/138.0.0.0 Safari/537.36","WebKit","Chrome","138.0.0.0","Windows","10.0","https://app.prolific.com/","en-IE,en-US;q=0.9,en;q=0.8","60cd16e63d3924958e8d3d43","687a1a965b9f5b85a264363e","68933ba46171a6ec624b05c3","1","60cd16e63d3924958e8d3d43","1","2025-08-06T11:35:12.447Z","","","","","","","","","","","","","","","","win-only","1","g1:NE,g2:SW","0.6","5","0","483489.2","2062.1","7066.3","30696.5","1","4","8","6","2","8","8","8","0","0.06060606060606061","5004.2","3000","1355","[""down"",""left""]","{""num_key_presses"":8,""num_perfect"":5,""num_errors"":0,""num_randdir"":3,""num_randdir_good_moves"":2,""num_whilered"":0,""num_whileblue"":0,""num_blue"":0,""num_good_moves"":7}","[414.0714133126395,426.57142761775424,0.3,414.0714133126395,426.57142761775424,115.7,414.0714133126395,426.57142761775424,236.1,414.0714133126395,426.57142761775424,350.4,414.0714133126395,426.57142761775424,452.6,414.0714133126395,426.57142761775424,556.6,414.0714133126395,426.57142761775424,657.4,414.0714133126395,426.57142761775424,760.4,414.0714133126395,426.57142761775424,865.5,414.0714133126395,426.57142761775424,972.1,414.0714133126395,426.57142761775424,1091,414.0714133126395,426.57142761775424,1203.1,414.0714133126395,426.57142761775424,1307.5,414.0714133126395,426.57142761775424,1407.7,414.0714133126395,426.57142761775424,1515.5,414.0714133126395,426.57142761775424,1619.6,414.0714133126395,426.57142761775424,1720.4,414.0714133126395,426.57142761775424,1824.3,414.0714133126395,426.57142761775424,1934.2,414.0714133126395,426.57142761775424,2054.4,414.0714133126395,426.57142761775424,2156.2,414.0714133126395,426.57142761775424,2259.1,414.0714133126395,426.57142761775424,2361.2,414.0714133126395,426.57142761775424,2464.7,414.0714133126395,426.57142761775424,2567.1,414.0714133126395,426.57142761775424,2686,414.0714133126395,426.57142761775424,2805.8,414.0714133126395,426.57142761775424,2912.4,414.0714133126395,426.57142761775424,3016.6,414.0714133126395,426.57142761775424,3121.4,414.0714133126395,426.57142761775424,3228,414.0714133126395,426.57142761775424,3341.8,414.0714133126395,426.57142761775424,3446,414.0714133126395,426.57142761775424,3547.5,414.0714133126395,426.57142761775424,3649.3,414.0714133126395,426.57142761775424,3751.3,414.0714133126395,426.57142761775424,3878.5,414.0714133126395,426.57142761775424,3985.5,414.0714133126395,426.57142761775424,4085.8,414.0714133126395,426.57142761775424,4202.4,414.0714133126395,426.57142761775424,4312.5,414.0714133126395,426.57142761775424,4418.1,414.0714133126395,426.57142761775424,4520.6,414.0714133126395,426.57142761775424,4627.7,414.0714133126395,426.57142761775424,4739.3,414.0714133126395,426.57142761775424,4843.7,414.0714133126395,426.57142761775424,4951.6]","[1757.9,1757.9,1000,0,757.9,""smooth"",""left"",""left"",""good_move"",5278.5,3519,3175.3,1759.5,343.7,""smooth"",""down"",""down"",""good_move"",8478.9,3199.6,2853.5,5279.3,346.1,""oops"",""left"",""down"",""good_move"",11561,3081.7,2763.6,8479.4,318.1,""smooth"",""left"",""left"",""good_move"",14467.2,2905.7,2585.2,11561.6,320.4,""oops"",""left"",""left"",""good_move"",17600.6,3132.9,2801.6,14467.8,331.2,""oops"",""down"",""right"",""bad_move"",20596.3,2994.5,2692.9,17601.8,301.6,""smooth"",""left"",""left"",""good_move"",23492.8,2896.1,2548.8,20596.7,347.3,""smooth"",""down"",""down"",""good_move""]"
"3104","","<div style=""width:500px;"">
  <p>What determined the result of this run?</p>
  </div>","100","html-slider-response","34","516821","0.0-7.0-1.4","188","1","2025-08-06 11:26:21","36c45c0696341be0efffe67d72a12abb","37.228.232.48","Mozilla/5.0 (Windows NT 10.0; Win64; x64) AppleWebKit/537.36 (KHTML, like Gecko) Chrome/138.0.0.0 Safari/537.36","WebKit","Chrome","138.0.0.0","Windows","10.0","https://app.prolific.com/","en-IE,en-US;q=0.9,en;q=0.8","60cd16e63d3924958e8d3d43","687a1a965b9f5b85a264363e","68933ba46171a6ec624b05c3","1","60cd16e63d3924958e8d3d43","1","2025-08-06T11:35:15.555Z","","","","AttribQ","","","","","","","","","","","50","","","","","","","","","","","","","","","","","","","","","","","","","","",""
"2800","","<div style=""width:500px;"">
  <p>How much control did you have over the ball?</p>
  </div>","100","html-slider-response","35","519624","0.0-7.0-2.4","188","1","2025-08-06 11:26:21","36c45c0696341be0efffe67d72a12abb","37.228.232.48","Mozilla/5.0 (Windows NT 10.0; Win64; x64) AppleWebKit/537.36 (KHTML, like Gecko) Chrome/138.0.0.0 Safari/537.36","WebKit","Chrome","138.0.0.0","Windows","10.0","https://app.prolific.com/","en-IE,en-US;q=0.9,en;q=0.8","60cd16e63d3924958e8d3d43","687a1a965b9f5b85a264363e","68933ba46171a6ec624b05c3","1","60cd16e63d3924958e8d3d43","1","2025-08-06T11:35:18.358Z","","","","ControlQ","","","","","","","","","","","50","","","","","","","","","","","","","","","","","","","","","","","","","","",""
"4589","","<div style=""width:500px;"">
  <p>How would you describe your current emotional state?</p>
  </div>","11","html-slider-response","36","524216","0.0-7.0-3.4","188","1","2025-08-06 11:26:21","36c45c0696341be0efffe67d72a12abb","37.228.232.48","Mozilla/5.0 (Windows NT 10.0; Win64; x64) AppleWebKit/537.36 (KHTML, like Gecko) Chrome/138.0.0.0 Safari/537.36","WebKit","Chrome","138.0.0.0","Windows","10.0","https://app.prolific.com/","en-IE,en-US;q=0.9,en;q=0.8","60cd16e63d3924958e8d3d43","687a1a965b9f5b85a264363e","68933ba46171a6ec624b05c3","1","60cd16e63d3924958e8d3d43","1","2025-08-06T11:35:22.950Z","","","","StressQ","","","","","","","","","","","50","","","","","","","","","","","","","","","","","","","","","","","","","","",""
"2729","","<div style=""width:500px;"">
  <p>What best describes how you currently feel?</p>
  </div>","100","html-slider-response","37","526950","0.0-7.0-4.4","188","1","2025-08-06 11:26:21","36c45c0696341be0efffe67d72a12abb","37.228.232.48","Mozilla/5.0 (Windows NT 10.0; Win64; x64) AppleWebKit/537.36 (KHTML, like Gecko) Chrome/138.0.0.0 Safari/537.36","WebKit","Chrome","138.0.0.0","Windows","10.0","https://app.prolific.com/","en-IE,en-US;q=0.9,en;q=0.8","60cd16e63d3924958e8d3d43","687a1a965b9f5b85a264363e","68933ba46171a6ec624b05c3","1","60cd16e63d3924958e8d3d43","1","2025-08-06T11:35:25.684Z","","","","MotivationQ","","","","","","","","","","","50","","","","","","","","","","","","","","","","","","","","","","","","","","",""
"","","","","ctl-task-cpt","38","582099","0.0-7.0-0.5","188","1","2025-08-06 11:26:21","36c45c0696341be0efffe67d72a12abb","37.228.232.48","Mozilla/5.0 (Windows NT 10.0; Win64; x64) AppleWebKit/537.36 (KHTML, like Gecko) Chrome/138.0.0.0 Safari/537.36","WebKit","Chrome","138.0.0.0","Windows","10.0","https://app.prolific.com/","en-IE,en-US;q=0.9,en;q=0.8","60cd16e63d3924958e8d3d43","687a1a965b9f5b85a264363e","68933ba46171a6ec624b05c3","1","60cd16e63d3924958e8d3d43","1","2025-08-06T11:36:20.833Z","","","","","","","","","","","","","","","","win-only","0","g1:NW,g2:SE","0.5","6","0","530448.3","3385.5","8389.7","52128.3","1","4","4","6","2","4","3","11","8","0.08333333333333333","5004.2","3000","60","[""down"",""right""]","{""num_key_presses"":13,""num_perfect"":7,""num_errors"":1,""num_randdir"":5,""num_randdir_good_moves"":2,""num_whilered"":0,""num_whileblue"":0,""num_blue"":2,""num_good_moves"":9}","[409.0714133126395,406.57142761775424,0.3,409.0714133126395,406.57142761775424,101.6,409.0714133126395,406.57142761775424,222.6,409.0714133126395,406.57142761775424,323,409.0714133126395,406.57142761775424,430.3,409.0714133126395,406.57142761775424,533.6,409.0714133126395,406.57142761775424,633.7,409.0714133126395,406.57142761775424,742,409.0714133126395,406.57142761775424,846.2,409.0714133126395,406.57142761775424,956.2,409.0714133126395,406.57142761775424,1056.5,409.0714133126395,406.57142761775424,1161.9,409.0714133126395,406.57142761775424,1265.9,409.0714133126395,406.57142761775424,1365.9,409.0714133126395,406.57142761775424,1468.4,409.0714133126395,406.57142761775424,1581.2,409.0714133126395,406.57142761775424,1682.9,409.0714133126395,406.57142761775424,1794.3,409.0714133126395,406.57142761775424,1896.7,409.0714133126395,406.57142761775424,1996.9,409.0714133126395,406.57142761775424,2117.1,409.0714133126395,406.57142761775424,2220.3,409.0714133126395,406.57142761775424,2323.5,409.0714133126395,406.57142761775424,2428.3,409.0714133126395,406.57142761775424,2531.4,409.0714133126395,406.57142761775424,2631.9,409.0714133126395,406.57142761775424,2740.8,409.0714133126395,406.57142761775424,2848.3,409.0714133126395,406.57142761775424,2951.6,409.0714133126395,406.57142761775424,3055.6,409.0714133126395,406.57142761775424,3162.8,409.0714133126395,406.57142761775424,3269.9,409.0714133126395,406.57142761775424,3381.6,409.0714133126395,406.57142761775424,3481.7,409.0714133126395,406.57142761775424,3582,409.0714133126395,406.57142761775424,3688.9,409.0714133126395,406.57142761775424,3797.8,409.0714133126395,406.57142761775424,3900.8,409.0714133126395,406.57142761775424,4011.1,409.0714133126395,406.57142761775424,4115.2,409.0714133126395,406.57142761775424,4216.7,409.0714133126395,406.57142761775424,4332.6,409.0714133126395,406.57142761775424,4433.2,409.0714133126395,406.57142761775424,4537.3,409.0714133126395,406.57142761775424,4654.5,409.0714133126395,406.57142761775424,4756.5,409.0714133126395,406.57142761775424,4857.1,409.0714133126395,406.57142761775424,4962.4]","[1454.4,1454.4,1000,0,454.4,""oops"",""right"",""left"",""bad_move"",4090.7,2635.7,2287,1455.1,348.6,""smooth"",""down"",""down"",""good_move"",11029.5,6938.4,2939,7742.7,347.8,""oops"",""down"",""down"",""good_move"",16855.4,5825.6,2443.8,14049.4,362.2,""smooth"",""right"",""right"",""good_move"",20001.2,3145.3,2756.1,16855.9,389.2,""oops"",""right"",""right"",""good_move"",23266.2,3264.5,2438.5,20001.7,826,""smooth"",""right"",""right"",""good_move"",26388.3,3121.9,2777.9,23266.4,344,""oops"",""right"",""up"",""bad_move"",29984.7,3595.8,3248.6,26388.9,347.2,""oops"",""right"",""up"",""bad_move"",30709.8,724.8,3347.3,29985,-2622.5,""error"",""-"",""-"",""no_move"",34834.4,4124.1,2724.6,31715,394.8,""smooth"",""right"",""right"",""good_move"",37214.4,2379.6,2030,34834.9,349.6,""smooth"",""down"",""down"",""good_move"",40117.7,2902.5,2539.3,37215.2,363.2,""smooth"",""down"",""down"",""good_move"",43587.9,3470,3089.9,40118,380.2,""smooth"",""down"",""down"",""good_move""]"
"2800","","<div style=""width:500px;"">
  <p>What determined the result of this run?</p>
  </div>","100","html-slider-response","39","584902","0.0-7.0-1.5","188","1","2025-08-06 11:26:21","36c45c0696341be0efffe67d72a12abb","37.228.232.48","Mozilla/5.0 (Windows NT 10.0; Win64; x64) AppleWebKit/537.36 (KHTML, like Gecko) Chrome/138.0.0.0 Safari/537.36","WebKit","Chrome","138.0.0.0","Windows","10.0","https://app.prolific.com/","en-IE,en-US;q=0.9,en;q=0.8","60cd16e63d3924958e8d3d43","687a1a965b9f5b85a264363e","68933ba46171a6ec624b05c3","1","60cd16e63d3924958e8d3d43","1","2025-08-06T11:36:23.636Z","","","","AttribQ","","","","","","","","","","","50","","","","","","","","","","","","","","","","","","","","","","","","","","",""
"3482","","<div style=""width:500px;"">
  <p>How much control did you have over the ball?</p>
  </div>","89","html-slider-response","40","588387","0.0-7.0-2.5","188","1","2025-08-06 11:26:21","36c45c0696341be0efffe67d72a12abb","37.228.232.48","Mozilla/5.0 (Windows NT 10.0; Win64; x64) AppleWebKit/537.36 (KHTML, like Gecko) Chrome/138.0.0.0 Safari/537.36","WebKit","Chrome","138.0.0.0","Windows","10.0","https://app.prolific.com/","en-IE,en-US;q=0.9,en;q=0.8","60cd16e63d3924958e8d3d43","687a1a965b9f5b85a264363e","68933ba46171a6ec624b05c3","1","60cd16e63d3924958e8d3d43","1","2025-08-06T11:36:27.121Z","","","","ControlQ","","","","","","","","","","","50","","","","","","","","","","","","","","","","","","","","","","","","","","",""
"2751","","<div style=""width:500px;"">
  <p>How would you describe your current emotional state?</p>
  </div>","10","html-slider-response","41","591141","0.0-7.0-3.5","188","1","2025-08-06 11:26:21","36c45c0696341be0efffe67d72a12abb","37.228.232.48","Mozilla/5.0 (Windows NT 10.0; Win64; x64) AppleWebKit/537.36 (KHTML, like Gecko) Chrome/138.0.0.0 Safari/537.36","WebKit","Chrome","138.0.0.0","Windows","10.0","https://app.prolific.com/","en-IE,en-US;q=0.9,en;q=0.8","60cd16e63d3924958e8d3d43","687a1a965b9f5b85a264363e","68933ba46171a6ec624b05c3","1","60cd16e63d3924958e8d3d43","1","2025-08-06T11:36:29.876Z","","","","StressQ","","","","","","","","","","","50","","","","","","","","","","","","","","","","","","","","","","","","","","",""
"3255","","<div style=""width:500px;"">
  <p>What best describes how you currently feel?</p>
  </div>","93","html-slider-response","42","594402","0.0-7.0-4.5","188","1","2025-08-06 11:26:21","36c45c0696341be0efffe67d72a12abb","37.228.232.48","Mozilla/5.0 (Windows NT 10.0; Win64; x64) AppleWebKit/537.36 (KHTML, like Gecko) Chrome/138.0.0.0 Safari/537.36","WebKit","Chrome","138.0.0.0","Windows","10.0","https://app.prolific.com/","en-IE,en-US;q=0.9,en;q=0.8","60cd16e63d3924958e8d3d43","687a1a965b9f5b85a264363e","68933ba46171a6ec624b05c3","1","60cd16e63d3924958e8d3d43","1","2025-08-06T11:36:33.136Z","","","","MotivationQ","","","","","","","","","","","50","","","","","","","","","","","","","","","","","","","","","","","","","","",""
"","","","","ctl-task-cpt","43","614627","0.0-7.0-0.6","188","1","2025-08-06 11:26:21","36c45c0696341be0efffe67d72a12abb","37.228.232.48","Mozilla/5.0 (Windows NT 10.0; Win64; x64) AppleWebKit/537.36 (KHTML, like Gecko) Chrome/138.0.0.0 Safari/537.36","WebKit","Chrome","138.0.0.0","Windows","10.0","https://app.prolific.com/","en-IE,en-US;q=0.9,en;q=0.8","60cd16e63d3924958e8d3d43","687a1a965b9f5b85a264363e","68933ba46171a6ec624b05c3","1","60cd16e63d3924958e8d3d43","1","2025-08-06T11:36:53.361Z","","","","","","","","","","","","","","","","win-only","2","g1:SE,g2:NW","0.4","7","0","597898.1","1320.9","6338.5","17198.6","1","4","4","6","1","1","1","12","11","0.09090909090909091","5017.6","3000","2310","[""down"",""right""]","{""num_key_presses"":4,""num_perfect"":3,""num_errors"":0,""num_randdir"":1,""num_randdir_good_moves"":1,""num_whilered"":0,""num_whileblue"":0,""num_blue"":0,""num_good_moves"":4}","[411.5714133126395,420.32142761775424,0.6,411.5714133126395,420.32142761775424,100.6,411.5714133126395,420.32142761775424,203.7,411.5714133126395,420.32142761775424,304.3,411.5714133126395,420.32142761775424,404.7,411.5714133126395,420.32142761775424,504.9,411.5714133126395,420.32142761775424,611.7,411.5714133126395,420.32142761775424,714.9,411.5714133126395,420.32142761775424,828.1,411.5714133126395,420.32142761775424,937.8,411.5714133126395,420.32142761775424,1048.4,411.5714133126395,420.32142761775424,1156.6,411.5714133126395,420.32142761775424,1258.8,411.5714133126395,420.32142761775424,1371.1,411.5714133126395,420.32142761775424,1481.9,411.5714133126395,420.32142761775424,1582.8,411.5714133126395,420.32142761775424,1685.6,411.5714133126395,420.32142761775424,1791.9,411.5714133126395,420.32142761775424,1895.5,411.5714133126395,420.32142761775424,2006.6,411.5714133126395,420.32142761775424,2113.5,411.5714133126395,420.32142761775424,2223.8,411.5714133126395,420.32142761775424,2323.8,411.5714133126395,420.32142761775424,2427.5,411.5714133126395,420.32142761775424,2533.2,411.5714133126395,420.32142761775424,2634.7,411.5714133126395,420.32142761775424,2752,411.5714133126395,420.32142761775424,2858.2,411.5714133126395,420.32142761775424,2959.1,411.5714133126395,420.32142761775424,3065,411.5714133126395,420.32142761775424,3172.3,411.5714133126395,420.32142761775424,3274.8,411.5714133126395,420.32142761775424,3377.4,411.5714133126395,420.32142761775424,3485.2,411.5714133126395,420.32142761775424,3588.8,411.5714133126395,420.32142761775424,3699.1,411.5714133126395,420.32142761775424,3804.2,411.5714133126395,420.32142761775424,3907.4,411.5714133126395,420.32142761775424,4022.5,411.5714133126395,420.32142761775424,4123.1,411.5714133126395,420.32142761775424,4228.3,411.5714133126395,420.32142761775424,4336.4,411.5714133126395,420.32142761775424,4440.6,411.5714133126395,420.32142761775424,4554.5,411.5714133126395,420.32142761775424,4664.4,411.5714133126395,420.32142761775424,4768.9,411.5714133126395,420.32142761775424,4872.7,411.5714133126395,420.32142761775424,4982.4]","[1429.1,1429.1,1000,0,429.1,""smooth"",""right"",""right"",""good_move"",4991.2,3560.6,3222.9,1430.6,337.7,""smooth"",""down"",""down"",""good_move"",7413.5,2417.8,2048.2,4995.7,369.6,""oops"",""right"",""right"",""good_move"",10712.5,3298.7,2990.2,7413.8,308.5,""smooth"",""down"",""down"",""good_move""]"
"2679","","<div style=""width:500px;"">
  <p>What determined the result of this run?</p>
  </div>","100","html-slider-response","44","617307","0.0-7.0-1.6","188","1","2025-08-06 11:26:21","36c45c0696341be0efffe67d72a12abb","37.228.232.48","Mozilla/5.0 (Windows NT 10.0; Win64; x64) AppleWebKit/537.36 (KHTML, like Gecko) Chrome/138.0.0.0 Safari/537.36","WebKit","Chrome","138.0.0.0","Windows","10.0","https://app.prolific.com/","en-IE,en-US;q=0.9,en;q=0.8","60cd16e63d3924958e8d3d43","687a1a965b9f5b85a264363e","68933ba46171a6ec624b05c3","1","60cd16e63d3924958e8d3d43","1","2025-08-06T11:36:56.042Z","","","","AttribQ","","","","","","","","","","","50","","","","","","","","","","","","","","","","","","","","","","","","","","",""
"2496","","<div style=""width:500px;"">
  <p>How much control did you have over the ball?</p>
  </div>","100","html-slider-response","45","619807","0.0-7.0-2.6","188","1","2025-08-06 11:26:21","36c45c0696341be0efffe67d72a12abb","37.228.232.48","Mozilla/5.0 (Windows NT 10.0; Win64; x64) AppleWebKit/537.36 (KHTML, like Gecko) Chrome/138.0.0.0 Safari/537.36","WebKit","Chrome","138.0.0.0","Windows","10.0","https://app.prolific.com/","en-IE,en-US;q=0.9,en;q=0.8","60cd16e63d3924958e8d3d43","687a1a965b9f5b85a264363e","68933ba46171a6ec624b05c3","1","60cd16e63d3924958e8d3d43","1","2025-08-06T11:36:58.541Z","","","","ControlQ","","","","","","","","","","","50","","","","","","","","","","","","","","","","","","","","","","","","","","",""
"4069","","<div style=""width:500px;"">
  <p>How would you describe your current emotional state?</p>
  </div>","22","html-slider-response","46","623879","0.0-7.0-3.6","188","1","2025-08-06 11:26:21","36c45c0696341be0efffe67d72a12abb","37.228.232.48","Mozilla/5.0 (Windows NT 10.0; Win64; x64) AppleWebKit/537.36 (KHTML, like Gecko) Chrome/138.0.0.0 Safari/537.36","WebKit","Chrome","138.0.0.0","Windows","10.0","https://app.prolific.com/","en-IE,en-US;q=0.9,en;q=0.8","60cd16e63d3924958e8d3d43","687a1a965b9f5b85a264363e","68933ba46171a6ec624b05c3","1","60cd16e63d3924958e8d3d43","1","2025-08-06T11:37:02.614Z","","","","StressQ","","","","","","","","","","","50","","","","","","","","","","","","","","","","","","","","","","","","","","",""
"2925","","<div style=""width:500px;"">
  <p>What best describes how you currently feel?</p>
  </div>","100","html-slider-response","47","626812","0.0-7.0-4.6","188","1","2025-08-06 11:26:21","36c45c0696341be0efffe67d72a12abb","37.228.232.48","Mozilla/5.0 (Windows NT 10.0; Win64; x64) AppleWebKit/537.36 (KHTML, like Gecko) Chrome/138.0.0.0 Safari/537.36","WebKit","Chrome","138.0.0.0","Windows","10.0","https://app.prolific.com/","en-IE,en-US;q=0.9,en;q=0.8","60cd16e63d3924958e8d3d43","687a1a965b9f5b85a264363e","68933ba46171a6ec624b05c3","1","60cd16e63d3924958e8d3d43","1","2025-08-06T11:37:05.547Z","","","","MotivationQ","","","","","","","","","","","50","","","","","","","","","","","","","","","","","","","","","","","","","","",""
"","","","","ctl-task-cpt","48","702493","0.0-7.0-0.7","188","1","2025-08-06 11:26:21","36c45c0696341be0efffe67d72a12abb","37.228.232.48","Mozilla/5.0 (Windows NT 10.0; Win64; x64) AppleWebKit/537.36 (KHTML, like Gecko) Chrome/138.0.0.0 Safari/537.36","WebKit","Chrome","138.0.0.0","Windows","10.0","https://app.prolific.com/","en-IE,en-US;q=0.9,en;q=0.8","60cd16e63d3924958e8d3d43","687a1a965b9f5b85a264363e","68933ba46171a6ec624b05c3","1","60cd16e63d3924958e8d3d43","1","2025-08-06T11:38:21.227Z","","","","","","","","","","","","","","","","win-only","0","g1:NW,g2:SE","0.3","8","0","630312.9","1493.9","6502.6","72646.3","1","4","8","6","1","-1","-4","8","12","0.06060606060606061","5008.7","3000","-1610","[""left"",""up""]","{""num_key_presses"":17,""num_perfect"":3,""num_errors"":3,""num_randdir"":11,""num_randdir_good_moves"":6,""num_whilered"":0,""num_whileblue"":2,""num_blue"":7,""num_good_moves"":9}","[416.5714133126395,426.57142761775424,0.4,416.5714133126395,426.57142761775424,103.1,416.5714133126395,426.57142761775424,203.9,416.5714133126395,426.57142761775424,319.1,416.5714133126395,426.57142761775424,422.1,416.5714133126395,426.57142761775424,535.6,416.5714133126395,426.57142761775424,646.1,416.5714133126395,426.57142761775424,752.6,416.5714133126395,426.57142761775424,855.5,416.5714133126395,426.57142761775424,963.2,416.5714133126395,426.57142761775424,1072.5,416.5714133126395,426.57142761775424,1180.3,416.5714133126395,426.57142761775424,1289.7,416.5714133126395,426.57142761775424,1391.2,416.5714133126395,426.57142761775424,1493,416.5714133126395,426.57142761775424,1606.5,416.5714133126395,426.57142761775424,1718.8,416.5714133126395,426.57142761775424,1825.9,416.5714133126395,426.57142761775424,1927.7,416.5714133126395,426.57142761775424,2030.8,416.5714133126395,426.57142761775424,2142.9,416.5714133126395,426.57142761775424,2250.8,416.5714133126395,426.57142761775424,2351.3,416.5714133126395,426.57142761775424,2461,416.5714133126395,426.57142761775424,2576.5,416.5714133126395,426.57142761775424,2681,416.5714133126395,426.57142761775424,2784,416.5714133126395,426.57142761775424,2887.8,416.5714133126395,426.57142761775424,3003.2,416.5714133126395,426.57142761775424,3109.2,416.5714133126395,426.57142761775424,3215.9,416.5714133126395,426.57142761775424,3320.8,416.5714133126395,426.57142761775424,3431,416.5714133126395,426.57142761775424,3540.2,416.5714133126395,426.57142761775424,3648.4,416.5714133126395,426.57142761775424,3753.3,416.5714133126395,426.57142761775424,3860.1,416.5714133126395,426.57142761775424,3968.6,416.5714133126395,426.57142761775424,4071,416.5714133126395,426.57142761775424,4182.4,416.5714133126395,426.57142761775424,4295.9,416.5714133126395,426.57142761775424,4404.4,416.5714133126395,426.57142761775424,4505.7,416.5714133126395,426.57142761775424,4607,416.5714133126395,426.57142761775424,4721.5,416.5714133126395,426.57142761775424,4823.1,416.5714133126395,426.57142761775424,4925.7]","[1853.5,1853.5,1000,0,853.5,""smooth"",""up"",""up"",""good_move"",5234.3,3380.2,2046.4,1854.1,1333.8,""oops"",""left"",""right"",""bad_move"",8324.1,3089.3,2794.6,5234.8,294.7,""oops"",""left"",""down"",""bad_move"",11052.4,2727.4,2441.3,8325.1,286,""smooth"",""left"",""left"",""good_move"",13651.7,2598.7,1729.3,11053,869.4,""oops"",""left"",""left"",""good_move"",16881.5,3229.3,2945.5,13652.3,283.7,""while_blue"",""up"",""right"",""bad_move"",17649.6,767.5,2943.5,16882.1,-2176,""error"",""-"",""-"",""no_move"",26278.1,8628.3,2879.6,22956,442.5,""oops"",""left"",""up"",""good_move"",28932.6,2653.9,2168,26278.8,485.9,""oops"",""left"",""left"",""good_move"",31400,2466.5,2194,28933.5,272.5,""while_blue"",""left"",""right"",""bad_move"",33434.7,2034.2,1358.9,31400.7,675.2,""oops"",""left"",""up"",""good_move"",36402.2,2967,2516.3,33435.2,450.7,""smooth"",""left"",""left"",""good_move"",45754.1,9349.7,2214.8,43089.5,449.9,""oops"",""left"",""down"",""bad_move"",48156.7,2402.1,1880.7,45754.6,521.4,""oops"",""left"",""up"",""good_move"",51845.9,3688.9,3290.8,48157,398.1,""oops"",""left"",""down"",""bad_move"",57788.1,5941.9,2089,55306.9,392.3,""oops"",""left"",""down"",""bad_move"",60341.2,2552.1,2154.4,57789.1,397.8,""oops"",""left"",""left"",""good_move""]"
"4794","","<div style=""width:500px;"">
  <p>What determined the result of this run?</p>
  </div>","100","html-slider-response","49","707289","0.0-7.0-1.7","188","1","2025-08-06 11:26:21","36c45c0696341be0efffe67d72a12abb","37.228.232.48","Mozilla/5.0 (Windows NT 10.0; Win64; x64) AppleWebKit/537.36 (KHTML, like Gecko) Chrome/138.0.0.0 Safari/537.36","WebKit","Chrome","138.0.0.0","Windows","10.0","https://app.prolific.com/","en-IE,en-US;q=0.9,en;q=0.8","60cd16e63d3924958e8d3d43","687a1a965b9f5b85a264363e","68933ba46171a6ec624b05c3","1","60cd16e63d3924958e8d3d43","1","2025-08-06T11:38:26.024Z","","","","AttribQ","","","","","","","","","","","50","","","","","","","","","","","","","","","","","","","","","","","","","","",""
"2751","","<div style=""width:500px;"">
  <p>How much control did you have over the ball?</p>
  </div>","83","html-slider-response","50","710043","0.0-7.0-2.7","188","1","2025-08-06 11:26:21","36c45c0696341be0efffe67d72a12abb","37.228.232.48","Mozilla/5.0 (Windows NT 10.0; Win64; x64) AppleWebKit/537.36 (KHTML, like Gecko) Chrome/138.0.0.0 Safari/537.36","WebKit","Chrome","138.0.0.0","Windows","10.0","https://app.prolific.com/","en-IE,en-US;q=0.9,en;q=0.8","60cd16e63d3924958e8d3d43","687a1a965b9f5b85a264363e","68933ba46171a6ec624b05c3","1","60cd16e63d3924958e8d3d43","1","2025-08-06T11:38:28.777Z","","","","ControlQ","","","","","","","","","","","50","","","","","","","","","","","","","","","","","","","","","","","","","","",""
"3109","","<div style=""width:500px;"">
  <p>How would you describe your current emotional state?</p>
  </div>","78","html-slider-response","51","713155","0.0-7.0-3.7","188","1","2025-08-06 11:26:21","36c45c0696341be0efffe67d72a12abb","37.228.232.48","Mozilla/5.0 (Windows NT 10.0; Win64; x64) AppleWebKit/537.36 (KHTML, like Gecko) Chrome/138.0.0.0 Safari/537.36","WebKit","Chrome","138.0.0.0","Windows","10.0","https://app.prolific.com/","en-IE,en-US;q=0.9,en;q=0.8","60cd16e63d3924958e8d3d43","687a1a965b9f5b85a264363e","68933ba46171a6ec624b05c3","1","60cd16e63d3924958e8d3d43","1","2025-08-06T11:38:31.890Z","","","","StressQ","","","","","","","","","","","50","","","","","","","","","","","","","","","","","","","","","","","","","","",""
"3577","","<div style=""width:500px;"">
  <p>What best describes how you currently feel?</p>
  </div>","23","html-slider-response","52","716735","0.0-7.0-4.7","188","1","2025-08-06 11:26:21","36c45c0696341be0efffe67d72a12abb","37.228.232.48","Mozilla/5.0 (Windows NT 10.0; Win64; x64) AppleWebKit/537.36 (KHTML, like Gecko) Chrome/138.0.0.0 Safari/537.36","WebKit","Chrome","138.0.0.0","Windows","10.0","https://app.prolific.com/","en-IE,en-US;q=0.9,en;q=0.8","60cd16e63d3924958e8d3d43","687a1a965b9f5b85a264363e","68933ba46171a6ec624b05c3","1","60cd16e63d3924958e8d3d43","1","2025-08-06T11:38:35.469Z","","","","MotivationQ","","","","","","","","","","","50","","","","","","","","","","","","","","","","","","","","","","","","","","",""
"","","","","ctl-task-cpt","53","768554","0.0-7.0-0.8","188","1","2025-08-06 11:26:21","36c45c0696341be0efffe67d72a12abb","37.228.232.48","Mozilla/5.0 (Windows NT 10.0; Win64; x64) AppleWebKit/537.36 (KHTML, like Gecko) Chrome/138.0.0.0 Safari/537.36","WebKit","Chrome","138.0.0.0","Windows","10.0","https://app.prolific.com/","en-IE,en-US;q=0.9,en;q=0.8","60cd16e63d3924958e8d3d43","687a1a965b9f5b85a264363e","68933ba46171a6ec624b05c3","1","60cd16e63d3924958e8d3d43","1","2025-08-06T11:39:27.288Z","","","","","","","","","","","","","","","","win-only","1","g1:NE,g2:SW","0.4","9","0","720233.4","1240.9","6249.2","48795.3","1","4","8","6","1","1","1","9","8","0.06818181818181818","5008.2","3000","980","[""up"",""right""]","{""num_key_presses"":12,""num_perfect"":6,""num_errors"":0,""num_randdir"":6,""num_randdir_good_moves"":2,""num_whilered"":0,""num_whileblue"":0,""num_blue"":3,""num_good_moves"":8}","[422.8214133126395,425.32142761775424,0.3,422.8214133126395,425.32142761775424,102.6,422.8214133126395,425.32142761775424,211.5,422.8214133126395,425.32142761775424,314.9,422.8214133126395,425.32142761775424,426.2,422.8214133126395,425.32142761775424,535.7,422.8214133126395,425.32142761775424,644.3,422.8214133126395,425.32142761775424,749.7,422.8214133126395,425.32142761775424,858.5,422.8214133126395,425.32142761775424,965,422.8214133126395,425.32142761775424,1067.3,422.8214133126395,425.32142761775424,1168.4,422.8214133126395,425.32142761775424,1275,422.8214133126395,425.32142761775424,1375.5,422.8214133126395,425.32142761775424,1477.5,422.8214133126395,425.32142761775424,1584.8,422.8214133126395,425.32142761775424,1684.9,422.8214133126395,425.32142761775424,1786,422.8214133126395,425.32142761775424,1888.6,422.8214133126395,425.32142761775424,2000.9,422.8214133126395,425.32142761775424,2113.6,422.8214133126395,425.32142761775424,2225.2,422.8214133126395,425.32142761775424,2327.5,422.8214133126395,425.32142761775424,2431.7,422.8214133126395,425.32142761775424,2541.4,422.8214133126395,425.32142761775424,2644.8,422.8214133126395,425.32142761775424,2750.3,422.8214133126395,425.32142761775424,2854.1,422.8214133126395,425.32142761775424,2954.8,422.8214133126395,425.32142761775424,3060.9,422.8214133126395,425.32142761775424,3163.3,422.8214133126395,425.32142761775424,3269.9,422.8214133126395,425.32142761775424,3379.1,422.8214133126395,425.32142761775424,3486.6,422.8214133126395,425.32142761775424,3587.9,422.8214133126395,425.32142761775424,3703.9,422.8214133126395,425.32142761775424,3809.7,422.8214133126395,425.32142761775424,3910.7,422.8214133126395,425.32142761775424,4012.1,422.8214133126395,425.32142761775424,4112.1,422.8214133126395,425.32142761775424,4214.8,422.8214133126395,425.32142761775424,4317.3,422.8214133126395,425.32142761775424,4421.4,422.8214133126395,425.32142761775424,4522,422.8214133126395,425.32142761775424,4630.9,422.8214133126395,425.32142761775424,4732.2,422.8214133126395,425.32142761775424,4844.2,422.8214133126395,425.32142761775424,4950.3]","[1522.6,1522.6,1000,0,522.6,""smooth"",""right"",""right"",""good_move"",4754.6,3231.7,2898.6,1523.1,333,""oops"",""right"",""left"",""bad_move"",8241.6,3486.5,3110.5,4755.2,375.9,""oops"",""up"",""up"",""good_move"",14494.5,6252.1,2387.4,11747.8,359.3,""oops"",""right"",""right"",""good_move"",17212.6,2717.8,2324.2,14494.9,393.6,""smooth"",""right"",""right"",""good_move"",19672.8,2457.2,2111.3,17215.6,345.9,""oops"",""up"",""down"",""bad_move"",25818.8,6145.6,1744.5,23654.5,419.9,""smooth"",""up"",""up"",""good_move"",28705,2885.6,2578.8,25819.4,306.8,""oops"",""up"",""down"",""bad_move"",31025,2319.7,1737.7,28705.5,581.9,""smooth"",""up"",""up"",""good_move"",33722.4,2695.9,2321.4,31026.5,374.5,""oops"",""up"",""left"",""bad_move"",36367.1,2644.2,2274.4,33723,369.8,""smooth"",""right"",""right"",""good_move"",42262.9,5892.7,2635.9,39306.7,320.3,""smooth"",""up"",""up"",""good_move""]"
"3018","","<div style=""width:500px;"">
  <p>What determined the result of this run?</p>
  </div>","98","html-slider-response","54","771573","0.0-7.0-1.8","188","1","2025-08-06 11:26:21","36c45c0696341be0efffe67d72a12abb","37.228.232.48","Mozilla/5.0 (Windows NT 10.0; Win64; x64) AppleWebKit/537.36 (KHTML, like Gecko) Chrome/138.0.0.0 Safari/537.36","WebKit","Chrome","138.0.0.0","Windows","10.0","https://app.prolific.com/","en-IE,en-US;q=0.9,en;q=0.8","60cd16e63d3924958e8d3d43","687a1a965b9f5b85a264363e","68933ba46171a6ec624b05c3","1","60cd16e63d3924958e8d3d43","1","2025-08-06T11:39:30.308Z","","","","AttribQ","","","","","","","","","","","50","","","","","","","","","","","","","","","","","","","","","","","","","","",""
"3352","","<div style=""width:500px;"">
  <p>How much control did you have over the ball?</p>
  </div>","69","html-slider-response","55","774927","0.0-7.0-2.8","188","1","2025-08-06 11:26:21","36c45c0696341be0efffe67d72a12abb","37.228.232.48","Mozilla/5.0 (Windows NT 10.0; Win64; x64) AppleWebKit/537.36 (KHTML, like Gecko) Chrome/138.0.0.0 Safari/537.36","WebKit","Chrome","138.0.0.0","Windows","10.0","https://app.prolific.com/","en-IE,en-US;q=0.9,en;q=0.8","60cd16e63d3924958e8d3d43","687a1a965b9f5b85a264363e","68933ba46171a6ec624b05c3","1","60cd16e63d3924958e8d3d43","1","2025-08-06T11:39:33.661Z","","","","ControlQ","","","","","","","","","","","50","","","","","","","","","","","","","","","","","","","","","","","","","","",""
"3090","","<div style=""width:500px;"">
  <p>How would you describe your current emotional state?</p>
  </div>","74","html-slider-response","56","778023","0.0-7.0-3.8","188","1","2025-08-06 11:26:21","36c45c0696341be0efffe67d72a12abb","37.228.232.48","Mozilla/5.0 (Windows NT 10.0; Win64; x64) AppleWebKit/537.36 (KHTML, like Gecko) Chrome/138.0.0.0 Safari/537.36","WebKit","Chrome","138.0.0.0","Windows","10.0","https://app.prolific.com/","en-IE,en-US;q=0.9,en;q=0.8","60cd16e63d3924958e8d3d43","687a1a965b9f5b85a264363e","68933ba46171a6ec624b05c3","1","60cd16e63d3924958e8d3d43","1","2025-08-06T11:39:36.758Z","","","","StressQ","","","","","","","","","","","50","","","","","","","","","","","","","","","","","","","","","","","","","","",""
"2815","","<div style=""width:500px;"">
  <p>What best describes how you currently feel?</p>
  </div>","68","html-slider-response","57","780841","0.0-7.0-4.8","188","1","2025-08-06 11:26:21","36c45c0696341be0efffe67d72a12abb","37.228.232.48","Mozilla/5.0 (Windows NT 10.0; Win64; x64) AppleWebKit/537.36 (KHTML, like Gecko) Chrome/138.0.0.0 Safari/537.36","WebKit","Chrome","138.0.0.0","Windows","10.0","https://app.prolific.com/","en-IE,en-US;q=0.9,en;q=0.8","60cd16e63d3924958e8d3d43","687a1a965b9f5b85a264363e","68933ba46171a6ec624b05c3","1","60cd16e63d3924958e8d3d43","1","2025-08-06T11:39:39.576Z","","","","MotivationQ","","","","","","","","","","","50","","","","","","","","","","","","","","","","","","","","","","","","","","",""
"","","","","ctl-task-cpt","58","861805","0.0-7.0-0.9","188","1","2025-08-06 11:26:21","36c45c0696341be0efffe67d72a12abb","37.228.232.48","Mozilla/5.0 (Windows NT 10.0; Win64; x64) AppleWebKit/537.36 (KHTML, like Gecko) Chrome/138.0.0.0 Safari/537.36","WebKit","Chrome","138.0.0.0","Windows","10.0","https://app.prolific.com/","en-IE,en-US;q=0.9,en;q=0.8","60cd16e63d3924958e8d3d43","687a1a965b9f5b85a264363e","68933ba46171a6ec624b05c3","1","60cd16e63d3924958e8d3d43","1","2025-08-06T11:41:00.540Z","","","","","","","","","","","","","","","","win-only","1","g1:NE,g2:SW","0.5","10","0","784341.2","1252.5","6259.2","77924.3","1","4","4","6","2","4","3","12","9","0.09090909090909091","5006.7","3000","1140","[""down"",""left""]","{""num_key_presses"":15,""num_perfect"":7,""num_errors"":1,""num_randdir"":7,""num_randdir_good_moves"":3,""num_whilered"":0,""num_whileblue"":0,""num_blue"":7,""num_good_moves"":10}","[410.3214133126395,414.07142761775424,0.7,410.3214133126395,414.07142761775424,103.4,410.3214133126395,414.07142761775424,216.3,410.3214133126395,414.07142761775424,318.4,410.3214133126395,414.07142761775424,419.1,410.3214133126395,414.07142761775424,524.9,410.3214133126395,414.07142761775424,632.2,410.3214133126395,414.07142761775424,732.9,410.3214133126395,414.07142761775424,839.3,410.3214133126395,414.07142761775424,939.7,410.3214133126395,414.07142761775424,1049.5,410.3214133126395,414.07142761775424,1151.6,410.3214133126395,414.07142761775424,1259.9,410.3214133126395,414.07142761775424,1366.8,410.3214133126395,414.07142761775424,1481.5,410.3214133126395,414.07142761775424,1596.2,410.3214133126395,414.07142761775424,1698.9,410.3214133126395,414.07142761775424,1799.5,410.3214133126395,414.07142761775424,1905.3,410.3214133126395,414.07142761775424,2006.3,410.3214133126395,414.07142761775424,2115.9,410.3214133126395,414.07142761775424,2219.3,410.3214133126395,414.07142761775424,2337.7,410.3214133126395,414.07142761775424,2441.9,410.3214133126395,414.07142761775424,2547.3,410.3214133126395,414.07142761775424,2649.4,410.3214133126395,414.07142761775424,2750.9,410.3214133126395,414.07142761775424,2862.6,410.3214133126395,414.07142761775424,2971.9,410.3214133126395,414.07142761775424,3082.3,410.3214133126395,414.07142761775424,3186.5,410.3214133126395,414.07142761775424,3300.1,410.3214133126395,414.07142761775424,3402.3,410.3214133126395,414.07142761775424,3503,410.3214133126395,414.07142761775424,3616.5,410.3214133126395,414.07142761775424,3732.3,410.3214133126395,414.07142761775424,3835.3,410.3214133126395,414.07142761775424,3942.4,410.3214133126395,414.07142761775424,4046.6,410.3214133126395,414.07142761775424,4160.7,410.3214133126395,414.07142761775424,4274.1,410.3214133126395,414.07142761775424,4388,410.3214133126395,414.07142761775424,4499.1,410.3214133126395,414.07142761775424,4606.1,410.3214133126395,414.07142761775424,4713.3,410.3214133126395,414.07142761775424,4815.4,410.3214133126395,414.07142761775424,4924]","[5579.1,5579.1,3144.5,2011.4,423.2,""smooth"",""down"",""down"",""good_move"",8522,2942.3,2506.2,5579.8,436.1,""smooth"",""down"",""down"",""good_move"",11809.6,3287,2921.9,8522.6,365.1,""oops"",""down"",""down"",""good_move"",18756,6945.6,2588.2,15713.7,454.1,""smooth"",""left"",""left"",""good_move"",21672.4,2915.8,2520.4,18756.6,395.5,""oops"",""left"",""up"",""bad_move"",28521.2,6848.4,2941.6,25168.8,410.8,""oops"",""left"",""right"",""bad_move"",30186.4,1664.5,2553.1,28521.9,-888.6,""error"",""-"",""-"",""no_move"",36880.6,6693.9,2609.5,33858.5,412.6,""smooth"",""left"",""left"",""good_move"",39804.1,2922.2,2154.3,36882,767.8,""oops"",""left"",""down"",""good_move"",49157.5,9352.5,2049,46707,401.5,""oops"",""left"",""up"",""bad_move"",52987.9,3829.5,2339.8,49158.4,1489.7,""smooth"",""left"",""left"",""good_move"",57729.4,4740.8,2404.4,52988.6,2336.4,""smooth"",""left"",""left"",""good_move"",61792.6,4062.2,2958.7,57730.5,1103.5,""oops"",""down"",""up"",""bad_move"",64605.6,2812.4,2406.1,61793.2,406.3,""oops"",""down"",""down"",""good_move"",71424.1,6817.4,2891.2,68151.1,381.9,""smooth"",""down"",""down"",""good_move""]"
"3474","","<div style=""width:500px;"">
  <p>What determined the result of this run?</p>
  </div>","100","html-slider-response","59","865282","0.0-7.0-1.9","188","1","2025-08-06 11:26:21","36c45c0696341be0efffe67d72a12abb","37.228.232.48","Mozilla/5.0 (Windows NT 10.0; Win64; x64) AppleWebKit/537.36 (KHTML, like Gecko) Chrome/138.0.0.0 Safari/537.36","WebKit","Chrome","138.0.0.0","Windows","10.0","https://app.prolific.com/","en-IE,en-US;q=0.9,en;q=0.8","60cd16e63d3924958e8d3d43","687a1a965b9f5b85a264363e","68933ba46171a6ec624b05c3","1","60cd16e63d3924958e8d3d43","1","2025-08-06T11:41:04.016Z","","","","AttribQ","","","","","","","","","","","50","","","","","","","","","","","","","","","","","","","","","","","","","","",""
"4456","","<div style=""width:500px;"">
  <p>How much control did you have over the ball?</p>
  </div>","64","html-slider-response","60","869740","0.0-7.0-2.9","188","1","2025-08-06 11:26:21","36c45c0696341be0efffe67d72a12abb","37.228.232.48","Mozilla/5.0 (Windows NT 10.0; Win64; x64) AppleWebKit/537.36 (KHTML, like Gecko) Chrome/138.0.0.0 Safari/537.36","WebKit","Chrome","138.0.0.0","Windows","10.0","https://app.prolific.com/","en-IE,en-US;q=0.9,en;q=0.8","60cd16e63d3924958e8d3d43","687a1a965b9f5b85a264363e","68933ba46171a6ec624b05c3","1","60cd16e63d3924958e8d3d43","1","2025-08-06T11:41:08.474Z","","","","ControlQ","","","","","","","","","","","50","","","","","","","","","","","","","","","","","","","","","","","","","","",""
"3854","","<div style=""width:500px;"">
  <p>How would you describe your current emotional state?</p>
  </div>","73","html-slider-response","61","873596","0.0-7.0-3.9","188","1","2025-08-06 11:26:21","36c45c0696341be0efffe67d72a12abb","37.228.232.48","Mozilla/5.0 (Windows NT 10.0; Win64; x64) AppleWebKit/537.36 (KHTML, like Gecko) Chrome/138.0.0.0 Safari/537.36","WebKit","Chrome","138.0.0.0","Windows","10.0","https://app.prolific.com/","en-IE,en-US;q=0.9,en;q=0.8","60cd16e63d3924958e8d3d43","687a1a965b9f5b85a264363e","68933ba46171a6ec624b05c3","1","60cd16e63d3924958e8d3d43","1","2025-08-06T11:41:12.331Z","","","","StressQ","","","","","","","","","","","50","","","","","","","","","","","","","","","","","","","","","","","","","","",""
"3548","","<div style=""width:500px;"">
  <p>What best describes how you currently feel?</p>
  </div>","75","html-slider-response","62","877147","0.0-7.0-4.9","188","1","2025-08-06 11:26:21","36c45c0696341be0efffe67d72a12abb","37.228.232.48","Mozilla/5.0 (Windows NT 10.0; Win64; x64) AppleWebKit/537.36 (KHTML, like Gecko) Chrome/138.0.0.0 Safari/537.36","WebKit","Chrome","138.0.0.0","Windows","10.0","https://app.prolific.com/","en-IE,en-US;q=0.9,en;q=0.8","60cd16e63d3924958e8d3d43","687a1a965b9f5b85a264363e","68933ba46171a6ec624b05c3","1","60cd16e63d3924958e8d3d43","1","2025-08-06T11:41:15.881Z","","","","MotivationQ","","","","","","","","","","","50","","","","","","","","","","","","","","","","","","","","","","","","","","",""
"","","","","ctl-task-cpt","63","902014","0.0-7.0-0.10","188","1","2025-08-06 11:26:21","36c45c0696341be0efffe67d72a12abb","37.228.232.48","Mozilla/5.0 (Windows NT 10.0; Win64; x64) AppleWebKit/537.36 (KHTML, like Gecko) Chrome/138.0.0.0 Safari/537.36","WebKit","Chrome","138.0.0.0","Windows","10.0","https://app.prolific.com/","en-IE,en-US;q=0.9,en;q=0.8","60cd16e63d3924958e8d3d43","687a1a965b9f5b85a264363e","68933ba46171a6ec624b05c3","1","60cd16e63d3924958e8d3d43","1","2025-08-06T11:41:40.748Z","","","","","","","","","","","","","","","","win-only","3","g1:SW,g2:NE","0.6","11","0","880644.9","1803.5","6813.7","21833.5","1","4","4","6","1","1","1","13","12","0.09848484848484848","5010.2","3000","2575","[""down"",""left""]","{""num_key_presses"":4,""num_perfect"":3,""num_errors"":0,""num_randdir"":1,""num_randdir_good_moves"":1,""num_whilered"":0,""num_whileblue"":0,""num_blue"":1,""num_good_moves"":4}","[426.5714133126395,415.32142761775424,0.3,426.5714133126395,415.32142761775424,102.4,426.5714133126395,415.32142761775424,216.3,426.5714133126395,415.32142761775424,319,426.5714133126395,415.32142761775424,427.8,426.5714133126395,415.32142761775424,533.4,426.5714133126395,415.32142761775424,645.7,426.5714133126395,415.32142761775424,755.8,426.5714133126395,415.32142761775424,871.8,426.5714133126395,415.32142761775424,973.9,426.5714133126395,415.32142761775424,1076.2,426.5714133126395,415.32142761775424,1191.2,426.5714133126395,415.32142761775424,1301.2,426.5714133126395,415.32142761775424,1409.9,426.5714133126395,415.32142761775424,1516,426.5714133126395,415.32142761775424,1616.3,426.5714133126395,415.32142761775424,1730.2,426.5714133126395,415.32142761775424,1832.9,426.5714133126395,415.32142761775424,1951.3,426.5714133126395,415.32142761775424,2054.2,426.5714133126395,415.32142761775424,2162.6,426.5714133126395,415.32142761775424,2271.3,426.5714133126395,415.32142761775424,2385.8,426.5714133126395,415.32142761775424,2488.3,426.5714133126395,415.32142761775424,2590.8,426.5714133126395,415.32142761775424,2692,426.5714133126395,415.32142761775424,2792.9,426.5714133126395,415.32142761775424,2898.9,426.5714133126395,415.32142761775424,3008.5,426.5714133126395,415.32142761775424,3126.7,426.5714133126395,415.32142761775424,3228.7,426.5714133126395,415.32142761775424,3340.5,426.5714133126395,415.32142761775424,3455.5,426.5714133126395,415.32142761775424,3562,426.5714133126395,415.32142761775424,3666.5,426.5714133126395,415.32142761775424,3772.3,426.5714133126395,415.32142761775424,3875.7,426.5714133126395,415.32142761775424,3987.4,426.5714133126395,415.32142761775424,4104.5,426.5714133126395,415.32142761775424,4209.7,426.5714133126395,415.32142761775424,4311.8,426.5714133126395,415.32142761775424,4414.4,426.5714133126395,415.32142761775424,4524,426.5714133126395,415.32142761775424,4638.7,426.5714133126395,415.32142761775424,4754.1,426.5714133126395,415.32142761775424,4868.3,426.5714133126395,415.32142761775424,4981]","[4147.1,4147.1,1701.6,2024.6,420.9,""smooth"",""down"",""down"",""good_move"",7264.8,3117,2732.2,4147.8,384.8,""smooth"",""left"",""left"",""good_move"",11259.3,3993.9,2706.3,7265.4,1287.6,""oops"",""left"",""down"",""good_move"",14784.9,3525.3,3170.3,11259.6,355,""smooth"",""left"",""left"",""good_move""]"
"3411","","<div style=""width:500px;"">
  <p>What determined the result of this run?</p>
  </div>","86","html-slider-response","64","905428","0.0-7.0-1.10","188","1","2025-08-06 11:26:21","36c45c0696341be0efffe67d72a12abb","37.228.232.48","Mozilla/5.0 (Windows NT 10.0; Win64; x64) AppleWebKit/537.36 (KHTML, like Gecko) Chrome/138.0.0.0 Safari/537.36","WebKit","Chrome","138.0.0.0","Windows","10.0","https://app.prolific.com/","en-IE,en-US;q=0.9,en;q=0.8","60cd16e63d3924958e8d3d43","687a1a965b9f5b85a264363e","68933ba46171a6ec624b05c3","1","60cd16e63d3924958e8d3d43","1","2025-08-06T11:41:44.162Z","","","","AttribQ","","","","","","","","","","","50","","","","","","","","","","","","","","","","","","","","","","","","","","",""
"2610","","<div style=""width:500px;"">
  <p>How much control did you have over the ball?</p>
  </div>","79","html-slider-response","65","908041","0.0-7.0-2.10","188","1","2025-08-06 11:26:21","36c45c0696341be0efffe67d72a12abb","37.228.232.48","Mozilla/5.0 (Windows NT 10.0; Win64; x64) AppleWebKit/537.36 (KHTML, like Gecko) Chrome/138.0.0.0 Safari/537.36","WebKit","Chrome","138.0.0.0","Windows","10.0","https://app.prolific.com/","en-IE,en-US;q=0.9,en;q=0.8","60cd16e63d3924958e8d3d43","687a1a965b9f5b85a264363e","68933ba46171a6ec624b05c3","1","60cd16e63d3924958e8d3d43","1","2025-08-06T11:41:46.775Z","","","","ControlQ","","","","","","","","","","","50","","","","","","","","","","","","","","","","","","","","","","","","","","",""
"2481","","<div style=""width:500px;"">
  <p>How would you describe your current emotional state?</p>
  </div>","30","html-slider-response","66","910529","0.0-7.0-3.10","188","1","2025-08-06 11:26:21","36c45c0696341be0efffe67d72a12abb","37.228.232.48","Mozilla/5.0 (Windows NT 10.0; Win64; x64) AppleWebKit/537.36 (KHTML, like Gecko) Chrome/138.0.0.0 Safari/537.36","WebKit","Chrome","138.0.0.0","Windows","10.0","https://app.prolific.com/","en-IE,en-US;q=0.9,en;q=0.8","60cd16e63d3924958e8d3d43","687a1a965b9f5b85a264363e","68933ba46171a6ec624b05c3","1","60cd16e63d3924958e8d3d43","1","2025-08-06T11:41:49.263Z","","","","StressQ","","","","","","","","","","","50","","","","","","","","","","","","","","","","","","","","","","","","","","",""
"3126","","<div style=""width:500px;"">
  <p>What best describes how you currently feel?</p>
  </div>","75","html-slider-response","67","913658","0.0-7.0-4.10","188","1","2025-08-06 11:26:21","36c45c0696341be0efffe67d72a12abb","37.228.232.48","Mozilla/5.0 (Windows NT 10.0; Win64; x64) AppleWebKit/537.36 (KHTML, like Gecko) Chrome/138.0.0.0 Safari/537.36","WebKit","Chrome","138.0.0.0","Windows","10.0","https://app.prolific.com/","en-IE,en-US;q=0.9,en;q=0.8","60cd16e63d3924958e8d3d43","687a1a965b9f5b85a264363e","68933ba46171a6ec624b05c3","1","60cd16e63d3924958e8d3d43","1","2025-08-06T11:41:52.393Z","","","","MotivationQ","","","","","","","","","","","50","","","","","","","","","","","","","","","","","","","","","","","","","","",""
"","","","","ctl-task-cpt","68","961977","0.0-7.0-0.11","188","1","2025-08-06 11:26:21","36c45c0696341be0efffe67d72a12abb","37.228.232.48","Mozilla/5.0 (Windows NT 10.0; Win64; x64) AppleWebKit/537.36 (KHTML, like Gecko) Chrome/138.0.0.0 Safari/537.36","WebKit","Chrome","138.0.0.0","Windows","10.0","https://app.prolific.com/","en-IE,en-US;q=0.9,en;q=0.8","60cd16e63d3924958e8d3d43","687a1a965b9f5b85a264363e","68933ba46171a6ec624b05c3","1","60cd16e63d3924958e8d3d43","1","2025-08-06T11:42:40.712Z","","","","","","","","","","","","","","","","win-only","0","g1:NW,g2:SE","0.7","12","0","917153.8","1229.2","6239","45296.9","1","4","8","6","2","8","8","21","13","0.1590909090909091","5009.8","3000","1860","[""down"",""right""]","{""num_key_presses"":10,""num_perfect"":7,""num_errors"":0,""num_randdir"":3,""num_randdir_good_moves"":1,""num_whilered"":0,""num_whileblue"":0,""num_blue"":3,""num_good_moves"":8}","[415.3214133126395,417.82142761775424,2.2,415.3214133126395,417.82142761775424,101.6,415.3214133126395,417.82142761775424,214,415.3214133126395,417.82142761775424,321.7,415.3214133126395,417.82142761775424,428.4,415.3214133126395,417.82142761775424,534.6,415.3214133126395,417.82142761775424,642.3,415.3214133126395,417.82142761775424,751.8,415.3214133126395,417.82142761775424,863.8,415.3214133126395,417.82142761775424,970.8,415.3214133126395,417.82142761775424,1082.6,415.3214133126395,417.82142761775424,1185.5,415.3214133126395,417.82142761775424,1290.7,415.3214133126395,417.82142761775424,1409.2,415.3214133126395,417.82142761775424,1517.1,415.3214133126395,417.82142761775424,1617.5,415.3214133126395,417.82142761775424,1726.7,415.3214133126395,417.82142761775424,1839.6,415.3214133126395,417.82142761775424,1943.3,415.3214133126395,417.82142761775424,2062.8,415.3214133126395,417.82142761775424,2167,415.3214133126395,417.82142761775424,2275.6,415.3214133126395,417.82142761775424,2388.7,415.3214133126395,417.82142761775424,2500.6,415.3214133126395,417.82142761775424,2608.5,415.3214133126395,417.82142761775424,2708.9,415.3214133126395,417.82142761775424,2811.3,415.3214133126395,417.82142761775424,2922.8,415.3214133126395,417.82142761775424,3037.6,415.3214133126395,417.82142761775424,3148.4,415.3214133126395,417.82142761775424,3252.8,415.3214133126395,417.82142761775424,3357.1,415.3214133126395,417.82142761775424,3472.2,415.3214133126395,417.82142761775424,3581.3,415.3214133126395,417.82142761775424,3695.8,415.3214133126395,417.82142761775424,3800,415.3214133126395,417.82142761775424,3908.4,415.3214133126395,417.82142761775424,4012,415.3214133126395,417.82142761775424,4117.6,415.3214133126395,417.82142761775424,4226.5,415.3214133126395,417.82142761775424,4330.8,415.3214133126395,417.82142761775424,4434.9,415.3214133126395,417.82142761775424,4543,415.3214133126395,417.82142761775424,4649.7,415.3214133126395,417.82142761775424,4756.5,415.3214133126395,417.82142761775424,4865.3,415.3214133126395,417.82142761775424,4985]","[1519.5,1519.5,1000,0,519.5,""smooth"",""down"",""down"",""good_move"",3666,2145.8,1727.1,1520.2,418.7,""oops"",""right"",""right"",""good_move"",9249.1,5582.4,1922.7,6915.5,411,""oops"",""right"",""up"",""bad_move"",12467.7,3217.5,2551.4,9250.3,666,""smooth"",""down"",""down"",""good_move"",15579.7,3111.2,2720.4,12468.6,390.8,""smooth"",""down"",""down"",""good_move"",18654.3,3073.4,2717.2,15581,356.1,""smooth"",""down"",""down"",""good_move"",25207.4,6552.7,2350.1,22422.5,434.8,""smooth"",""right"",""right"",""good_move"",28011.8,2803.5,1984.4,25208.3,819.1,""oops"",""right"",""up"",""bad_move"",31979.3,3966.6,2103.4,28012.7,1863.2,""smooth"",""right"",""right"",""good_move"",38611.2,6631.2,2304.8,35910.4,396,""smooth"",""down"",""down"",""good_move""]"
"2685","","<div style=""width:500px;"">
  <p>What determined the result of this run?</p>
  </div>","100","html-slider-response","69","964670","0.0-7.0-1.11","188","1","2025-08-06 11:26:21","36c45c0696341be0efffe67d72a12abb","37.228.232.48","Mozilla/5.0 (Windows NT 10.0; Win64; x64) AppleWebKit/537.36 (KHTML, like Gecko) Chrome/138.0.0.0 Safari/537.36","WebKit","Chrome","138.0.0.0","Windows","10.0","https://app.prolific.com/","en-IE,en-US;q=0.9,en;q=0.8","60cd16e63d3924958e8d3d43","687a1a965b9f5b85a264363e","68933ba46171a6ec624b05c3","1","60cd16e63d3924958e8d3d43","1","2025-08-06T11:42:43.405Z","","","","AttribQ","","","","","","","","","","","50","","","","","","","","","","","","","","","","","","","","","","","","","","",""
"2427","","<div style=""width:500px;"">
  <p>How much control did you have over the ball?</p>
  </div>","73","html-slider-response","70","967102","0.0-7.0-2.11","188","1","2025-08-06 11:26:21","36c45c0696341be0efffe67d72a12abb","37.228.232.48","Mozilla/5.0 (Windows NT 10.0; Win64; x64) AppleWebKit/537.36 (KHTML, like Gecko) Chrome/138.0.0.0 Safari/537.36","WebKit","Chrome","138.0.0.0","Windows","10.0","https://app.prolific.com/","en-IE,en-US;q=0.9,en;q=0.8","60cd16e63d3924958e8d3d43","687a1a965b9f5b85a264363e","68933ba46171a6ec624b05c3","1","60cd16e63d3924958e8d3d43","1","2025-08-06T11:42:45.837Z","","","","ControlQ","","","","","","","","","","","50","","","","","","","","","","","","","","","","","","","","","","","","","","",""
"3196","","<div style=""width:500px;"">
  <p>How would you describe your current emotional state?</p>
  </div>","24","html-slider-response","71","970300","0.0-7.0-3.11","188","1","2025-08-06 11:26:21","36c45c0696341be0efffe67d72a12abb","37.228.232.48","Mozilla/5.0 (Windows NT 10.0; Win64; x64) AppleWebKit/537.36 (KHTML, like Gecko) Chrome/138.0.0.0 Safari/537.36","WebKit","Chrome","138.0.0.0","Windows","10.0","https://app.prolific.com/","en-IE,en-US;q=0.9,en;q=0.8","60cd16e63d3924958e8d3d43","687a1a965b9f5b85a264363e","68933ba46171a6ec624b05c3","1","60cd16e63d3924958e8d3d43","1","2025-08-06T11:42:49.034Z","","","","StressQ","","","","","","","","","","","50","","","","","","","","","","","","","","","","","","","","","","","","","","",""
"2678","","<div style=""width:500px;"">
  <p>What best describes how you currently feel?</p>
  </div>","74","html-slider-response","72","972980","0.0-7.0-4.11","188","1","2025-08-06 11:26:21","36c45c0696341be0efffe67d72a12abb","37.228.232.48","Mozilla/5.0 (Windows NT 10.0; Win64; x64) AppleWebKit/537.36 (KHTML, like Gecko) Chrome/138.0.0.0 Safari/537.36","WebKit","Chrome","138.0.0.0","Windows","10.0","https://app.prolific.com/","en-IE,en-US;q=0.9,en;q=0.8","60cd16e63d3924958e8d3d43","687a1a965b9f5b85a264363e","68933ba46171a6ec624b05c3","1","60cd16e63d3924958e8d3d43","1","2025-08-06T11:42:51.715Z","","","","MotivationQ","","","","","","","","","","","50","","","","","","","","","","","","","","","","","","","","","","","","","","",""
"","","","","ctl-task-cpt","73","1019016","0.0-7.0-0.12","188","1","2025-08-06 11:26:21","36c45c0696341be0efffe67d72a12abb","37.228.232.48","Mozilla/5.0 (Windows NT 10.0; Win64; x64) AppleWebKit/537.36 (KHTML, like Gecko) Chrome/138.0.0.0 Safari/537.36","WebKit","Chrome","138.0.0.0","Windows","10.0","https://app.prolific.com/","en-IE,en-US;q=0.9,en;q=0.8","60cd16e63d3924958e8d3d43","687a1a965b9f5b85a264363e","68933ba46171a6ec624b05c3","1","60cd16e63d3924958e8d3d43","1","2025-08-06T11:43:37.750Z","","","","","","","","","","","","","","","","win-only","2","g1:SE,g2:NW","0.8","13","0","976479.8","3317","8332.7","43005.1","1","4","8","6","1","1","1","22","21","0.16666666666666666","5015.6","3000","2475","[""down"",""right""]","{""num_key_presses"":6,""num_perfect"":5,""num_errors"":0,""num_randdir"":1,""num_randdir_good_moves"":0,""num_whilered"":0,""num_whileblue"":0,""num_blue"":4,""num_good_moves"":5}","[410.3214133126395,411.57142761775424,0.5,410.3214133126395,411.57142761775424,104.6,410.3214133126395,411.57142761775424,234.8,410.3214133126395,411.57142761775424,350.5,410.3214133126395,411.57142761775424,457.7,410.3214133126395,411.57142761775424,573,410.3214133126395,411.57142761775424,680.1,410.3214133126395,411.57142761775424,792.9,410.3214133126395,411.57142761775424,901,410.3214133126395,411.57142761775424,1009.8,410.3214133126395,411.57142761775424,1123.8,410.3214133126395,411.57142761775424,1240.1,410.3214133126395,411.57142761775424,1358.5,410.3214133126395,411.57142761775424,1471.3,410.3214133126395,411.57142761775424,1581.3,410.3214133126395,411.57142761775424,1690,410.3214133126395,411.57142761775424,1797.3,410.3214133126395,411.57142761775424,1898.7,410.3214133126395,411.57142761775424,1999.4,410.3214133126395,411.57142761775424,2121.5,410.3214133126395,411.57142761775424,2231.8,410.3214133126395,411.57142761775424,2335.4,410.3214133126395,411.57142761775424,2445.6,410.3214133126395,411.57142761775424,2550,410.3214133126395,411.57142761775424,2652.4,410.3214133126395,411.57142761775424,2753.1,410.3214133126395,411.57142761775424,2872.2,410.3214133126395,411.57142761775424,2977.3,410.3214133126395,411.57142761775424,3080.6,410.3214133126395,411.57142761775424,3194.8,410.3214133126395,411.57142761775424,3298.5,410.3214133126395,411.57142761775424,3412.7,410.3214133126395,411.57142761775424,3535.9,410.3214133126395,411.57142761775424,3648.9,410.3214133126395,411.57142761775424,3765.7,410.3214133126395,411.57142761775424,3879.9,410.3214133126395,411.57142761775424,4006,410.3214133126395,411.57142761775424,4111,410.3214133126395,411.57142761775424,4223.7,410.3214133126395,411.57142761775424,4331.3,410.3214133126395,411.57142761775424,4448.8,410.3214133126395,411.57142761775424,4553.2,410.3214133126395,411.57142761775424,4658.8,410.3214133126395,411.57142761775424,4763.6,410.3214133126395,411.57142761775424,4885.4,410.3214133126395,411.57142761775424,4991.7]","[1490,1490,1000,0,490,""smooth"",""down"",""down"",""good_move"",4130.2,2639.6,2227.8,1490.6,411.8,""smooth"",""right"",""right"",""good_move"",14277.1,10146.2,2269,11554.6,453.5,""oops"",""right"",""left"",""bad_move"",24469,10191.4,3521.9,20462.4,484.7,""smooth"",""right"",""right"",""good_move"",27738.9,3269.5,2801.4,24469.4,468.1,""smooth"",""right"",""right"",""good_move"",34388.9,6649.6,2806.2,31187,395.7,""smooth"",""down"",""down"",""good_move""]"
"3271","","<div style=""width:500px;"">
  <p>What determined the result of this run?</p>
  </div>","84","html-slider-response","74","1022290","0.0-7.0-1.12","188","1","2025-08-06 11:26:21","36c45c0696341be0efffe67d72a12abb","37.228.232.48","Mozilla/5.0 (Windows NT 10.0; Win64; x64) AppleWebKit/537.36 (KHTML, like Gecko) Chrome/138.0.0.0 Safari/537.36","WebKit","Chrome","138.0.0.0","Windows","10.0","https://app.prolific.com/","en-IE,en-US;q=0.9,en;q=0.8","60cd16e63d3924958e8d3d43","687a1a965b9f5b85a264363e","68933ba46171a6ec624b05c3","1","60cd16e63d3924958e8d3d43","1","2025-08-06T11:43:41.024Z","","","","AttribQ","","","","","","","","","","","50","","","","","","","","","","","","","","","","","","","","","","","","","","",""
"2871","","<div style=""width:500px;"">
  <p>How much control did you have over the ball?</p>
  </div>","96","html-slider-response","75","1025163","0.0-7.0-2.12","188","1","2025-08-06 11:26:21","36c45c0696341be0efffe67d72a12abb","37.228.232.48","Mozilla/5.0 (Windows NT 10.0; Win64; x64) AppleWebKit/537.36 (KHTML, like Gecko) Chrome/138.0.0.0 Safari/537.36","WebKit","Chrome","138.0.0.0","Windows","10.0","https://app.prolific.com/","en-IE,en-US;q=0.9,en;q=0.8","60cd16e63d3924958e8d3d43","687a1a965b9f5b85a264363e","68933ba46171a6ec624b05c3","1","60cd16e63d3924958e8d3d43","1","2025-08-06T11:43:43.897Z","","","","ControlQ","","","","","","","","","","","50","","","","","","","","","","","","","","","","","","","","","","","","","","",""
"3360","","<div style=""width:500px;"">
  <p>How would you describe your current emotional state?</p>
  </div>","14","html-slider-response","76","1028529","0.0-7.0-3.12","188","1","2025-08-06 11:26:21","36c45c0696341be0efffe67d72a12abb","37.228.232.48","Mozilla/5.0 (Windows NT 10.0; Win64; x64) AppleWebKit/537.36 (KHTML, like Gecko) Chrome/138.0.0.0 Safari/537.36","WebKit","Chrome","138.0.0.0","Windows","10.0","https://app.prolific.com/","en-IE,en-US;q=0.9,en;q=0.8","60cd16e63d3924958e8d3d43","687a1a965b9f5b85a264363e","68933ba46171a6ec624b05c3","1","60cd16e63d3924958e8d3d43","1","2025-08-06T11:43:47.263Z","","","","StressQ","","","","","","","","","","","50","","","","","","","","","","","","","","","","","","","","","","","","","","",""
"2507","","<div style=""width:500px;"">
  <p>What best describes how you currently feel?</p>
  </div>","73","html-slider-response","77","1031041","0.0-7.0-4.12","188","1","2025-08-06 11:26:21","36c45c0696341be0efffe67d72a12abb","37.228.232.48","Mozilla/5.0 (Windows NT 10.0; Win64; x64) AppleWebKit/537.36 (KHTML, like Gecko) Chrome/138.0.0.0 Safari/537.36","WebKit","Chrome","138.0.0.0","Windows","10.0","https://app.prolific.com/","en-IE,en-US;q=0.9,en;q=0.8","60cd16e63d3924958e8d3d43","687a1a965b9f5b85a264363e","68933ba46171a6ec624b05c3","1","60cd16e63d3924958e8d3d43","1","2025-08-06T11:43:49.776Z","","","","MotivationQ","","","","","","","","","","","50","","","","","","","","","","","","","","","","","","","","","","","","","","",""
