"rt","response_timestamp","stimulus","response","trial_type","trial_index","time_elapsed","internal_node_id","run_id","condition","recorded_at","source_code_version","ip","user_agent","device","browser","browser_version","platform","platform_version","referer","accept_language","PROLIFIC_PID","STUDY_ID","SESSION_ID","BATCH","prolific_id","batch","realtime","success","question_order","question_id","eventType","responses","item_order","radio_event_ids","radio_event_times","key_event_times","mouse_event_times","straightlining","zigzagging","honeypot","view_history","slider_start","which_type","canvas_config","goals_layout","control_level","trial_number","tutorial_trial_number","trial_start_time","phase1_start_time","phase2_start_time","phase3_start_time","goal_1_value","goal_1_distance","goal_2_value","goal_2_distance","goal_selected","outcome","outcome_total","participant_final_score","participant_initial_score","participant_final_score_prop","goal_choice_rt","allocated_time","allocated_time_remaining","goal_direction","counts","mouse_movements","key_presses"
"8136","1754471902788","<p style='font-size:40px;line-height:1.25'><strong>Welcome to the experiment!</strong></p><p style='font-size:1.1em;line-height:1.25'>Thank you for participanting in our experiment again! You will be asked to play the Dysfunctional Ball Game again. We will briefly recap the rules before we start.</p><p style='font-size:1.1em;line-height:1.25'>Press <strong>Next</strong> to continue.</p>","0","custom-html-button-response","0","8140","0.0-0.0","161","1","2025-08-06 09:18:09","36c45c0696341be0efffe67d72a12abb","41.145.209.104","Mozilla/5.0 (Windows NT 10.0; Win64; x64) AppleWebKit/537.36 (KHTML, like Gecko) Chrome/138.0.0.0 Safari/537.36","WebKit","Chrome","138.0.0.0","Windows","10.0","https://app.prolific.com/","en-US,en;q=0.9","60ddcd80bbeb3c7f8958f6bf","687a1a965b9f5b85a264363e","68931a9f5beef26ac0602915","1","60ddcd80bbeb3c7f8958f6bf","1","2025-08-06T09:18:22.789Z","","","","","","","","","","","","","","","","","","","","","","","","","","","","","","","","","","","","","","","","","",""
"8324","","","","fullscreen","1","17477","0.0-1.0","161","1","2025-08-06 09:18:09","36c45c0696341be0efffe67d72a12abb","41.145.209.104","Mozilla/5.0 (Windows NT 10.0; Win64; x64) AppleWebKit/537.36 (KHTML, like Gecko) Chrome/138.0.0.0 Safari/537.36","WebKit","Chrome","138.0.0.0","Windows","10.0","https://app.prolific.com/","en-US,en;q=0.9","60ddcd80bbeb3c7f8958f6bf","687a1a965b9f5b85a264363e","68931a9f5beef26ac0602915","1","60ddcd80bbeb3c7f8958f6bf","1","","true","","","","","","","","","","","","","","","","","","","","","","","","","","","","","","","","","","","","","","","","",""
"5892","1754471918020"," <p style='font-size:1.1em;line-height:1.25'>Thank you for closing all other tabs.</p><p style='font-size:1.1em;line-height:1.25'>We will now invite you to fill in some questionnaires, before starting the game.<br>This will take about 5 minutes.<br></p><p style='font-size:1.1em;line-height:1.25'>Press the <strong>Next</strong> button to continue.</p>","0","custom-html-button-response","2","23371","0.0-2.0","161","1","2025-08-06 09:18:09","36c45c0696341be0efffe67d72a12abb","41.145.209.104","Mozilla/5.0 (Windows NT 10.0; Win64; x64) AppleWebKit/537.36 (KHTML, like Gecko) Chrome/138.0.0.0 Safari/537.36","WebKit","Chrome","138.0.0.0","Windows","10.0","https://app.prolific.com/","en-US,en;q=0.9","60ddcd80bbeb3c7f8958f6bf","687a1a965b9f5b85a264363e","68931a9f5beef26ac0602915","1","60ddcd80bbeb3c7f8958f6bf","1","2025-08-06T09:18:38.020Z","","","","","","","","","","","","","","","","","","","","","","","","","","","","","","","","","","","","","","","","","",""
"4360","","","{""assigned_sex"":""female""}","survey-multi-choice","3","27733","0.0-3.0-0.0","161","1","2025-08-06 09:18:09","36c45c0696341be0efffe67d72a12abb","41.145.209.104","Mozilla/5.0 (Windows NT 10.0; Win64; x64) AppleWebKit/537.36 (KHTML, like Gecko) Chrome/138.0.0.0 Safari/537.36","WebKit","Chrome","138.0.0.0","Windows","10.0","https://app.prolific.com/","en-US,en;q=0.9","60ddcd80bbeb3c7f8958f6bf","687a1a965b9f5b85a264363e","68931a9f5beef26ac0602915","1","60ddcd80bbeb3c7f8958f6bf","1","","","[0]","0","demographics","","","","","","","","","","","","","","","","","","","","","","","","","","","","","","","","","","","","","",""
"6766","1754471929148","<p style='font-size:1.1em;line-height:1.25'>In the following, we will perform a baseline assessment. This means that we will ask you a few questions relating to your experiences over the past month.<br></p><p style='font-size:1.1em;line-height:1.25'>Press the <strong>Next</strong> button to continue.</p>","0","custom-html-button-response","4","34500","0.0-4.0-0.0","161","1","2025-08-06 09:18:09","36c45c0696341be0efffe67d72a12abb","41.145.209.104","Mozilla/5.0 (Windows NT 10.0; Win64; x64) AppleWebKit/537.36 (KHTML, like Gecko) Chrome/138.0.0.0 Safari/537.36","WebKit","Chrome","138.0.0.0","Windows","10.0","https://app.prolific.com/","en-US,en;q=0.9","60ddcd80bbeb3c7f8958f6bf","687a1a965b9f5b85a264363e","68931a9f5beef26ac0602915","1","60ddcd80bbeb3c7f8958f6bf","1","2025-08-06T09:18:49.149Z","","","","","","","","","","","","","","","","","","","","","","","","","","","","","","","","","","","","","","","","","",""
"62279.5","","","","survey-template","5","96782","0.0-4.0-1.0","161","1","2025-08-06 09:18:09","36c45c0696341be0efffe67d72a12abb","41.145.209.104","Mozilla/5.0 (Windows NT 10.0; Win64; x64) AppleWebKit/537.36 (KHTML, like Gecko) Chrome/138.0.0.0 Safari/537.36","WebKit","Chrome","138.0.0.0","Windows","10.0","https://app.prolific.com/","en-US,en;q=0.9","60ddcd80bbeb3c7f8958f6bf","687a1a965b9f5b85a264363e","68931a9f5beef26ac0602915","1","60ddcd80bbeb3c7f8958f6bf","1","2025-08-06T09:19:51.431Z","","","","pss","{""Q01"":""0"",""Q02"":""0"",""Q03"":""0"",""Q04"":""0"",""Q05"":""0"",""Q06"":""0"",""Q07"":""0"",""Q08"":""0"",""Q09"":""0"",""Q10"":""0""}","[0,1,2,3,4,5,6,7,8,9]","[""Q01"",""Q02"",""Q03"",""Q04"",""Q05"",""Q06"",""Q07"",""Q08"",""Q09"",""Q10""]","[15077.200000286102,24908.900000095367,27453.400000095367,31676.800000190735,35740.90000009537,42149.10000038147,47068.90000009537,50157,54828.800000190735,61044.7000002861]","[]","[0.10000038146972656,15077.200000286102,24908.900000095367,27453.400000095367,31676.800000190735,35740.90000009537,42149.10000038147,47068.90000009537,50157,54828.800000190735,61044.7000002861,62276.90000009537]","0.6","0.4444444444444444","0","","","","","","","","","","","","","","","","","","","","","","","","","","","","",""
"5467","1754471996899","<p style='font-size:1.1em;line-height:1.25'>Thank you for your answers! Now we will ask you a few more questions relating to your feelings in the last 24 hours.<br></p><p style='font-size:1.1em;line-height:1.25'>Press the <strong>Next</strong> button to continue.</p>","0","custom-html-button-response","6","102251","0.0-4.0-2.0","161","1","2025-08-06 09:18:09","36c45c0696341be0efffe67d72a12abb","41.145.209.104","Mozilla/5.0 (Windows NT 10.0; Win64; x64) AppleWebKit/537.36 (KHTML, like Gecko) Chrome/138.0.0.0 Safari/537.36","WebKit","Chrome","138.0.0.0","Windows","10.0","https://app.prolific.com/","en-US,en;q=0.9","60ddcd80bbeb3c7f8958f6bf","687a1a965b9f5b85a264363e","68931a9f5beef26ac0602915","1","60ddcd80bbeb3c7f8958f6bf","1","2025-08-06T09:19:56.900Z","","","","","","","","","","","","","","","","","","","","","","","","","","","","","","","","","","","","","","","","","",""
"103851.2000002861","","","","survey-template","7","206106","0.0-4.0-3.0","161","1","2025-08-06 09:18:09","36c45c0696341be0efffe67d72a12abb","41.145.209.104","Mozilla/5.0 (Windows NT 10.0; Win64; x64) AppleWebKit/537.36 (KHTML, like Gecko) Chrome/138.0.0.0 Safari/537.36","WebKit","Chrome","138.0.0.0","Windows","10.0","https://app.prolific.com/","en-US,en;q=0.9","60ddcd80bbeb3c7f8958f6bf","687a1a965b9f5b85a264363e","68931a9f5beef26ac0602915","1","60ddcd80bbeb3c7f8958f6bf","1","2025-08-06T09:21:40.755Z","","","","drsp","{""Q01"":""0"",""Q02"":""0"",""Q03"":""0"",""Q04"":""0"",""Q05"":""0"",""Q06"":""0"",""Q07"":""0"",""Q08"":""0"",""Q09"":""0"",""Q10"":""0"",""Q11"":""0"",""Q12"":""1"",""Q13"":""5"",""Q14"":""1"",""Q15"":""0"",""Q16"":""0"",""Q17"":""0"",""Q18"":""0"",""Q19"":""0"",""Q20"":""0"",""Q21"":""0"",""Q22"":""0""}","[0,1,2,3,4,5,6,7,8,9,10,11,12,13,14,15,16,17,18,19,20,21]","[""Q01"",""Q02"",""Q03"",""Q04"",""Q06"",""Q07"",""Q08"",""Q09"",""Q10"",""Q11"",""Q12"",""Q13"",""Q14"",""Q15"",""Q16"",""Q17"",""Q18"",""Q19"",""Q20"",""Q21"",""Q22"",""Q14"",""Q05""]","[6262.300000190735,7910.10000038147,10750,12318.300000190735,16646.200000286102,18413.800000190735,20358,22478.200000286102,24670.900000095367,26365.900000095367,29637.700000286102,33301.5,39030,42893.800000190735,49941.90000009537,51957.90000009537,53104,56805.7000002861,61998,64557.7000002861,68669.7000002861,80661.7000002861,96917.90000009537]","[]","[0,4429.900000095367,6262.300000190735,7910.10000038147,10750,12318.300000190735,13886.10000038147,16646.200000286102,18413.800000190735,20358,22478.200000286102,24670.900000095367,26365.900000095367,29637.700000286102,33301.5,39030,42893.800000190735,49941.90000009537,51957.90000009537,53104,56805.7000002861,61998,64557.7000002861,68669.7000002861,69878.30000019073,80661.7000002861,96917.90000009537,103846]","0.8636363636363636","0.09523809523809523","0","","","","","","","","","","","","","","","","","","","","","","","","","","","","",""
"14952","","","","survey-template","8","221060","0.0-4.0-4.0","161","1","2025-08-06 09:18:09","36c45c0696341be0efffe67d72a12abb","41.145.209.104","Mozilla/5.0 (Windows NT 10.0; Win64; x64) AppleWebKit/537.36 (KHTML, like Gecko) Chrome/138.0.0.0 Safari/537.36","WebKit","Chrome","138.0.0.0","Windows","10.0","https://app.prolific.com/","en-US,en;q=0.9","60ddcd80bbeb3c7f8958f6bf","687a1a965b9f5b85a264363e","68931a9f5beef26ac0602915","1","60ddcd80bbeb3c7f8958f6bf","1","2025-08-06T09:21:55.709Z","","","","stress","{""Q01"":""0"",""Q02"":""1"",""Q03"":""0""}","[0,1,2]","[""Q01"",""Q02"",""Q03""]","[2774.800000190735,8126.5,13831]","[]","[2774.800000190735,8126.5,13831,14950.900000095367]","0.6666666666666666","0","0","","","","","","","","","","","","","","","","","","","","","","","","","","","","",""
"72845","","","","instructions","9","293906","0.0-5.0-0.0","161","1","2025-08-06 09:18:09","36c45c0696341be0efffe67d72a12abb","41.145.209.104","Mozilla/5.0 (Windows NT 10.0; Win64; x64) AppleWebKit/537.36 (KHTML, like Gecko) Chrome/138.0.0.0 Safari/537.36","WebKit","Chrome","138.0.0.0","Windows","10.0","https://app.prolific.com/","en-US,en;q=0.9","60ddcd80bbeb3c7f8958f6bf","687a1a965b9f5b85a264363e","68931a9f5beef26ac0602915","1","60ddcd80bbeb3c7f8958f6bf","1","","","","","","","","","","","","","","","[{""page_index"":0,""viewing_time"":72845}]","","","","","","","","","","","","","","","","","","","","","","","","","","","",""
"18230","","<p>Before you start with this game please answer the following three questions yourself. </p>
  <p>Through this game, we measure several aspects of your cognitive performance, such as reaction times, multi-tasking capabilities </p>
  <p>and the ability to assess the situation you are in.</p>
  <p></p>
  <p><b>How good do you usually are in such tasks?</b></p>","100","html-slider-response","10","312138","0.0-6.0-0.0","161","1","2025-08-06 09:18:09","36c45c0696341be0efffe67d72a12abb","41.145.209.104","Mozilla/5.0 (Windows NT 10.0; Win64; x64) AppleWebKit/537.36 (KHTML, like Gecko) Chrome/138.0.0.0 Safari/537.36","WebKit","Chrome","138.0.0.0","Windows","10.0","https://app.prolific.com/","en-US,en;q=0.9","60ddcd80bbeb3c7f8958f6bf","687a1a965b9f5b85a264363e","68931a9f5beef26ac0602915","1","60ddcd80bbeb3c7f8958f6bf","1","2025-08-06T09:23:26.787Z","","","","PreSkillQ","","","","","","","","","","","50","","","","","","","","","","","","","","","","","","","","","","","","","","",""
"4911","","<div style=""width:500px;"">
  <p>How well do you think you will perform in this task compared to other participants?</p>
  </div>","100","html-slider-response","11","317050","0.0-6.0-1.0","161","1","2025-08-06 09:18:09","36c45c0696341be0efffe67d72a12abb","41.145.209.104","Mozilla/5.0 (Windows NT 10.0; Win64; x64) AppleWebKit/537.36 (KHTML, like Gecko) Chrome/138.0.0.0 Safari/537.36","WebKit","Chrome","138.0.0.0","Windows","10.0","https://app.prolific.com/","en-US,en;q=0.9","60ddcd80bbeb3c7f8958f6bf","687a1a965b9f5b85a264363e","68931a9f5beef26ac0602915","1","60ddcd80bbeb3c7f8958f6bf","1","2025-08-06T09:23:31.700Z","","","","PrePerfQ","","","","","","","","","","","50","","","","","","","","","","","","","","","","","","","","","","","","","","",""
"3983","","<div style=""width:500px;"">
  <p>What best describes how you currently feel?</p>
  </div>","100","html-slider-response","12","321034","0.0-6.0-2.0","161","1","2025-08-06 09:18:09","36c45c0696341be0efffe67d72a12abb","41.145.209.104","Mozilla/5.0 (Windows NT 10.0; Win64; x64) AppleWebKit/537.36 (KHTML, like Gecko) Chrome/138.0.0.0 Safari/537.36","WebKit","Chrome","138.0.0.0","Windows","10.0","https://app.prolific.com/","en-US,en;q=0.9","60ddcd80bbeb3c7f8958f6bf","687a1a965b9f5b85a264363e","68931a9f5beef26ac0602915","1","60ddcd80bbeb3c7f8958f6bf","1","2025-08-06T09:23:35.683Z","","","","PreMotivationQ","","","","","","","","","","","50","","","","","","","","","","","","","","","","","","","","","","","","","","",""
"","","","","ctl-task-cpt","13","342399","0.0-7.0-0.0","161","1","2025-08-06 09:18:09","36c45c0696341be0efffe67d72a12abb","41.145.209.104","Mozilla/5.0 (Windows NT 10.0; Win64; x64) AppleWebKit/537.36 (KHTML, like Gecko) Chrome/138.0.0.0 Safari/537.36","WebKit","Chrome","138.0.0.0","Windows","10.0","https://app.prolific.com/","en-US,en;q=0.9","60ddcd80bbeb3c7f8958f6bf","687a1a965b9f5b85a264363e","68931a9f5beef26ac0602915","1","60ddcd80bbeb3c7f8958f6bf","1","2025-08-06T09:23:57.049Z","","","","","","","","","","","","","","","","win-only","3","g1:SW,g2:NE","1","1","0","328500.4","5910.3","10912.2","18352.1","1","4","4","6","2","-4","-5","0","0","0","5001.8","3000","-2990","[""up"",""right""]","{""num_key_presses"":1,""num_perfect"":0,""num_errors"":1,""num_randdir"":0,""num_randdir_good_moves"":0,""num_whilered"":0,""num_whileblue"":0,""num_blue"":0,""num_good_moves"":0}","[421.5714133126395,412.82142761775424,0.4,421.5714133126395,412.82142761775424,158.3,421.5714133126395,412.82142761775424,260.6,421.5714133126395,412.82142761775424,361.5,421.5714133126395,412.82142761775424,465.2,421.5714133126395,412.82142761775424,566.8,427.8214133126395,407.82142761775424,672,594.0714133126395,385.32142761775424,777,596.5714133126395,392.82142761775424,880.5,596.5714133126395,392.82142761775424,981.9,609.0714133126395,392.82142761775424,1085.8,611.5714133126395,392.82142761775424,1185.9,611.5714133126395,392.82142761775424,1292,611.5714133126395,392.82142761775424,1393,611.5714133126395,392.82142761775424,1495.8,611.5714133126395,392.82142761775424,1596.9,611.5714133126395,392.82142761775424,1700.7,611.5714133126395,392.82142761775424,1800.8,611.5714133126395,392.82142761775424,1900.8,611.5714133126395,392.82142761775424,2000.8,611.5714133126395,392.82142761775424,2106.4,611.5714133126395,392.82142761775424,2206.4,611.5714133126395,392.82142761775424,2307.8,611.5714133126395,392.82142761775424,2410.8,611.5714133126395,392.82142761775424,2511.9,611.5714133126395,392.82142761775424,2611.9,611.5714133126395,392.82142761775424,2715.3,611.5714133126395,392.82142761775424,2815.7,611.5714133126395,392.82142761775424,2921.1,611.5714133126395,392.82142761775424,3023.8,611.5714133126395,392.82142761775424,3126.8,611.5714133126395,392.82142761775424,3231.3,611.5714133126395,392.82142761775424,3335.7,611.5714133126395,392.82142761775424,3437,611.5714133126395,392.82142761775424,3580.9,611.5714133126395,392.82142761775424,3688.8,611.5714133126395,392.82142761775424,3792,611.5714133126395,392.82142761775424,3892.9,611.5714133126395,392.82142761775424,3995.5,611.5714133126395,392.82142761775424,4095.6,611.5714133126395,392.82142761775424,4195.8,611.5714133126395,392.82142761775424,4300.6,611.5714133126395,392.82142761775424,4400.9,611.5714133126395,392.82142761775424,4506.8,611.5714133126395,392.82142761775424,4610.2,611.5714133126395,392.82142761775424,4710.6,611.5714133126395,392.82142761775424,4811.9,611.5714133126395,392.82142761775424,4915.5]","[658.4,658.4,1000,0,-341.6,""error"",""-"",""-"",""no_move""]"
"5900","","<div style=""width:500px;"">
  <p>What determined the result of this run?</p>
  </div>","100","html-slider-response","14","348302","0.0-7.0-1.0","161","1","2025-08-06 09:18:09","36c45c0696341be0efffe67d72a12abb","41.145.209.104","Mozilla/5.0 (Windows NT 10.0; Win64; x64) AppleWebKit/537.36 (KHTML, like Gecko) Chrome/138.0.0.0 Safari/537.36","WebKit","Chrome","138.0.0.0","Windows","10.0","https://app.prolific.com/","en-US,en;q=0.9","60ddcd80bbeb3c7f8958f6bf","687a1a965b9f5b85a264363e","68931a9f5beef26ac0602915","1","60ddcd80bbeb3c7f8958f6bf","1","2025-08-06T09:24:02.951Z","","","","AttribQ","","","","","","","","","","","50","","","","","","","","","","","","","","","","","","","","","","","","","","",""
"5739","","<div style=""width:500px;"">
  <p>How much control did you have over the ball?</p>
  </div>","73","html-slider-response","15","354042","0.0-7.0-2.0","161","1","2025-08-06 09:18:09","36c45c0696341be0efffe67d72a12abb","41.145.209.104","Mozilla/5.0 (Windows NT 10.0; Win64; x64) AppleWebKit/537.36 (KHTML, like Gecko) Chrome/138.0.0.0 Safari/537.36","WebKit","Chrome","138.0.0.0","Windows","10.0","https://app.prolific.com/","en-US,en;q=0.9","60ddcd80bbeb3c7f8958f6bf","687a1a965b9f5b85a264363e","68931a9f5beef26ac0602915","1","60ddcd80bbeb3c7f8958f6bf","1","2025-08-06T09:24:08.692Z","","","","ControlQ","","","","","","","","","","","50","","","","","","","","","","","","","","","","","","","","","","","","","","",""
"5687","","<div style=""width:500px;"">
  <p>How would you describe your current emotional state?</p>
  </div>","0","html-slider-response","16","359731","0.0-7.0-3.0","161","1","2025-08-06 09:18:09","36c45c0696341be0efffe67d72a12abb","41.145.209.104","Mozilla/5.0 (Windows NT 10.0; Win64; x64) AppleWebKit/537.36 (KHTML, like Gecko) Chrome/138.0.0.0 Safari/537.36","WebKit","Chrome","138.0.0.0","Windows","10.0","https://app.prolific.com/","en-US,en;q=0.9","60ddcd80bbeb3c7f8958f6bf","687a1a965b9f5b85a264363e","68931a9f5beef26ac0602915","1","60ddcd80bbeb3c7f8958f6bf","1","2025-08-06T09:24:14.380Z","","","","StressQ","","","","","","","","","","","50","","","","","","","","","","","","","","","","","","","","","","","","","","",""
"4622","","<div style=""width:500px;"">
  <p>What best describes how you currently feel?</p>
  </div>","100","html-slider-response","17","364354","0.0-7.0-4.0","161","1","2025-08-06 09:18:09","36c45c0696341be0efffe67d72a12abb","41.145.209.104","Mozilla/5.0 (Windows NT 10.0; Win64; x64) AppleWebKit/537.36 (KHTML, like Gecko) Chrome/138.0.0.0 Safari/537.36","WebKit","Chrome","138.0.0.0","Windows","10.0","https://app.prolific.com/","en-US,en;q=0.9","60ddcd80bbeb3c7f8958f6bf","687a1a965b9f5b85a264363e","68931a9f5beef26ac0602915","1","60ddcd80bbeb3c7f8958f6bf","1","2025-08-06T09:24:19.004Z","","","","MotivationQ","","","","","","","","","","","50","","","","","","","","","","","","","","","","","","","","","","","","","","",""
"","","","","ctl-task-cpt","18","401341","0.0-7.0-0.1","161","1","2025-08-06 09:18:09","36c45c0696341be0efffe67d72a12abb","41.145.209.104","Mozilla/5.0 (Windows NT 10.0; Win64; x64) AppleWebKit/537.36 (KHTML, like Gecko) Chrome/138.0.0.0 Safari/537.36","WebKit","Chrome","138.0.0.0","Windows","10.0","https://app.prolific.com/","en-US,en;q=0.9","60ddcd80bbeb3c7f8958f6bf","687a1a965b9f5b85a264363e","68931a9f5beef26ac0602915","1","60ddcd80bbeb3c7f8958f6bf","1","2025-08-06T09:24:55.990Z","","","","","","","","","","","","","","","","win-only","0","g1:NW,g2:SE","0.9","2","0","371819.4","6715.3","11716.5","33976.6","1","4","8","6","2","-8","-12","0","0","0","5001.2","3000","-2255","[""down"",""right""]","{""num_key_presses"":10,""num_perfect"":3,""num_errors"":4,""num_randdir"":0,""num_randdir_good_moves"":0,""num_whilered"":3,""num_whileblue"":0,""num_blue"":1,""num_good_moves"":2}","[421.5714133126395,412.82142761775424,0.7,421.5714133126395,412.82142761775424,100,421.5714133126395,412.82142761775424,201.5,569.0714133126395,442.82142761775424,305.8,1375.3214133126396,536.5714276177542,419.8,1375.3214133126396,542.8214276177542,520.7,1375.3214133126396,542.8214276177542,625.5,1375.3214133126396,540.3214276177542,733.9,1375.3214133126396,535.3214276177542,835.5,1375.3214133126396,535.3214276177542,935.6,1375.3214133126396,535.3214276177542,1035.7,1375.3214133126396,535.3214276177542,1140.7,1375.3214133126396,535.3214276177542,1240.7,1375.3214133126396,535.3214276177542,1351,1375.3214133126396,535.3214276177542,1452,1375.3214133126396,535.3214276177542,1555.6,1375.3214133126396,535.3214276177542,1656.5,1375.3214133126396,535.3214276177542,1760.7,1375.3214133126396,535.3214276177542,1865.8,1375.3214133126396,535.3214276177542,1970.8,1375.3214133126396,535.3214276177542,2070.7,1375.3214133126396,535.3214276177542,2170.7,1375.3214133126396,535.3214276177542,2271,1375.3214133126396,535.3214276177542,2376.5,1375.3214133126396,535.3214276177542,2482.7,1375.3214133126396,535.3214276177542,2585.8,1375.3214133126396,535.3214276177542,2685.9,1375.3214133126396,535.3214276177542,2786.4,1375.3214133126396,535.3214276177542,2886.8,1375.3214133126396,535.3214276177542,2990.9,1375.3214133126396,535.3214276177542,3098.9,1375.3214133126396,535.3214276177542,3200.8,1375.3214133126396,535.3214276177542,3301.8,1375.3214133126396,535.3214276177542,3401.8,1375.3214133126396,535.3214276177542,3505.6,1375.3214133126396,535.3214276177542,3614.5,1375.3214133126396,535.3214276177542,3717,1375.3214133126396,535.3214276177542,3820.7,1375.3214133126396,535.3214276177542,3921.5,1375.3214133126396,535.3214276177542,4021.6,1375.3214133126396,535.3214276177542,4132.3,1375.3214133126396,535.3214276177542,4236,1375.3214133126396,535.3214276177542,4348.5,1375.3214133126396,535.3214276177542,4449.1,1375.3214133126396,535.3214276177542,4549.6,1375.3214133126396,535.3214276177542,4650,1375.3214133126396,535.3214276177542,4750.2,1375.3214133126396,535.3214276177542,4850.7,1375.3214133126396,535.3214276177542,4955.5]","[481.4,481.4,1000,0,-518.6,""error"",""-"",""-"",""no_move"",676.9,194.8,1000,0,-323.1,""while_red"",""-"",""-"",""no_move"",828,345.9,1000,0,-172,""while_red"",""-"",""-"",""no_move"",2284.3,1802.2,2383.7,1484.5,-1583.9,""error"",""-"",""-"",""no_move"",10058.6,7773.9,2471.6,6694.4,892.6,""smooth"",""up"",""up"",""bad_move"",10348.4,289.2,2993.4,10059.2,-2704.2,""error"",""-"",""-"",""no_move"",10703.8,355.1,2993.4,10059.2,-2348.8,""while_red"",""-"",""-"",""no_move"",15325.5,4976.8,2604.3,11349.1,1372.1,""smooth"",""down"",""down"",""good_move"",15720.9,395,2725.4,15325.9,-2330.4,""error"",""-"",""-"",""no_move"",20073.4,4351.7,2699,16725.5,648.9,""smooth"",""down"",""down"",""good_move""]"
"3725","","<div style=""width:500px;"">
  <p>What determined the result of this run?</p>
  </div>","77","html-slider-response","19","405066","0.0-7.0-1.1","161","1","2025-08-06 09:18:09","36c45c0696341be0efffe67d72a12abb","41.145.209.104","Mozilla/5.0 (Windows NT 10.0; Win64; x64) AppleWebKit/537.36 (KHTML, like Gecko) Chrome/138.0.0.0 Safari/537.36","WebKit","Chrome","138.0.0.0","Windows","10.0","https://app.prolific.com/","en-US,en;q=0.9","60ddcd80bbeb3c7f8958f6bf","687a1a965b9f5b85a264363e","68931a9f5beef26ac0602915","1","60ddcd80bbeb3c7f8958f6bf","1","2025-08-06T09:24:59.715Z","","","","AttribQ","","","","","","","","","","","50","","","","","","","","","","","","","","","","","","","","","","","","","","",""
"3734","","<div style=""width:500px;"">
  <p>How much control did you have over the ball?</p>
  </div>","70","html-slider-response","20","408802","0.0-7.0-2.1","161","1","2025-08-06 09:18:09","36c45c0696341be0efffe67d72a12abb","41.145.209.104","Mozilla/5.0 (Windows NT 10.0; Win64; x64) AppleWebKit/537.36 (KHTML, like Gecko) Chrome/138.0.0.0 Safari/537.36","WebKit","Chrome","138.0.0.0","Windows","10.0","https://app.prolific.com/","en-US,en;q=0.9","60ddcd80bbeb3c7f8958f6bf","687a1a965b9f5b85a264363e","68931a9f5beef26ac0602915","1","60ddcd80bbeb3c7f8958f6bf","1","2025-08-06T09:25:03.451Z","","","","ControlQ","","","","","","","","","","","50","","","","","","","","","","","","","","","","","","","","","","","","","","",""
"7143","","<div style=""width:500px;"">
  <p>How would you describe your current emotional state?</p>
  </div>","0","html-slider-response","21","415948","0.0-7.0-3.1","161","1","2025-08-06 09:18:09","36c45c0696341be0efffe67d72a12abb","41.145.209.104","Mozilla/5.0 (Windows NT 10.0; Win64; x64) AppleWebKit/537.36 (KHTML, like Gecko) Chrome/138.0.0.0 Safari/537.36","WebKit","Chrome","138.0.0.0","Windows","10.0","https://app.prolific.com/","en-US,en;q=0.9","60ddcd80bbeb3c7f8958f6bf","687a1a965b9f5b85a264363e","68931a9f5beef26ac0602915","1","60ddcd80bbeb3c7f8958f6bf","1","2025-08-06T09:25:10.597Z","","","","StressQ","","","","","","","","","","","50","","","","","","","","","","","","","","","","","","","","","","","","","","",""
"4871","","<div style=""width:500px;"">
  <p>What best describes how you currently feel?</p>
  </div>","100","html-slider-response","22","420820","0.0-7.0-4.1","161","1","2025-08-06 09:18:09","36c45c0696341be0efffe67d72a12abb","41.145.209.104","Mozilla/5.0 (Windows NT 10.0; Win64; x64) AppleWebKit/537.36 (KHTML, like Gecko) Chrome/138.0.0.0 Safari/537.36","WebKit","Chrome","138.0.0.0","Windows","10.0","https://app.prolific.com/","en-US,en;q=0.9","60ddcd80bbeb3c7f8958f6bf","687a1a965b9f5b85a264363e","68931a9f5beef26ac0602915","1","60ddcd80bbeb3c7f8958f6bf","1","2025-08-06T09:25:15.469Z","","","","MotivationQ","","","","","","","","","","","50","","","","","","","","","","","","","","","","","","","","","","","","","","",""
"","","","","ctl-task-cpt","23","455768","0.0-7.0-0.2","161","1","2025-08-06 09:18:09","36c45c0696341be0efffe67d72a12abb","41.145.209.104","Mozilla/5.0 (Windows NT 10.0; Win64; x64) AppleWebKit/537.36 (KHTML, like Gecko) Chrome/138.0.0.0 Safari/537.36","WebKit","Chrome","138.0.0.0","Windows","10.0","https://app.prolific.com/","en-US,en;q=0.9","60ddcd80bbeb3c7f8958f6bf","687a1a965b9f5b85a264363e","68931a9f5beef26ac0602915","1","60ddcd80bbeb3c7f8958f6bf","1","2025-08-06T09:25:50.417Z","","","","","","","","","","","","","","","","win-only","0","g1:NW,g2:SE","0.8","3","0","428288.5","6838.5","11852.9","31921.6","1","4","4","6","1","1","0","0","0","0","5014.4","3000","390","[""left"",""up""]","{""num_key_presses"":7,""num_perfect"":4,""num_errors"":1,""num_randdir"":2,""num_randdir_good_moves"":1,""num_whilered"":0,""num_whileblue"":0,""num_blue"":0,""num_good_moves"":5}","[419.0714133126395,414.07142761775424,0.5,419.0714133126395,414.07142761775424,103.1,419.0714133126395,414.07142761775424,203.4,644.0714133126395,446.57142761775424,316.9,927.8214133126395,511.57142761775424,417.2,946.5714133126395,516.5714276177542,533.5,947.8214133126395,516.5714276177542,637.7,947.8214133126395,516.5714276177542,740.4,947.8214133126395,516.5714276177542,845,947.8214133126395,516.5714276177542,947.3,947.8214133126395,516.5714276177542,1048,947.8214133126395,516.5714276177542,1152.9,947.8214133126395,516.5714276177542,1252.9,947.8214133126395,516.5714276177542,1359.3,947.8214133126395,516.5714276177542,1465.7,947.8214133126395,516.5714276177542,1567.1,947.8214133126395,516.5714276177542,1683.7,947.8214133126395,516.5714276177542,1787.3,947.8214133126395,516.5714276177542,1887.8,947.8214133126395,516.5714276177542,1989.6,947.8214133126395,516.5714276177542,2093.4,947.8214133126395,516.5714276177542,2197.9,947.8214133126395,516.5714276177542,2298.7,947.8214133126395,516.5714276177542,2403.4,947.8214133126395,516.5714276177542,2514.5,947.8214133126395,516.5714276177542,2616,947.8214133126395,516.5714276177542,2718.6,947.8214133126395,516.5714276177542,2832.1,947.8214133126395,516.5714276177542,2932.7,947.8214133126395,516.5714276177542,3036,947.8214133126395,516.5714276177542,3146.5,947.8214133126395,516.5714276177542,3247.8,947.8214133126395,516.5714276177542,3348.6,947.8214133126395,516.5714276177542,3452.2,947.8214133126395,516.5714276177542,3553.5,947.8214133126395,516.5714276177542,3665.7,947.8214133126395,516.5714276177542,3767,947.8214133126395,516.5714276177542,3868.1,947.8214133126395,516.5714276177542,3983.5,947.8214133126395,516.5714276177542,4090.9,947.8214133126395,516.5714276177542,4193.2,947.8214133126395,516.5714276177542,4293.3,947.8214133126395,516.5714276177542,4396,947.8214133126395,516.5714276177542,4496.7,947.8214133126395,516.5714276177542,4597.4,947.8214133126395,516.5714276177542,4713.9,947.8214133126395,516.5714276177542,4816.5,947.8214133126395,516.5714276177542,4919.2]","[366.1,366.2,1000,0,-633.8,""error"",""-"",""-"",""no_move"",4450.3,4083.9,2352.7,1368.4,729.2,""smooth"",""up"",""up"",""good_move"",7760.2,3308.8,2549.3,4451.4,759.5,""oops"",""up"",""right"",""bad_move"",10797.1,3036,2467.6,7761.1,568.4,""smooth"",""left"",""left"",""good_move"",13429.4,2631.5,2149.5,10797.9,482,""oops"",""left"",""left"",""good_move"",16641.5,3211.6,2771.2,13429.9,440.4,""smooth"",""up"",""up"",""good_move"",19941.6,3299.8,2840.2,16641.9,459.6,""smooth"",""left"",""left"",""good_move""]"
"4906","","<div style=""width:500px;"">
  <p>What determined the result of this run?</p>
  </div>","100","html-slider-response","24","460676","0.0-7.0-1.2","161","1","2025-08-06 09:18:09","36c45c0696341be0efffe67d72a12abb","41.145.209.104","Mozilla/5.0 (Windows NT 10.0; Win64; x64) AppleWebKit/537.36 (KHTML, like Gecko) Chrome/138.0.0.0 Safari/537.36","WebKit","Chrome","138.0.0.0","Windows","10.0","https://app.prolific.com/","en-US,en;q=0.9","60ddcd80bbeb3c7f8958f6bf","687a1a965b9f5b85a264363e","68931a9f5beef26ac0602915","1","60ddcd80bbeb3c7f8958f6bf","1","2025-08-06T09:25:55.325Z","","","","AttribQ","","","","","","","","","","","50","","","","","","","","","","","","","","","","","","","","","","","","","","",""
"4574","","<div style=""width:500px;"">
  <p>How much control did you have over the ball?</p>
  </div>","85","html-slider-response","25","465252","0.0-7.0-2.2","161","1","2025-08-06 09:18:09","36c45c0696341be0efffe67d72a12abb","41.145.209.104","Mozilla/5.0 (Windows NT 10.0; Win64; x64) AppleWebKit/537.36 (KHTML, like Gecko) Chrome/138.0.0.0 Safari/537.36","WebKit","Chrome","138.0.0.0","Windows","10.0","https://app.prolific.com/","en-US,en;q=0.9","60ddcd80bbeb3c7f8958f6bf","687a1a965b9f5b85a264363e","68931a9f5beef26ac0602915","1","60ddcd80bbeb3c7f8958f6bf","1","2025-08-06T09:25:59.901Z","","","","ControlQ","","","","","","","","","","","50","","","","","","","","","","","","","","","","","","","","","","","","","","",""
"4155","","<div style=""width:500px;"">
  <p>How would you describe your current emotional state?</p>
  </div>","1","html-slider-response","26","469410","0.0-7.0-3.2","161","1","2025-08-06 09:18:09","36c45c0696341be0efffe67d72a12abb","41.145.209.104","Mozilla/5.0 (Windows NT 10.0; Win64; x64) AppleWebKit/537.36 (KHTML, like Gecko) Chrome/138.0.0.0 Safari/537.36","WebKit","Chrome","138.0.0.0","Windows","10.0","https://app.prolific.com/","en-US,en;q=0.9","60ddcd80bbeb3c7f8958f6bf","687a1a965b9f5b85a264363e","68931a9f5beef26ac0602915","1","60ddcd80bbeb3c7f8958f6bf","1","2025-08-06T09:26:04.059Z","","","","StressQ","","","","","","","","","","","50","","","","","","","","","","","","","","","","","","","","","","","","","","",""
"5049","","<div style=""width:500px;"">
  <p>What best describes how you currently feel?</p>
  </div>","100","html-slider-response","27","474460","0.0-7.0-4.2","161","1","2025-08-06 09:18:09","36c45c0696341be0efffe67d72a12abb","41.145.209.104","Mozilla/5.0 (Windows NT 10.0; Win64; x64) AppleWebKit/537.36 (KHTML, like Gecko) Chrome/138.0.0.0 Safari/537.36","WebKit","Chrome","138.0.0.0","Windows","10.0","https://app.prolific.com/","en-US,en;q=0.9","60ddcd80bbeb3c7f8958f6bf","687a1a965b9f5b85a264363e","68931a9f5beef26ac0602915","1","60ddcd80bbeb3c7f8958f6bf","1","2025-08-06T09:26:09.109Z","","","","MotivationQ","","","","","","","","","","","50","","","","","","","","","","","","","","","","","","","","","","","","","","",""
"","","","","ctl-task-cpt","28","507556","0.0-7.0-0.3","161","1","2025-08-06 09:18:09","36c45c0696341be0efffe67d72a12abb","41.145.209.104","Mozilla/5.0 (Windows NT 10.0; Win64; x64) AppleWebKit/537.36 (KHTML, like Gecko) Chrome/138.0.0.0 Safari/537.36","WebKit","Chrome","138.0.0.0","Windows","10.0","https://app.prolific.com/","en-US,en;q=0.9","60ddcd80bbeb3c7f8958f6bf","687a1a965b9f5b85a264363e","68931a9f5beef26ac0602915","1","60ddcd80bbeb3c7f8958f6bf","1","2025-08-06T09:26:42.206Z","","","","","","","","","","","","","","","","win-only","1","g1:NE,g2:SW","0.7","4","0","481929.9","3370.9","8371.5","30081.2","1","4","8","6","2","-8","-8","0","0","0","5000.6","3000","-1995","[""down"",""left""]","{""num_key_presses"":5,""num_perfect"":5,""num_errors"":0,""num_randdir"":0,""num_randdir_good_moves"":0,""num_whilered"":0,""num_whileblue"":0,""num_blue"":1,""num_good_moves"":4}","[422.8214133126395,415.32142761775424,0.9,422.8214133126395,415.32142761775424,106.2,422.8214133126395,415.32142761775424,215.3,571.5714133126395,435.32142761775424,322.2,957.8214133126395,507.82142761775424,423.5,966.5714133126395,511.57142761775424,531.5,966.5714133126395,511.57142761775424,635.1,966.5714133126395,511.57142761775424,736.1,966.5714133126395,511.57142761775424,853.8,966.5714133126395,511.57142761775424,956.1,966.5714133126395,511.57142761775424,1061.5,967.8214133126395,511.57142761775424,1171.5,967.8214133126395,511.57142761775424,1272.6,967.8214133126395,511.57142761775424,1372.6,967.8214133126395,511.57142761775424,1472.9,967.8214133126395,511.57142761775424,1578.7,967.8214133126395,511.57142761775424,1683.7,967.8214133126395,511.57142761775424,1789.1,967.8214133126395,511.57142761775424,1889.2,967.8214133126395,511.57142761775424,1999.5,967.8214133126395,511.57142761775424,2103,967.8214133126395,511.57142761775424,2219.4,967.8214133126395,511.57142761775424,2320.2,967.8214133126395,511.57142761775424,2430.3,967.8214133126395,511.57142761775424,2530.3,967.8214133126395,511.57142761775424,2630.7,967.8214133126395,511.57142761775424,2734.8,967.8214133126395,511.57142761775424,2835.2,967.8214133126395,511.57142761775424,2936.3,967.8214133126395,511.57142761775424,3046.4,967.8214133126395,511.57142761775424,3146.6,967.8214133126395,511.57142761775424,3247,967.8214133126395,511.57142761775424,3347.2,967.8214133126395,511.57142761775424,3450.6,967.8214133126395,511.57142761775424,3554.8,967.8214133126395,511.57142761775424,3663.3,967.8214133126395,511.57142761775424,3766.2,967.8214133126395,511.57142761775424,3869.9,967.8214133126395,511.57142761775424,3973.3,967.8214133126395,511.57142761775424,4077.3,967.8214133126395,511.57142761775424,4184.4,967.8214133126395,511.57142761775424,4284.6,967.8214133126395,511.57142761775424,4385.4,967.8214133126395,511.57142761775424,4487.2,967.8214133126395,511.57142761775424,4592,967.8214133126395,511.57142761775424,4703.8,967.8214133126395,511.57142761775424,4807.1,967.8214133126395,511.57142761775424,4912.6]","[1819.5,1819.5,1000,0,819.5,""smooth"",""right"",""right"",""bad_move"",5728.6,3905.4,2350.8,1823.2,1554.6,""smooth"",""down"",""down"",""good_move"",12628.8,6897.3,2172.9,9961.3,494.6,""smooth"",""left"",""left"",""good_move"",16161.6,3532.1,3007.3,12629.5,524.8,""smooth"",""down"",""down"",""good_move"",19051.3,2889.4,2100.2,16161.9,789.2,""smooth"",""left"",""left"",""good_move""]"
"3541","","<div style=""width:500px;"">
  <p>What determined the result of this run?</p>
  </div>","87","html-slider-response","29","511099","0.0-7.0-1.3","161","1","2025-08-06 09:18:09","36c45c0696341be0efffe67d72a12abb","41.145.209.104","Mozilla/5.0 (Windows NT 10.0; Win64; x64) AppleWebKit/537.36 (KHTML, like Gecko) Chrome/138.0.0.0 Safari/537.36","WebKit","Chrome","138.0.0.0","Windows","10.0","https://app.prolific.com/","en-US,en;q=0.9","60ddcd80bbeb3c7f8958f6bf","687a1a965b9f5b85a264363e","68931a9f5beef26ac0602915","1","60ddcd80bbeb3c7f8958f6bf","1","2025-08-06T09:26:45.749Z","","","","AttribQ","","","","","","","","","","","50","","","","","","","","","","","","","","","","","","","","","","","","","","",""
"4902","","<div style=""width:500px;"">
  <p>How much control did you have over the ball?</p>
  </div>","81","html-slider-response","30","516004","0.0-7.0-2.3","161","1","2025-08-06 09:18:09","36c45c0696341be0efffe67d72a12abb","41.145.209.104","Mozilla/5.0 (Windows NT 10.0; Win64; x64) AppleWebKit/537.36 (KHTML, like Gecko) Chrome/138.0.0.0 Safari/537.36","WebKit","Chrome","138.0.0.0","Windows","10.0","https://app.prolific.com/","en-US,en;q=0.9","60ddcd80bbeb3c7f8958f6bf","687a1a965b9f5b85a264363e","68931a9f5beef26ac0602915","1","60ddcd80bbeb3c7f8958f6bf","1","2025-08-06T09:26:50.653Z","","","","ControlQ","","","","","","","","","","","50","","","","","","","","","","","","","","","","","","","","","","","","","","",""
"5773","","<div style=""width:500px;"">
  <p>How would you describe your current emotional state?</p>
  </div>","0","html-slider-response","31","521779","0.0-7.0-3.3","161","1","2025-08-06 09:18:09","36c45c0696341be0efffe67d72a12abb","41.145.209.104","Mozilla/5.0 (Windows NT 10.0; Win64; x64) AppleWebKit/537.36 (KHTML, like Gecko) Chrome/138.0.0.0 Safari/537.36","WebKit","Chrome","138.0.0.0","Windows","10.0","https://app.prolific.com/","en-US,en;q=0.9","60ddcd80bbeb3c7f8958f6bf","687a1a965b9f5b85a264363e","68931a9f5beef26ac0602915","1","60ddcd80bbeb3c7f8958f6bf","1","2025-08-06T09:26:56.429Z","","","","StressQ","","","","","","","","","","","50","","","","","","","","","","","","","","","","","","","","","","","","","","",""
"3264","","<div style=""width:500px;"">
  <p>What best describes how you currently feel?</p>
  </div>","100","html-slider-response","32","525046","0.0-7.0-4.3","161","1","2025-08-06 09:18:09","36c45c0696341be0efffe67d72a12abb","41.145.209.104","Mozilla/5.0 (Windows NT 10.0; Win64; x64) AppleWebKit/537.36 (KHTML, like Gecko) Chrome/138.0.0.0 Safari/537.36","WebKit","Chrome","138.0.0.0","Windows","10.0","https://app.prolific.com/","en-US,en;q=0.9","60ddcd80bbeb3c7f8958f6bf","687a1a965b9f5b85a264363e","68931a9f5beef26ac0602915","1","60ddcd80bbeb3c7f8958f6bf","1","2025-08-06T09:26:59.695Z","","","","MotivationQ","","","","","","","","","","","50","","","","","","","","","","","","","","","","","","","","","","","","","","",""
"","","","","ctl-task-cpt","33","570396","0.0-7.0-0.4","161","1","2025-08-06 09:18:09","36c45c0696341be0efffe67d72a12abb","41.145.209.104","Mozilla/5.0 (Windows NT 10.0; Win64; x64) AppleWebKit/537.36 (KHTML, like Gecko) Chrome/138.0.0.0 Safari/537.36","WebKit","Chrome","138.0.0.0","Windows","10.0","https://app.prolific.com/","en-US,en;q=0.9","60ddcd80bbeb3c7f8958f6bf","687a1a965b9f5b85a264363e","68931a9f5beef26ac0602915","1","60ddcd80bbeb3c7f8958f6bf","1","2025-08-06T09:27:45.045Z","","","","","","","","","","","","","","","","win-only","3","g1:SW,g2:NE","0.6","5","0","532515.8","2745.7","7746.8","42329.4","1","4","4","6","1","-1","-2","0","0","0","5001.1","3000","-1505","[""down"",""left""]","{""num_key_presses"":10,""num_perfect"":5,""num_errors"":1,""num_randdir"":4,""num_randdir_good_moves"":1,""num_whilered"":0,""num_whileblue"":1,""num_blue"":2,""num_good_moves"":6}","[414.0714133126395,412.82142761775424,0.7,414.0714133126395,412.82142761775424,100.2,414.0714133126395,412.82142761775424,207.5,852.8214133126395,516.5714276177542,312.8,1036.5714133126396,537.8214276177542,435.5,1041.5714133126396,546.5714276177542,541.4,1041.5714133126396,546.5714276177542,645.2,1041.5714133126396,546.5714276177542,756.9,1041.5714133126396,546.5714276177542,875.3,1041.5714133126396,546.5714276177542,977.2,1041.5714133126396,546.5714276177542,1097,1041.5714133126396,546.5714276177542,1200.5,1041.5714133126396,546.5714276177542,1300.6,1041.5714133126396,546.5714276177542,1402.4,1041.5714133126396,546.5714276177542,1514.2,1041.5714133126396,546.5714276177542,1623.5,1041.5714133126396,546.5714276177542,1728.9,1041.5714133126396,546.5714276177542,1842.5,1041.5714133126396,546.5714276177542,1942.7,1041.5714133126396,546.5714276177542,2052,1041.5714133126396,546.5714276177542,2166.1,1041.5714133126396,546.5714276177542,2277.6,1041.5714133126396,546.5714276177542,2393.8,1041.5714133126396,546.5714276177542,2515.4,1041.5714133126396,546.5714276177542,2651.7,1041.5714133126396,546.5714276177542,2752.7,1041.5714133126396,546.5714276177542,2858.7,1041.5714133126396,546.5714276177542,2964.7,1041.5714133126396,546.5714276177542,3069.2,1041.5714133126396,546.5714276177542,3182.4,1041.5714133126396,546.5714276177542,3294.8,1041.5714133126396,546.5714276177542,3404.5,1041.5714133126396,546.5714276177542,3504.7,1041.5714133126396,546.5714276177542,3609.4,1041.5714133126396,546.5714276177542,3713.2,1041.5714133126396,546.5714276177542,3816.2,1041.5714133126396,546.5714276177542,3919.2,1041.5714133126396,546.5714276177542,4022.7,1041.5714133126396,546.5714276177542,4123.3,1041.5714133126396,546.5714276177542,4227.9,1041.5714133126396,546.5714276177542,4338.2,1041.5714133126396,546.5714276177542,4444.4,1041.5714133126396,546.5714276177542,4547.7,1041.5714133126396,546.5714276177542,4665,1041.5714133126396,546.5714276177542,4769.2,1041.5714133126396,546.5714276177542,4869.7,1041.5714133126396,546.5714276177542,4977]","[1612,1612,1000,0,612,""smooth"",""down"",""down"",""good_move"",4309.4,2695.9,2100.1,1613.5,595.8,""smooth"",""down"",""down"",""good_move"",7899.9,3589.9,3086.5,4310.1,503.4,""oops"",""left"",""right"",""bad_move"",13997.1,6096.5,2342.8,11110,544.3,""oops"",""left"",""up"",""bad_move"",16454.6,2456.6,1653.5,13998,803.2,""oops"",""left"",""right"",""bad_move"",19444.6,2989.3,2600.4,16455.3,388.9,""while_blue"",""down"",""up"",""bad_move"",22646.4,3198.6,2539.6,19447.9,658.9,""smooth"",""down"",""down"",""good_move"",26259.2,3611,3055.1,22648.2,555.9,""oops"",""down"",""down"",""good_move"",29111.4,2851.7,2280.5,26259.8,571.1,""smooth"",""left"",""left"",""good_move"",31936.3,2824.1,2345.4,29112.3,478.6,""smooth"",""left"",""left"",""good_move""]"
"4876","","<div style=""width:500px;"">
  <p>What determined the result of this run?</p>
  </div>","100","html-slider-response","34","575277","0.0-7.0-1.4","161","1","2025-08-06 09:18:09","36c45c0696341be0efffe67d72a12abb","41.145.209.104","Mozilla/5.0 (Windows NT 10.0; Win64; x64) AppleWebKit/537.36 (KHTML, like Gecko) Chrome/138.0.0.0 Safari/537.36","WebKit","Chrome","138.0.0.0","Windows","10.0","https://app.prolific.com/","en-US,en;q=0.9","60ddcd80bbeb3c7f8958f6bf","687a1a965b9f5b85a264363e","68931a9f5beef26ac0602915","1","60ddcd80bbeb3c7f8958f6bf","1","2025-08-06T09:27:49.926Z","","","","AttribQ","","","","","","","","","","","50","","","","","","","","","","","","","","","","","","","","","","","","","","",""
"5351","","<div style=""width:500px;"">
  <p>How much control did you have over the ball?</p>
  </div>","80","html-slider-response","35","580629","0.0-7.0-2.4","161","1","2025-08-06 09:18:09","36c45c0696341be0efffe67d72a12abb","41.145.209.104","Mozilla/5.0 (Windows NT 10.0; Win64; x64) AppleWebKit/537.36 (KHTML, like Gecko) Chrome/138.0.0.0 Safari/537.36","WebKit","Chrome","138.0.0.0","Windows","10.0","https://app.prolific.com/","en-US,en;q=0.9","60ddcd80bbeb3c7f8958f6bf","687a1a965b9f5b85a264363e","68931a9f5beef26ac0602915","1","60ddcd80bbeb3c7f8958f6bf","1","2025-08-06T09:27:55.278Z","","","","ControlQ","","","","","","","","","","","50","","","","","","","","","","","","","","","","","","","","","","","","","","",""
"5987","","<div style=""width:500px;"">
  <p>How would you describe your current emotional state?</p>
  </div>","0","html-slider-response","36","586619","0.0-7.0-3.4","161","1","2025-08-06 09:18:09","36c45c0696341be0efffe67d72a12abb","41.145.209.104","Mozilla/5.0 (Windows NT 10.0; Win64; x64) AppleWebKit/537.36 (KHTML, like Gecko) Chrome/138.0.0.0 Safari/537.36","WebKit","Chrome","138.0.0.0","Windows","10.0","https://app.prolific.com/","en-US,en;q=0.9","60ddcd80bbeb3c7f8958f6bf","687a1a965b9f5b85a264363e","68931a9f5beef26ac0602915","1","60ddcd80bbeb3c7f8958f6bf","1","2025-08-06T09:28:01.268Z","","","","StressQ","","","","","","","","","","","50","","","","","","","","","","","","","","","","","","","","","","","","","","",""
"8039","","<div style=""width:500px;"">
  <p>What best describes how you currently feel?</p>
  </div>","100","html-slider-response","37","594660","0.0-7.0-4.4","161","1","2025-08-06 09:18:09","36c45c0696341be0efffe67d72a12abb","41.145.209.104","Mozilla/5.0 (Windows NT 10.0; Win64; x64) AppleWebKit/537.36 (KHTML, like Gecko) Chrome/138.0.0.0 Safari/537.36","WebKit","Chrome","138.0.0.0","Windows","10.0","https://app.prolific.com/","en-US,en;q=0.9","60ddcd80bbeb3c7f8958f6bf","687a1a965b9f5b85a264363e","68931a9f5beef26ac0602915","1","60ddcd80bbeb3c7f8958f6bf","1","2025-08-06T09:28:09.309Z","","","","MotivationQ","","","","","","","","","","","50","","","","","","","","","","","","","","","","","","","","","","","","","","",""
"","","","","ctl-task-cpt","38","662431","0.0-7.0-0.5","161","1","2025-08-06 09:18:09","36c45c0696341be0efffe67d72a12abb","41.145.209.104","Mozilla/5.0 (Windows NT 10.0; Win64; x64) AppleWebKit/537.36 (KHTML, like Gecko) Chrome/138.0.0.0 Safari/537.36","WebKit","Chrome","138.0.0.0","Windows","10.0","https://app.prolific.com/","en-US,en;q=0.9","60ddcd80bbeb3c7f8958f6bf","687a1a965b9f5b85a264363e","68931a9f5beef26ac0602915","1","60ddcd80bbeb3c7f8958f6bf","1","2025-08-06T09:29:17.080Z","","","","","","","","","","","","","","","","win-only","0","g1:NW,g2:SE","0.5","6","0","602129.5","6385.8","11389.4","64731.6","1","4","8","6","1","-1","-1","0","0","0","5003.6","3000","-1715","[""left"",""up""]","{""num_key_presses"":10,""num_perfect"":5,""num_errors"":0,""num_randdir"":5,""num_randdir_good_moves"":1,""num_whilered"":0,""num_whileblue"":0,""num_blue"":6,""num_good_moves"":6}","[410.3214133126395,416.57142761775424,2,410.3214133126395,416.57142761775424,102.8,410.3214133126395,416.57142761775424,208.4,410.3214133126395,416.57142761775424,321.4,410.3214133126395,416.57142761775424,429.7,410.3214133126395,416.57142761775424,571.5,410.3214133126395,416.57142761775424,672.7,410.3214133126395,416.57142761775424,779.8,410.3214133126395,416.57142761775424,889.2,410.3214133126395,416.57142761775424,989.4,410.3214133126395,416.57142761775424,1090.9,410.3214133126395,416.57142761775424,1227.5,410.3214133126395,416.57142761775424,1336.6,992.8214133126395,565.3214276177542,1442,1141.5714133126396,609.0714276177542,1550.7,1141.5714133126396,609.0714276177542,1657.2,1156.5714133126396,559.0714276177542,1760.5,1182.8214133126396,521.5714276177542,1868.3,1182.8214133126396,521.5714276177542,1972.8,1182.8214133126396,521.5714276177542,2079.8,1182.8214133126396,521.5714276177542,2185.3,1182.8214133126396,521.5714276177542,2288.8,1182.8214133126396,521.5714276177542,2388.9,1182.8214133126396,521.5714276177542,2516.6,1182.8214133126396,521.5714276177542,2624,1182.8214133126396,521.5714276177542,2761.4,1182.8214133126396,521.5714276177542,2861.5,1182.8214133126396,521.5714276177542,2967.7,1182.8214133126396,521.5714276177542,3071.3,1182.8214133126396,521.5714276177542,3175.1,1182.8214133126396,521.5714276177542,3277.7,1182.8214133126396,521.5714276177542,3384.1,1182.8214133126396,521.5714276177542,3485.7,1182.8214133126396,521.5714276177542,3585.7,1182.8214133126396,521.5714276177542,3688.3,1182.8214133126396,521.5714276177542,3788.3,1182.8214133126396,521.5714276177542,3905.6,1182.8214133126396,521.5714276177542,4026.6,1182.8214133126396,521.5714276177542,4134.5,1182.8214133126396,521.5714276177542,4237.3,1182.8214133126396,521.5714276177542,4344,1182.8214133126396,521.5714276177542,4444.7,1182.8214133126396,521.5714276177542,4556.6,1182.8214133126396,521.5714276177542,4663.7,1182.8214133126396,521.5714276177542,4782,1182.8214133126396,521.5714276177542,4883.4,1182.8214133126396,521.5714276177542,4984.3]","[1701.9,1701.9,1000,0,701.9,""smooth"",""left"",""left"",""good_move"",5065,3362.2,2598.9,1702.8,763.3,""oops"",""left"",""right"",""bad_move"",8486.4,3420.3,2853.8,5066.1,566.5,""oops"",""left"",""left"",""good_move"",23057.9,14566.4,2761.7,19785.4,510.8,""smooth"",""left"",""left"",""good_move"",26298.5,3240.3,2584.7,23058.2,655.6,""oops"",""up"",""down"",""bad_move"",39954.1,13654.4,2871.8,36581.9,500.4,""smooth"",""up"",""up"",""good_move"",42820.4,2864.8,2368.6,39955.6,496.2,""oops"",""up"",""down"",""bad_move"",45925.3,3101.9,2317.1,42823.4,784.8,""smooth"",""up"",""up"",""good_move"",48394.6,2468.1,1969.9,45926.5,498.2,""smooth"",""up"",""up"",""good_move"",50591,2194.8,1835.8,48396.3,358.9,""oops"",""up"",""down"",""bad_move""]"
"3897","","<div style=""width:500px;"">
  <p>What determined the result of this run?</p>
  </div>","82","html-slider-response","39","666331","0.0-7.0-1.5","161","1","2025-08-06 09:18:09","36c45c0696341be0efffe67d72a12abb","41.145.209.104","Mozilla/5.0 (Windows NT 10.0; Win64; x64) AppleWebKit/537.36 (KHTML, like Gecko) Chrome/138.0.0.0 Safari/537.36","WebKit","Chrome","138.0.0.0","Windows","10.0","https://app.prolific.com/","en-US,en;q=0.9","60ddcd80bbeb3c7f8958f6bf","687a1a965b9f5b85a264363e","68931a9f5beef26ac0602915","1","60ddcd80bbeb3c7f8958f6bf","1","2025-08-06T09:29:20.980Z","","","","AttribQ","","","","","","","","","","","50","","","","","","","","","","","","","","","","","","","","","","","","","","",""
"5255","","<div style=""width:500px;"">
  <p>How much control did you have over the ball?</p>
  </div>","64","html-slider-response","40","671588","0.0-7.0-2.5","161","1","2025-08-06 09:18:09","36c45c0696341be0efffe67d72a12abb","41.145.209.104","Mozilla/5.0 (Windows NT 10.0; Win64; x64) AppleWebKit/537.36 (KHTML, like Gecko) Chrome/138.0.0.0 Safari/537.36","WebKit","Chrome","138.0.0.0","Windows","10.0","https://app.prolific.com/","en-US,en;q=0.9","60ddcd80bbeb3c7f8958f6bf","687a1a965b9f5b85a264363e","68931a9f5beef26ac0602915","1","60ddcd80bbeb3c7f8958f6bf","1","2025-08-06T09:29:26.238Z","","","","ControlQ","","","","","","","","","","","50","","","","","","","","","","","","","","","","","","","","","","","","","","",""
"5581","","<div style=""width:500px;"">
  <p>How would you describe your current emotional state?</p>
  </div>","0","html-slider-response","41","677171","0.0-7.0-3.5","161","1","2025-08-06 09:18:09","36c45c0696341be0efffe67d72a12abb","41.145.209.104","Mozilla/5.0 (Windows NT 10.0; Win64; x64) AppleWebKit/537.36 (KHTML, like Gecko) Chrome/138.0.0.0 Safari/537.36","WebKit","Chrome","138.0.0.0","Windows","10.0","https://app.prolific.com/","en-US,en;q=0.9","60ddcd80bbeb3c7f8958f6bf","687a1a965b9f5b85a264363e","68931a9f5beef26ac0602915","1","60ddcd80bbeb3c7f8958f6bf","1","2025-08-06T09:29:31.821Z","","","","StressQ","","","","","","","","","","","50","","","","","","","","","","","","","","","","","","","","","","","","","","",""
"3439","","<div style=""width:500px;"">
  <p>What best describes how you currently feel?</p>
  </div>","100","html-slider-response","42","680612","0.0-7.0-4.5","161","1","2025-08-06 09:18:09","36c45c0696341be0efffe67d72a12abb","41.145.209.104","Mozilla/5.0 (Windows NT 10.0; Win64; x64) AppleWebKit/537.36 (KHTML, like Gecko) Chrome/138.0.0.0 Safari/537.36","WebKit","Chrome","138.0.0.0","Windows","10.0","https://app.prolific.com/","en-US,en;q=0.9","60ddcd80bbeb3c7f8958f6bf","687a1a965b9f5b85a264363e","68931a9f5beef26ac0602915","1","60ddcd80bbeb3c7f8958f6bf","1","2025-08-06T09:29:35.261Z","","","","MotivationQ","","","","","","","","","","","50","","","","","","","","","","","","","","","","","","","","","","","","","","",""
"","","","","ctl-task-cpt","43","791441","0.0-7.0-0.6","161","1","2025-08-06 09:18:09","36c45c0696341be0efffe67d72a12abb","41.145.209.104","Mozilla/5.0 (Windows NT 10.0; Win64; x64) AppleWebKit/537.36 (KHTML, like Gecko) Chrome/138.0.0.0 Safari/537.36","WebKit","Chrome","138.0.0.0","Windows","10.0","https://app.prolific.com/","en-US,en;q=0.9","60ddcd80bbeb3c7f8958f6bf","687a1a965b9f5b85a264363e","68931a9f5beef26ac0602915","1","60ddcd80bbeb3c7f8958f6bf","1","2025-08-06T09:31:26.091Z","","","","","","","","","","","","","","","","win-only","1","g1:NE,g2:SW","0.4","7","0","688080.8","48604.5","53608.9","107803.9","1","4","8","6","1","-1","-1","0","0","0","5004.4","3000","-1520","[""up"",""right""]","{""num_key_presses"":13,""num_perfect"":5,""num_errors"":0,""num_randdir"":8,""num_randdir_good_moves"":3,""num_whilered"":0,""num_whileblue"":0,""num_blue"":4,""num_good_moves"":8}","[416.5714133126395,410.32142761775424,0.4,416.5714133126395,410.32142761775424,104,416.5714133126395,410.32142761775424,235.6,416.5714133126395,410.32142761775424,367.9,416.5714133126395,410.32142761775424,469.6,416.5714133126395,410.32142761775424,577,416.5714133126395,410.32142761775424,677.1,417.8214133126395,436.57142761775424,796.3,485.3214133126395,594.0714276177542,924.7,746.5714133126395,835.3214276177542,1032.3,747.8214133126395,835.3214276177542,1133.8,747.8214133126395,835.3214276177542,1236.1,747.8214133126395,835.3214276177542,1362.4,747.8214133126395,835.3214276177542,1487.6,747.8214133126395,835.3214276177542,1589,747.8214133126395,835.3214276177542,1719.2,747.8214133126395,835.3214276177542,1822.8,747.8214133126395,835.3214276177542,1963.2,747.8214133126395,835.3214276177542,2073.1,747.8214133126395,835.3214276177542,2176.8,747.8214133126395,835.3214276177542,2282.3,747.8214133126395,835.3214276177542,2388.8,747.8214133126395,835.3214276177542,2503.3,747.8214133126395,835.3214276177542,2606.1,747.8214133126395,835.3214276177542,2737.1,747.8214133126395,835.3214276177542,2838.9,747.8214133126395,835.3214276177542,2940,747.8214133126395,835.3214276177542,3052,747.8214133126395,835.3214276177542,3155,747.8214133126395,835.3214276177542,3259.4,747.8214133126395,835.3214276177542,3382,747.8214133126395,835.3214276177542,3498.3,747.8214133126395,835.3214276177542,3609.4,747.8214133126395,835.3214276177542,3711.1,747.8214133126395,835.3214276177542,3818.1,747.8214133126395,835.3214276177542,3920.3,747.8214133126395,835.3214276177542,4022.3,747.8214133126395,835.3214276177542,4133.8,747.8214133126395,835.3214276177542,4239.5,747.8214133126395,835.3214276177542,4339.9,747.8214133126395,835.3214276177542,4442.5,747.8214133126395,835.3214276177542,4544.3,747.8214133126395,835.3214276177542,4661,747.8214133126395,835.3214276177542,4779.7,747.8214133126395,835.3214276177542,4885.4]","[1610.7,1610.7,1000,0,610.7,""smooth"",""right"",""right"",""good_move"",8113.8,6500.8,2829.3,4762,522.6,""oops"",""right"",""left"",""bad_move"",11630.4,3515,2780.6,8115.4,734.4,""oops"",""right"",""down"",""bad_move"",14104.6,2473.6,1990.4,11631.1,483.2,""oops"",""up"",""up"",""good_move"",19894.3,5787.7,2453,16996.5,444.8,""oops"",""up"",""up"",""good_move"",23207.9,3312.6,2826.5,19895.3,486.1,""smooth"",""up"",""up"",""good_move"",26860.3,3651.9,3208.7,23208.4,443.2,""oops"",""right"",""left"",""bad_move"",30390.5,3529.2,3075.9,26861.3,453.3,""smooth"",""right"",""right"",""good_move"",33257.6,2865.4,2408.9,30392.3,456.5,""oops"",""right"",""down"",""bad_move"",39050,5786.7,2082.3,36580.7,387,""smooth"",""right"",""right"",""good_move"",42427.8,3377.2,2841.7,39050.6,535.5,""oops"",""right"",""up"",""good_move"",45535,3105.8,2708.4,42429.2,397.4,""oops"",""right"",""down"",""bad_move"",51279.4,5739.8,2409,48474.3,396.2,""smooth"",""right"",""right"",""good_move""]"
"9151","","<div style=""width:500px;"">
  <p>What determined the result of this run?</p>
  </div>","85","html-slider-response","44","800595","0.0-7.0-1.6","161","1","2025-08-06 09:18:09","36c45c0696341be0efffe67d72a12abb","41.145.209.104","Mozilla/5.0 (Windows NT 10.0; Win64; x64) AppleWebKit/537.36 (KHTML, like Gecko) Chrome/138.0.0.0 Safari/537.36","WebKit","Chrome","138.0.0.0","Windows","10.0","https://app.prolific.com/","en-US,en;q=0.9","60ddcd80bbeb3c7f8958f6bf","687a1a965b9f5b85a264363e","68931a9f5beef26ac0602915","1","60ddcd80bbeb3c7f8958f6bf","1","2025-08-06T09:31:35.244Z","","","","AttribQ","","","","","","","","","","","50","","","","","","","","","","","","","","","","","","","","","","","","","","",""
"6797","","<div style=""width:500px;"">
  <p>How much control did you have over the ball?</p>
  </div>","77","html-slider-response","45","807396","0.0-7.0-2.6","161","1","2025-08-06 09:18:09","36c45c0696341be0efffe67d72a12abb","41.145.209.104","Mozilla/5.0 (Windows NT 10.0; Win64; x64) AppleWebKit/537.36 (KHTML, like Gecko) Chrome/138.0.0.0 Safari/537.36","WebKit","Chrome","138.0.0.0","Windows","10.0","https://app.prolific.com/","en-US,en;q=0.9","60ddcd80bbeb3c7f8958f6bf","687a1a965b9f5b85a264363e","68931a9f5beef26ac0602915","1","60ddcd80bbeb3c7f8958f6bf","1","2025-08-06T09:31:42.046Z","","","","ControlQ","","","","","","","","","","","50","","","","","","","","","","","","","","","","","","","","","","","","","","",""
"10299","","<div style=""width:500px;"">
  <p>How would you describe your current emotional state?</p>
  </div>","0","html-slider-response","46","817698","0.0-7.0-3.6","161","1","2025-08-06 09:18:09","36c45c0696341be0efffe67d72a12abb","41.145.209.104","Mozilla/5.0 (Windows NT 10.0; Win64; x64) AppleWebKit/537.36 (KHTML, like Gecko) Chrome/138.0.0.0 Safari/537.36","WebKit","Chrome","138.0.0.0","Windows","10.0","https://app.prolific.com/","en-US,en;q=0.9","60ddcd80bbeb3c7f8958f6bf","687a1a965b9f5b85a264363e","68931a9f5beef26ac0602915","1","60ddcd80bbeb3c7f8958f6bf","1","2025-08-06T09:31:52.347Z","","","","StressQ","","","","","","","","","","","50","","","","","","","","","","","","","","","","","","","","","","","","","","",""
"4567","","<div style=""width:500px;"">
  <p>What best describes how you currently feel?</p>
  </div>","100","html-slider-response","47","822267","0.0-7.0-4.6","161","1","2025-08-06 09:18:09","36c45c0696341be0efffe67d72a12abb","41.145.209.104","Mozilla/5.0 (Windows NT 10.0; Win64; x64) AppleWebKit/537.36 (KHTML, like Gecko) Chrome/138.0.0.0 Safari/537.36","WebKit","Chrome","138.0.0.0","Windows","10.0","https://app.prolific.com/","en-US,en;q=0.9","60ddcd80bbeb3c7f8958f6bf","687a1a965b9f5b85a264363e","68931a9f5beef26ac0602915","1","60ddcd80bbeb3c7f8958f6bf","1","2025-08-06T09:31:56.916Z","","","","MotivationQ","","","","","","","","","","","50","","","","","","","","","","","","","","","","","","","","","","","","","","",""
"","","","","ctl-task-cpt","48","906480","0.0-7.0-0.7","161","1","2025-08-06 09:18:09","36c45c0696341be0efffe67d72a12abb","41.145.209.104","Mozilla/5.0 (Windows NT 10.0; Win64; x64) AppleWebKit/537.36 (KHTML, like Gecko) Chrome/138.0.0.0 Safari/537.36","WebKit","Chrome","138.0.0.0","Windows","10.0","https://app.prolific.com/","en-US,en;q=0.9","60ddcd80bbeb3c7f8958f6bf","687a1a965b9f5b85a264363e","68931a9f5beef26ac0602915","1","60ddcd80bbeb3c7f8958f6bf","1","2025-08-06T09:33:21.130Z","","","","","","","","","","","","","","","","win-only","2","g1:SE,g2:NW","0.3","8","0","829734","19992.4","24999.8","81202.4","1","4","4","6","2","-4","-4","0","0","0","5007.4","3000","-1235","[""left"",""up""]","{""num_key_presses"":11,""num_perfect"":3,""num_errors"":0,""num_randdir"":8,""num_randdir_good_moves"":3,""num_whilered"":0,""num_whileblue"":0,""num_blue"":6,""num_good_moves"":6}","[420.3214133126395,416.57142761775424,1.8,420.3214133126395,416.57142761775424,119.6,420.3214133126395,416.57142761775424,223.8,420.3214133126395,416.57142761775424,343.4,420.3214133126395,416.57142761775424,443.5,420.3214133126395,416.57142761775424,546.2,420.3214133126395,416.57142761775424,647.9,420.3214133126395,416.57142761775424,763.5,564.0714133126395,427.82142761775424,864.4,956.5714133126395,536.5714276177542,966.3,1021.5714133126395,571.5714276177542,1094.1,1021.5714133126395,571.5714276177542,1198.8,1025.3214133126396,571.5714276177542,1298.8,1025.3214133126396,571.5714276177542,1406.7,1025.3214133126396,571.5714276177542,1512,1025.3214133126396,571.5714276177542,1656.7,1025.3214133126396,571.5714276177542,1758.4,1025.3214133126396,571.5714276177542,1859,1025.3214133126396,571.5714276177542,1975.3,1025.3214133126396,571.5714276177542,2089.9,1025.3214133126396,571.5714276177542,2197.8,1025.3214133126396,571.5714276177542,2311.9,1025.3214133126396,571.5714276177542,2420.6,1025.3214133126396,571.5714276177542,2526.5,1025.3214133126396,571.5714276177542,2630.1,1025.3214133126396,571.5714276177542,2731.5,1025.3214133126396,571.5714276177542,2836.5,1025.3214133126396,571.5714276177542,2939.7,1025.3214133126396,571.5714276177542,3040.2,1025.3214133126396,571.5714276177542,3187.2,1025.3214133126396,571.5714276177542,3311.7,1025.3214133126396,571.5714276177542,3421.3,1025.3214133126396,571.5714276177542,3529.9,1025.3214133126396,571.5714276177542,3646,1025.3214133126396,571.5714276177542,3751.4,1025.3214133126396,571.5714276177542,3873.8,1025.3214133126396,571.5714276177542,3974.6,1025.3214133126396,571.5714276177542,4077.6,1025.3214133126396,571.5714276177542,4183.2,1025.3214133126396,571.5714276177542,4304.3,1025.3214133126396,571.5714276177542,4421.3,1025.3214133126396,571.5714276177542,4539.9,1025.3214133126396,571.5714276177542,4646.8,1025.3214133126396,571.5714276177542,4756.1,1025.3214133126396,571.5714276177542,4857.7,1025.3214133126396,571.5714276177542,4961.7]","[5791.9,5791.9,3295.1,2021.4,475.4,""oops"",""up"",""down"",""bad_move"",9230.4,3437.2,2840.6,5793.3,596.5,""oops"",""up"",""left"",""good_move"",11990.9,2759.1,2211.9,9231.8,547.2,""smooth"",""up"",""up"",""good_move"",14758.1,2765.5,2357.2,11992.6,408.3,""oops"",""up"",""up"",""good_move"",17624.9,2865.3,2412.7,14759.6,452.6,""oops"",""up"",""down"",""bad_move"",20537.6,2910,2278.6,17627.6,631.4,""oops"",""up"",""down"",""bad_move"",23417.8,2878.6,2096.8,20539.2,781.8,""oops"",""left"",""up"",""good_move"",30106.9,6688.3,2657.8,27048.2,400.9,""smooth"",""left"",""left"",""good_move"",43463.8,13356.2,2208.7,40397.7,857.4,""smooth"",""left"",""left"",""good_move"",46296.3,2832.2,2302.3,43464.2,529.9,""oops"",""up"",""down"",""bad_move"",49479.7,3182.6,2586.2,46297.2,596.3,""oops"",""up"",""right"",""bad_move""]"
"4599","","<div style=""width:500px;"">
  <p>What determined the result of this run?</p>
  </div>","87","html-slider-response","49","911083","0.0-7.0-1.7","161","1","2025-08-06 09:18:09","36c45c0696341be0efffe67d72a12abb","41.145.209.104","Mozilla/5.0 (Windows NT 10.0; Win64; x64) AppleWebKit/537.36 (KHTML, like Gecko) Chrome/138.0.0.0 Safari/537.36","WebKit","Chrome","138.0.0.0","Windows","10.0","https://app.prolific.com/","en-US,en;q=0.9","60ddcd80bbeb3c7f8958f6bf","687a1a965b9f5b85a264363e","68931a9f5beef26ac0602915","1","60ddcd80bbeb3c7f8958f6bf","1","2025-08-06T09:33:25.732Z","","","","AttribQ","","","","","","","","","","","50","","","","","","","","","","","","","","","","","","","","","","","","","","",""
"3430","","<div style=""width:500px;"">
  <p>How much control did you have over the ball?</p>
  </div>","23","html-slider-response","50","914514","0.0-7.0-2.7","161","1","2025-08-06 09:18:09","36c45c0696341be0efffe67d72a12abb","41.145.209.104","Mozilla/5.0 (Windows NT 10.0; Win64; x64) AppleWebKit/537.36 (KHTML, like Gecko) Chrome/138.0.0.0 Safari/537.36","WebKit","Chrome","138.0.0.0","Windows","10.0","https://app.prolific.com/","en-US,en;q=0.9","60ddcd80bbeb3c7f8958f6bf","687a1a965b9f5b85a264363e","68931a9f5beef26ac0602915","1","60ddcd80bbeb3c7f8958f6bf","1","2025-08-06T09:33:29.164Z","","","","ControlQ","","","","","","","","","","","50","","","","","","","","","","","","","","","","","","","","","","","","","","",""
"4566","","<div style=""width:500px;"">
  <p>How would you describe your current emotional state?</p>
  </div>","0","html-slider-response","51","919083","0.0-7.0-3.7","161","1","2025-08-06 09:18:09","36c45c0696341be0efffe67d72a12abb","41.145.209.104","Mozilla/5.0 (Windows NT 10.0; Win64; x64) AppleWebKit/537.36 (KHTML, like Gecko) Chrome/138.0.0.0 Safari/537.36","WebKit","Chrome","138.0.0.0","Windows","10.0","https://app.prolific.com/","en-US,en;q=0.9","60ddcd80bbeb3c7f8958f6bf","687a1a965b9f5b85a264363e","68931a9f5beef26ac0602915","1","60ddcd80bbeb3c7f8958f6bf","1","2025-08-06T09:33:33.732Z","","","","StressQ","","","","","","","","","","","50","","","","","","","","","","","","","","","","","","","","","","","","","","",""
"4127","","<div style=""width:500px;"">
  <p>What best describes how you currently feel?</p>
  </div>","100","html-slider-response","52","923213","0.0-7.0-4.7","161","1","2025-08-06 09:18:09","36c45c0696341be0efffe67d72a12abb","41.145.209.104","Mozilla/5.0 (Windows NT 10.0; Win64; x64) AppleWebKit/537.36 (KHTML, like Gecko) Chrome/138.0.0.0 Safari/537.36","WebKit","Chrome","138.0.0.0","Windows","10.0","https://app.prolific.com/","en-US,en;q=0.9","60ddcd80bbeb3c7f8958f6bf","687a1a965b9f5b85a264363e","68931a9f5beef26ac0602915","1","60ddcd80bbeb3c7f8958f6bf","1","2025-08-06T09:33:37.862Z","","","","MotivationQ","","","","","","","","","","","50","","","","","","","","","","","","","","","","","","","","","","","","","","",""
"","","","","ctl-task-cpt","53","1005214","0.0-7.0-0.8","161","1","2025-08-06 09:18:09","36c45c0696341be0efffe67d72a12abb","41.145.209.104","Mozilla/5.0 (Windows NT 10.0; Win64; x64) AppleWebKit/537.36 (KHTML, like Gecko) Chrome/138.0.0.0 Safari/537.36","WebKit","Chrome","138.0.0.0","Windows","10.0","https://app.prolific.com/","en-US,en;q=0.9","60ddcd80bbeb3c7f8958f6bf","687a1a965b9f5b85a264363e","68931a9f5beef26ac0602915","1","60ddcd80bbeb3c7f8958f6bf","1","2025-08-06T09:34:59.863Z","","","","","","","","","","","","","","","","win-only","1","g1:NE,g2:SW","0.4","9","0","930684","13281","18293.8","78977.6","1","4","8","6","1","-1","-1","0","0","0","5012.8","3000","-1230","[""up"",""right""]","{""num_key_presses"":14,""num_perfect"":6,""num_errors"":0,""num_randdir"":8,""num_randdir_good_moves"":1,""num_whilered"":0,""num_whileblue"":0,""num_blue"":4,""num_good_moves"":7}","[415.3214133126395,416.57142761775424,2.2,415.3214133126395,416.57142761775424,104.9,415.3214133126395,416.57142761775424,232.1,415.3214133126395,416.57142761775424,338.3,415.3214133126395,416.57142761775424,438.9,415.3214133126395,416.57142761775424,541.1,415.3214133126395,416.57142761775424,654.4,415.3214133126395,416.57142761775424,760.6,415.3214133126395,416.57142761775424,864,521.5714133126395,455.32142761775424,996.5,541.5714133126395,457.82142761775424,1103.3,1014.0714133126395,376.57142761775424,1238.6,1214.0714133126396,285.32142761775424,1368.5,1215.3214133126396,285.32142761775424,1471.9,1021.5714133126395,364.07142761775424,1577.9,960.3214133126395,391.57142761775424,1690.8,960.3214133126395,391.57142761775424,1813.9,960.3214133126395,391.57142761775424,1916.8,960.3214133126395,391.57142761775424,2023.7,960.3214133126395,391.57142761775424,2128.6,960.3214133126395,391.57142761775424,2237.5,960.3214133126395,391.57142761775424,2344.4,960.3214133126395,391.57142761775424,2454.1,960.3214133126395,391.57142761775424,2564,960.3214133126395,391.57142761775424,2672.3,960.3214133126395,391.57142761775424,2790.4,960.3214133126395,391.57142761775424,2922.1,960.3214133126395,391.57142761775424,3038.3,960.3214133126395,391.57142761775424,3171.4,960.3214133126395,391.57142761775424,3308.1,960.3214133126395,391.57142761775424,3411.5,960.3214133126395,391.57142761775424,3511.6,960.3214133126395,391.57142761775424,3615,960.3214133126395,391.57142761775424,3726.1,960.3214133126395,391.57142761775424,3838.5,960.3214133126395,391.57142761775424,3940,960.3214133126395,391.57142761775424,4063.8,960.3214133126395,391.57142761775424,4169.3,960.3214133126395,391.57142761775424,4275,960.3214133126395,391.57142761775424,4378.1,960.3214133126395,391.57142761775424,4491,960.3214133126395,391.57142761775424,4627.7,960.3214133126395,391.57142761775424,4751.1,960.3214133126395,391.57142761775424,4854.7,960.3214133126395,391.57142761775424,4962.7]","[1952.7,1952.8,1000,0,952.8,""oops"",""up"",""down"",""bad_move"",5371.3,3417,2769.2,1954.3,647.9,""oops"",""right"",""down"",""bad_move"",11754.9,6380.1,2881.3,8410.2,463.5,""smooth"",""up"",""up"",""good_move"",15021.8,3265,2769.8,11756.8,495.2,""smooth"",""up"",""up"",""good_move"",18035.7,3011.2,2481.4,15024.5,529.8,""smooth"",""up"",""up"",""good_move"",21304,3266.4,2099,18037.6,1167.4,""oops"",""right"",""down"",""bad_move"",28197.4,6892.2,2476,25321.6,399.8,""oops"",""up"",""left"",""bad_move"",31474.2,3274.9,2330,28199.4,944.8,""oops"",""up"",""down"",""bad_move"",34230.5,2755.8,2326,31474.7,429.8,""smooth"",""right"",""right"",""good_move"",40790.7,6559.1,2650.5,37658.2,482,""oops"",""right"",""down"",""bad_move"",44560.2,3768.5,3165.6,40791.7,602.9,""oops"",""right"",""up"",""good_move"",47546.2,2985.4,2339.4,44560.9,646.1,""smooth"",""right"",""right"",""good_move"",50648.7,3100.5,2650.4,47548.4,450,""oops"",""right"",""down"",""bad_move"",57951.5,7299.3,2717.9,54666.3,567.3,""smooth"",""right"",""right"",""good_move""]"
"4961","","<div style=""width:500px;"">
  <p>What determined the result of this run?</p>
  </div>","88","html-slider-response","54","1010180","0.0-7.0-1.8","161","1","2025-08-06 09:18:09","36c45c0696341be0efffe67d72a12abb","41.145.209.104","Mozilla/5.0 (Windows NT 10.0; Win64; x64) AppleWebKit/537.36 (KHTML, like Gecko) Chrome/138.0.0.0 Safari/537.36","WebKit","Chrome","138.0.0.0","Windows","10.0","https://app.prolific.com/","en-US,en;q=0.9","60ddcd80bbeb3c7f8958f6bf","687a1a965b9f5b85a264363e","68931a9f5beef26ac0602915","1","60ddcd80bbeb3c7f8958f6bf","1","2025-08-06T09:35:04.829Z","","","","AttribQ","","","","","","","","","","","50","","","","","","","","","","","","","","","","","","","","","","","","","","",""
"4516","","<div style=""width:500px;"">
  <p>How much control did you have over the ball?</p>
  </div>","11","html-slider-response","55","1014699","0.0-7.0-2.8","161","1","2025-08-06 09:18:09","36c45c0696341be0efffe67d72a12abb","41.145.209.104","Mozilla/5.0 (Windows NT 10.0; Win64; x64) AppleWebKit/537.36 (KHTML, like Gecko) Chrome/138.0.0.0 Safari/537.36","WebKit","Chrome","138.0.0.0","Windows","10.0","https://app.prolific.com/","en-US,en;q=0.9","60ddcd80bbeb3c7f8958f6bf","687a1a965b9f5b85a264363e","68931a9f5beef26ac0602915","1","60ddcd80bbeb3c7f8958f6bf","1","2025-08-06T09:35:09.349Z","","","","ControlQ","","","","","","","","","","","50","","","","","","","","","","","","","","","","","","","","","","","","","","",""
"4596","","<div style=""width:500px;"">
  <p>How would you describe your current emotional state?</p>
  </div>","0","html-slider-response","56","1019298","0.0-7.0-3.8","161","1","2025-08-06 09:18:09","36c45c0696341be0efffe67d72a12abb","41.145.209.104","Mozilla/5.0 (Windows NT 10.0; Win64; x64) AppleWebKit/537.36 (KHTML, like Gecko) Chrome/138.0.0.0 Safari/537.36","WebKit","Chrome","138.0.0.0","Windows","10.0","https://app.prolific.com/","en-US,en;q=0.9","60ddcd80bbeb3c7f8958f6bf","687a1a965b9f5b85a264363e","68931a9f5beef26ac0602915","1","60ddcd80bbeb3c7f8958f6bf","1","2025-08-06T09:35:13.947Z","","","","StressQ","","","","","","","","","","","50","","","","","","","","","","","","","","","","","","","","","","","","","","",""
"4623","","<div style=""width:500px;"">
  <p>What best describes how you currently feel?</p>
  </div>","100","html-slider-response","57","1023922","0.0-7.0-4.8","161","1","2025-08-06 09:18:09","36c45c0696341be0efffe67d72a12abb","41.145.209.104","Mozilla/5.0 (Windows NT 10.0; Win64; x64) AppleWebKit/537.36 (KHTML, like Gecko) Chrome/138.0.0.0 Safari/537.36","WebKit","Chrome","138.0.0.0","Windows","10.0","https://app.prolific.com/","en-US,en;q=0.9","60ddcd80bbeb3c7f8958f6bf","687a1a965b9f5b85a264363e","68931a9f5beef26ac0602915","1","60ddcd80bbeb3c7f8958f6bf","1","2025-08-06T09:35:18.572Z","","","","MotivationQ","","","","","","","","","","","50","","","","","","","","","","","","","","","","","","","","","","","","","","",""
"","","","","ctl-task-cpt","58","1138105","0.0-7.0-0.9","161","1","2025-08-06 09:18:09","36c45c0696341be0efffe67d72a12abb","41.145.209.104","Mozilla/5.0 (Windows NT 10.0; Win64; x64) AppleWebKit/537.36 (KHTML, like Gecko) Chrome/138.0.0.0 Safari/537.36","WebKit","Chrome","138.0.0.0","Windows","10.0","https://app.prolific.com/","en-US,en;q=0.9","60ddcd80bbeb3c7f8958f6bf","687a1a965b9f5b85a264363e","68931a9f5beef26ac0602915","1","60ddcd80bbeb3c7f8958f6bf","1","2025-08-06T09:37:12.755Z","","","","","","","","","","","","","","","","win-only","0","g1:NW,g2:SE","0.5","10","0","1031391.7","28565.2","33569.8","111143.9","1","4","4","6","2","-4","-8","0","0","0","5004.6","3000","-925","[""down"",""right""]","{""num_key_presses"":21,""num_perfect"":7,""num_errors"":4,""num_randdir"":10,""num_randdir_good_moves"":6,""num_whilered"":0,""num_whileblue"":1,""num_blue"":5,""num_good_moves"":10}","[420.3214133126395,414.07142761775424,4.5,420.3214133126395,414.07142761775424,103.2,420.3214133126395,414.07142761775424,208.6,420.3214133126395,414.07142761775424,321.2,420.3214133126395,414.07142761775424,436.2,420.3214133126395,414.07142761775424,536.6,420.3214133126395,414.07142761775424,637.2,420.3214133126395,414.07142761775424,745.4,420.3214133126395,414.07142761775424,845.6,420.3214133126395,414.07142761775424,948.3,457.8214133126395,395.32142761775424,1061.9,457.8214133126395,395.32142761775424,1172.8,457.8214133126395,395.32142761775424,1282,457.8214133126395,395.32142761775424,1388.6,457.8214133126395,395.32142761775424,1496.9,457.8214133126395,395.32142761775424,1615.5,457.8214133126395,395.32142761775424,1721.6,457.8214133126395,395.32142761775424,1823.1,457.8214133126395,395.32142761775424,1925.2,457.8214133126395,395.32142761775424,2035,457.8214133126395,395.32142761775424,2143.3,457.8214133126395,395.32142761775424,2259.9,457.8214133126395,395.32142761775424,2374.9,457.8214133126395,395.32142761775424,2494.7,457.8214133126395,395.32142761775424,2594.9,457.8214133126395,395.32142761775424,2700.8,457.8214133126395,395.32142761775424,2812.4,457.8214133126395,395.32142761775424,2933.3,457.8214133126395,395.32142761775424,3047.6,457.8214133126395,395.32142761775424,3170.3,457.8214133126395,395.32142761775424,3279.8,457.8214133126395,395.32142761775424,3385.1,457.8214133126395,395.32142761775424,3488,457.8214133126395,395.32142761775424,3597,457.8214133126395,395.32142761775424,3711.1,457.8214133126395,395.32142761775424,3828.2,457.8214133126395,395.32142761775424,3945.5,457.8214133126395,395.32142761775424,4059.1,457.8214133126395,395.32142761775424,4169.7,457.8214133126395,395.32142761775424,4279.6,457.8214133126395,395.32142761775424,4383.3,457.8214133126395,395.32142761775424,4499.4,457.8214133126395,395.32142761775424,4606.3,457.8214133126395,395.32142761775424,4713.4,457.8214133126395,395.32142761775424,4821.4,457.8214133126395,395.32142761775424,4939.3]","[3148.6,3148.6,2646.7,2045.2,-1543.3,""error"",""-"",""-"",""no_move"",10075.4,6924.3,2245.3,7232.8,597.3,""smooth"",""up"",""up"",""bad_move"",13226.7,3144.9,2558.7,10081.8,586.2,""oops"",""up"",""left"",""bad_move"",19726.8,6496.2,2048.8,17143.3,534.7,""smooth"",""up"",""up"",""bad_move"",23274.2,3545.5,2613.3,19728.8,932.1,""oops"",""left"",""right"",""good_move"",26980.2,3703.9,3102.1,23276.3,601.8,""smooth"",""left"",""left"",""bad_move"",29994.1,3012,2477.3,26982.1,534.7,""smooth"",""left"",""left"",""bad_move"",37729.9,7730.1,3025.4,33840.2,864.4,""oops"",""down"",""right"",""good_move"",40918.4,3185.9,2630.6,37732.5,555.3,""oops"",""right"",""right"",""good_move"",43961.9,3042.1,2581.2,40919.8,460.9,""oops"",""right"",""right"",""good_move"",46991.4,3026.8,2594.5,43964.7,432.3,""smooth"",""right"",""right"",""good_move"",49731.3,2737.5,2357.7,46993.8,379.8,""while_blue"",""right"",""right"",""good_move"",52939.9,3207.4,2759.9,49732.5,447.5,""oops"",""down"",""left"",""bad_move"",56234.4,3293.5,2859.5,52940.9,434,""oops"",""down"",""left"",""bad_move"",59068.2,2831.5,2014,56236.7,817.5,""oops"",""right"",""right"",""good_move"",62960.8,3891,3436.3,59069.9,454.6,""oops"",""right"",""down"",""good_move"",65305.7,2340.5,1777.5,62965.2,563,""smooth"",""right"",""right"",""good_move"",65751.9,444.3,2870.9,65307.6,-2426.6,""error"",""-"",""-"",""no_move"",70281.3,4528.3,3031.4,66770.2,479.8,""oops"",""down"",""up"",""bad_move"",70556.6,272,1926.5,70284.7,-1654.6,""error"",""-"",""-"",""no_move"",75503.7,4942.7,3149.3,71562.6,791.8,""smooth"",""down"",""down"",""good_move""]"
"5702","","<div style=""width:500px;"">
  <p>What determined the result of this run?</p>
  </div>","86","html-slider-response","59","1143811","0.0-7.0-1.9","161","1","2025-08-06 09:18:09","36c45c0696341be0efffe67d72a12abb","41.145.209.104","Mozilla/5.0 (Windows NT 10.0; Win64; x64) AppleWebKit/537.36 (KHTML, like Gecko) Chrome/138.0.0.0 Safari/537.36","WebKit","Chrome","138.0.0.0","Windows","10.0","https://app.prolific.com/","en-US,en;q=0.9","60ddcd80bbeb3c7f8958f6bf","687a1a965b9f5b85a264363e","68931a9f5beef26ac0602915","1","60ddcd80bbeb3c7f8958f6bf","1","2025-08-06T09:37:18.460Z","","","","AttribQ","","","","","","","","","","","50","","","","","","","","","","","","","","","","","","","","","","","","","","",""
"3477","","<div style=""width:500px;"">
  <p>How much control did you have over the ball?</p>
  </div>","0","html-slider-response","60","1147290","0.0-7.0-2.9","161","1","2025-08-06 09:18:09","36c45c0696341be0efffe67d72a12abb","41.145.209.104","Mozilla/5.0 (Windows NT 10.0; Win64; x64) AppleWebKit/537.36 (KHTML, like Gecko) Chrome/138.0.0.0 Safari/537.36","WebKit","Chrome","138.0.0.0","Windows","10.0","https://app.prolific.com/","en-US,en;q=0.9","60ddcd80bbeb3c7f8958f6bf","687a1a965b9f5b85a264363e","68931a9f5beef26ac0602915","1","60ddcd80bbeb3c7f8958f6bf","1","2025-08-06T09:37:21.939Z","","","","ControlQ","","","","","","","","","","","50","","","","","","","","","","","","","","","","","","","","","","","","","","",""
"4517","","<div style=""width:500px;"">
  <p>How would you describe your current emotional state?</p>
  </div>","1","html-slider-response","61","1151810","0.0-7.0-3.9","161","1","2025-08-06 09:18:09","36c45c0696341be0efffe67d72a12abb","41.145.209.104","Mozilla/5.0 (Windows NT 10.0; Win64; x64) AppleWebKit/537.36 (KHTML, like Gecko) Chrome/138.0.0.0 Safari/537.36","WebKit","Chrome","138.0.0.0","Windows","10.0","https://app.prolific.com/","en-US,en;q=0.9","60ddcd80bbeb3c7f8958f6bf","687a1a965b9f5b85a264363e","68931a9f5beef26ac0602915","1","60ddcd80bbeb3c7f8958f6bf","1","2025-08-06T09:37:26.459Z","","","","StressQ","","","","","","","","","","","50","","","","","","","","","","","","","","","","","","","","","","","","","","",""
"4212","","<div style=""width:500px;"">
  <p>What best describes how you currently feel?</p>
  </div>","100","html-slider-response","62","1156025","0.0-7.0-4.9","161","1","2025-08-06 09:18:09","36c45c0696341be0efffe67d72a12abb","41.145.209.104","Mozilla/5.0 (Windows NT 10.0; Win64; x64) AppleWebKit/537.36 (KHTML, like Gecko) Chrome/138.0.0.0 Safari/537.36","WebKit","Chrome","138.0.0.0","Windows","10.0","https://app.prolific.com/","en-US,en;q=0.9","60ddcd80bbeb3c7f8958f6bf","687a1a965b9f5b85a264363e","68931a9f5beef26ac0602915","1","60ddcd80bbeb3c7f8958f6bf","1","2025-08-06T09:37:30.674Z","","","","MotivationQ","","","","","","","","","","","50","","","","","","","","","","","","","","","","","","","","","","","","","","",""
"","","","","ctl-task-cpt","63","1195800","0.0-7.0-0.10","161","1","2025-08-06 09:18:09","36c45c0696341be0efffe67d72a12abb","41.145.209.104","Mozilla/5.0 (Windows NT 10.0; Win64; x64) AppleWebKit/537.36 (KHTML, like Gecko) Chrome/138.0.0.0 Safari/537.36","WebKit","Chrome","138.0.0.0","Windows","10.0","https://app.prolific.com/","en-US,en;q=0.9","60ddcd80bbeb3c7f8958f6bf","687a1a965b9f5b85a264363e","68931a9f5beef26ac0602915","1","60ddcd80bbeb3c7f8958f6bf","1","2025-08-06T09:38:10.449Z","","","","","","","","","","","","","","","","win-only","3","g1:SW,g2:NE","0.6","11","0","1163493.4","13360.2","18376","36739","1","4","8","6","1","1","1","1","0","0.007575757575757576","5015.8","3000","2505","[""down"",""left""]","{""num_key_presses"":4,""num_perfect"":4,""num_errors"":0,""num_randdir"":0,""num_randdir_good_moves"":0,""num_whilered"":0,""num_whileblue"":0,""num_blue"":2,""num_good_moves"":4}","[421.5714133126395,417.82142761775424,1.3,421.5714133126395,417.82142761775424,108.3,421.5714133126395,417.82142761775424,213.3,425.3214133126395,455.32142761775424,356.6,427.8214133126395,459.07142761775424,461,439.0714133126395,484.07142761775424,566.7,471.5714133126395,505.32142761775424,669,547.8214133126395,564.0714276177542,772.7,560.3214133126395,572.8214276177542,886.4,560.3214133126395,572.8214276177542,991.9,591.5714133126395,562.8214276177542,1108,591.5714133126395,562.8214276177542,1219.8,591.5714133126395,562.8214276177542,1335.7,591.5714133126395,562.8214276177542,1437.9,591.5714133126395,562.8214276177542,1566.7,591.5714133126395,562.8214276177542,1666.7,591.5714133126395,562.8214276177542,1769.5,591.5714133126395,562.8214276177542,1871.5,591.5714133126395,562.8214276177542,1973.1,591.5714133126395,562.8214276177542,2074.9,591.5714133126395,562.8214276177542,2177.6,591.5714133126395,562.8214276177542,2283.8,591.5714133126395,562.8214276177542,2391.4,591.5714133126395,562.8214276177542,2491.4,591.5714133126395,562.8214276177542,2607.7,591.5714133126395,562.8214276177542,2720.3,591.5714133126395,562.8214276177542,2863.1,591.5714133126395,562.8214276177542,2983.2,591.5714133126395,562.8214276177542,3088.3,591.5714133126395,562.8214276177542,3197.3,591.5714133126395,562.8214276177542,3301.1,591.5714133126395,562.8214276177542,3407.2,591.5714133126395,562.8214276177542,3508.1,591.5714133126395,562.8214276177542,3608.3,591.5714133126395,562.8214276177542,3719.2,591.5714133126395,562.8214276177542,3834.7,591.5714133126395,562.8214276177542,3938.2,591.5714133126395,562.8214276177542,4043.4,591.5714133126395,562.8214276177542,4171.4,591.5714133126395,562.8214276177542,4279.3,591.5714133126395,562.8214276177542,4382.7,591.5714133126395,562.8214276177542,4489.6,591.5714133126395,562.8214276177542,4590.9,591.5714133126395,562.8214276177542,4691.6,591.5714133126395,562.8214276177542,4808.6,591.5714133126395,562.8214276177542,4915.4]","[4824.6,4824.6,2357.7,2008.6,458.3,""smooth"",""down"",""down"",""good_move"",7577.4,2747.2,2277.4,4830.2,469.8,""smooth"",""down"",""down"",""good_move"",14095.1,6517,2922.5,10532.4,640.2,""smooth"",""left"",""left"",""good_move"",17954,3858.2,2499.6,14095.8,1358.7,""smooth"",""left"",""left"",""good_move""]"
"5392","","<div style=""width:500px;"">
  <p>What determined the result of this run?</p>
  </div>","100","html-slider-response","64","1201194","0.0-7.0-1.10","161","1","2025-08-06 09:18:09","36c45c0696341be0efffe67d72a12abb","41.145.209.104","Mozilla/5.0 (Windows NT 10.0; Win64; x64) AppleWebKit/537.36 (KHTML, like Gecko) Chrome/138.0.0.0 Safari/537.36","WebKit","Chrome","138.0.0.0","Windows","10.0","https://app.prolific.com/","en-US,en;q=0.9","60ddcd80bbeb3c7f8958f6bf","687a1a965b9f5b85a264363e","68931a9f5beef26ac0602915","1","60ddcd80bbeb3c7f8958f6bf","1","2025-08-06T09:38:15.844Z","","","","AttribQ","","","","","","","","","","","50","","","","","","","","","","","","","","","","","","","","","","","","","","",""
"2959","","<div style=""width:500px;"">
  <p>How much control did you have over the ball?</p>
  </div>","100","html-slider-response","65","1204156","0.0-7.0-2.10","161","1","2025-08-06 09:18:09","36c45c0696341be0efffe67d72a12abb","41.145.209.104","Mozilla/5.0 (Windows NT 10.0; Win64; x64) AppleWebKit/537.36 (KHTML, like Gecko) Chrome/138.0.0.0 Safari/537.36","WebKit","Chrome","138.0.0.0","Windows","10.0","https://app.prolific.com/","en-US,en;q=0.9","60ddcd80bbeb3c7f8958f6bf","687a1a965b9f5b85a264363e","68931a9f5beef26ac0602915","1","60ddcd80bbeb3c7f8958f6bf","1","2025-08-06T09:38:18.805Z","","","","ControlQ","","","","","","","","","","","50","","","","","","","","","","","","","","","","","","","","","","","","","","",""
"2732","","<div style=""width:500px;"">
  <p>How would you describe your current emotional state?</p>
  </div>","1","html-slider-response","66","1206890","0.0-7.0-3.10","161","1","2025-08-06 09:18:09","36c45c0696341be0efffe67d72a12abb","41.145.209.104","Mozilla/5.0 (Windows NT 10.0; Win64; x64) AppleWebKit/537.36 (KHTML, like Gecko) Chrome/138.0.0.0 Safari/537.36","WebKit","Chrome","138.0.0.0","Windows","10.0","https://app.prolific.com/","en-US,en;q=0.9","60ddcd80bbeb3c7f8958f6bf","687a1a965b9f5b85a264363e","68931a9f5beef26ac0602915","1","60ddcd80bbeb3c7f8958f6bf","1","2025-08-06T09:38:21.539Z","","","","StressQ","","","","","","","","","","","50","","","","","","","","","","","","","","","","","","","","","","","","","","",""
"3246","","<div style=""width:500px;"">
  <p>What best describes how you currently feel?</p>
  </div>","100","html-slider-response","67","1210139","0.0-7.0-4.10","161","1","2025-08-06 09:18:09","36c45c0696341be0efffe67d72a12abb","41.145.209.104","Mozilla/5.0 (Windows NT 10.0; Win64; x64) AppleWebKit/537.36 (KHTML, like Gecko) Chrome/138.0.0.0 Safari/537.36","WebKit","Chrome","138.0.0.0","Windows","10.0","https://app.prolific.com/","en-US,en;q=0.9","60ddcd80bbeb3c7f8958f6bf","687a1a965b9f5b85a264363e","68931a9f5beef26ac0602915","1","60ddcd80bbeb3c7f8958f6bf","1","2025-08-06T09:38:24.788Z","","","","MotivationQ","","","","","","","","","","","50","","","","","","","","","","","","","","","","","","","","","","","","","","",""
"","","","","ctl-task-cpt","68","1268412","0.0-7.0-0.11","161","1","2025-08-06 09:18:09","36c45c0696341be0efffe67d72a12abb","41.145.209.104","Mozilla/5.0 (Windows NT 10.0; Win64; x64) AppleWebKit/537.36 (KHTML, like Gecko) Chrome/138.0.0.0 Safari/537.36","WebKit","Chrome","138.0.0.0","Windows","10.0","https://app.prolific.com/","en-US,en;q=0.9","60ddcd80bbeb3c7f8958f6bf","687a1a965b9f5b85a264363e","68931a9f5beef26ac0602915","1","60ddcd80bbeb3c7f8958f6bf","1","2025-08-06T09:39:23.061Z","","","","","","","","","","","","","","","","win-only","2","g1:SE,g2:NW","0.7","12","0","1217606","11615.4","16647","55218.5","1","4","4","6","2","4","4","5","1","0.03787878787878788","5031.6","3000","1715","[""left"",""up""]","{""num_key_presses"":10,""num_perfect"":7,""num_errors"":0,""num_randdir"":3,""num_randdir_good_moves"":1,""num_whilered"":0,""num_whileblue"":0,""num_blue"":1,""num_good_moves"":8}","[416.5714133126395,415.32142761775424,0.5,416.5714133126395,415.32142761775424,101.6,416.5714133126395,415.32142761775424,204.4,431.5714133126395,407.82142761775424,325.1,609.0714133126395,407.82142761775424,429.4,699.0714133126395,422.82142761775424,540.1,699.0714133126395,422.82142761775424,644,701.5714133126395,422.82142761775424,758.5,701.5714133126395,422.82142761775424,867.1,701.5714133126395,422.82142761775424,974.4,705.3214133126395,422.82142761775424,1095.7,705.3214133126395,422.82142761775424,1226.7,705.3214133126395,422.82142761775424,1328.3,705.3214133126395,422.82142761775424,1429.8,705.3214133126395,422.82142761775424,1545.5,705.3214133126395,422.82142761775424,1654.7,705.3214133126395,422.82142761775424,1772.9,705.3214133126395,422.82142761775424,1890.2,705.3214133126395,422.82142761775424,2009.1,705.3214133126395,422.82142761775424,2126.1,705.3214133126395,422.82142761775424,2248.3,705.3214133126395,422.82142761775424,2370.5,705.3214133126395,422.82142761775424,2471.7,705.3214133126395,422.82142761775424,2578.3,705.3214133126395,422.82142761775424,2694.4,705.3214133126395,422.82142761775424,2808.9,705.3214133126395,422.82142761775424,2911.3,705.3214133126395,422.82142761775424,3029.3,705.3214133126395,422.82142761775424,3139,705.3214133126395,422.82142761775424,3256.6,705.3214133126395,422.82142761775424,3366.6,705.3214133126395,422.82142761775424,3492.1,705.3214133126395,422.82142761775424,3613.9,705.3214133126395,422.82142761775424,3731.2,705.3214133126395,422.82142761775424,3857.7,705.3214133126395,422.82142761775424,3966.3,705.3214133126395,422.82142761775424,4083,705.3214133126395,422.82142761775424,4196.6,705.3214133126395,422.82142761775424,4313.9,705.3214133126395,422.82142761775424,4435.6,705.3214133126395,422.82142761775424,4554.2,705.3214133126395,422.82142761775424,4663.8,705.3214133126395,422.82142761775424,4779.1,705.3214133126395,422.82142761775424,4885.6,705.3214133126395,422.82142761775424,4999.9]","[1911.6,1911.7,1000,0,911.7,""smooth"",""up"",""up"",""good_move"",5924.2,4011.2,2070.8,1913,1940.4,""smooth"",""left"",""left"",""good_move"",9606.8,3680.3,3116.8,5926.5,563.5,""oops"",""left"",""up"",""good_move"",13317.7,3709.1,2996.2,9608.8,712.8,""smooth"",""left"",""left"",""good_move"",20592.1,7273.2,2897.8,17281.5,412.8,""oops"",""left"",""down"",""bad_move"",23374.7,2778.8,2185.4,20595.9,593.5,""smooth"",""up"",""up"",""good_move"",27533.8,4156.1,2703.8,23377.7,1452.4,""oops"",""up"",""down"",""bad_move"",30805.8,3270.2,2597.7,27535.6,672.6,""smooth"",""up"",""up"",""good_move"",34596.3,3788.8,3342.5,30807.8,446.1,""smooth"",""up"",""up"",""good_move"",38204.7,3606.2,2311.8,34598.5,1294.4,""smooth"",""left"",""left"",""good_move""]"
"3821","","<div style=""width:500px;"">
  <p>What determined the result of this run?</p>
  </div>","99","html-slider-response","69","1272237","0.0-7.0-1.11","161","1","2025-08-06 09:18:09","36c45c0696341be0efffe67d72a12abb","41.145.209.104","Mozilla/5.0 (Windows NT 10.0; Win64; x64) AppleWebKit/537.36 (KHTML, like Gecko) Chrome/138.0.0.0 Safari/537.36","WebKit","Chrome","138.0.0.0","Windows","10.0","https://app.prolific.com/","en-US,en;q=0.9","60ddcd80bbeb3c7f8958f6bf","687a1a965b9f5b85a264363e","68931a9f5beef26ac0602915","1","60ddcd80bbeb3c7f8958f6bf","1","2025-08-06T09:39:26.886Z","","","","AttribQ","","","","","","","","","","","50","","","","","","","","","","","","","","","","","","","","","","","","","","",""
"5888","","<div style=""width:500px;"">
  <p>How much control did you have over the ball?</p>
  </div>","100","html-slider-response","70","1278131","0.0-7.0-2.11","161","1","2025-08-06 09:18:09","36c45c0696341be0efffe67d72a12abb","41.145.209.104","Mozilla/5.0 (Windows NT 10.0; Win64; x64) AppleWebKit/537.36 (KHTML, like Gecko) Chrome/138.0.0.0 Safari/537.36","WebKit","Chrome","138.0.0.0","Windows","10.0","https://app.prolific.com/","en-US,en;q=0.9","60ddcd80bbeb3c7f8958f6bf","687a1a965b9f5b85a264363e","68931a9f5beef26ac0602915","1","60ddcd80bbeb3c7f8958f6bf","1","2025-08-06T09:39:32.780Z","","","","ControlQ","","","","","","","","","","","50","","","","","","","","","","","","","","","","","","","","","","","","","","",""
"3405","","<div style=""width:500px;"">
  <p>How would you describe your current emotional state?</p>
  </div>","0","html-slider-response","71","1281539","0.0-7.0-3.11","161","1","2025-08-06 09:18:09","36c45c0696341be0efffe67d72a12abb","41.145.209.104","Mozilla/5.0 (Windows NT 10.0; Win64; x64) AppleWebKit/537.36 (KHTML, like Gecko) Chrome/138.0.0.0 Safari/537.36","WebKit","Chrome","138.0.0.0","Windows","10.0","https://app.prolific.com/","en-US,en;q=0.9","60ddcd80bbeb3c7f8958f6bf","687a1a965b9f5b85a264363e","68931a9f5beef26ac0602915","1","60ddcd80bbeb3c7f8958f6bf","1","2025-08-06T09:39:36.188Z","","","","StressQ","","","","","","","","","","","50","","","","","","","","","","","","","","","","","","","","","","","","","","",""
"3726","","<div style=""width:500px;"">
  <p>What best describes how you currently feel?</p>
  </div>","100","html-slider-response","72","1285267","0.0-7.0-4.11","161","1","2025-08-06 09:18:09","36c45c0696341be0efffe67d72a12abb","41.145.209.104","Mozilla/5.0 (Windows NT 10.0; Win64; x64) AppleWebKit/537.36 (KHTML, like Gecko) Chrome/138.0.0.0 Safari/537.36","WebKit","Chrome","138.0.0.0","Windows","10.0","https://app.prolific.com/","en-US,en;q=0.9","60ddcd80bbeb3c7f8958f6bf","687a1a965b9f5b85a264363e","68931a9f5beef26ac0602915","1","60ddcd80bbeb3c7f8958f6bf","1","2025-08-06T09:39:39.917Z","","","","MotivationQ","","","","","","","","","","","50","","","","","","","","","","","","","","","","","","","","","","","","","","",""
"","","","","ctl-task-cpt","73","1320884","0.0-7.0-0.12","161","1","2025-08-06 09:18:09","36c45c0696341be0efffe67d72a12abb","41.145.209.104","Mozilla/5.0 (Windows NT 10.0; Win64; x64) AppleWebKit/537.36 (KHTML, like Gecko) Chrome/138.0.0.0 Safari/537.36","WebKit","Chrome","138.0.0.0","Windows","10.0","https://app.prolific.com/","en-US,en;q=0.9","60ddcd80bbeb3c7f8958f6bf","687a1a965b9f5b85a264363e","68931a9f5beef26ac0602915","1","60ddcd80bbeb3c7f8958f6bf","1","2025-08-06T09:40:15.534Z","","","","","","","","","","","","","","","","win-only","0","g1:NW,g2:SE","0.8","13","0","1292736.4","3810.3","8834.3","32582.4","1","4","8","6","1","1","1","6","5","0.045454545454545456","5024","3000","2335","[""left"",""up""]","{""num_key_presses"":6,""num_perfect"":5,""num_errors"":0,""num_randdir"":1,""num_randdir_good_moves"":0,""num_whilered"":0,""num_whileblue"":0,""num_blue"":1,""num_good_moves"":5}","[416.5714133126395,421.57142761775424,1.5,416.5714133126395,421.57142761775424,116.9,416.5714133126395,417.82142761775424,271.9,650.3214133126395,500.32142761775424,386.7,687.8214133126395,515.3214276177542,489.3,711.5714133126395,516.5714276177542,600.7,786.5714133126395,532.8214276177542,712.8,1046.5714133126396,589.0714276177542,823.7,1046.5714133126396,589.0714276177542,932.6,1046.5714133126396,589.0714276177542,1048.6,1046.5714133126396,589.0714276177542,1152.5,1046.5714133126396,589.0714276177542,1253.4,1046.5714133126396,589.0714276177542,1356.2,1046.5714133126396,589.0714276177542,1460.7,1046.5714133126396,589.0714276177542,1619.8,1046.5714133126396,589.0714276177542,1730.5,1046.5714133126396,589.0714276177542,1838.2,1046.5714133126396,589.0714276177542,1983.6,1046.5714133126396,589.0714276177542,2095.6,1046.5714133126396,589.0714276177542,2203.7,1046.5714133126396,589.0714276177542,2306.4,1046.5714133126396,589.0714276177542,2415.9,1046.5714133126396,589.0714276177542,2516,1046.5714133126396,589.0714276177542,2622.5,1046.5714133126396,589.0714276177542,2727.8,1046.5714133126396,589.0714276177542,2850.6,1046.5714133126396,589.0714276177542,2953.9,1046.5714133126396,589.0714276177542,3084.2,1046.5714133126396,589.0714276177542,3190.2,1046.5714133126396,589.0714276177542,3306.4,1046.5714133126396,589.0714276177542,3417,1046.5714133126396,589.0714276177542,3533.3,1046.5714133126396,589.0714276177542,3639.3,1046.5714133126396,589.0714276177542,3747.4,1046.5714133126396,589.0714276177542,3850.9,1046.5714133126396,589.0714276177542,3955.6,1046.5714133126396,589.0714276177542,4081.2,1046.5714133126396,589.0714276177542,4181.8,1046.5714133126396,589.0714276177542,4288.9,1046.5714133126396,589.0714276177542,4393.9,1046.5714133126396,589.0714276177542,4498.8,1046.5714133126396,589.0714276177542,4616,1046.5714133126396,589.0714276177542,4729.5,1046.5714133126396,589.0714276177542,4846.4,1046.5714133126396,589.0714276177542,4947]","[1489.6,1489.6,1000,0,489.6,""oops"",""up"",""right"",""bad_move"",4504.8,3012.4,2546.1,1492.4,466.4,""smooth"",""left"",""left"",""good_move"",8670,4163.8,2355.9,4506.2,1807.9,""smooth"",""left"",""left"",""good_move"",12363.2,3690.1,2457.7,8673.1,1232.4,""smooth"",""left"",""left"",""good_move"",16248.6,3883.4,3351.3,12365.3,532,""smooth"",""up"",""up"",""good_move"",23316.6,7065.5,2077.2,20781.2,458.3,""smooth"",""up"",""up"",""good_move""]"
"4556","","<div style=""width:500px;"">
  <p>What determined the result of this run?</p>
  </div>","99","html-slider-response","74","1325444","0.0-7.0-1.12","161","1","2025-08-06 09:18:09","36c45c0696341be0efffe67d72a12abb","41.145.209.104","Mozilla/5.0 (Windows NT 10.0; Win64; x64) AppleWebKit/537.36 (KHTML, like Gecko) Chrome/138.0.0.0 Safari/537.36","WebKit","Chrome","138.0.0.0","Windows","10.0","https://app.prolific.com/","en-US,en;q=0.9","60ddcd80bbeb3c7f8958f6bf","687a1a965b9f5b85a264363e","68931a9f5beef26ac0602915","1","60ddcd80bbeb3c7f8958f6bf","1","2025-08-06T09:40:20.093Z","","","","AttribQ","","","","","","","","","","","50","","","","","","","","","","","","","","","","","","","","","","","","","","",""
"5435","","<div style=""width:500px;"">
  <p>How much control did you have over the ball?</p>
  </div>","88","html-slider-response","75","1330882","0.0-7.0-2.12","161","1","2025-08-06 09:18:09","36c45c0696341be0efffe67d72a12abb","41.145.209.104","Mozilla/5.0 (Windows NT 10.0; Win64; x64) AppleWebKit/537.36 (KHTML, like Gecko) Chrome/138.0.0.0 Safari/537.36","WebKit","Chrome","138.0.0.0","Windows","10.0","https://app.prolific.com/","en-US,en;q=0.9","60ddcd80bbeb3c7f8958f6bf","687a1a965b9f5b85a264363e","68931a9f5beef26ac0602915","1","60ddcd80bbeb3c7f8958f6bf","1","2025-08-06T09:40:25.531Z","","","","ControlQ","","","","","","","","","","","50","","","","","","","","","","","","","","","","","","","","","","","","","","",""
"5031","","<div style=""width:500px;"">
  <p>How would you describe your current emotional state?</p>
  </div>","0","html-slider-response","76","1335915","0.0-7.0-3.12","161","1","2025-08-06 09:18:09","36c45c0696341be0efffe67d72a12abb","41.145.209.104","Mozilla/5.0 (Windows NT 10.0; Win64; x64) AppleWebKit/537.36 (KHTML, like Gecko) Chrome/138.0.0.0 Safari/537.36","WebKit","Chrome","138.0.0.0","Windows","10.0","https://app.prolific.com/","en-US,en;q=0.9","60ddcd80bbeb3c7f8958f6bf","687a1a965b9f5b85a264363e","68931a9f5beef26ac0602915","1","60ddcd80bbeb3c7f8958f6bf","1","2025-08-06T09:40:30.564Z","","","","StressQ","","","","","","","","","","","50","","","","","","","","","","","","","","","","","","","","","","","","","","",""
"3716","","<div style=""width:500px;"">
  <p>What best describes how you currently feel?</p>
  </div>","97","html-slider-response","77","1339633","0.0-7.0-4.12","161","1","2025-08-06 09:18:09","36c45c0696341be0efffe67d72a12abb","41.145.209.104","Mozilla/5.0 (Windows NT 10.0; Win64; x64) AppleWebKit/537.36 (KHTML, like Gecko) Chrome/138.0.0.0 Safari/537.36","WebKit","Chrome","138.0.0.0","Windows","10.0","https://app.prolific.com/","en-US,en;q=0.9","60ddcd80bbeb3c7f8958f6bf","687a1a965b9f5b85a264363e","68931a9f5beef26ac0602915","1","60ddcd80bbeb3c7f8958f6bf","1","2025-08-06T09:40:34.282Z","","","","MotivationQ","","","","","","","","","","","50","","","","","","","","","","","","","","","","","","","","","","","","","","",""
