"rt","response_timestamp","stimulus","response","trial_type","trial_index","time_elapsed","internal_node_id","run_id","condition","recorded_at","source_code_version","ip","user_agent","device","browser","browser_version","platform","platform_version","referer","accept_language","PROLIFIC_PID","STUDY_ID","SESSION_ID","BATCH","prolific_id","batch","realtime","success","question_order","question_id","eventType","responses","item_order","radio_event_ids","radio_event_times","key_event_times","mouse_event_times","straightlining","zigzagging","honeypot","view_history","slider_start","which_type","canvas_config","goals_layout","control_level","trial_number","tutorial_trial_number","trial_start_time","phase1_start_time","phase2_start_time","phase3_start_time","goal_1_value","goal_1_distance","goal_2_value","goal_2_distance","goal_selected","outcome","outcome_total","participant_final_score","participant_initial_score","participant_final_score_prop","goal_choice_rt","allocated_time","allocated_time_remaining","goal_direction","counts","mouse_movements","key_presses"
"6518","1753864691800","<p style='font-size:40px;line-height:1.25'><strong>Welcome to the experiment!</strong></p><p style='font-size:1.1em;line-height:1.25'>Thank you for participanting in our experiment again! You will be asked to play the Dysfunctional Ball Game again. We will briefly recap the rules before we start.</p><p style='font-size:1.1em;line-height:1.25'>Press <strong>Next</strong> to continue.</p>","0","custom-html-button-response","0","6520","0.0-0.0","5","1","2025-07-30 08:37:58","36c45c0696341be0efffe67d72a12abb","84.40.152.252","Mozilla/5.0 (Macintosh; Intel Mac OS X 10_15_7) AppleWebKit/537.36 (KHTML, like Gecko) Chrome/138.0.0.0 Safari/537.36","Macintosh","Chrome","138.0.0.0","OS X","10_15_7","https://app.prolific.com/","en-GB,en-US;q=0.9,en;q=0.8,pl;q=0.7,de;q=0.6","60f06a479c4f3ec0a536d40a","687a19d2168e237449fb8af4","6889d9cd1afed15cd4ee6ef2","0","60f06a479c4f3ec0a536d40a","0","2025-07-30T08:38:11.801Z","","","","","","","","","","","","","","","","","","","","","","","","","","","","","","","","","","","","","","","","","",""
"9281","","","","fullscreen","1","16807","0.0-1.0","5","1","2025-07-30 08:37:58","36c45c0696341be0efffe67d72a12abb","84.40.152.252","Mozilla/5.0 (Macintosh; Intel Mac OS X 10_15_7) AppleWebKit/537.36 (KHTML, like Gecko) Chrome/138.0.0.0 Safari/537.36","Macintosh","Chrome","138.0.0.0","OS X","10_15_7","https://app.prolific.com/","en-GB,en-US;q=0.9,en;q=0.8,pl;q=0.7,de;q=0.6","60f06a479c4f3ec0a536d40a","687a19d2168e237449fb8af4","6889d9cd1afed15cd4ee6ef2","0","60f06a479c4f3ec0a536d40a","0","","true","","","","","","","","","","","","","","","","","","","","","","","","","","","","","","","","","","","","","","","","",""
"2049","1753864704139"," <p style='font-size:1.1em;line-height:1.25'>Thank you for closing all other tabs.</p><p style='font-size:1.1em;line-height:1.25'>We will now invite you to fill in some questionnaires, before starting the game.<br>This will take about 5 minutes.<br></p><p style='font-size:1.1em;line-height:1.25'>Press the <strong>Next</strong> button to continue.</p>","0","custom-html-button-response","2","18859","0.0-2.0","5","1","2025-07-30 08:37:58","36c45c0696341be0efffe67d72a12abb","84.40.152.252","Mozilla/5.0 (Macintosh; Intel Mac OS X 10_15_7) AppleWebKit/537.36 (KHTML, like Gecko) Chrome/138.0.0.0 Safari/537.36","Macintosh","Chrome","138.0.0.0","OS X","10_15_7","https://app.prolific.com/","en-GB,en-US;q=0.9,en;q=0.8,pl;q=0.7,de;q=0.6","60f06a479c4f3ec0a536d40a","687a19d2168e237449fb8af4","6889d9cd1afed15cd4ee6ef2","0","60f06a479c4f3ec0a536d40a","0","2025-07-30T08:38:24.140Z","","","","","","","","","","","","","","","","","","","","","","","","","","","","","","","","","","","","","","","","","",""
"1330","","","{""assigned_sex"":""male""}","survey-multi-choice","3","20192","0.0-3.0-0.0","5","1","2025-07-30 08:37:58","36c45c0696341be0efffe67d72a12abb","84.40.152.252","Mozilla/5.0 (Macintosh; Intel Mac OS X 10_15_7) AppleWebKit/537.36 (KHTML, like Gecko) Chrome/138.0.0.0 Safari/537.36","Macintosh","Chrome","138.0.0.0","OS X","10_15_7","https://app.prolific.com/","en-GB,en-US;q=0.9,en;q=0.8,pl;q=0.7,de;q=0.6","60f06a479c4f3ec0a536d40a","687a19d2168e237449fb8af4","6889d9cd1afed15cd4ee6ef2","0","60f06a479c4f3ec0a536d40a","0","","","[0]","0","demographics","","","","","","","","","","","","","","","","","","","","","","","","","","","","","","","","","","","","","",""
"2913","1753864708387","<p style='font-size:1.1em;line-height:1.25'>In the following, we will perform a baseline assessment. This means that we will ask you a few questions relating to your experiences over the past month.<br></p><p style='font-size:1.1em;line-height:1.25'>Press the <strong>Next</strong> button to continue.</p>","0","custom-html-button-response","4","23107","0.0-4.0-0.0","5","1","2025-07-30 08:37:58","36c45c0696341be0efffe67d72a12abb","84.40.152.252","Mozilla/5.0 (Macintosh; Intel Mac OS X 10_15_7) AppleWebKit/537.36 (KHTML, like Gecko) Chrome/138.0.0.0 Safari/537.36","Macintosh","Chrome","138.0.0.0","OS X","10_15_7","https://app.prolific.com/","en-GB,en-US;q=0.9,en;q=0.8,pl;q=0.7,de;q=0.6","60f06a479c4f3ec0a536d40a","687a19d2168e237449fb8af4","6889d9cd1afed15cd4ee6ef2","0","60f06a479c4f3ec0a536d40a","0","2025-07-30T08:38:28.388Z","","","","","","","","","","","","","","","","","","","","","","","","","","","","","","","","","","","","","","","","","",""
"37795.5","","","","survey-template","5","60905","0.0-4.0-1.0","5","1","2025-07-30 08:37:58","36c45c0696341be0efffe67d72a12abb","84.40.152.252","Mozilla/5.0 (Macintosh; Intel Mac OS X 10_15_7) AppleWebKit/537.36 (KHTML, like Gecko) Chrome/138.0.0.0 Safari/537.36","Macintosh","Chrome","138.0.0.0","OS X","10_15_7","https://app.prolific.com/","en-GB,en-US;q=0.9,en;q=0.8,pl;q=0.7,de;q=0.6","60f06a479c4f3ec0a536d40a","687a19d2168e237449fb8af4","6889d9cd1afed15cd4ee6ef2","0","60f06a479c4f3ec0a536d40a","0","2025-07-30T08:39:06.186Z","","","","pss","{""Q01"":""3"",""Q02"":""4"",""Q03"":""4"",""Q04"":""2"",""Q05"":""3"",""Q06"":""2"",""Q07"":""3"",""Q08"":""3"",""Q09"":""2"",""Q10"":""3""}","[0,1,2,3,4,5,6,7,8,9]","[""Q01"",""Q02"",""Q03"",""Q04"",""Q05"",""Q06"",""Q07"",""Q08"",""Q09"",""Q10""]","[5507.200000047684,7541.300000190735,10650.5,14982.600000143051,19703.700000047684,25118.700000047684,27329,30076.700000047684,33762.800000190735,37526.200000047684]","[]","[0,5507.200000047684,7541.300000190735,9374,10650.5,14688.700000047684,14982.600000143051,16028.200000047684,19430.800000190735,19703.700000047684,25118.700000047684,27329,30076.700000047684,32812.700000047684,33762.800000190735,36878,37129.300000190735,37526.200000047684,37791.700000047684]","0.3","0.6666666666666666","0","","","","","","","","","","","","","","","","","","","","","","","","","","","","",""
"2274","1753864748461","<p style='font-size:1.1em;line-height:1.25'>Thank you for your answers! Now we will ask you a few more questions relating to your feelings in the last 24 hours.<br></p><p style='font-size:1.1em;line-height:1.25'>Press the <strong>Next</strong> button to continue.</p>","0","custom-html-button-response","6","63181","0.0-4.0-2.0","5","1","2025-07-30 08:37:58","36c45c0696341be0efffe67d72a12abb","84.40.152.252","Mozilla/5.0 (Macintosh; Intel Mac OS X 10_15_7) AppleWebKit/537.36 (KHTML, like Gecko) Chrome/138.0.0.0 Safari/537.36","Macintosh","Chrome","138.0.0.0","OS X","10_15_7","https://app.prolific.com/","en-GB,en-US;q=0.9,en;q=0.8,pl;q=0.7,de;q=0.6","60f06a479c4f3ec0a536d40a","687a19d2168e237449fb8af4","6889d9cd1afed15cd4ee6ef2","0","60f06a479c4f3ec0a536d40a","0","2025-07-30T08:39:08.462Z","","","","","","","","","","","","","","","","","","","","","","","","","","","","","","","","","","","","","","","","","",""
"55836.5","","","","survey-template","7","119020","0.0-4.0-3.0","5","1","2025-07-30 08:37:58","36c45c0696341be0efffe67d72a12abb","84.40.152.252","Mozilla/5.0 (Macintosh; Intel Mac OS X 10_15_7) AppleWebKit/537.36 (KHTML, like Gecko) Chrome/138.0.0.0 Safari/537.36","Macintosh","Chrome","138.0.0.0","OS X","10_15_7","https://app.prolific.com/","en-GB,en-US;q=0.9,en;q=0.8,pl;q=0.7,de;q=0.6","60f06a479c4f3ec0a536d40a","687a19d2168e237449fb8af4","6889d9cd1afed15cd4ee6ef2","0","60f06a479c4f3ec0a536d40a","0","2025-07-30T08:40:04.301Z","","","","drsp","{""Q01"":""3"",""Q02"":""4"",""Q03"":""3"",""Q04"":""4"",""Q05"":""4"",""Q06"":""4"",""Q07"":""3"",""Q08"":""1"",""Q09"":""2"",""Q10"":""4"",""Q11"":""5"",""Q12"":""3"",""Q13"":""5"",""Q14"":""4"",""Q15"":""3"",""Q16"":""3"",""Q17"":""5"",""Q18"":""4"",""Q19"":""0"",""Q20"":""4"",""Q21"":""5"",""Q22"":""5""}","[0,1,2,3,4,5,6,7,8,9,10,11,12,13,14,15,16,17,18,19,20,21]","[""Q01"",""Q02"",""Q04"",""Q03"",""Q04"",""Q05"",""Q06"",""Q06"",""Q07"",""Q08"",""Q09"",""Q10"",""Q11"",""Q12"",""Q13"",""Q14"",""Q15"",""Q15"",""Q16"",""Q17"",""Q18"",""Q19"",""Q20"",""Q21"",""Q21"",""Q22""]","[3789.5,4670,6762.799999952316,7333.099999904633,8212.099999904633,9433.900000095367,11635.400000095367,12993.599999904633,13530.099999904633,16199.900000095367,17972.200000047684,19916.400000095367,21758.799999952316,24365.900000095367,25634.5,30021.599999904633,30875.099999904633,31695.099999904633,32868.09999990463,34449.299999952316,35640.700000047684,42863.90000009537,47209.5,49583.90000009537,50227.90000009537,55468.799999952316]","[]","[0.09999990463256836,2675.5999999046326,3789.5,4670,6184.599999904633,6762.799999952316,7333.099999904633,7873.200000047684,8212.099999904633,9433.900000095367,11635.400000095367,12464.799999952316,12993.599999904633,13530.099999904633,15531.400000095367,16199.900000095367,17972.200000047684,19448.099999904633,19916.400000095367,21758.799999952316,24365.900000095367,25634.5,27979.599999904633,30021.599999904633,30875.099999904633,31436.200000047684,31695.099999904633,32868.09999990463,34449.299999952316,35640.700000047684,42225.200000047684,42863.90000009537,46870.90000009537,47209.5,49583.90000009537,50227.90000009537,54599.200000047684,55164.799999952316,55468.799999952316,55830.09999990463]","0.36363636363636365","0.47619047619047616","0","","","","","","","","","","","","","","","","","","","","","","","","","","","","",""
"10642","","","","survey-template","8","129664","0.0-4.0-4.0","5","1","2025-07-30 08:37:58","36c45c0696341be0efffe67d72a12abb","84.40.152.252","Mozilla/5.0 (Macintosh; Intel Mac OS X 10_15_7) AppleWebKit/537.36 (KHTML, like Gecko) Chrome/138.0.0.0 Safari/537.36","Macintosh","Chrome","138.0.0.0","OS X","10_15_7","https://app.prolific.com/","en-GB,en-US;q=0.9,en;q=0.8,pl;q=0.7,de;q=0.6","60f06a479c4f3ec0a536d40a","687a19d2168e237449fb8af4","6889d9cd1afed15cd4ee6ef2","0","60f06a479c4f3ec0a536d40a","0","2025-07-30T08:40:14.945Z","","","","stress","{""Q01"":""4"",""Q02"":""4"",""Q03"":""4""}","[0,1,2]","[""Q01"",""Q02"",""Q03""]","[4274.300000190735,5838.200000047684,10186.900000095367]","[]","[3610.2000000476837,4274.300000190735,5838.200000047684,9184.5,9516.700000047684,10186.900000095367,10640.800000190735]","0.6666666666666666","0","0","","","","","","","","","","","","","","","","","","","","","","","","","","","","",""
"16161","","","","instructions","9","145826","0.0-5.0-0.0","5","1","2025-07-30 08:37:58","36c45c0696341be0efffe67d72a12abb","84.40.152.252","Mozilla/5.0 (Macintosh; Intel Mac OS X 10_15_7) AppleWebKit/537.36 (KHTML, like Gecko) Chrome/138.0.0.0 Safari/537.36","Macintosh","Chrome","138.0.0.0","OS X","10_15_7","https://app.prolific.com/","en-GB,en-US;q=0.9,en;q=0.8,pl;q=0.7,de;q=0.6","60f06a479c4f3ec0a536d40a","687a19d2168e237449fb8af4","6889d9cd1afed15cd4ee6ef2","0","60f06a479c4f3ec0a536d40a","0","","","","","","","","","","","","","","","[{""page_index"":0,""viewing_time"":16161}]","","","","","","","","","","","","","","","","","","","","","","","","","","","",""
"9086","","<p>Before you start with this game please answer the following three questions yourself. </p>
  <p>Through this game, we measure several aspects of your cognitive performance, such as reaction times, multi-tasking capabilities </p>
  <p>and the ability to assess the situation you are in.</p>
  <p></p>
  <p><b>How good do you usually are in such tasks?</b></p>","44","html-slider-response","10","154914","0.0-6.0-0.0","5","1","2025-07-30 08:37:58","36c45c0696341be0efffe67d72a12abb","84.40.152.252","Mozilla/5.0 (Macintosh; Intel Mac OS X 10_15_7) AppleWebKit/537.36 (KHTML, like Gecko) Chrome/138.0.0.0 Safari/537.36","Macintosh","Chrome","138.0.0.0","OS X","10_15_7","https://app.prolific.com/","en-GB,en-US;q=0.9,en;q=0.8,pl;q=0.7,de;q=0.6","60f06a479c4f3ec0a536d40a","687a19d2168e237449fb8af4","6889d9cd1afed15cd4ee6ef2","0","60f06a479c4f3ec0a536d40a","0","2025-07-30T08:40:40.196Z","","","","PreSkillQ","","","","","","","","","","","50","","","","","","","","","","","","","","","","","","","","","","","","","","",""
"2397","","<div style=""width:500px;"">
  <p>How well do you think you will perform in this task compared to other participants?</p>
  </div>","28","html-slider-response","11","157313","0.0-6.0-1.0","5","1","2025-07-30 08:37:58","36c45c0696341be0efffe67d72a12abb","84.40.152.252","Mozilla/5.0 (Macintosh; Intel Mac OS X 10_15_7) AppleWebKit/537.36 (KHTML, like Gecko) Chrome/138.0.0.0 Safari/537.36","Macintosh","Chrome","138.0.0.0","OS X","10_15_7","https://app.prolific.com/","en-GB,en-US;q=0.9,en;q=0.8,pl;q=0.7,de;q=0.6","60f06a479c4f3ec0a536d40a","687a19d2168e237449fb8af4","6889d9cd1afed15cd4ee6ef2","0","60f06a479c4f3ec0a536d40a","0","2025-07-30T08:40:42.595Z","","","","PrePerfQ","","","","","","","","","","","50","","","","","","","","","","","","","","","","","","","","","","","","","","",""
"2304","","<div style=""width:500px;"">
  <p>What best describes how you currently feel?</p>
  </div>","37","html-slider-response","12","159620","0.0-6.0-2.0","5","1","2025-07-30 08:37:58","36c45c0696341be0efffe67d72a12abb","84.40.152.252","Mozilla/5.0 (Macintosh; Intel Mac OS X 10_15_7) AppleWebKit/537.36 (KHTML, like Gecko) Chrome/138.0.0.0 Safari/537.36","Macintosh","Chrome","138.0.0.0","OS X","10_15_7","https://app.prolific.com/","en-GB,en-US;q=0.9,en;q=0.8,pl;q=0.7,de;q=0.6","60f06a479c4f3ec0a536d40a","687a19d2168e237449fb8af4","6889d9cd1afed15cd4ee6ef2","0","60f06a479c4f3ec0a536d40a","0","2025-07-30T08:40:44.901Z","","","","PreMotivationQ","","","","","","","","","","","50","","","","","","","","","","","","","","","","","","","","","","","","","","",""
"","","","","ctl-task-cpt","13","180344","0.0-7.0-0.0","5","1","2025-07-30 08:37:58","36c45c0696341be0efffe67d72a12abb","84.40.152.252","Mozilla/5.0 (Macintosh; Intel Mac OS X 10_15_7) AppleWebKit/537.36 (KHTML, like Gecko) Chrome/138.0.0.0 Safari/537.36","Macintosh","Chrome","138.0.0.0","OS X","10_15_7","https://app.prolific.com/","en-GB,en-US;q=0.9,en;q=0.8,pl;q=0.7,de;q=0.6","60f06a479c4f3ec0a536d40a","687a19d2168e237449fb8af4","6889d9cd1afed15cd4ee6ef2","0","60f06a479c4f3ec0a536d40a","0","2025-07-30T08:41:05.625Z","","","","","","","","","","","","","","","","win-only","2","g1:SE,g2:NW","1","1","0","172639.7","2001.8","7005.9","17717.3","1","4","4","6","1","1","1","1","0","0.007575757575757576","3737.5","3000","1740","[""down"",""right""]","{""num_key_presses"":4,""num_perfect"":4,""num_errors"":0,""num_randdir"":0,""num_randdir_good_moves"":0,""num_whilered"":0,""num_whileblue"":0,""num_blue"":0,""num_good_moves"":4}","[415.57142857142856,414.47767857142856,0.2,414.57142857142856,413.47767857142856,104.9,417.57142857142856,415.47767857142856,210.1,417.57142857142856,413.47767857142856,314.4,425.57142857142856,419.47767857142856,419.3,425.57142857142856,419.47767857142856,524,425.57142857142856,419.47767857142856,624.7,425.57142857142856,419.47767857142856,725,425.57142857142856,419.47767857142856,829.6,425.57142857142856,419.47767857142856,929.7,425.57142857142856,419.47767857142856,1034.4,425.57142857142856,419.47767857142856,1139,422.57142857142856,419.47767857142856,1244.8,422.57142857142856,419.47767857142856,1349,422.57142857142856,419.47767857142856,1449.8,422.57142857142856,419.47767857142856,1554.7,422.57142857142856,419.47767857142856,1659.1,422.57142857142856,419.47767857142856,1763.9,428.57142857142856,420.47767857142856,1864.5,430.57142857142856,420.47767857142856,1964.7,426.57142857142856,412.47767857142856,2069.1,396.57142857142856,374.47767857142856,2169.4,407.57142857142856,374.47767857142856,2274.7,432.57142857142856,371.47767857142856,2379,239.57142857142856,253.47767857142856,2479.1,28.57142857142857,55.47767857142857,2579.4,15.57142857142857,40.47767857142857,2679.8,66.57142857142857,51.47767857142857,2784.1,74.57142857142857,56.47767857142857,2884.8,74.57142857142857,56.47767857142857,2988.9,130.57142857142856,129.47767857142856,3089.1,683.5714285714286,739.4776785714286,3194.7,769.5714285714286,797.4776785714286,3299.9,773.5714285714286,784.4776785714286,3400,774.5714285714286,771.4776785714286,3504.7,774.5714285714286,771.4776785714286,3604.8,774.5714285714286,771.4776785714286,3709.6,774.5714285714286,771.4776785714286,3810.1,774.5714285714286,771.4776785714286,3914.2,774.5714285714286,771.4776785714286,4019,774.5714285714286,771.4776785714286,4119,774.5714285714286,771.4776785714286,4219.5,774.5714285714286,771.4776785714286,4319.9,774.5714285714286,771.4776785714286,4424.1,773.5714285714286,771.4776785714286,4529.9,763.5714285714286,765.4776785714286,4634.3,763.5714285714286,765.4776785714286,4739,763.5714285714286,765.4776785714286,4839.1,763.5714285714286,765.4776785714286,4939.6]","[1350.3,1350.3,1000,0,350.3,""smooth"",""down"",""down"",""good_move"",4384.6,3034.1,2712,1350.6,322.1,""smooth"",""right"",""right"",""good_move"",7710,3324.9,3018.4,4385.1,306.5,""smooth"",""right"",""right"",""good_move"",10622.4,2912.2,2610.7,7710.2,301.5,""smooth"",""down"",""down"",""good_move""]"
"3048","","<div style=""width:500px;"">
  <p>What determined the result of this run?</p>
  </div>","74","html-slider-response","14","183393","0.0-7.0-1.0","5","1","2025-07-30 08:37:58","36c45c0696341be0efffe67d72a12abb","84.40.152.252","Mozilla/5.0 (Macintosh; Intel Mac OS X 10_15_7) AppleWebKit/537.36 (KHTML, like Gecko) Chrome/138.0.0.0 Safari/537.36","Macintosh","Chrome","138.0.0.0","OS X","10_15_7","https://app.prolific.com/","en-GB,en-US;q=0.9,en;q=0.8,pl;q=0.7,de;q=0.6","60f06a479c4f3ec0a536d40a","687a19d2168e237449fb8af4","6889d9cd1afed15cd4ee6ef2","0","60f06a479c4f3ec0a536d40a","0","2025-07-30T08:41:08.674Z","","","","AttribQ","","","","","","","","","","","50","","","","","","","","","","","","","","","","","","","","","","","","","","",""
"1634","","<div style=""width:500px;"">
  <p>How much control did you have over the ball?</p>
  </div>","57","html-slider-response","15","185028","0.0-7.0-2.0","5","1","2025-07-30 08:37:58","36c45c0696341be0efffe67d72a12abb","84.40.152.252","Mozilla/5.0 (Macintosh; Intel Mac OS X 10_15_7) AppleWebKit/537.36 (KHTML, like Gecko) Chrome/138.0.0.0 Safari/537.36","Macintosh","Chrome","138.0.0.0","OS X","10_15_7","https://app.prolific.com/","en-GB,en-US;q=0.9,en;q=0.8,pl;q=0.7,de;q=0.6","60f06a479c4f3ec0a536d40a","687a19d2168e237449fb8af4","6889d9cd1afed15cd4ee6ef2","0","60f06a479c4f3ec0a536d40a","0","2025-07-30T08:41:10.310Z","","","","ControlQ","","","","","","","","","","","50","","","","","","","","","","","","","","","","","","","","","","","","","","",""
"2335","","<div style=""width:500px;"">
  <p>How would you describe your current emotional state?</p>
  </div>","42","html-slider-response","16","187365","0.0-7.0-3.0","5","1","2025-07-30 08:37:58","36c45c0696341be0efffe67d72a12abb","84.40.152.252","Mozilla/5.0 (Macintosh; Intel Mac OS X 10_15_7) AppleWebKit/537.36 (KHTML, like Gecko) Chrome/138.0.0.0 Safari/537.36","Macintosh","Chrome","138.0.0.0","OS X","10_15_7","https://app.prolific.com/","en-GB,en-US;q=0.9,en;q=0.8,pl;q=0.7,de;q=0.6","60f06a479c4f3ec0a536d40a","687a19d2168e237449fb8af4","6889d9cd1afed15cd4ee6ef2","0","60f06a479c4f3ec0a536d40a","0","2025-07-30T08:41:12.646Z","","","","StressQ","","","","","","","","","","","50","","","","","","","","","","","","","","","","","","","","","","","","","","",""
"1846","","<div style=""width:500px;"">
  <p>What best describes how you currently feel?</p>
  </div>","38","html-slider-response","17","189212","0.0-7.0-4.0","5","1","2025-07-30 08:37:58","36c45c0696341be0efffe67d72a12abb","84.40.152.252","Mozilla/5.0 (Macintosh; Intel Mac OS X 10_15_7) AppleWebKit/537.36 (KHTML, like Gecko) Chrome/138.0.0.0 Safari/537.36","Macintosh","Chrome","138.0.0.0","OS X","10_15_7","https://app.prolific.com/","en-GB,en-US;q=0.9,en;q=0.8,pl;q=0.7,de;q=0.6","60f06a479c4f3ec0a536d40a","687a19d2168e237449fb8af4","6889d9cd1afed15cd4ee6ef2","0","60f06a479c4f3ec0a536d40a","0","2025-07-30T08:41:14.493Z","","","","MotivationQ","","","","","","","","","","","50","","","","","","","","","","","","","","","","","","","","","","","","","","",""
"","","","","ctl-task-cpt","18","218802","0.0-7.0-0.1","5","1","2025-07-30 08:37:58","36c45c0696341be0efffe67d72a12abb","84.40.152.252","Mozilla/5.0 (Macintosh; Intel Mac OS X 10_15_7) AppleWebKit/537.36 (KHTML, like Gecko) Chrome/138.0.0.0 Safari/537.36","Macintosh","Chrome","138.0.0.0","OS X","10_15_7","https://app.prolific.com/","en-GB,en-US;q=0.9,en;q=0.8,pl;q=0.7,de;q=0.6","60f06a479c4f3ec0a536d40a","687a19d2168e237449fb8af4","6889d9cd1afed15cd4ee6ef2","0","60f06a479c4f3ec0a536d40a","0","2025-07-30T08:41:44.083Z","","","","","","","","","","","","","","","","win-only","3","g1:SW,g2:NE","0.9","2","0","202231.2","683.3","5685.9","26581.8","1","4","8","6","2","8","8","9","1","0.06818181818181818","1103.2","3000","915","[""up"",""right""]","{""num_key_presses"":6,""num_perfect"":5,""num_errors"":0,""num_randdir"":1,""num_randdir_good_moves"":1,""num_whilered"":0,""num_whileblue"":0,""num_blue"":1,""num_good_moves"":6}","[415.57142857142856,414.47767857142856,0.2,415.57142857142856,414.47767857142856,102.5,415.57142857142856,418.47767857142856,202.5,416.57142857142856,429.47767857142856,302.6,416.57142857142856,429.47767857142856,407.3,549.5714285714286,283.47767857142856,507.5,838.5714285714286,59.47767857142857,607.9,826.5714285714286,60.47767857142857,708,816.5714285714286,64.47767857142857,808.3,811.5714285714286,71.47767857142857,912.6,809.5714285714286,73.47767857142857,1012.8,808.5714285714286,75.47767857142857,1118,808.5714285714286,76.47767857142857,1222.4,785.5714285714286,118.47767857142857,1327.2,772.5714285714286,142.47767857142856,1427.7,772.5714285714286,142.47767857142856,1528.3,772.5714285714286,142.47767857142856,1628.4,771.5714285714286,142.47767857142856,1733.1,770.5714285714286,142.47767857142856,1833.3,770.5714285714286,142.47767857142856,1937.6,770.5714285714286,142.47767857142856,2037.8,770.5714285714286,142.47767857142856,2138.1,770.5714285714286,142.47767857142856,2243,770.5714285714286,142.47767857142856,2347.3,770.5714285714286,142.47767857142856,2447.3,770.5714285714286,142.47767857142856,2553.1,770.5714285714286,142.47767857142856,2653.1,770.5714285714286,142.47767857142856,2757.2,770.5714285714286,142.47767857142856,2857.6,770.5714285714286,142.47767857142856,2963.1,770.5714285714286,142.47767857142856,3067.1,763.5714285714286,144.47767857142856,3167.5,751.5714285714286,151.47767857142856,3273,746.5714285714286,154.47767857142856,3373,744.5714285714286,156.47767857142856,3477.5,744.5714285714286,156.47767857142856,3577.8,744.5714285714286,156.47767857142856,3677.8,744.5714285714286,156.47767857142856,3782.3,744.5714285714286,156.47767857142856,3887.8,744.5714285714286,156.47767857142856,3987.9,744.5714285714286,155.47767857142856,4092.2,744.5714285714286,155.47767857142856,4197.4,744.5714285714286,155.47767857142856,4303.2,744.5714285714286,155.47767857142856,4407.6,744.5714285714286,155.47767857142856,4512,744.5714285714286,155.47767857142856,4612.5,744.5714285714286,155.47767857142856,4718.1,744.5714285714286,155.47767857142856,4822.2,744.5714285714286,155.47767857142856,4922.9]","[4736.6,4736.6,2414.5,2004.7,317.4,""smooth"",""right"",""right"",""good_move"",8007.3,3270.4,2830.7,4736.9,439.7,""smooth"",""right"",""right"",""good_move"",10631.3,2624,2152.6,8007.5,471.3,""smooth"",""right"",""right"",""good_move"",13967.7,3336.2,3026.4,10631.5,309.8,""oops"",""up"",""up"",""good_move"",17951.4,3983.3,3686.6,13968.1,296.7,""smooth"",""up"",""up"",""good_move"",20800,2848.4,2571.8,17951.6,276.6,""smooth"",""up"",""up"",""good_move""]"
"2283","","<div style=""width:500px;"">
  <p>What determined the result of this run?</p>
  </div>","37","html-slider-response","19","221087","0.0-7.0-1.1","5","1","2025-07-30 08:37:58","36c45c0696341be0efffe67d72a12abb","84.40.152.252","Mozilla/5.0 (Macintosh; Intel Mac OS X 10_15_7) AppleWebKit/537.36 (KHTML, like Gecko) Chrome/138.0.0.0 Safari/537.36","Macintosh","Chrome","138.0.0.0","OS X","10_15_7","https://app.prolific.com/","en-GB,en-US;q=0.9,en;q=0.8,pl;q=0.7,de;q=0.6","60f06a479c4f3ec0a536d40a","687a19d2168e237449fb8af4","6889d9cd1afed15cd4ee6ef2","0","60f06a479c4f3ec0a536d40a","0","2025-07-30T08:41:46.368Z","","","","AttribQ","","","","","","","","","","","50","","","","","","","","","","","","","","","","","","","","","","","","","","",""
"2341","","<div style=""width:500px;"">
  <p>How much control did you have over the ball?</p>
  </div>","38","html-slider-response","20","223429","0.0-7.0-2.1","5","1","2025-07-30 08:37:58","36c45c0696341be0efffe67d72a12abb","84.40.152.252","Mozilla/5.0 (Macintosh; Intel Mac OS X 10_15_7) AppleWebKit/537.36 (KHTML, like Gecko) Chrome/138.0.0.0 Safari/537.36","Macintosh","Chrome","138.0.0.0","OS X","10_15_7","https://app.prolific.com/","en-GB,en-US;q=0.9,en;q=0.8,pl;q=0.7,de;q=0.6","60f06a479c4f3ec0a536d40a","687a19d2168e237449fb8af4","6889d9cd1afed15cd4ee6ef2","0","60f06a479c4f3ec0a536d40a","0","2025-07-30T08:41:48.710Z","","","","ControlQ","","","","","","","","","","","50","","","","","","","","","","","","","","","","","","","","","","","","","","",""
"1845","","<div style=""width:500px;"">
  <p>How would you describe your current emotional state?</p>
  </div>","46","html-slider-response","21","225274","0.0-7.0-3.1","5","1","2025-07-30 08:37:58","36c45c0696341be0efffe67d72a12abb","84.40.152.252","Mozilla/5.0 (Macintosh; Intel Mac OS X 10_15_7) AppleWebKit/537.36 (KHTML, like Gecko) Chrome/138.0.0.0 Safari/537.36","Macintosh","Chrome","138.0.0.0","OS X","10_15_7","https://app.prolific.com/","en-GB,en-US;q=0.9,en;q=0.8,pl;q=0.7,de;q=0.6","60f06a479c4f3ec0a536d40a","687a19d2168e237449fb8af4","6889d9cd1afed15cd4ee6ef2","0","60f06a479c4f3ec0a536d40a","0","2025-07-30T08:41:50.556Z","","","","StressQ","","","","","","","","","","","50","","","","","","","","","","","","","","","","","","","","","","","","","","",""
"1379","","<div style=""width:500px;"">
  <p>What best describes how you currently feel?</p>
  </div>","37","html-slider-response","22","226654","0.0-7.0-4.1","5","1","2025-07-30 08:37:58","36c45c0696341be0efffe67d72a12abb","84.40.152.252","Mozilla/5.0 (Macintosh; Intel Mac OS X 10_15_7) AppleWebKit/537.36 (KHTML, like Gecko) Chrome/138.0.0.0 Safari/537.36","Macintosh","Chrome","138.0.0.0","OS X","10_15_7","https://app.prolific.com/","en-GB,en-US;q=0.9,en;q=0.8,pl;q=0.7,de;q=0.6","60f06a479c4f3ec0a536d40a","687a19d2168e237449fb8af4","6889d9cd1afed15cd4ee6ef2","0","60f06a479c4f3ec0a536d40a","0","2025-07-30T08:41:51.935Z","","","","MotivationQ","","","","","","","","","","","50","","","","","","","","","","","","","","","","","","","","","","","","","","",""
"","","","","ctl-task-cpt","23","272725","0.0-7.0-0.2","5","1","2025-07-30 08:37:58","36c45c0696341be0efffe67d72a12abb","84.40.152.252","Mozilla/5.0 (Macintosh; Intel Mac OS X 10_15_7) AppleWebKit/537.36 (KHTML, like Gecko) Chrome/138.0.0.0 Safari/537.36","Macintosh","Chrome","138.0.0.0","OS X","10_15_7","https://app.prolific.com/","en-GB,en-US;q=0.9,en;q=0.8,pl;q=0.7,de;q=0.6","60f06a479c4f3ec0a536d40a","687a19d2168e237449fb8af4","6889d9cd1afed15cd4ee6ef2","0","60f06a479c4f3ec0a536d40a","0","2025-07-30T08:42:38.006Z","","","","","","","","","","","","","","","","win-only","0","g1:NW,g2:SE","0.8","3","0","239675.5","568.5","5570.4","43061.3","1","4","4","6","2","-4","-7","2","9","0.015151515151515152","791.2","3000","-3005","[""down"",""right""]","{""num_key_presses"":12,""num_perfect"":7,""num_errors"":3,""num_randdir"":2,""num_randdir_good_moves"":0,""num_whilered"":0,""num_whileblue"":2,""num_blue"":3,""num_good_moves"":7}","[407.57142857142856,409.47767857142856,0.2,407.57142857142856,409.47767857142856,101.9,405.57142857142856,410.47767857142856,206.9,405.57142857142856,410.47767857142856,306.9,405.57142857142856,410.47767857142856,407.2,579.5714285714286,674.4776785714286,512.4,687.5714285714286,779.4776785714286,617.4,743.5714285714286,809.4776785714286,717.4,764.5714285714286,808.4776785714286,822.3,762.5714285714286,809.4776785714286,927.4,757.5714285714286,807.4776785714286,1027.8,755.5714285714286,804.4776785714286,1132,755.5714285714286,804.4776785714286,1232.3,755.5714285714286,804.4776785714286,1337.6,755.5714285714286,804.4776785714286,1442,755.5714285714286,804.4776785714286,1542.1,755.5714285714286,804.4776785714286,1646.9,755.5714285714286,804.4776785714286,1747.3,755.5714285714286,804.4776785714286,1847.8,755.5714285714286,804.4776785714286,1952.4,755.5714285714286,804.4776785714286,2058,755.5714285714286,804.4776785714286,2162.5,755.5714285714286,804.4776785714286,2267,755.5714285714286,804.4776785714286,2367,755.5714285714286,804.4776785714286,2472.5,755.5714285714286,804.4776785714286,2577.2,755.5714285714286,804.4776785714286,2682.6,755.5714285714286,804.4776785714286,2787.9,755.5714285714286,804.4776785714286,2892.5,755.5714285714286,804.4776785714286,2992.8,755.5714285714286,804.4776785714286,3097.6,755.5714285714286,804.4776785714286,3202.4,755.5714285714286,804.4776785714286,3308,755.5714285714286,804.4776785714286,3411.8,755.5714285714286,804.4776785714286,3512.6,755.5714285714286,804.4776785714286,3612.7,755.5714285714286,804.4776785714286,3717.6,755.5714285714286,804.4776785714286,3817.8,755.5714285714286,804.4776785714286,3922,755.5714285714286,804.4776785714286,4022.8,755.5714285714286,804.4776785714286,4127.7,755.5714285714286,804.4776785714286,4232.6,755.5714285714286,804.4776785714286,4332.6,755.5714285714286,804.4776785714286,4436.8,755.5714285714286,804.4776785714286,4536.9,755.5714285714286,804.4776785714286,4637,755.5714285714286,804.4776785714286,4737.7,755.5714285714286,804.4776785714286,4842.1,755.5714285714286,804.4776785714286,4943.3]","[1356.7,1356.7,1000,0,356.7,""smooth"",""right"",""right"",""good_move"",7223.6,5866.5,2401.3,4505.3,317,""smooth"",""right"",""right"",""good_move"",10375.7,3151.9,2799.7,7223.8,352.2,""smooth"",""right"",""right"",""good_move"",13120.2,2744.4,2342.7,10375.8,401.7,""smooth"",""down"",""down"",""good_move"",15655.5,2535,2243.7,13120.5,291.3,""smooth"",""down"",""down"",""good_move"",18352.3,2696.7,2353,15655.7,343.7,""oops"",""down"",""up"",""bad_move"",20992.5,2639.9,2341.1,18352.7,298.8,""smooth"",""down"",""down"",""good_move"",24279.6,3286.8,3017.2,20992.8,269.6,""while_blue"",""down"",""left"",""bad_move"",26703.8,2423.9,2108.9,24279.9,315,""smooth"",""right"",""right"",""good_move"",29327.7,2623.8,2337.4,26703.9,286.4,""oops"",""down"",""left"",""bad_move"",31408.4,2080.4,2325.6,29328,-245.2,""error"",""-"",""-"",""no_move"",34956.4,3547.8,2285.4,32410.5,260.5,""while_blue"",""right"",""up"",""bad_move""]"
"3667","","<div style=""width:500px;"">
  <p>What determined the result of this run?</p>
  </div>","57","html-slider-response","24","276393","0.0-7.0-1.2","5","1","2025-07-30 08:37:58","36c45c0696341be0efffe67d72a12abb","84.40.152.252","Mozilla/5.0 (Macintosh; Intel Mac OS X 10_15_7) AppleWebKit/537.36 (KHTML, like Gecko) Chrome/138.0.0.0 Safari/537.36","Macintosh","Chrome","138.0.0.0","OS X","10_15_7","https://app.prolific.com/","en-GB,en-US;q=0.9,en;q=0.8,pl;q=0.7,de;q=0.6","60f06a479c4f3ec0a536d40a","687a19d2168e237449fb8af4","6889d9cd1afed15cd4ee6ef2","0","60f06a479c4f3ec0a536d40a","0","2025-07-30T08:42:41.674Z","","","","AttribQ","","","","","","","","","","","50","","","","","","","","","","","","","","","","","","","","","","","","","","",""
"2865","","<div style=""width:500px;"">
  <p>How much control did you have over the ball?</p>
  </div>","22","html-slider-response","25","279259","0.0-7.0-2.2","5","1","2025-07-30 08:37:58","36c45c0696341be0efffe67d72a12abb","84.40.152.252","Mozilla/5.0 (Macintosh; Intel Mac OS X 10_15_7) AppleWebKit/537.36 (KHTML, like Gecko) Chrome/138.0.0.0 Safari/537.36","Macintosh","Chrome","138.0.0.0","OS X","10_15_7","https://app.prolific.com/","en-GB,en-US;q=0.9,en;q=0.8,pl;q=0.7,de;q=0.6","60f06a479c4f3ec0a536d40a","687a19d2168e237449fb8af4","6889d9cd1afed15cd4ee6ef2","0","60f06a479c4f3ec0a536d40a","0","2025-07-30T08:42:44.541Z","","","","ControlQ","","","","","","","","","","","50","","","","","","","","","","","","","","","","","","","","","","","","","","",""
"1842","","<div style=""width:500px;"">
  <p>How would you describe your current emotional state?</p>
  </div>","64","html-slider-response","26","281102","0.0-7.0-3.2","5","1","2025-07-30 08:37:58","36c45c0696341be0efffe67d72a12abb","84.40.152.252","Mozilla/5.0 (Macintosh; Intel Mac OS X 10_15_7) AppleWebKit/537.36 (KHTML, like Gecko) Chrome/138.0.0.0 Safari/537.36","Macintosh","Chrome","138.0.0.0","OS X","10_15_7","https://app.prolific.com/","en-GB,en-US;q=0.9,en;q=0.8,pl;q=0.7,de;q=0.6","60f06a479c4f3ec0a536d40a","687a19d2168e237449fb8af4","6889d9cd1afed15cd4ee6ef2","0","60f06a479c4f3ec0a536d40a","0","2025-07-30T08:42:46.384Z","","","","StressQ","","","","","","","","","","","50","","","","","","","","","","","","","","","","","","","","","","","","","","",""
"1185","","<div style=""width:500px;"">
  <p>What best describes how you currently feel?</p>
  </div>","38","html-slider-response","27","282289","0.0-7.0-4.2","5","1","2025-07-30 08:37:58","36c45c0696341be0efffe67d72a12abb","84.40.152.252","Mozilla/5.0 (Macintosh; Intel Mac OS X 10_15_7) AppleWebKit/537.36 (KHTML, like Gecko) Chrome/138.0.0.0 Safari/537.36","Macintosh","Chrome","138.0.0.0","OS X","10_15_7","https://app.prolific.com/","en-GB,en-US;q=0.9,en;q=0.8,pl;q=0.7,de;q=0.6","60f06a479c4f3ec0a536d40a","687a19d2168e237449fb8af4","6889d9cd1afed15cd4ee6ef2","0","60f06a479c4f3ec0a536d40a","0","2025-07-30T08:42:47.570Z","","","","MotivationQ","","","","","","","","","","","50","","","","","","","","","","","","","","","","","","","","","","","","","","",""
"","","","","ctl-task-cpt","28","306408","0.0-7.0-0.3","5","1","2025-07-30 08:37:58","36c45c0696341be0efffe67d72a12abb","84.40.152.252","Mozilla/5.0 (Macintosh; Intel Mac OS X 10_15_7) AppleWebKit/537.36 (KHTML, like Gecko) Chrome/138.0.0.0 Safari/537.36","Macintosh","Chrome","138.0.0.0","OS X","10_15_7","https://app.prolific.com/","en-GB,en-US;q=0.9,en;q=0.8,pl;q=0.7,de;q=0.6","60f06a479c4f3ec0a536d40a","687a19d2168e237449fb8af4","6889d9cd1afed15cd4ee6ef2","0","60f06a479c4f3ec0a536d40a","0","2025-07-30T08:43:11.689Z","","","","","","","","","","","","","","","","win-only","3","g1:SW,g2:NE","0.7","4","0","295312.2","859.7","5860.6","21110.6","1","4","8","6","2","8","7","9","2","0.06818181818181818","1087.6","3000","1110","[""up"",""right""]","{""num_key_presses"":6,""num_perfect"":4,""num_errors"":1,""num_randdir"":1,""num_randdir_good_moves"":1,""num_whilered"":0,""num_whileblue"":1,""num_blue"":1,""num_good_moves"":6}","[407.57142857142856,409.47767857142856,0,407.57142857142856,409.47767857142856,100.9,410.57142857142856,414.47767857142856,201.4,410.57142857142856,414.47767857142856,305.7,400.57142857142856,419.47767857142856,405.9,456.57142857142856,375.47767857142856,505.9,860.5714285714286,105.47767857142857,606.8,887.5714285714286,81.47767857142857,707,823.5714285714286,76.47767857142857,810.8,757.5714285714286,89.47767857142857,910.8,756.5714285714286,89.47767857142857,1011.4,756.5714285714286,89.47767857142857,1116.7,757.5714285714286,88.47767857142857,1221.4,755.5714285714286,89.47767857142857,1321.4,755.5714285714286,89.47767857142857,1426.4,755.5714285714286,89.47767857142857,1530.8,755.5714285714286,89.47767857142857,1630.9,755.5714285714286,89.47767857142857,1731,755.5714285714286,89.47767857142857,1835.8,755.5714285714286,89.47767857142857,1940.5,755.5714285714286,89.47767857142857,2040.8,755.5714285714286,89.47767857142857,2141.3,755.5714285714286,89.47767857142857,2241.6,755.5714285714286,89.47767857142857,2341.6,755.5714285714286,89.47767857142857,2446.3,755.5714285714286,89.47767857142857,2546.6,755.5714285714286,89.47767857142857,2650.8,755.5714285714286,89.47767857142857,2751.4,755.5714285714286,89.47767857142857,2856.1,755.5714285714286,89.47767857142857,2960.7,755.5714285714286,89.47767857142857,3066.3,755.5714285714286,89.47767857142857,3166.4,755.5714285714286,89.47767857142857,3270.7,755.5714285714286,89.47767857142857,3371,755.5714285714286,89.47767857142857,3475.6,755.5714285714286,89.47767857142857,3575.8,755.5714285714286,89.47767857142857,3676,755.5714285714286,89.47767857142857,3776.1,755.5714285714286,89.47767857142857,3880.9,755.5714285714286,89.47767857142857,3981.4,755.5714285714286,89.47767857142857,4086.1,755.5714285714286,89.47767857142857,4186.3,755.5714285714286,89.47767857142857,4290.7,755.5714285714286,89.47767857142857,4396.2,755.5714285714286,89.47767857142857,4500.7,755.5714285714286,89.47767857142857,4606.1,755.5714285714286,89.47767857142857,4711.1,755.5714285714286,89.47767857142857,4815.6,755.5714285714286,89.47767857142857,4915.9]","[1397.4,1397.4,1000,0,397.4,""smooth"",""right"",""right"",""good_move"",4256.8,2859.1,2562.2,1397.8,296.9,""smooth"",""right"",""right"",""good_move"",7572.6,3315.6,3067.6,4257,248.1,""while_blue"",""right"",""up"",""good_move"",9680.8,2107.8,1701.4,7573,406.4,""smooth"",""right"",""right"",""good_move"",11562,1881.1,1436.6,9680.9,444.5,""smooth"",""up"",""up"",""good_move"",15162.1,3600,3236.5,11562.1,363.5,""oops"",""up"",""up"",""good_move""]"
"1690","","<div style=""width:500px;"">
  <p>What determined the result of this run?</p>
  </div>","40","html-slider-response","29","308099","0.0-7.0-1.3","5","1","2025-07-30 08:37:58","36c45c0696341be0efffe67d72a12abb","84.40.152.252","Mozilla/5.0 (Macintosh; Intel Mac OS X 10_15_7) AppleWebKit/537.36 (KHTML, like Gecko) Chrome/138.0.0.0 Safari/537.36","Macintosh","Chrome","138.0.0.0","OS X","10_15_7","https://app.prolific.com/","en-GB,en-US;q=0.9,en;q=0.8,pl;q=0.7,de;q=0.6","60f06a479c4f3ec0a536d40a","687a19d2168e237449fb8af4","6889d9cd1afed15cd4ee6ef2","0","60f06a479c4f3ec0a536d40a","0","2025-07-30T08:43:13.380Z","","","","AttribQ","","","","","","","","","","","50","","","","","","","","","","","","","","","","","","","","","","","","","","",""
"1322","","<div style=""width:500px;"">
  <p>How much control did you have over the ball?</p>
  </div>","38","html-slider-response","30","309422","0.0-7.0-2.3","5","1","2025-07-30 08:37:58","36c45c0696341be0efffe67d72a12abb","84.40.152.252","Mozilla/5.0 (Macintosh; Intel Mac OS X 10_15_7) AppleWebKit/537.36 (KHTML, like Gecko) Chrome/138.0.0.0 Safari/537.36","Macintosh","Chrome","138.0.0.0","OS X","10_15_7","https://app.prolific.com/","en-GB,en-US;q=0.9,en;q=0.8,pl;q=0.7,de;q=0.6","60f06a479c4f3ec0a536d40a","687a19d2168e237449fb8af4","6889d9cd1afed15cd4ee6ef2","0","60f06a479c4f3ec0a536d40a","0","2025-07-30T08:43:14.703Z","","","","ControlQ","","","","","","","","","","","50","","","","","","","","","","","","","","","","","","","","","","","","","","",""
"3067","","<div style=""width:500px;"">
  <p>How would you describe your current emotional state?</p>
  </div>","60","html-slider-response","31","312490","0.0-7.0-3.3","5","1","2025-07-30 08:37:58","36c45c0696341be0efffe67d72a12abb","84.40.152.252","Mozilla/5.0 (Macintosh; Intel Mac OS X 10_15_7) AppleWebKit/537.36 (KHTML, like Gecko) Chrome/138.0.0.0 Safari/537.36","Macintosh","Chrome","138.0.0.0","OS X","10_15_7","https://app.prolific.com/","en-GB,en-US;q=0.9,en;q=0.8,pl;q=0.7,de;q=0.6","60f06a479c4f3ec0a536d40a","687a19d2168e237449fb8af4","6889d9cd1afed15cd4ee6ef2","0","60f06a479c4f3ec0a536d40a","0","2025-07-30T08:43:17.771Z","","","","StressQ","","","","","","","","","","","50","","","","","","","","","","","","","","","","","","","","","","","","","","",""
"1014","","<div style=""width:500px;"">
  <p>What best describes how you currently feel?</p>
  </div>","39","html-slider-response","32","313505","0.0-7.0-4.3","5","1","2025-07-30 08:37:58","36c45c0696341be0efffe67d72a12abb","84.40.152.252","Mozilla/5.0 (Macintosh; Intel Mac OS X 10_15_7) AppleWebKit/537.36 (KHTML, like Gecko) Chrome/138.0.0.0 Safari/537.36","Macintosh","Chrome","138.0.0.0","OS X","10_15_7","https://app.prolific.com/","en-GB,en-US;q=0.9,en;q=0.8,pl;q=0.7,de;q=0.6","60f06a479c4f3ec0a536d40a","687a19d2168e237449fb8af4","6889d9cd1afed15cd4ee6ef2","0","60f06a479c4f3ec0a536d40a","0","2025-07-30T08:43:18.786Z","","","","MotivationQ","","","","","","","","","","","50","","","","","","","","","","","","","","","","","","","","","","","","","","",""
"","","","","ctl-task-cpt","33","361693","0.0-7.0-0.4","5","1","2025-07-30 08:37:58","36c45c0696341be0efffe67d72a12abb","84.40.152.252","Mozilla/5.0 (Macintosh; Intel Mac OS X 10_15_7) AppleWebKit/537.36 (KHTML, like Gecko) Chrome/138.0.0.0 Safari/537.36","Macintosh","Chrome","138.0.0.0","OS X","10_15_7","https://app.prolific.com/","en-GB,en-US;q=0.9,en;q=0.8,pl;q=0.7,de;q=0.6","60f06a479c4f3ec0a536d40a","687a19d2168e237449fb8af4","6889d9cd1afed15cd4ee6ef2","0","60f06a479c4f3ec0a536d40a","0","2025-07-30T08:44:06.974Z","","","","","","","","","","","","","","","","win-only","1","g1:NE,g2:SW","0.6","5","0","326529.7","833.7","5836.5","45181.6","1","4","8","6","2","8","8","17","9","0.12878787878787878","941.7","3000","55","[""down"",""left""]","{""num_key_presses"":10,""num_perfect"":6,""num_errors"":0,""num_randdir"":4,""num_randdir_good_moves"":2,""num_whilered"":0,""num_whileblue"":0,""num_blue"":4,""num_good_moves"":8}","[409.57142857142856,415.47767857142856,0.1,409.57142857142856,415.47767857142856,101.9,409.57142857142856,415.47767857142856,207.6,409.57142857142856,415.47767857142856,311.4,379.57142857142856,445.47767857142856,411.8,32.57142857142857,743.4776785714286,511.9,26.57142857142857,746.4776785714286,612.7,26.57142857142857,747.4776785714286,717.2,40.57142857142857,749.4776785714286,821.8,45.57142857142857,749.4776785714286,922.7,45.57142857142857,749.4776785714286,1027.4,44.57142857142857,748.4776785714286,1131.8,44.57142857142857,748.4776785714286,1232.5,44.57142857142857,748.4776785714286,1336.9,44.57142857142857,748.4776785714286,1436.9,44.57142857142857,748.4776785714286,1542.2,44.57142857142857,748.4776785714286,1642.7,44.57142857142857,748.4776785714286,1747,44.57142857142857,748.4776785714286,1852.8,44.57142857142857,748.4776785714286,1957,44.57142857142857,748.4776785714286,2057.2,44.57142857142857,748.4776785714286,2162.7,44.57142857142857,748.4776785714286,2267.6,44.57142857142857,748.4776785714286,2371.6,44.57142857142857,748.4776785714286,2471.7,44.57142857142857,748.4776785714286,2572.7,44.57142857142857,748.4776785714286,2676.9,44.57142857142857,748.4776785714286,2782.7,44.57142857142857,748.4776785714286,2888.3,44.57142857142857,748.4776785714286,2991.6,44.57142857142857,748.4776785714286,3092.7,44.57142857142857,748.4776785714286,3197,44.57142857142857,748.4776785714286,3297,44.57142857142857,748.4776785714286,3402.5,44.57142857142857,748.4776785714286,3506.8,44.57142857142857,748.4776785714286,3611.5,44.57142857142857,748.4776785714286,3711.6,44.57142857142857,748.4776785714286,3811.9,44.57142857142857,748.4776785714286,3916.7,44.57142857142857,748.4776785714286,4017.2,44.57142857142857,748.4776785714286,4117.2,44.57142857142857,748.4776785714286,4221.6,44.57142857142857,748.4776785714286,4322.3,44.57142857142857,748.4776785714286,4427.6,44.57142857142857,748.4776785714286,4528.8,44.57142857142857,748.4776785714286,4632.3,44.57142857142857,748.4776785714286,4732.5,44.57142857142857,748.4776785714286,4837.2,44.57142857142857,748.4776785714286,4937.6]","[1337.4,1337.4,1000,0,337.4,""oops"",""down"",""up"",""bad_move"",3953.6,2615.8,2363.9,1337.8,251.9,""oops"",""left"",""down"",""good_move"",6552.9,2598.9,2258.3,3954,340.6,""smooth"",""left"",""left"",""good_move"",9497.1,2943.9,2648.2,6553.3,295.6,""smooth"",""down"",""down"",""good_move"",15461.2,5964,2354.5,12839.2,267.5,""oops"",""down"",""right"",""bad_move"",18435.2,2973.6,2664.6,15461.6,309,""oops"",""down"",""down"",""good_move"",24353.1,5917.8,2426.2,21659.2,267.7,""smooth"",""down"",""down"",""good_move"",26626.6,2273.4,1947.8,24353.2,325.6,""smooth"",""left"",""left"",""good_move"",32754,6127.2,2442,29994.8,317.2,""smooth"",""left"",""left"",""good_move"",39250.7,6496.7,2901.8,36059,290,""smooth"",""left"",""left"",""good_move""]"
"2561","","<div style=""width:500px;"">
  <p>What determined the result of this run?</p>
  </div>","34","html-slider-response","34","364254","0.0-7.0-1.4","5","1","2025-07-30 08:37:58","36c45c0696341be0efffe67d72a12abb","84.40.152.252","Mozilla/5.0 (Macintosh; Intel Mac OS X 10_15_7) AppleWebKit/537.36 (KHTML, like Gecko) Chrome/138.0.0.0 Safari/537.36","Macintosh","Chrome","138.0.0.0","OS X","10_15_7","https://app.prolific.com/","en-GB,en-US;q=0.9,en;q=0.8,pl;q=0.7,de;q=0.6","60f06a479c4f3ec0a536d40a","687a19d2168e237449fb8af4","6889d9cd1afed15cd4ee6ef2","0","60f06a479c4f3ec0a536d40a","0","2025-07-30T08:44:09.536Z","","","","AttribQ","","","","","","","","","","","50","","","","","","","","","","","","","","","","","","","","","","","","","","",""
"1996","","<div style=""width:500px;"">
  <p>How much control did you have over the ball?</p>
  </div>","47","html-slider-response","35","366251","0.0-7.0-2.4","5","1","2025-07-30 08:37:58","36c45c0696341be0efffe67d72a12abb","84.40.152.252","Mozilla/5.0 (Macintosh; Intel Mac OS X 10_15_7) AppleWebKit/537.36 (KHTML, like Gecko) Chrome/138.0.0.0 Safari/537.36","Macintosh","Chrome","138.0.0.0","OS X","10_15_7","https://app.prolific.com/","en-GB,en-US;q=0.9,en;q=0.8,pl;q=0.7,de;q=0.6","60f06a479c4f3ec0a536d40a","687a19d2168e237449fb8af4","6889d9cd1afed15cd4ee6ef2","0","60f06a479c4f3ec0a536d40a","0","2025-07-30T08:44:11.532Z","","","","ControlQ","","","","","","","","","","","50","","","","","","","","","","","","","","","","","","","","","","","","","","",""
"1678","","<div style=""width:500px;"">
  <p>How would you describe your current emotional state?</p>
  </div>","49","html-slider-response","36","367930","0.0-7.0-3.4","5","1","2025-07-30 08:37:58","36c45c0696341be0efffe67d72a12abb","84.40.152.252","Mozilla/5.0 (Macintosh; Intel Mac OS X 10_15_7) AppleWebKit/537.36 (KHTML, like Gecko) Chrome/138.0.0.0 Safari/537.36","Macintosh","Chrome","138.0.0.0","OS X","10_15_7","https://app.prolific.com/","en-GB,en-US;q=0.9,en;q=0.8,pl;q=0.7,de;q=0.6","60f06a479c4f3ec0a536d40a","687a19d2168e237449fb8af4","6889d9cd1afed15cd4ee6ef2","0","60f06a479c4f3ec0a536d40a","0","2025-07-30T08:44:13.211Z","","","","StressQ","","","","","","","","","","","50","","","","","","","","","","","","","","","","","","","","","","","","","","",""
"1133","","<div style=""width:500px;"">
  <p>What best describes how you currently feel?</p>
  </div>","36","html-slider-response","37","369063","0.0-7.0-4.4","5","1","2025-07-30 08:37:58","36c45c0696341be0efffe67d72a12abb","84.40.152.252","Mozilla/5.0 (Macintosh; Intel Mac OS X 10_15_7) AppleWebKit/537.36 (KHTML, like Gecko) Chrome/138.0.0.0 Safari/537.36","Macintosh","Chrome","138.0.0.0","OS X","10_15_7","https://app.prolific.com/","en-GB,en-US;q=0.9,en;q=0.8,pl;q=0.7,de;q=0.6","60f06a479c4f3ec0a536d40a","687a19d2168e237449fb8af4","6889d9cd1afed15cd4ee6ef2","0","60f06a479c4f3ec0a536d40a","0","2025-07-30T08:44:14.345Z","","","","MotivationQ","","","","","","","","","","","50","","","","","","","","","","","","","","","","","","","","","","","","","","",""
"","","","","ctl-task-cpt","38","400479","0.0-7.0-0.5","5","1","2025-07-30 08:37:58","36c45c0696341be0efffe67d72a12abb","84.40.152.252","Mozilla/5.0 (Macintosh; Intel Mac OS X 10_15_7) AppleWebKit/537.36 (KHTML, like Gecko) Chrome/138.0.0.0 Safari/537.36","Macintosh","Chrome","138.0.0.0","OS X","10_15_7","https://app.prolific.com/","en-GB,en-US;q=0.9,en;q=0.8,pl;q=0.7,de;q=0.6","60f06a479c4f3ec0a536d40a","687a19d2168e237449fb8af4","6889d9cd1afed15cd4ee6ef2","0","60f06a479c4f3ec0a536d40a","0","2025-07-30T08:44:45.760Z","","","","","","","","","","","","","","","","win-only","2","g1:SE,g2:NW","0.5","6","0","382090.7","771.4","5776.6","28406.2","1","4","4","6","1","1","1","18","17","0.13636363636363635","1291.1","3000","1685","[""down"",""right""]","{""num_key_presses"":4,""num_perfect"":3,""num_errors"":0,""num_randdir"":1,""num_randdir_good_moves"":1,""num_whilered"":0,""num_whileblue"":0,""num_blue"":3,""num_good_moves"":4}","[420.57142857142856,419.47767857142856,0.2,420.57142857142856,419.47767857142856,104.2,420.57142857142856,419.47767857142856,204.4,419.57142857142856,420.47767857142856,309.8,374.57142857142856,336.47767857142856,414.6,187.57142857142856,181.47767857142856,518.9,165.57142857142856,169.47767857142856,624.6,167.57142857142856,163.47767857142856,729.2,222.57142857142856,180.47767857142856,834.5,746.5714285714286,597.4776785714286,934.8,827.5714285714286,684.4776785714286,1039.7,827.5714285714286,700.4776785714286,1144.3,811.5714285714286,758.4776785714286,1244.4,811.5714285714286,764.4776785714286,1349.2,810.5714285714286,764.4776785714286,1453.9,810.5714285714286,764.4776785714286,1554.3,810.5714285714286,764.4776785714286,1654.9,810.5714285714286,764.4776785714286,1759.5,810.5714285714286,764.4776785714286,1864.6,810.5714285714286,764.4776785714286,1968.9,810.5714285714286,764.4776785714286,2069.1,786.5714285714286,759.4776785714286,2169.4,826.5714285714286,733.4776785714286,2269.6,835.5714285714286,727.4776785714286,2373.9,835.5714285714286,727.4776785714286,2474.1,835.5714285714286,727.4776785714286,2574.9,835.5714285714286,727.4776785714286,2679.5,835.5714285714286,727.4776785714286,2784.7,835.5714285714286,727.4776785714286,2884.7,835.5714285714286,727.4776785714286,2989.9,835.5714285714286,727.4776785714286,3094.1,835.5714285714286,727.4776785714286,3194.3,835.5714285714286,727.4776785714286,3294.7,835.5714285714286,727.4776785714286,3399.6,835.5714285714286,727.4776785714286,3504.7,835.5714285714286,727.4776785714286,3609.7,835.5714285714286,727.4776785714286,3710.1,835.5714285714286,727.4776785714286,3814.9,835.5714285714286,727.4776785714286,3919,835.5714285714286,727.4776785714286,4019.3,835.5714285714286,727.4776785714286,4120,835.5714285714286,727.4776785714286,4224.8,835.5714285714286,727.4776785714286,4325,835.5714285714286,727.4776785714286,4429.7,835.5714285714286,727.4776785714286,4534.9,835.5714285714286,727.4776785714286,4639.2,835.5714285714286,727.4776785714286,4744.9,835.5714285714286,727.4776785714286,4850.7,835.5714285714286,727.4776785714286,4953.8]","[12982.7,12982.7,3124.6,9534.5,323.6,""smooth"",""right"",""right"",""good_move"",15718.7,2735.6,2378.8,12983.1,356.8,""smooth"",""right"",""right"",""good_move"",19534.8,3816,3496.7,15718.8,319.3,""oops"",""down"",""down"",""good_move"",22543.4,3008.3,2665.4,19535.1,342.9,""smooth"",""down"",""down"",""good_move""]"
"1626","","<div style=""width:500px;"">
  <p>What determined the result of this run?</p>
  </div>","45","html-slider-response","39","402106","0.0-7.0-1.5","5","1","2025-07-30 08:37:58","36c45c0696341be0efffe67d72a12abb","84.40.152.252","Mozilla/5.0 (Macintosh; Intel Mac OS X 10_15_7) AppleWebKit/537.36 (KHTML, like Gecko) Chrome/138.0.0.0 Safari/537.36","Macintosh","Chrome","138.0.0.0","OS X","10_15_7","https://app.prolific.com/","en-GB,en-US;q=0.9,en;q=0.8,pl;q=0.7,de;q=0.6","60f06a479c4f3ec0a536d40a","687a19d2168e237449fb8af4","6889d9cd1afed15cd4ee6ef2","0","60f06a479c4f3ec0a536d40a","0","2025-07-30T08:44:47.387Z","","","","AttribQ","","","","","","","","","","","50","","","","","","","","","","","","","","","","","","","","","","","","","","",""
"1715","","<div style=""width:500px;"">
  <p>How much control did you have over the ball?</p>
  </div>","35","html-slider-response","40","403822","0.0-7.0-2.5","5","1","2025-07-30 08:37:58","36c45c0696341be0efffe67d72a12abb","84.40.152.252","Mozilla/5.0 (Macintosh; Intel Mac OS X 10_15_7) AppleWebKit/537.36 (KHTML, like Gecko) Chrome/138.0.0.0 Safari/537.36","Macintosh","Chrome","138.0.0.0","OS X","10_15_7","https://app.prolific.com/","en-GB,en-US;q=0.9,en;q=0.8,pl;q=0.7,de;q=0.6","60f06a479c4f3ec0a536d40a","687a19d2168e237449fb8af4","6889d9cd1afed15cd4ee6ef2","0","60f06a479c4f3ec0a536d40a","0","2025-07-30T08:44:49.103Z","","","","ControlQ","","","","","","","","","","","50","","","","","","","","","","","","","","","","","","","","","","","","","","",""
"1118","","<div style=""width:500px;"">
  <p>How would you describe your current emotional state?</p>
  </div>","56","html-slider-response","41","404940","0.0-7.0-3.5","5","1","2025-07-30 08:37:58","36c45c0696341be0efffe67d72a12abb","84.40.152.252","Mozilla/5.0 (Macintosh; Intel Mac OS X 10_15_7) AppleWebKit/537.36 (KHTML, like Gecko) Chrome/138.0.0.0 Safari/537.36","Macintosh","Chrome","138.0.0.0","OS X","10_15_7","https://app.prolific.com/","en-GB,en-US;q=0.9,en;q=0.8,pl;q=0.7,de;q=0.6","60f06a479c4f3ec0a536d40a","687a19d2168e237449fb8af4","6889d9cd1afed15cd4ee6ef2","0","60f06a479c4f3ec0a536d40a","0","2025-07-30T08:44:50.221Z","","","","StressQ","","","","","","","","","","","50","","","","","","","","","","","","","","","","","","","","","","","","","","",""
"966","","<div style=""width:500px;"">
  <p>What best describes how you currently feel?</p>
  </div>","58","html-slider-response","42","405907","0.0-7.0-4.5","5","1","2025-07-30 08:37:58","36c45c0696341be0efffe67d72a12abb","84.40.152.252","Mozilla/5.0 (Macintosh; Intel Mac OS X 10_15_7) AppleWebKit/537.36 (KHTML, like Gecko) Chrome/138.0.0.0 Safari/537.36","Macintosh","Chrome","138.0.0.0","OS X","10_15_7","https://app.prolific.com/","en-GB,en-US;q=0.9,en;q=0.8,pl;q=0.7,de;q=0.6","60f06a479c4f3ec0a536d40a","687a19d2168e237449fb8af4","6889d9cd1afed15cd4ee6ef2","0","60f06a479c4f3ec0a536d40a","0","2025-07-30T08:44:51.188Z","","","","MotivationQ","","","","","","","","","","","50","","","","","","","","","","","","","","","","","","","","","","","","","","",""
"","","","","ctl-task-cpt","43","445812","0.0-7.0-0.6","5","1","2025-07-30 08:37:58","36c45c0696341be0efffe67d72a12abb","84.40.152.252","Mozilla/5.0 (Macintosh; Intel Mac OS X 10_15_7) AppleWebKit/537.36 (KHTML, like Gecko) Chrome/138.0.0.0 Safari/537.36","Macintosh","Chrome","138.0.0.0","OS X","10_15_7","https://app.prolific.com/","en-GB,en-US;q=0.9,en;q=0.8,pl;q=0.7,de;q=0.6","60f06a479c4f3ec0a536d40a","687a19d2168e237449fb8af4","6889d9cd1afed15cd4ee6ef2","0","60f06a479c4f3ec0a536d40a","0","2025-07-30T08:45:31.093Z","","","","","","","","","","","","","","","","win-only","3","g1:SW,g2:NE","0.4","7","0","418935.6","674.3","5676.4","36896.1","1","4","8","6","2","-8","-9","9","18","0.06818181818181818","699.8","3000","-2995","[""up"",""right""]","{""num_key_presses"":10,""num_perfect"":3,""num_errors"":1,""num_randdir"":6,""num_randdir_good_moves"":4,""num_whilered"":0,""num_whileblue"":1,""num_blue"":1,""num_good_moves"":7}","[423.57142857142856,420.47767857142856,0.2,423.57142857142856,420.47767857142856,101.1,423.57142857142856,420.47767857142856,206,457.57142857142856,386.47767857142856,306.5,727.5714285714286,188.47767857142856,410.9,813.5714285714286,68.47767857142857,511.6,812.5714285714286,57.47767857142857,611.7,812.5714285714286,57.47767857142857,716.7,812.5714285714286,57.47767857142857,816.9,812.5714285714286,57.47767857142857,921.7,812.5714285714286,57.47767857142857,1026.1,812.5714285714286,57.47767857142857,1126.9,812.5714285714286,57.47767857142857,1227.1,812.5714285714286,57.47767857142857,1331.6,812.5714285714286,57.47767857142857,1436.2,812.5714285714286,57.47767857142857,1536.2,812.5714285714286,57.47767857142857,1636.9,812.5714285714286,57.47767857142857,1741.7,812.5714285714286,57.47767857142857,1841.8,812.5714285714286,57.47767857142857,1941.8,812.5714285714286,57.47767857142857,2042.5,812.5714285714286,57.47767857142857,2146.6,812.5714285714286,57.47767857142857,2246.9,812.5714285714286,57.47767857142857,2351.5,812.5714285714286,57.47767857142857,2455.6,812.5714285714286,57.47767857142857,2556.1,812.5714285714286,57.47767857142857,2656.2,812.5714285714286,57.47767857142857,2757,812.5714285714286,57.47767857142857,2861.9,812.5714285714286,57.47767857142857,2966.7,812.5714285714286,57.47767857142857,3066.9,812.5714285714286,57.47767857142857,3167,812.5714285714286,57.47767857142857,3271.4,812.5714285714286,57.47767857142857,3376.5,812.5714285714286,57.47767857142857,3481.6,812.5714285714286,57.47767857142857,3581.7,812.5714285714286,57.47767857142857,3682.1,812.5714285714286,57.47767857142857,3786.6,812.5714285714286,57.47767857142857,3886.6,812.5714285714286,57.47767857142857,3986.8,812.5714285714286,57.47767857142857,4086.9,812.5714285714286,57.47767857142857,4191.2,812.5714285714286,57.47767857142857,4291.4,812.5714285714286,57.47767857142857,4392.1,812.5714285714286,57.47767857142857,4496.4,812.5714285714286,57.47767857142857,4602,812.5714285714286,57.47767857142857,4706.3,812.5714285714286,57.47767857142857,4806.7,812.5714285714286,57.47767857142857,4912.2]","[1342.4,1342.4,1000,0,342.4,""oops"",""right"",""up"",""good_move"",4486.9,3144.1,2813.2,1342.9,330.8,""oops"",""right"",""right"",""good_move"",8029.7,3542.5,3217.8,4487.2,324.7,""oops"",""up"",""right"",""good_move"",10909.1,2879.2,2473,8029.9,406.2,""oops"",""up"",""right"",""good_move"",13782.8,2873.6,2564.6,10909.2,309,""smooth"",""up"",""up"",""good_move"",16429.4,2646.3,2309.8,13783.1,336.5,""oops"",""up"",""left"",""bad_move"",19860.7,3431.1,3129.8,16429.6,301.3,""smooth"",""right"",""right"",""good_move"",22886.2,3025.3,2723.5,19860.9,301.8,""oops"",""up"",""down"",""bad_move"",25847.1,2960.7,2747.7,22886.4,213,""while_blue"",""up"",""down"",""bad_move"",28487.1,2639.8,2342.9,25847.3,296.9,""smooth"",""up"",""up"",""good_move""]"
"1297","","<div style=""width:500px;"">
  <p>What determined the result of this run?</p>
  </div>","19","html-slider-response","44","447109","0.0-7.0-1.6","5","1","2025-07-30 08:37:58","36c45c0696341be0efffe67d72a12abb","84.40.152.252","Mozilla/5.0 (Macintosh; Intel Mac OS X 10_15_7) AppleWebKit/537.36 (KHTML, like Gecko) Chrome/138.0.0.0 Safari/537.36","Macintosh","Chrome","138.0.0.0","OS X","10_15_7","https://app.prolific.com/","en-GB,en-US;q=0.9,en;q=0.8,pl;q=0.7,de;q=0.6","60f06a479c4f3ec0a536d40a","687a19d2168e237449fb8af4","6889d9cd1afed15cd4ee6ef2","0","60f06a479c4f3ec0a536d40a","0","2025-07-30T08:45:32.391Z","","","","AttribQ","","","","","","","","","","","50","","","","","","","","","","","","","","","","","","","","","","","","","","",""
"1144","","<div style=""width:500px;"">
  <p>How much control did you have over the ball?</p>
  </div>","26","html-slider-response","45","448254","0.0-7.0-2.6","5","1","2025-07-30 08:37:58","36c45c0696341be0efffe67d72a12abb","84.40.152.252","Mozilla/5.0 (Macintosh; Intel Mac OS X 10_15_7) AppleWebKit/537.36 (KHTML, like Gecko) Chrome/138.0.0.0 Safari/537.36","Macintosh","Chrome","138.0.0.0","OS X","10_15_7","https://app.prolific.com/","en-GB,en-US;q=0.9,en;q=0.8,pl;q=0.7,de;q=0.6","60f06a479c4f3ec0a536d40a","687a19d2168e237449fb8af4","6889d9cd1afed15cd4ee6ef2","0","60f06a479c4f3ec0a536d40a","0","2025-07-30T08:45:33.535Z","","","","ControlQ","","","","","","","","","","","50","","","","","","","","","","","","","","","","","","","","","","","","","","",""
"1645","","<div style=""width:500px;"">
  <p>How would you describe your current emotional state?</p>
  </div>","83","html-slider-response","46","449899","0.0-7.0-3.6","5","1","2025-07-30 08:37:58","36c45c0696341be0efffe67d72a12abb","84.40.152.252","Mozilla/5.0 (Macintosh; Intel Mac OS X 10_15_7) AppleWebKit/537.36 (KHTML, like Gecko) Chrome/138.0.0.0 Safari/537.36","Macintosh","Chrome","138.0.0.0","OS X","10_15_7","https://app.prolific.com/","en-GB,en-US;q=0.9,en;q=0.8,pl;q=0.7,de;q=0.6","60f06a479c4f3ec0a536d40a","687a19d2168e237449fb8af4","6889d9cd1afed15cd4ee6ef2","0","60f06a479c4f3ec0a536d40a","0","2025-07-30T08:45:35.180Z","","","","StressQ","","","","","","","","","","","50","","","","","","","","","","","","","","","","","","","","","","","","","","",""
"1907","","<div style=""width:500px;"">
  <p>What best describes how you currently feel?</p>
  </div>","22","html-slider-response","47","451807","0.0-7.0-4.6","5","1","2025-07-30 08:37:58","36c45c0696341be0efffe67d72a12abb","84.40.152.252","Mozilla/5.0 (Macintosh; Intel Mac OS X 10_15_7) AppleWebKit/537.36 (KHTML, like Gecko) Chrome/138.0.0.0 Safari/537.36","Macintosh","Chrome","138.0.0.0","OS X","10_15_7","https://app.prolific.com/","en-GB,en-US;q=0.9,en;q=0.8,pl;q=0.7,de;q=0.6","60f06a479c4f3ec0a536d40a","687a19d2168e237449fb8af4","6889d9cd1afed15cd4ee6ef2","0","60f06a479c4f3ec0a536d40a","0","2025-07-30T08:45:37.088Z","","","","MotivationQ","","","","","","","","","","","50","","","","","","","","","","","","","","","","","","","","","","","","","","",""
"","","","","ctl-task-cpt","48","491860","0.0-7.0-0.7","5","1","2025-07-30 08:37:58","36c45c0696341be0efffe67d72a12abb","84.40.152.252","Mozilla/5.0 (Macintosh; Intel Mac OS X 10_15_7) AppleWebKit/537.36 (KHTML, like Gecko) Chrome/138.0.0.0 Safari/537.36","Macintosh","Chrome","138.0.0.0","OS X","10_15_7","https://app.prolific.com/","en-GB,en-US;q=0.9,en;q=0.8,pl;q=0.7,de;q=0.6","60f06a479c4f3ec0a536d40a","687a19d2168e237449fb8af4","6889d9cd1afed15cd4ee6ef2","0","60f06a479c4f3ec0a536d40a","0","2025-07-30T08:46:17.142Z","","","","","","","","","","","","","","","","win-only","1","g1:NE,g2:SW","0.3","8","0","464837.5","606.7","5610.4","37046.1","1","4","4","6","2","-4","-5","4","9","0.030303030303030304","819.7","3000","-3005","[""down"",""left""]","{""num_key_presses"":10,""num_perfect"":2,""num_errors"":1,""num_randdir"":7,""num_randdir_good_moves"":3,""num_whilered"":0,""num_whileblue"":0,""num_blue"":0,""num_good_moves"":5}","[422.57142857142856,416.47767857142856,0,422.57142857142856,416.47767857142856,104.3,422.57142857142856,416.47767857142856,209.1,599.5714285714286,224.47767857142856,314,651.5714285714286,197.47767857142856,418.4,229.57142857142856,634.4776785714286,519.3,204.57142857142856,704.4776785714286,624.2,140.57142857142856,765.4776785714286,728.8,111.57142857142857,779.4776785714286,833,109.57142857142857,777.4776785714286,934.2,109.57142857142857,777.4776785714286,1034.3,109.57142857142857,776.4776785714286,1138.8,109.57142857142857,776.4776785714286,1243.7,109.57142857142857,776.4776785714286,1344,109.57142857142857,776.4776785714286,1444.2,109.57142857142857,776.4776785714286,1549.1,109.57142857142857,776.4776785714286,1654.1,109.57142857142857,776.4776785714286,1759.2,109.57142857142857,776.4776785714286,1859.7,109.57142857142857,776.4776785714286,1963.9,109.57142857142857,776.4776785714286,2064.3,109.57142857142857,776.4776785714286,2169,109.57142857142857,776.4776785714286,2276.3,109.57142857142857,776.4776785714286,2378.4,108.57142857142857,775.4776785714286,2479,107.57142857142857,775.4776785714286,2579.6,117.57142857142857,760.4776785714286,2683.6,351.57142857142856,598.4776785714286,2784.5,503.57142857142856,519.4776785714286,2889.2,503.57142857142856,519.4776785714286,2994.1,503.57142857142856,519.4776785714286,3094.2,503.57142857142856,518.4776785714286,3194.4,503.57142857142856,518.4776785714286,3298.4,502.57142857142856,518.4776785714286,3399,502.57142857142856,517.4776785714286,3503.7,502.57142857142856,517.4776785714286,3603.8,502.57142857142856,517.4776785714286,3704.1,502.57142857142856,517.4776785714286,3809.3,502.57142857142856,517.4776785714286,3914.4,502.57142857142856,517.4776785714286,4019.2,502.57142857142856,517.4776785714286,4119.5,499.57142857142856,518.4776785714286,4223.6,499.57142857142856,518.4776785714286,4323.9,499.57142857142856,518.4776785714286,4424.4,499.57142857142856,518.4776785714286,4529.1,493.57142857142856,516.4776785714286,4629.3,492.57142857142856,516.4776785714286,4733.5,492.57142857142856,516.4776785714286,4834.6,492.57142857142856,516.4776785714286,4938.4]","[1330.6,1330.6,1000,0,330.6,""oops"",""down"",""down"",""good_move"",4050.3,2719.5,2374.3,1330.8,345.2,""oops"",""left"",""right"",""bad_move"",7210.3,3159.7,2847.7,4050.6,312,""oops"",""down"",""right"",""bad_move"",9884.6,2674.1,2323.4,7210.5,350.7,""oops"",""down"",""left"",""good_move"",12579.8,2694.9,2985.9,9884.9,-291,""error"",""-"",""-"",""no_move"",16459.5,3879.5,2512.5,13584.9,362.2,""smooth"",""down"",""down"",""good_move"",19563.5,3103.7,2787.5,16459.8,316.2,""smooth"",""down"",""down"",""good_move"",23052.4,3488.7,3212.4,19563.7,276.3,""oops"",""left"",""right"",""bad_move"",25476.8,2424.1,2026.1,23052.7,398.1,""oops"",""left"",""up"",""bad_move"",28508.5,3031.4,2753.7,25477.1,277.7,""oops"",""left"",""down"",""good_move""]"
"1522","","<div style=""width:500px;"">
  <p>What determined the result of this run?</p>
  </div>","7","html-slider-response","49","493383","0.0-7.0-1.7","5","1","2025-07-30 08:37:58","36c45c0696341be0efffe67d72a12abb","84.40.152.252","Mozilla/5.0 (Macintosh; Intel Mac OS X 10_15_7) AppleWebKit/537.36 (KHTML, like Gecko) Chrome/138.0.0.0 Safari/537.36","Macintosh","Chrome","138.0.0.0","OS X","10_15_7","https://app.prolific.com/","en-GB,en-US;q=0.9,en;q=0.8,pl;q=0.7,de;q=0.6","60f06a479c4f3ec0a536d40a","687a19d2168e237449fb8af4","6889d9cd1afed15cd4ee6ef2","0","60f06a479c4f3ec0a536d40a","0","2025-07-30T08:46:18.664Z","","","","AttribQ","","","","","","","","","","","50","","","","","","","","","","","","","","","","","","","","","","","","","","",""
"1354","","<div style=""width:500px;"">
  <p>How much control did you have over the ball?</p>
  </div>","14","html-slider-response","50","494737","0.0-7.0-2.7","5","1","2025-07-30 08:37:58","36c45c0696341be0efffe67d72a12abb","84.40.152.252","Mozilla/5.0 (Macintosh; Intel Mac OS X 10_15_7) AppleWebKit/537.36 (KHTML, like Gecko) Chrome/138.0.0.0 Safari/537.36","Macintosh","Chrome","138.0.0.0","OS X","10_15_7","https://app.prolific.com/","en-GB,en-US;q=0.9,en;q=0.8,pl;q=0.7,de;q=0.6","60f06a479c4f3ec0a536d40a","687a19d2168e237449fb8af4","6889d9cd1afed15cd4ee6ef2","0","60f06a479c4f3ec0a536d40a","0","2025-07-30T08:46:20.018Z","","","","ControlQ","","","","","","","","","","","50","","","","","","","","","","","","","","","","","","","","","","","","","","",""
"2070","","<div style=""width:500px;"">
  <p>How would you describe your current emotional state?</p>
  </div>","100","html-slider-response","51","496808","0.0-7.0-3.7","5","1","2025-07-30 08:37:58","36c45c0696341be0efffe67d72a12abb","84.40.152.252","Mozilla/5.0 (Macintosh; Intel Mac OS X 10_15_7) AppleWebKit/537.36 (KHTML, like Gecko) Chrome/138.0.0.0 Safari/537.36","Macintosh","Chrome","138.0.0.0","OS X","10_15_7","https://app.prolific.com/","en-GB,en-US;q=0.9,en;q=0.8,pl;q=0.7,de;q=0.6","60f06a479c4f3ec0a536d40a","687a19d2168e237449fb8af4","6889d9cd1afed15cd4ee6ef2","0","60f06a479c4f3ec0a536d40a","0","2025-07-30T08:46:22.089Z","","","","StressQ","","","","","","","","","","","50","","","","","","","","","","","","","","","","","","","","","","","","","","",""
"1474","","<div style=""width:500px;"">
  <p>What best describes how you currently feel?</p>
  </div>","23","html-slider-response","52","498283","0.0-7.0-4.7","5","1","2025-07-30 08:37:58","36c45c0696341be0efffe67d72a12abb","84.40.152.252","Mozilla/5.0 (Macintosh; Intel Mac OS X 10_15_7) AppleWebKit/537.36 (KHTML, like Gecko) Chrome/138.0.0.0 Safari/537.36","Macintosh","Chrome","138.0.0.0","OS X","10_15_7","https://app.prolific.com/","en-GB,en-US;q=0.9,en;q=0.8,pl;q=0.7,de;q=0.6","60f06a479c4f3ec0a536d40a","687a19d2168e237449fb8af4","6889d9cd1afed15cd4ee6ef2","0","60f06a479c4f3ec0a536d40a","0","2025-07-30T08:46:23.564Z","","","","MotivationQ","","","","","","","","","","","50","","","","","","","","","","","","","","","","","","","","","","","","","","",""
"","","","","ctl-task-cpt","53","538612","0.0-7.0-0.8","5","1","2025-07-30 08:37:58","36c45c0696341be0efffe67d72a12abb","84.40.152.252","Mozilla/5.0 (Macintosh; Intel Mac OS X 10_15_7) AppleWebKit/537.36 (KHTML, like Gecko) Chrome/138.0.0.0 Safari/537.36","Macintosh","Chrome","138.0.0.0","OS X","10_15_7","https://app.prolific.com/","en-GB,en-US;q=0.9,en;q=0.8,pl;q=0.7,de;q=0.6","60f06a479c4f3ec0a536d40a","687a19d2168e237449fb8af4","6889d9cd1afed15cd4ee6ef2","0","60f06a479c4f3ec0a536d40a","0","2025-07-30T08:47:03.893Z","","","","","","","","","","","","","","","","win-only","3","g1:SW,g2:NE","0.4","9","0","511315.7","553","5555.6","37320.6","1","4","4","6","2","-4","-4","0","4","0","836.7","3000","-3000","[""up"",""right""]","{""num_key_presses"":7,""num_perfect"":3,""num_errors"":0,""num_randdir"":4,""num_randdir_good_moves"":2,""num_whilered"":0,""num_whileblue"":0,""num_blue"":3,""num_good_moves"":5}","[405.57142857142856,410.47767857142856,0.1,405.57142857142856,410.47767857142856,103.4,406.57142857142856,411.47767857142856,208,575.5714285714286,248.47767857142856,308.4,574.5714285714286,236.47767857142856,412.5,406.57142857142856,382.47767857142856,512.8,542.5714285714286,246.47767857142856,613.1,705.5714285714286,139.47767857142856,717.7,723.5714285714286,116.47767857142857,818.4,723.5714285714286,116.47767857142857,922.7,723.5714285714286,116.47767857142857,1022.9,723.5714285714286,117.47767857142857,1122.9,723.5714285714286,117.47767857142857,1223.1,723.5714285714286,117.47767857142857,1327.6,723.5714285714286,117.47767857142857,1428,723.5714285714286,117.47767857142857,1533.2,723.5714285714286,117.47767857142857,1633.5,723.5714285714286,117.47767857142857,1738.3,723.5714285714286,117.47767857142857,1843.1,723.5714285714286,117.47767857142857,1947.9,723.5714285714286,117.47767857142857,2053.1,723.5714285714286,117.47767857142857,2158.5,723.5714285714286,117.47767857142857,2262.9,723.5714285714286,117.47767857142857,2363,723.5714285714286,117.47767857142857,2468,723.5714285714286,117.47767857142857,2572.9,723.5714285714286,117.47767857142857,2673.1,723.5714285714286,117.47767857142857,2777.5,723.5714285714286,117.47767857142857,2878,723.5714285714286,117.47767857142857,2978.3,723.5714285714286,117.47767857142857,3082.6,723.5714285714286,117.47767857142857,3188.8,723.5714285714286,117.47767857142857,3293.2,723.5714285714286,117.47767857142857,3397.2,723.5714285714286,117.47767857142857,3498.5,723.5714285714286,117.47767857142857,3602.5,723.5714285714286,117.47767857142857,3703,723.5714285714286,117.47767857142857,3807.5,723.5714285714286,117.47767857142857,3908.2,723.5714285714286,117.47767857142857,4012.7,723.5714285714286,117.47767857142857,4112.7,723.5714285714286,117.47767857142857,4213,723.5714285714286,117.47767857142857,4313.4,723.5714285714286,117.47767857142857,4413.6,723.5714285714286,117.47767857142857,4517.3,723.5714285714286,117.47767857142857,4617.8,723.5714285714286,117.47767857142857,4718.4,723.5714285714286,117.47767857142857,4823.4,723.5714285714286,117.47767857142857,4928.2]","[1301.5,1301.5,1000,0,301.5,""oops"",""right"",""right"",""good_move"",4429.6,3128,2836.3,1301.6,291.7,""smooth"",""right"",""right"",""good_move"",6757.7,2328,1659.2,4429.7,668.8,""smooth"",""up"",""up"",""good_move"",13045.8,6287.9,1922.4,10805.9,317.5,""oops"",""right"",""up"",""good_move"",19190.1,6144.1,2066.1,16805.7,318.3,""oops"",""right"",""down"",""bad_move"",25437.3,6247,2388.8,22685.6,362.9,""oops"",""up"",""down"",""bad_move"",28837.8,3400.3,2813.8,25437.5,586.5,""smooth"",""up"",""up"",""good_move""]"
"1375","","<div style=""width:500px;"">
  <p>What determined the result of this run?</p>
  </div>","0","html-slider-response","54","539988","0.0-7.0-1.8","5","1","2025-07-30 08:37:58","36c45c0696341be0efffe67d72a12abb","84.40.152.252","Mozilla/5.0 (Macintosh; Intel Mac OS X 10_15_7) AppleWebKit/537.36 (KHTML, like Gecko) Chrome/138.0.0.0 Safari/537.36","Macintosh","Chrome","138.0.0.0","OS X","10_15_7","https://app.prolific.com/","en-GB,en-US;q=0.9,en;q=0.8,pl;q=0.7,de;q=0.6","60f06a479c4f3ec0a536d40a","687a19d2168e237449fb8af4","6889d9cd1afed15cd4ee6ef2","0","60f06a479c4f3ec0a536d40a","0","2025-07-30T08:47:05.269Z","","","","AttribQ","","","","","","","","","","","50","","","","","","","","","","","","","","","","","","","","","","","","","","",""
"2992","","<div style=""width:500px;"">
  <p>How much control did you have over the ball?</p>
  </div>","0","html-slider-response","55","542980","0.0-7.0-2.8","5","1","2025-07-30 08:37:58","36c45c0696341be0efffe67d72a12abb","84.40.152.252","Mozilla/5.0 (Macintosh; Intel Mac OS X 10_15_7) AppleWebKit/537.36 (KHTML, like Gecko) Chrome/138.0.0.0 Safari/537.36","Macintosh","Chrome","138.0.0.0","OS X","10_15_7","https://app.prolific.com/","en-GB,en-US;q=0.9,en;q=0.8,pl;q=0.7,de;q=0.6","60f06a479c4f3ec0a536d40a","687a19d2168e237449fb8af4","6889d9cd1afed15cd4ee6ef2","0","60f06a479c4f3ec0a536d40a","0","2025-07-30T08:47:08.261Z","","","","ControlQ","","","","","","","","","","","50","","","","","","","","","","","","","","","","","","","","","","","","","","",""
"1394","","<div style=""width:500px;"">
  <p>How would you describe your current emotional state?</p>
  </div>","100","html-slider-response","56","544375","0.0-7.0-3.8","5","1","2025-07-30 08:37:58","36c45c0696341be0efffe67d72a12abb","84.40.152.252","Mozilla/5.0 (Macintosh; Intel Mac OS X 10_15_7) AppleWebKit/537.36 (KHTML, like Gecko) Chrome/138.0.0.0 Safari/537.36","Macintosh","Chrome","138.0.0.0","OS X","10_15_7","https://app.prolific.com/","en-GB,en-US;q=0.9,en;q=0.8,pl;q=0.7,de;q=0.6","60f06a479c4f3ec0a536d40a","687a19d2168e237449fb8af4","6889d9cd1afed15cd4ee6ef2","0","60f06a479c4f3ec0a536d40a","0","2025-07-30T08:47:09.656Z","","","","StressQ","","","","","","","","","","","50","","","","","","","","","","","","","","","","","","","","","","","","","","",""
"1254","","<div style=""width:500px;"">
  <p>What best describes how you currently feel?</p>
  </div>","0","html-slider-response","57","545629","0.0-7.0-4.8","5","1","2025-07-30 08:37:58","36c45c0696341be0efffe67d72a12abb","84.40.152.252","Mozilla/5.0 (Macintosh; Intel Mac OS X 10_15_7) AppleWebKit/537.36 (KHTML, like Gecko) Chrome/138.0.0.0 Safari/537.36","Macintosh","Chrome","138.0.0.0","OS X","10_15_7","https://app.prolific.com/","en-GB,en-US;q=0.9,en;q=0.8,pl;q=0.7,de;q=0.6","60f06a479c4f3ec0a536d40a","687a19d2168e237449fb8af4","6889d9cd1afed15cd4ee6ef2","0","60f06a479c4f3ec0a536d40a","0","2025-07-30T08:47:10.910Z","","","","MotivationQ","","","","","","","","","","","50","","","","","","","","","","","","","","","","","","","","","","","","","","",""
"","","","","ctl-task-cpt","58","576457","0.0-7.0-0.9","5","1","2025-07-30 08:37:58","36c45c0696341be0efffe67d72a12abb","84.40.152.252","Mozilla/5.0 (Macintosh; Intel Mac OS X 10_15_7) AppleWebKit/537.36 (KHTML, like Gecko) Chrome/138.0.0.0 Safari/537.36","Macintosh","Chrome","138.0.0.0","OS X","10_15_7","https://app.prolific.com/","en-GB,en-US;q=0.9,en;q=0.8,pl;q=0.7,de;q=0.6","60f06a479c4f3ec0a536d40a","687a19d2168e237449fb8af4","6889d9cd1afed15cd4ee6ef2","0","60f06a479c4f3ec0a536d40a","0","2025-07-30T08:47:41.738Z","","","","","","","","","","","","","","","","win-only","3","g1:SW,g2:NE","0.5","10","0","558663.6","778","5780.3","27819.6","1","4","8","6","2","8","7","7","0","0.05303030303030303","707.9","3000","615","[""up"",""right""]","{""num_key_presses"":8,""num_perfect"":3,""num_errors"":1,""num_randdir"":4,""num_randdir_good_moves"":3,""num_whilered"":0,""num_whileblue"":1,""num_blue"":2,""num_good_moves"":7}","[408.57142857142856,420.47767857142856,0.1,410.57142857142856,425.47767857142856,103,410.57142857142856,425.47767857142856,207.3,410.57142857142856,422.47767857142856,307.4,744.5714285714286,74.47767857142857,407.5,838.5714285714286,19.47767857142857,507.8,825.5714285714286,26.47767857142857,608,766.5714285714286,72.47767857142857,712.7,766.5714285714286,74.47767857142857,812.9,766.5714285714286,74.47767857142857,918.2,766.5714285714286,74.47767857142857,1023.2,766.5714285714286,74.47767857142857,1127.5,766.5714285714286,74.47767857142857,1232.3,766.5714285714286,74.47767857142857,1332.4,766.5714285714286,74.47767857142857,1433,766.5714285714286,74.47767857142857,1533.1,766.5714285714286,74.47767857142857,1633.1,766.5714285714286,74.47767857142857,1737.6,766.5714285714286,74.47767857142857,1838,766.5714285714286,74.47767857142857,1943.1,766.5714285714286,74.47767857142857,2048.2,766.5714285714286,74.47767857142857,2153.3,766.5714285714286,74.47767857142857,2257.9,766.5714285714286,74.47767857142857,2358.1,766.5714285714286,74.47767857142857,2463.2,766.5714285714286,74.47767857142857,2568.1,766.5714285714286,74.47767857142857,2668.1,766.5714285714286,74.47767857142857,2772.4,766.5714285714286,74.47767857142857,2873.3,766.5714285714286,74.47767857142857,2977.2,766.5714285714286,74.47767857142857,3077.5,766.5714285714286,74.47767857142857,3178.2,766.5714285714286,74.47767857142857,3282.9,766.5714285714286,74.47767857142857,3382.9,766.5714285714286,74.47767857142857,3487.8,766.5714285714286,74.47767857142857,3592.2,766.5714285714286,74.47767857142857,3693,766.5714285714286,74.47767857142857,3798,766.5714285714286,74.47767857142857,3902.9,766.5714285714286,74.47767857142857,4003.2,766.5714285714286,74.47767857142857,4107.9,766.5714285714286,74.47767857142857,4212.3,766.5714285714286,74.47767857142857,4312.3,766.5714285714286,74.47767857142857,4412.9,766.5714285714286,74.47767857142857,4517.8,766.5714285714286,74.47767857142857,4618.1,766.5714285714286,74.47767857142857,4722.7,766.5714285714286,74.47767857142857,4822.9,766.5714285714286,74.47767857142857,4928]","[1307.5,1307.5,1000,0,307.5,""oops"",""up"",""right"",""good_move"",3873.4,2565.7,2217.4,1307.7,348.3,""while_blue"",""up"",""up"",""good_move"",6624.7,2751.1,2283.8,3873.7,467.2,""oops"",""right"",""left"",""bad_move"",8505.7,1880.8,1525.8,6624.9,355,""smooth"",""up"",""up"",""good_move"",10985.2,2479.4,2201.4,8505.8,278,""oops"",""up"",""up"",""good_move"",16217.6,5232.3,1829.7,14055.9,332,""smooth"",""right"",""right"",""good_move"",19097.5,2879.7,2549,16217.8,330.7,""oops"",""right"",""right"",""good_move"",21947.4,2849.7,2493.2,19097.7,356.5,""smooth"",""right"",""right"",""good_move""]"
"1990","","<div style=""width:500px;"">
  <p>What determined the result of this run?</p>
  </div>","10","html-slider-response","59","578448","0.0-7.0-1.9","5","1","2025-07-30 08:37:58","36c45c0696341be0efffe67d72a12abb","84.40.152.252","Mozilla/5.0 (Macintosh; Intel Mac OS X 10_15_7) AppleWebKit/537.36 (KHTML, like Gecko) Chrome/138.0.0.0 Safari/537.36","Macintosh","Chrome","138.0.0.0","OS X","10_15_7","https://app.prolific.com/","en-GB,en-US;q=0.9,en;q=0.8,pl;q=0.7,de;q=0.6","60f06a479c4f3ec0a536d40a","687a19d2168e237449fb8af4","6889d9cd1afed15cd4ee6ef2","0","60f06a479c4f3ec0a536d40a","0","2025-07-30T08:47:43.729Z","","","","AttribQ","","","","","","","","","","","50","","","","","","","","","","","","","","","","","","","","","","","","","","",""
"1043","","<div style=""width:500px;"">
  <p>How much control did you have over the ball?</p>
  </div>","33","html-slider-response","60","579491","0.0-7.0-2.9","5","1","2025-07-30 08:37:58","36c45c0696341be0efffe67d72a12abb","84.40.152.252","Mozilla/5.0 (Macintosh; Intel Mac OS X 10_15_7) AppleWebKit/537.36 (KHTML, like Gecko) Chrome/138.0.0.0 Safari/537.36","Macintosh","Chrome","138.0.0.0","OS X","10_15_7","https://app.prolific.com/","en-GB,en-US;q=0.9,en;q=0.8,pl;q=0.7,de;q=0.6","60f06a479c4f3ec0a536d40a","687a19d2168e237449fb8af4","6889d9cd1afed15cd4ee6ef2","0","60f06a479c4f3ec0a536d40a","0","2025-07-30T08:47:44.772Z","","","","ControlQ","","","","","","","","","","","50","","","","","","","","","","","","","","","","","","","","","","","","","","",""
"1041","","<div style=""width:500px;"">
  <p>How would you describe your current emotional state?</p>
  </div>","67","html-slider-response","61","580532","0.0-7.0-3.9","5","1","2025-07-30 08:37:58","36c45c0696341be0efffe67d72a12abb","84.40.152.252","Mozilla/5.0 (Macintosh; Intel Mac OS X 10_15_7) AppleWebKit/537.36 (KHTML, like Gecko) Chrome/138.0.0.0 Safari/537.36","Macintosh","Chrome","138.0.0.0","OS X","10_15_7","https://app.prolific.com/","en-GB,en-US;q=0.9,en;q=0.8,pl;q=0.7,de;q=0.6","60f06a479c4f3ec0a536d40a","687a19d2168e237449fb8af4","6889d9cd1afed15cd4ee6ef2","0","60f06a479c4f3ec0a536d40a","0","2025-07-30T08:47:45.813Z","","","","StressQ","","","","","","","","","","","50","","","","","","","","","","","","","","","","","","","","","","","","","","",""
"1115","","<div style=""width:500px;"">
  <p>What best describes how you currently feel?</p>
  </div>","10","html-slider-response","62","581648","0.0-7.0-4.9","5","1","2025-07-30 08:37:58","36c45c0696341be0efffe67d72a12abb","84.40.152.252","Mozilla/5.0 (Macintosh; Intel Mac OS X 10_15_7) AppleWebKit/537.36 (KHTML, like Gecko) Chrome/138.0.0.0 Safari/537.36","Macintosh","Chrome","138.0.0.0","OS X","10_15_7","https://app.prolific.com/","en-GB,en-US;q=0.9,en;q=0.8,pl;q=0.7,de;q=0.6","60f06a479c4f3ec0a536d40a","687a19d2168e237449fb8af4","6889d9cd1afed15cd4ee6ef2","0","60f06a479c4f3ec0a536d40a","0","2025-07-30T08:47:46.929Z","","","","MotivationQ","","","","","","","","","","","50","","","","","","","","","","","","","","","","","","","","","","","","","","",""
"","","","","ctl-task-cpt","63","608237","0.0-7.0-0.10","5","1","2025-07-30 08:37:58","36c45c0696341be0efffe67d72a12abb","84.40.152.252","Mozilla/5.0 (Macintosh; Intel Mac OS X 10_15_7) AppleWebKit/537.36 (KHTML, like Gecko) Chrome/138.0.0.0 Safari/537.36","Macintosh","Chrome","138.0.0.0","OS X","10_15_7","https://app.prolific.com/","en-GB,en-US;q=0.9,en;q=0.8,pl;q=0.7,de;q=0.6","60f06a479c4f3ec0a536d40a","687a19d2168e237449fb8af4","6889d9cd1afed15cd4ee6ef2","0","60f06a479c4f3ec0a536d40a","0","2025-07-30T08:48:13.518Z","","","","","","","","","","","","","","","","win-only","1","g1:NE,g2:SW","0.6","11","0","594684.6","521.3","5525.4","23580.4","1","4","4","6","2","4","4","11","7","0.08333333333333333","1673.2","3000","1165","[""down"",""left""]","{""num_key_presses"":6,""num_perfect"":6,""num_errors"":0,""num_randdir"":0,""num_randdir_good_moves"":0,""num_whilered"":0,""num_whileblue"":0,""num_blue"":0,""num_good_moves"":6}","[411.57142857142856,413.47767857142856,0.1,410.57142857142856,412.47767857142856,104.5,407.57142857142856,414.47767857142856,209.2,409.57142857142856,414.47767857142856,314.7,582.5714285714286,293.47767857142856,419.5,200.57142857142856,545.4776785714286,519.7,37.57142857142857,726.4776785714286,625,51.57142857142857,737.4776785714286,729.7,62.57142857142857,741.4776785714286,829.9,65.57142857142857,740.4776785714286,934.5,71.57142857142857,736.4776785714286,1034.7,513.5714285714286,358.47767857142856,1139.9,760.5714285714286,121.47767857142857,1244.6,419.57142857142856,397.47767857142856,1349.5,42.57142857142857,733.4776785714286,1454.5,10.57142857142857,755.4776785714286,1554.6,10.57142857142857,755.4776785714286,1660,10.57142857142857,755.4776785714286,1762.9,10.57142857142857,755.4776785714286,1864.2,9.57142857142857,754.4776785714286,1964.2,9.57142857142857,754.4776785714286,2064.8,9.57142857142857,754.4776785714286,2169.2,9.57142857142857,754.4776785714286,2274.5,9.57142857142857,754.4776785714286,2379.4,9.57142857142857,754.4776785714286,2479.8,9.57142857142857,754.4776785714286,2584.7,9.57142857142857,754.4776785714286,2689.2,9.57142857142857,754.4776785714286,2789.6,9.57142857142857,754.4776785714286,2894.5,32.57142857142857,688.4776785714286,2994.5,32.57142857142857,688.4776785714286,3099.4,30.57142857142857,688.4776785714286,3199.4,30.57142857142857,688.4776785714286,3299.6,27.57142857142857,690.4776785714286,3399.6,26.57142857142857,691.4776785714286,3504.9,26.57142857142857,691.4776785714286,3609.3,25.57142857142857,694.4776785714286,3709.5,25.57142857142857,694.4776785714286,3814.7,25.57142857142857,694.4776785714286,3914.7,25.57142857142857,698.4776785714286,4019.6,22.57142857142857,710.4776785714286,4124.3,282.57142857142856,426.47767857142856,4229.1,296.57142857142856,416.47767857142856,4334.3,296.57142857142856,416.47767857142856,4434.5,296.57142857142856,416.47767857142856,4539.8,296.57142857142856,416.47767857142856,4643.9,296.57142857142856,416.47767857142856,4744.9,296.57142857142856,416.47767857142856,4849.2,296.57142857142856,416.47767857142856,4954.3]","[1284.1,1284.1,1000,0,284.1,""smooth"",""left"",""left"",""good_move"",4812.7,3528.3,3182.6,1284.4,345.7,""smooth"",""left"",""left"",""good_move"",8012.5,3199.7,2919.6,4812.9,280,""smooth"",""down"",""down"",""good_move"",11275.9,3263.1,2919.2,8012.8,343.9,""smooth"",""down"",""down"",""good_move"",14444.7,3168.7,2843.9,11276,324.8,""smooth"",""down"",""down"",""good_move"",17965.2,3520.4,3232,14444.8,288.4,""smooth"",""left"",""left"",""good_move""]"
"1500","","<div style=""width:500px;"">
  <p>What determined the result of this run?</p>
  </div>","18","html-slider-response","64","609737","0.0-7.0-1.10","5","1","2025-07-30 08:37:58","36c45c0696341be0efffe67d72a12abb","84.40.152.252","Mozilla/5.0 (Macintosh; Intel Mac OS X 10_15_7) AppleWebKit/537.36 (KHTML, like Gecko) Chrome/138.0.0.0 Safari/537.36","Macintosh","Chrome","138.0.0.0","OS X","10_15_7","https://app.prolific.com/","en-GB,en-US;q=0.9,en;q=0.8,pl;q=0.7,de;q=0.6","60f06a479c4f3ec0a536d40a","687a19d2168e237449fb8af4","6889d9cd1afed15cd4ee6ef2","0","60f06a479c4f3ec0a536d40a","0","2025-07-30T08:48:15.018Z","","","","AttribQ","","","","","","","","","","","50","","","","","","","","","","","","","","","","","","","","","","","","","","",""
"1830","","<div style=""width:500px;"">
  <p>How much control did you have over the ball?</p>
  </div>","17","html-slider-response","65","611567","0.0-7.0-2.10","5","1","2025-07-30 08:37:58","36c45c0696341be0efffe67d72a12abb","84.40.152.252","Mozilla/5.0 (Macintosh; Intel Mac OS X 10_15_7) AppleWebKit/537.36 (KHTML, like Gecko) Chrome/138.0.0.0 Safari/537.36","Macintosh","Chrome","138.0.0.0","OS X","10_15_7","https://app.prolific.com/","en-GB,en-US;q=0.9,en;q=0.8,pl;q=0.7,de;q=0.6","60f06a479c4f3ec0a536d40a","687a19d2168e237449fb8af4","6889d9cd1afed15cd4ee6ef2","0","60f06a479c4f3ec0a536d40a","0","2025-07-30T08:48:16.848Z","","","","ControlQ","","","","","","","","","","","50","","","","","","","","","","","","","","","","","","","","","","","","","","",""
"2000","","<div style=""width:500px;"">
  <p>How would you describe your current emotional state?</p>
  </div>","79","html-slider-response","66","613568","0.0-7.0-3.10","5","1","2025-07-30 08:37:58","36c45c0696341be0efffe67d72a12abb","84.40.152.252","Mozilla/5.0 (Macintosh; Intel Mac OS X 10_15_7) AppleWebKit/537.36 (KHTML, like Gecko) Chrome/138.0.0.0 Safari/537.36","Macintosh","Chrome","138.0.0.0","OS X","10_15_7","https://app.prolific.com/","en-GB,en-US;q=0.9,en;q=0.8,pl;q=0.7,de;q=0.6","60f06a479c4f3ec0a536d40a","687a19d2168e237449fb8af4","6889d9cd1afed15cd4ee6ef2","0","60f06a479c4f3ec0a536d40a","0","2025-07-30T08:48:18.849Z","","","","StressQ","","","","","","","","","","","50","","","","","","","","","","","","","","","","","","","","","","","","","","",""
"1193","","<div style=""width:500px;"">
  <p>What best describes how you currently feel?</p>
  </div>","5","html-slider-response","67","614762","0.0-7.0-4.10","5","1","2025-07-30 08:37:58","36c45c0696341be0efffe67d72a12abb","84.40.152.252","Mozilla/5.0 (Macintosh; Intel Mac OS X 10_15_7) AppleWebKit/537.36 (KHTML, like Gecko) Chrome/138.0.0.0 Safari/537.36","Macintosh","Chrome","138.0.0.0","OS X","10_15_7","https://app.prolific.com/","en-GB,en-US;q=0.9,en;q=0.8,pl;q=0.7,de;q=0.6","60f06a479c4f3ec0a536d40a","687a19d2168e237449fb8af4","6889d9cd1afed15cd4ee6ef2","0","60f06a479c4f3ec0a536d40a","0","2025-07-30T08:48:20.043Z","","","","MotivationQ","","","","","","","","","","","50","","","","","","","","","","","","","","","","","","","","","","","","","","",""
"","","","","ctl-task-cpt","68","669170","0.0-7.0-0.11","5","1","2025-07-30 08:37:58","36c45c0696341be0efffe67d72a12abb","84.40.152.252","Mozilla/5.0 (Macintosh; Intel Mac OS X 10_15_7) AppleWebKit/537.36 (KHTML, like Gecko) Chrome/138.0.0.0 Safari/537.36","Macintosh","Chrome","138.0.0.0","OS X","10_15_7","https://app.prolific.com/","en-GB,en-US;q=0.9,en;q=0.8,pl;q=0.7,de;q=0.6","60f06a479c4f3ec0a536d40a","687a19d2168e237449fb8af4","6889d9cd1afed15cd4ee6ef2","0","60f06a479c4f3ec0a536d40a","0","2025-07-30T08:49:14.451Z","","","","","","","","","","","","","","","","win-only","3","g1:SW,g2:NE","0.7","12","0","627799.6","685.3","5685.9","51400.2","1","4","8","6","2","-8","-12","0","11","0","392.9","3000","-2995","[""up"",""right""]","{""num_key_presses"":17,""num_perfect"":7,""num_errors"":4,""num_randdir"":2,""num_randdir_good_moves"":0,""num_whilered"":4,""num_whileblue"":0,""num_blue"":3,""num_good_moves"":7}","[408.57142857142856,409.47767857142856,0.1,408.57142857142856,409.47767857142856,100.3,411.57142857142856,409.47767857142856,200.5,654.5714285714286,168.47767857142856,305.4,762.5714285714286,56.47767857142857,410.3,760.5714285714286,62.47767857142857,515.1,551.5714285714286,414.47767857142856,617,534.5714285714286,435.47767857142856,720.3,534.5714285714286,435.47767857142856,820.8,534.5714285714286,435.47767857142856,925.1,534.5714285714286,435.47767857142856,1025.3,534.5714285714286,435.47767857142856,1129.9,534.5714285714286,435.47767857142856,1230.3,534.5714285714286,435.47767857142856,1330.3,534.5714285714286,435.47767857142856,1430.5,534.5714285714286,435.47767857142856,1535.3,534.5714285714286,435.47767857142856,1635.6,534.5714285714286,435.47767857142856,1740.1,534.5714285714286,435.47767857142856,1840.3,534.5714285714286,435.47767857142856,1940.9,534.5714285714286,435.47767857142856,2045.3,534.5714285714286,435.47767857142856,2149.9,534.5714285714286,435.47767857142856,2250,534.5714285714286,435.47767857142856,2350,534.5714285714286,435.47767857142856,2450.1,534.5714285714286,435.47767857142856,2555.1,534.5714285714286,435.47767857142856,2656,534.5714285714286,435.47767857142856,2760,534.5714285714286,435.47767857142856,2860.7,534.5714285714286,435.47767857142856,2965.2,534.5714285714286,435.47767857142856,3065.2,534.5714285714286,435.47767857142856,3165.9,534.5714285714286,435.47767857142856,3270,534.5714285714286,435.47767857142856,3370.5,534.5714285714286,435.47767857142856,3470.5,534.5714285714286,435.47767857142856,3575.1,534.5714285714286,435.47767857142856,3675.2,534.5714285714286,435.47767857142856,3780,534.5714285714286,435.47767857142856,3880.1,534.5714285714286,435.47767857142856,3980.1,534.5714285714286,435.47767857142856,4080.3,534.5714285714286,435.47767857142856,4184.9,534.5714285714286,435.47767857142856,4284.9,534.5714285714286,435.47767857142856,4385.5,534.5714285714286,435.47767857142856,4485.7,534.5714285714286,435.47767857142856,4585.7,534.5714285714286,435.47767857142856,4690.5,534.5714285714286,435.47767857142856,4795.3,534.5714285714286,435.47767857142856,4895.5]","[1338.3,1338.3,1000,0,338.3,""smooth"",""right"",""right"",""good_move"",3833.5,2494.9,2160.1,1338.6,334.8,""smooth"",""right"",""right"",""good_move"",6984.7,3151,2854.1,3833.7,296.9,""smooth"",""up"",""up"",""good_move"",10137.6,3152.7,2840.6,6984.9,312.1,""oops"",""right"",""down"",""bad_move"",16482.3,6344.5,2553.1,13614.4,314.8,""smooth"",""right"",""right"",""good_move"",19210.3,2727.9,2418.3,16482.4,309.6,""smooth"",""up"",""up"",""good_move"",26058.7,6848.2,2676.3,23029.9,352.5,""smooth"",""up"",""up"",""good_move"",29474.2,3415.4,3013.4,26058.8,402,""oops"",""up"",""down"",""bad_move"",34953.7,5479.2,1710.8,32924.3,318.6,""smooth"",""up"",""up"",""good_move"",37427.4,2473.5,2618.1,34953.9,-144.6,""error"",""-"",""-"",""no_move"",37788.1,360.6,2618.1,34953.9,216.1,""while_red"",""-"",""-"",""no_move"",37965.2,537.7,2618.1,34953.9,393.2,""while_red"",""-"",""-"",""no_move"",38164.9,737.4,2618.1,34953.9,592.9,""while_red"",""-"",""-"",""no_move"",38683.7,1256.2,1883,38429.6,-1628.9,""error"",""-"",""-"",""no_move"",38859,175.2,1883,38429.6,-1453.6,""while_red"",""-"",""-"",""no_move"",39931.5,1247.7,2990.9,39684.4,-2743.8,""error"",""-"",""-"",""no_move"",42284.1,2352.5,2095,40934.3,-745.2,""error"",""-"",""-"",""no_move""]"
"2452","","<div style=""width:500px;"">
  <p>What determined the result of this run?</p>
  </div>","1","html-slider-response","69","671622","0.0-7.0-1.11","5","1","2025-07-30 08:37:58","36c45c0696341be0efffe67d72a12abb","84.40.152.252","Mozilla/5.0 (Macintosh; Intel Mac OS X 10_15_7) AppleWebKit/537.36 (KHTML, like Gecko) Chrome/138.0.0.0 Safari/537.36","Macintosh","Chrome","138.0.0.0","OS X","10_15_7","https://app.prolific.com/","en-GB,en-US;q=0.9,en;q=0.8,pl;q=0.7,de;q=0.6","60f06a479c4f3ec0a536d40a","687a19d2168e237449fb8af4","6889d9cd1afed15cd4ee6ef2","0","60f06a479c4f3ec0a536d40a","0","2025-07-30T08:49:16.903Z","","","","AttribQ","","","","","","","","","","","50","","","","","","","","","","","","","","","","","","","","","","","","","","",""
"1766","","<div style=""width:500px;"">
  <p>How much control did you have over the ball?</p>
  </div>","0","html-slider-response","70","673388","0.0-7.0-2.11","5","1","2025-07-30 08:37:58","36c45c0696341be0efffe67d72a12abb","84.40.152.252","Mozilla/5.0 (Macintosh; Intel Mac OS X 10_15_7) AppleWebKit/537.36 (KHTML, like Gecko) Chrome/138.0.0.0 Safari/537.36","Macintosh","Chrome","138.0.0.0","OS X","10_15_7","https://app.prolific.com/","en-GB,en-US;q=0.9,en;q=0.8,pl;q=0.7,de;q=0.6","60f06a479c4f3ec0a536d40a","687a19d2168e237449fb8af4","6889d9cd1afed15cd4ee6ef2","0","60f06a479c4f3ec0a536d40a","0","2025-07-30T08:49:18.669Z","","","","ControlQ","","","","","","","","","","","50","","","","","","","","","","","","","","","","","","","","","","","","","","",""
"2088","","<div style=""width:500px;"">
  <p>How would you describe your current emotional state?</p>
  </div>","100","html-slider-response","71","675476","0.0-7.0-3.11","5","1","2025-07-30 08:37:58","36c45c0696341be0efffe67d72a12abb","84.40.152.252","Mozilla/5.0 (Macintosh; Intel Mac OS X 10_15_7) AppleWebKit/537.36 (KHTML, like Gecko) Chrome/138.0.0.0 Safari/537.36","Macintosh","Chrome","138.0.0.0","OS X","10_15_7","https://app.prolific.com/","en-GB,en-US;q=0.9,en;q=0.8,pl;q=0.7,de;q=0.6","60f06a479c4f3ec0a536d40a","687a19d2168e237449fb8af4","6889d9cd1afed15cd4ee6ef2","0","60f06a479c4f3ec0a536d40a","0","2025-07-30T08:49:20.758Z","","","","StressQ","","","","","","","","","","","50","","","","","","","","","","","","","","","","","","","","","","","","","","",""
"1752","","<div style=""width:500px;"">
  <p>What best describes how you currently feel?</p>
  </div>","10","html-slider-response","72","677229","0.0-7.0-4.11","5","1","2025-07-30 08:37:58","36c45c0696341be0efffe67d72a12abb","84.40.152.252","Mozilla/5.0 (Macintosh; Intel Mac OS X 10_15_7) AppleWebKit/537.36 (KHTML, like Gecko) Chrome/138.0.0.0 Safari/537.36","Macintosh","Chrome","138.0.0.0","OS X","10_15_7","https://app.prolific.com/","en-GB,en-US;q=0.9,en;q=0.8,pl;q=0.7,de;q=0.6","60f06a479c4f3ec0a536d40a","687a19d2168e237449fb8af4","6889d9cd1afed15cd4ee6ef2","0","60f06a479c4f3ec0a536d40a","0","2025-07-30T08:49:22.510Z","","","","MotivationQ","","","","","","","","","","","50","","","","","","","","","","","","","","","","","","","","","","","","","","",""
"","","","","ctl-task-cpt","73","722352","0.0-7.0-0.12","5","1","2025-07-30 08:37:58","36c45c0696341be0efffe67d72a12abb","84.40.152.252","Mozilla/5.0 (Macintosh; Intel Mac OS X 10_15_7) AppleWebKit/537.36 (KHTML, like Gecko) Chrome/138.0.0.0 Safari/537.36","Macintosh","Chrome","138.0.0.0","OS X","10_15_7","https://app.prolific.com/","en-GB,en-US;q=0.9,en;q=0.8,pl;q=0.7,de;q=0.6","60f06a479c4f3ec0a536d40a","687a19d2168e237449fb8af4","6889d9cd1afed15cd4ee6ef2","0","60f06a479c4f3ec0a536d40a","0","2025-07-30T08:50:07.633Z","","","","","","","","","","","","","","","","win-only","2","g1:SE,g2:NW","0.8","13","0","690269.6","550.2","5550.4","42115.6","1","4","8","6","2","8","4","4","0","0.030303030303030304","730.3","3000","30","[""left"",""up""]","{""num_key_presses"":13,""num_perfect"":7,""num_errors"":4,""num_randdir"":2,""num_randdir_good_moves"":0,""num_whilered"":0,""num_whileblue"":3,""num_blue"":3,""num_good_moves"":9}","[409.57142857142856,405.47767857142856,0,409.57142857142856,406.47767857142856,100.5,406.57142857142856,404.47767857142856,200.9,404.57142857142856,402.47767857142856,305.6,344.57142857142856,346.47767857142856,410.9,163.57142857142856,119.47767857142857,515.4,143.57142857142856,97.47767857142857,616.1,116.57142857142857,82.47767857142857,720.4,117.57142857142857,83.47767857142857,821.1,118.57142857142857,87.47767857142857,925.6,118.57142857142857,87.47767857142857,1025.6,118.57142857142857,87.47767857142857,1125.6,118.57142857142857,87.47767857142857,1226.4,118.57142857142857,87.47767857142857,1331.2,118.57142857142857,87.47767857142857,1435.2,118.57142857142857,87.47767857142857,1535.4,118.57142857142857,87.47767857142857,1640.9,118.57142857142857,87.47767857142857,1745,118.57142857142857,87.47767857142857,1845.7,118.57142857142857,87.47767857142857,1947.2,118.57142857142857,87.47767857142857,2050.1,118.57142857142857,87.47767857142857,2151.1,118.57142857142857,87.47767857142857,2251.1,118.57142857142857,87.47767857142857,2355.7,118.57142857142857,87.47767857142857,2460.6,118.57142857142857,87.47767857142857,2561.1,118.57142857142857,87.47767857142857,2665.5,118.57142857142857,87.47767857142857,2770.9,118.57142857142857,87.47767857142857,2875.8,118.57142857142857,87.47767857142857,2981,118.57142857142857,87.47767857142857,3081.1,118.57142857142857,87.47767857142857,3185.6,117.57142857142857,86.47767857142857,3291,117.57142857142857,86.47767857142857,3395.8,116.57142857142857,86.47767857142857,3500.6,107.57142857142857,91.47767857142857,3605,107.57142857142857,91.47767857142857,3705.6,106.57142857142857,91.47767857142857,3806,106.57142857142857,91.47767857142857,3911,106.57142857142857,91.47767857142857,4011.1,106.57142857142857,91.47767857142857,4115.5,106.57142857142857,91.47767857142857,4215.5,106.57142857142857,91.47767857142857,4316.1,106.57142857142857,91.47767857142857,4420.2,106.57142857142857,91.47767857142857,4521.1,106.57142857142857,91.47767857142857,4626,106.57142857142857,91.47767857142857,4730,106.57142857142857,91.47767857142857,4831,106.57142857142857,91.47767857142857,4935.8]","[1268.9,1268.9,1000.2,0,268.7,""while_blue"",""up"",""left"",""good_move"",4118.1,2849,2570.7,1269.1,278.3,""smooth"",""up"",""up"",""good_move"",6844.5,2726.2,2379.2,4118.3,347,""smooth"",""up"",""up"",""good_move"",10068.9,3224.3,2906.8,6844.6,317.5,""smooth"",""left"",""left"",""good_move"",13373.5,3304.3,2769.3,10069.2,535,""oops"",""up"",""right"",""bad_move"",17012.2,3638.6,3367.4,13373.6,271.2,""while_blue"",""up"",""right"",""bad_move"",20389.6,3377.3,3094.9,17012.4,282.3,""smooth"",""left"",""left"",""good_move"",22852.5,2462.8,2136.2,20389.8,326.5,""oops"",""left"",""down"",""bad_move"",24581.7,1729,2702.5,22852.7,-973.5,""error"",""-"",""-"",""no_move"",28117.4,3535.7,2236.8,25585.1,295.5,""smooth"",""up"",""up"",""good_move"",30141.5,2023.9,1689.6,28117.6,334.3,""smooth"",""left"",""left"",""good_move"",32973.4,2831.7,2578.5,30141.7,253.2,""while_blue"",""up"",""up"",""good_move"",36477.9,3504.2,3194.5,32973.7,309.7,""smooth"",""left"",""left"",""good_move""]"
"1881","","<div style=""width:500px;"">
  <p>What determined the result of this run?</p>
