"rt","response_timestamp","stimulus","response","trial_type","trial_index","time_elapsed","internal_node_id","run_id","condition","recorded_at","source_code_version","ip","user_agent","device","browser","browser_version","platform","platform_version","referer","accept_language","PROLIFIC_PID","STUDY_ID","SESSION_ID","BATCH","prolific_id","batch","realtime","success","question_order","question_id","eventType","responses","item_order","radio_event_ids","radio_event_times","key_event_times","mouse_event_times","straightlining","zigzagging","honeypot","view_history","slider_start","which_type","canvas_config","goals_layout","control_level","trial_number","tutorial_trial_number","trial_start_time","phase1_start_time","phase2_start_time","phase3_start_time","goal_1_value","goal_1_distance","goal_2_value","goal_2_distance","goal_selected","outcome","outcome_total","participant_final_score","participant_initial_score","participant_final_score_prop","goal_choice_rt","allocated_time","allocated_time_remaining","goal_direction","counts","mouse_movements","key_presses"
"2817","1754556539131","<p style='font-size:40px;line-height:1.25'><strong>Welcome to the experiment!</strong></p><p style='font-size:1.1em;line-height:1.25'>Thank you for participanting in our experiment again! You will be asked to play the Dysfunctional Ball Game again. We will briefly recap the rules before we start.</p><p style='font-size:1.1em;line-height:1.25'>Press <strong>Next</strong> to continue.</p>","0","custom-html-button-response","0","2836","0.0-0.0","227","1","2025-08-07 08:48:31","36c45c0696341be0efffe67d72a12abb","102.66.141.23","Mozilla/5.0 (Windows NT 10.0; Win64; x64) AppleWebKit/537.36 (KHTML, like Gecko) Chrome/138.0.0.0 Safari/537.36","WebKit","Chrome","138.0.0.0","Windows","10.0","https://app.prolific.com/","en-US,en;q=0.9","60f41ae35227aa02240ba0d9","6877649eabb845cf142cd221","689468433993915f5b6d4841","1","60f41ae35227aa02240ba0d9","1","2025-08-07T08:48:59.139Z","","","","","","","","","","","","","","","","","","","","","","","","","","","","","","","","","","","","","","","","","",""
"1931","","","","fullscreen","1","5900","0.0-1.0","227","1","2025-08-07 08:48:31","36c45c0696341be0efffe67d72a12abb","102.66.141.23","Mozilla/5.0 (Windows NT 10.0; Win64; x64) AppleWebKit/537.36 (KHTML, like Gecko) Chrome/138.0.0.0 Safari/537.36","WebKit","Chrome","138.0.0.0","Windows","10.0","https://app.prolific.com/","en-US,en;q=0.9","60f41ae35227aa02240ba0d9","6877649eabb845cf142cd221","689468433993915f5b6d4841","1","60f41ae35227aa02240ba0d9","1","","true","","","","","","","","","","","","","","","","","","","","","","","","","","","","","","","","","","","","","","","","",""
"15294","1754556557499"," <p style='font-size:1.1em;line-height:1.25'>Thank you for closing all other tabs.</p><p style='font-size:1.1em;line-height:1.25'>We will now invite you to fill in some questionnaires, before starting the game.<br>This will take about 5 minutes.<br></p><p style='font-size:1.1em;line-height:1.25'>Press the <strong>Next</strong> button to continue.</p>","0","custom-html-button-response","2","21201","0.0-2.0","227","1","2025-08-07 08:48:31","36c45c0696341be0efffe67d72a12abb","102.66.141.23","Mozilla/5.0 (Windows NT 10.0; Win64; x64) AppleWebKit/537.36 (KHTML, like Gecko) Chrome/138.0.0.0 Safari/537.36","WebKit","Chrome","138.0.0.0","Windows","10.0","https://app.prolific.com/","en-US,en;q=0.9","60f41ae35227aa02240ba0d9","6877649eabb845cf142cd221","689468433993915f5b6d4841","1","60f41ae35227aa02240ba0d9","1","2025-08-07T08:49:17.504Z","","","","","","","","","","","","","","","","","","","","","","","","","","","","","","","","","","","","","","","","","",""
"10392","","","{""assigned_sex"":""female""}","survey-multi-choice","3","31704","0.0-3.0-0.0","227","1","2025-08-07 08:48:31","36c45c0696341be0efffe67d72a12abb","102.66.141.23","Mozilla/5.0 (Windows NT 10.0; Win64; x64) AppleWebKit/537.36 (KHTML, like Gecko) Chrome/138.0.0.0 Safari/537.36","WebKit","Chrome","138.0.0.0","Windows","10.0","https://app.prolific.com/","en-US,en;q=0.9","60f41ae35227aa02240ba0d9","6877649eabb845cf142cd221","689468433993915f5b6d4841","1","60f41ae35227aa02240ba0d9","1","","","[0]","0","demographics","","","","","","","","","","","","","","","","","","","","","","","","","","","","","","","","","","","","","",""
"4934","1754556573196","<p style='font-size:1.1em;line-height:1.25'>In the following, we will perform a baseline assessment. This means that we will ask you a few questions relating to your experiences over the past month.<br></p><p style='font-size:1.1em;line-height:1.25'>Press the <strong>Next</strong> button to continue.</p>","0","custom-html-button-response","4","37036","0.0-4.0-0.0","227","1","2025-08-07 08:48:31","36c45c0696341be0efffe67d72a12abb","102.66.141.23","Mozilla/5.0 (Windows NT 10.0; Win64; x64) AppleWebKit/537.36 (KHTML, like Gecko) Chrome/138.0.0.0 Safari/537.36","WebKit","Chrome","138.0.0.0","Windows","10.0","https://app.prolific.com/","en-US,en;q=0.9","60f41ae35227aa02240ba0d9","6877649eabb845cf142cd221","689468433993915f5b6d4841","1","60f41ae35227aa02240ba0d9","1","2025-08-07T08:49:33.339Z","","","","","","","","","","","","","","","","","","","","","","","","","","","","","","","","","","","","","","","","","",""
"106457.6000000001","","","","survey-template","5","144469","0.0-4.0-1.0","227","1","2025-08-07 08:48:31","36c45c0696341be0efffe67d72a12abb","102.66.141.23","Mozilla/5.0 (Windows NT 10.0; Win64; x64) AppleWebKit/537.36 (KHTML, like Gecko) Chrome/138.0.0.0 Safari/537.36","WebKit","Chrome","138.0.0.0","Windows","10.0","https://app.prolific.com/","en-US,en;q=0.9","60f41ae35227aa02240ba0d9","6877649eabb845cf142cd221","689468433993915f5b6d4841","1","60f41ae35227aa02240ba0d9","1","2025-08-07T08:51:20.788Z","","","","pss","{""Q01"":""2"",""Q02"":""0"",""Q03"":""2"",""Q04"":""1"",""Q05"":""2"",""Q06"":""1"",""Q07"":""2"",""Q08"":""0"",""Q09"":""1"",""Q10"":""2""}","[0,1,2,3,4,5,6,7,8,9]","[""Q01"",""Q02"",""Q03"",""Q03"",""Q04"",""Q05"",""Q06"",""Q06"",""Q07"",""Q08"",""Q09"",""Q10""]","[28233.80000000028,33224,36022.5,38080.80000000028,48130.40000000037,52737.5,67896.6000000001,71048.30000000028,76736.40000000037,83239.5,92975.6000000001,104855.30000000028]","[]","[0.6000000000931323,28233.80000000028,33224,36022.5,38080.80000000028,48130.40000000037,52737.5,67896.6000000001,71048.30000000028,76736.40000000037,83239.5,92975.6000000001,104855.30000000028,106223.90000000037]","0.5","0.5555555555555556","0","","","","","","","","","","","","","","","","","","","","","","","","","","","","",""
"2191","1754556683131","<p style='font-size:1.1em;line-height:1.25'>Thank you for your answers! Now we will ask you a few more questions relating to your feelings in the last 24 hours.<br></p><p style='font-size:1.1em;line-height:1.25'>Press the <strong>Next</strong> button to continue.</p>","0","custom-html-button-response","6","146836","0.0-4.0-2.0","227","1","2025-08-07 08:48:31","36c45c0696341be0efffe67d72a12abb","102.66.141.23","Mozilla/5.0 (Windows NT 10.0; Win64; x64) AppleWebKit/537.36 (KHTML, like Gecko) Chrome/138.0.0.0 Safari/537.36","WebKit","Chrome","138.0.0.0","Windows","10.0","https://app.prolific.com/","en-US,en;q=0.9","60f41ae35227aa02240ba0d9","6877649eabb845cf142cd221","689468433993915f5b6d4841","1","60f41ae35227aa02240ba0d9","1","2025-08-07T08:51:23.139Z","","","","","","","","","","","","","","","","","","","","","","","","","","","","","","","","","","","","","","","","","",""
"76433.80000000028","","","","survey-template","7","223365","0.0-4.0-3.0","227","1","2025-08-07 08:48:31","36c45c0696341be0efffe67d72a12abb","102.66.141.23","Mozilla/5.0 (Windows NT 10.0; Win64; x64) AppleWebKit/537.36 (KHTML, like Gecko) Chrome/138.0.0.0 Safari/537.36","WebKit","Chrome","138.0.0.0","Windows","10.0","https://app.prolific.com/","en-US,en;q=0.9","60f41ae35227aa02240ba0d9","6877649eabb845cf142cd221","689468433993915f5b6d4841","1","60f41ae35227aa02240ba0d9","1","2025-08-07T08:52:39.670Z","","","","drsp","{""Q01"":""1"",""Q02"":""0"",""Q03"":""0"",""Q04"":""1"",""Q05"":""1"",""Q06"":""0"",""Q07"":""0"",""Q08"":""0"",""Q09"":""0"",""Q10"":""0"",""Q11"":""0"",""Q12"":""1"",""Q13"":""5"",""Q14"":""1"",""Q15"":""0"",""Q16"":""0"",""Q17"":""1"",""Q18"":""0"",""Q19"":""0"",""Q20"":""0"",""Q21"":""0"",""Q22"":""0""}","[0,1,2,3,4,5,6,7,8,9,10,11,12,13,14,15,16,17,18,19,20,21]","[""Q01"",""Q02"",""Q03"",""Q04"",""Q05"",""Q06"",""Q07"",""Q08"",""Q09"",""Q10"",""Q11"",""Q12"",""Q13"",""Q14"",""Q15"",""Q16"",""Q17"",""Q17"",""Q18"",""Q19"",""Q20"",""Q21"",""Q22""]","[5173,7390,9508.30000000028,13854.5,18830.700000000186,21253.700000000186,23998,26589.200000000186,29646.600000000093,33621.80000000028,36797.10000000009,42341.80000000028,45533,48348,51759.200000000186,54313.700000000186,57461.700000000186,60173,63348.90000000037,66180.5,69221.6000000001,73452.90000000037,74723.80000000028]","[]","[0.20000000018626451,5173,7390,9030.5,9508.30000000028,13854.5,18830.700000000186,21253.700000000186,23998,26589.200000000186,29646.600000000093,33621.80000000028,36797.10000000009,41485.40000000037,42341.80000000028,45533,48348,51759.200000000186,54313.700000000186,57461.700000000186,60173,63348.90000000037,64824.60000000009,65781.80000000028,66180.5,67951.80000000028,69221.6000000001,73452.90000000037,74723.80000000028,76413.30000000028]","0.6818181818181818","0.3333333333333333","0","","","","","","","","","","","","","","","","","","","","","","","","","","","","",""
"19624.899999999907","","","","survey-template","8","243017","0.0-4.0-4.0","227","1","2025-08-07 08:48:31","36c45c0696341be0efffe67d72a12abb","102.66.141.23","Mozilla/5.0 (Windows NT 10.0; Win64; x64) AppleWebKit/537.36 (KHTML, like Gecko) Chrome/138.0.0.0 Safari/537.36","WebKit","Chrome","138.0.0.0","Windows","10.0","https://app.prolific.com/","en-US,en;q=0.9","60f41ae35227aa02240ba0d9","6877649eabb845cf142cd221","689468433993915f5b6d4841","1","60f41ae35227aa02240ba0d9","1","2025-08-07T08:52:59.320Z","","","","stress","{""Q01"":""0"",""Q02"":""2"",""Q03"":""0""}","[0,1,2]","[""Q01"",""Q01"",""Q02"",""Q03""]","[7561.899999999907,7574.100000000093,13475.600000000093,17933.299999999814]","[]","[7561.899999999907,7574.100000000093,13475.600000000093,17933.299999999814,19618.600000000093]","0.6666666666666666","0","0","","","","","","","","","","","","","","","","","","","","","","","","","","","","",""
"19786","","","","instructions","9","262858","0.0-5.0-0.0","227","1","2025-08-07 08:48:31","36c45c0696341be0efffe67d72a12abb","102.66.141.23","Mozilla/5.0 (Windows NT 10.0; Win64; x64) AppleWebKit/537.36 (KHTML, like Gecko) Chrome/138.0.0.0 Safari/537.36","WebKit","Chrome","138.0.0.0","Windows","10.0","https://app.prolific.com/","en-US,en;q=0.9","60f41ae35227aa02240ba0d9","6877649eabb845cf142cd221","689468433993915f5b6d4841","1","60f41ae35227aa02240ba0d9","1","","","","","","","","","","","","","","","[{""page_index"":0,""viewing_time"":19780}]","","","","","","","","","","","","","","","","","","","","","","","","","","","",""
"12455","","<p>Before you start with this game please answer the following three questions yourself. </p>
  <p>Through this game, we measure several aspects of your cognitive performance, such as reaction times, multi-tasking capabilities </p>
  <p>and the ability to assess the situation you are in.</p>
  <p></p>
  <p><b>How good do you usually are in such tasks?</b></p>","90","html-slider-response","10","275566","0.0-6.0-0.0","227","1","2025-08-07 08:48:31","36c45c0696341be0efffe67d72a12abb","102.66.141.23","Mozilla/5.0 (Windows NT 10.0; Win64; x64) AppleWebKit/537.36 (KHTML, like Gecko) Chrome/138.0.0.0 Safari/537.36","WebKit","Chrome","138.0.0.0","Windows","10.0","https://app.prolific.com/","en-US,en;q=0.9","60f41ae35227aa02240ba0d9","6877649eabb845cf142cd221","689468433993915f5b6d4841","1","60f41ae35227aa02240ba0d9","1","2025-08-07T08:53:31.870Z","","","","PreSkillQ","","","","","","","","","","","50","","","","","","","","","","","","","","","","","","","","","","","","","","",""
"4090","","<div style=""width:500px;"">
  <p>How well do you think you will perform in this task compared to other participants?</p>
  </div>","80","html-slider-response","11","279664","0.0-6.0-1.0","227","1","2025-08-07 08:48:31","36c45c0696341be0efffe67d72a12abb","102.66.141.23","Mozilla/5.0 (Windows NT 10.0; Win64; x64) AppleWebKit/537.36 (KHTML, like Gecko) Chrome/138.0.0.0 Safari/537.36","WebKit","Chrome","138.0.0.0","Windows","10.0","https://app.prolific.com/","en-US,en;q=0.9","60f41ae35227aa02240ba0d9","6877649eabb845cf142cd221","689468433993915f5b6d4841","1","60f41ae35227aa02240ba0d9","1","2025-08-07T08:53:35.967Z","","","","PrePerfQ","","","","","","","","","","","50","","","","","","","","","","","","","","","","","","","","","","","","","","",""
"4320","","<div style=""width:500px;"">
  <p>What best describes how you currently feel?</p>
  </div>","82","html-slider-response","12","283989","0.0-6.0-2.0","227","1","2025-08-07 08:48:31","36c45c0696341be0efffe67d72a12abb","102.66.141.23","Mozilla/5.0 (Windows NT 10.0; Win64; x64) AppleWebKit/537.36 (KHTML, like Gecko) Chrome/138.0.0.0 Safari/537.36","WebKit","Chrome","138.0.0.0","Windows","10.0","https://app.prolific.com/","en-US,en;q=0.9","60f41ae35227aa02240ba0d9","6877649eabb845cf142cd221","689468433993915f5b6d4841","1","60f41ae35227aa02240ba0d9","1","2025-08-07T08:53:40.291Z","","","","PreMotivationQ","","","","","","","","","","","50","","","","","","","","","","","","","","","","","","","","","","","","","","",""
"","","","","ctl-task-cpt","13","316181","0.0-7.0-0.0","227","1","2025-08-07 08:48:31","36c45c0696341be0efffe67d72a12abb","102.66.141.23","Mozilla/5.0 (Windows NT 10.0; Win64; x64) AppleWebKit/537.36 (KHTML, like Gecko) Chrome/138.0.0.0 Safari/537.36","WebKit","Chrome","138.0.0.0","Windows","10.0","https://app.prolific.com/","en-US,en;q=0.9","60f41ae35227aa02240ba0d9","6877649eabb845cf142cd221","689468433993915f5b6d4841","1","60f41ae35227aa02240ba0d9","1","2025-08-07T08:54:12.484Z","","","","","","","","","","","","","","","","win-only","3","g1:SW,g2:NE","1","1","0","309978.3","3257.7","8260.6","29021.6","1","4","8","6","2","8","8","8","0","0.06060606060606061","1076.5","3000","575","[""up"",""right""]","{""num_key_presses"":6,""num_perfect"":6,""num_errors"":0,""num_randdir"":0,""num_randdir_good_moves"":0,""num_whilered"":0,""num_whileblue"":0,""num_blue"":0,""num_good_moves"":6}","[296.22232142857143,298.12857142857143,7.7,296.22232142857143,298.12857142857143,100.9,296.22232142857143,298.12857142857143,213.9,296.22232142857143,298.12857142857143,316.8,296.22232142857143,298.12857142857143,421,301.22232142857143,295.12857142857143,525.9,343.22232142857143,255.12857142857143,639.4,513.2223214285714,135.12857142857143,745.3,572.2223214285714,82.12857142857143,854.9,570.2223214285714,57.128571428571426,957.9,567.2223214285714,54.128571428571426,1062,566.2223214285714,54.128571428571426,1163.8,565.2223214285714,55.128571428571426,1271.4,562.2223214285714,74.12857142857143,1375,562.2223214285714,80.12857142857143,1489.6,542.2223214285714,127.12857142857143,1601.1,457.22232142857143,242.12857142857143,1702.3,251.22232142857143,378.12857142857143,1802.8,-311.77767857142857,511.12857142857143,1906.5,-386.77767857142857,683.1285714285714,2008.5,-386.77767857142857,683.1285714285714,2109.9,-386.77767857142857,604.1285714285714,2230.2,-386.77767857142857,629.1285714285714,2335.1,-386.77767857142857,629.1285714285714,2437.6,-386.77767857142857,629.1285714285714,2547.8,-386.77767857142857,629.1285714285714,2651.5,-386.77767857142857,629.1285714285714,2752.4,-386.77767857142857,629.1285714285714,2872.6,-386.77767857142857,629.1285714285714,2980.7,-386.77767857142857,629.1285714285714,3090.9,-386.77767857142857,629.1285714285714,3197,-386.77767857142857,629.1285714285714,3301.9,-386.77767857142857,629.1285714285714,3407,-386.77767857142857,629.1285714285714,3515.7,-386.77767857142857,629.1285714285714,3617.2,-386.77767857142857,629.1285714285714,3721.3,-386.77767857142857,629.1285714285714,3825.6,-386.77767857142857,629.1285714285714,3927.1,-386.77767857142857,629.1285714285714,4028.2,-386.77767857142857,629.1285714285714,4128.5,-386.77767857142857,629.1285714285714,4233.4,-386.77767857142857,629.1285714285714,4424.9,-386.77767857142857,629.1285714285714,4531.8,-386.77767857142857,629.1285714285714,4632.6,-386.77767857142857,629.1285714285714,4735.8,-386.77767857142857,629.1285714285714,4837.5,-386.77767857142857,629.1285714285714,4942.4]","[6731.3,6731.4,1000,0,5731.4,""smooth"",""up"",""up"",""good_move"",10270,3537.3,2946.8,6732.8,590.5,""smooth"",""up"",""up"",""good_move"",12539.2,2255.8,1757.5,10283.5,498.2,""smooth"",""up"",""up"",""good_move"",15315.5,2773.3,2323.2,12542.2,450.1,""smooth"",""right"",""right"",""good_move"",18113.8,2791.4,2366.5,15322.4,424.9,""smooth"",""right"",""right"",""good_move"",20624.9,2507.4,2061.9,18117.6,445.5,""smooth"",""right"",""right"",""good_move""]"
"4287","","<div style=""width:500px;"">
  <p>What determined the result of this run?</p>
  </div>","81","html-slider-response","14","320474","0.0-7.0-1.0","227","1","2025-08-07 08:48:31","36c45c0696341be0efffe67d72a12abb","102.66.141.23","Mozilla/5.0 (Windows NT 10.0; Win64; x64) AppleWebKit/537.36 (KHTML, like Gecko) Chrome/138.0.0.0 Safari/537.36","WebKit","Chrome","138.0.0.0","Windows","10.0","https://app.prolific.com/","en-US,en;q=0.9","60f41ae35227aa02240ba0d9","6877649eabb845cf142cd221","689468433993915f5b6d4841","1","60f41ae35227aa02240ba0d9","1","2025-08-07T08:54:16.777Z","","","","AttribQ","","","","","","","","","","","50","","","","","","","","","","","","","","","","","","","","","","","","","","",""
"4510","","<div style=""width:500px;"">
  <p>How much control did you have over the ball?</p>
  </div>","76","html-slider-response","15","324992","0.0-7.0-2.0","227","1","2025-08-07 08:48:31","36c45c0696341be0efffe67d72a12abb","102.66.141.23","Mozilla/5.0 (Windows NT 10.0; Win64; x64) AppleWebKit/537.36 (KHTML, like Gecko) Chrome/138.0.0.0 Safari/537.36","WebKit","Chrome","138.0.0.0","Windows","10.0","https://app.prolific.com/","en-US,en;q=0.9","60f41ae35227aa02240ba0d9","6877649eabb845cf142cd221","689468433993915f5b6d4841","1","60f41ae35227aa02240ba0d9","1","2025-08-07T08:54:21.294Z","","","","ControlQ","","","","","","","","","","","50","","","","","","","","","","","","","","","","","","","","","","","","","","",""
"4893","","<div style=""width:500px;"">
  <p>How would you describe your current emotional state?</p>
  </div>","15","html-slider-response","16","329899","0.0-7.0-3.0","227","1","2025-08-07 08:48:31","36c45c0696341be0efffe67d72a12abb","102.66.141.23","Mozilla/5.0 (Windows NT 10.0; Win64; x64) AppleWebKit/537.36 (KHTML, like Gecko) Chrome/138.0.0.0 Safari/537.36","WebKit","Chrome","138.0.0.0","Windows","10.0","https://app.prolific.com/","en-US,en;q=0.9","60f41ae35227aa02240ba0d9","6877649eabb845cf142cd221","689468433993915f5b6d4841","1","60f41ae35227aa02240ba0d9","1","2025-08-07T08:54:26.203Z","","","","StressQ","","","","","","","","","","","50","","","","","","","","","","","","","","","","","","","","","","","","","","",""
"8881","","<div style=""width:500px;"">
  <p>What best describes how you currently feel?</p>
  </div>","80","html-slider-response","17","338789","0.0-7.0-4.0","227","1","2025-08-07 08:48:31","36c45c0696341be0efffe67d72a12abb","102.66.141.23","Mozilla/5.0 (Windows NT 10.0; Win64; x64) AppleWebKit/537.36 (KHTML, like Gecko) Chrome/138.0.0.0 Safari/537.36","WebKit","Chrome","138.0.0.0","Windows","10.0","https://app.prolific.com/","en-US,en;q=0.9","60f41ae35227aa02240ba0d9","6877649eabb845cf142cd221","689468433993915f5b6d4841","1","60f41ae35227aa02240ba0d9","1","2025-08-07T08:54:35.091Z","","","","MotivationQ","","","","","","","","","","","50","","","","","","","","","","","","","","","","","","","","","","","","","","",""
"","","","","ctl-task-cpt","18","397172","0.0-7.0-0.1","227","1","2025-08-07 08:48:31","36c45c0696341be0efffe67d72a12abb","102.66.141.23","Mozilla/5.0 (Windows NT 10.0; Win64; x64) AppleWebKit/537.36 (KHTML, like Gecko) Chrome/138.0.0.0 Safari/537.36","WebKit","Chrome","138.0.0.0","Windows","10.0","https://app.prolific.com/","en-US,en;q=0.9","60f41ae35227aa02240ba0d9","6877649eabb845cf142cd221","689468433993915f5b6d4841","1","60f41ae35227aa02240ba0d9","1","2025-08-07T08:55:33.475Z","","","","","","","","","","","","","","","","win-only","1","g1:NE,g2:SW","0.9","2","0","364625.3","2011.5","7017.3","55267.8","1","4","4","6","2","4","4","12","8","0.09090909090909091","1695.1","3000","350","[""down"",""left""]","{""num_key_presses"":8,""num_perfect"":7,""num_errors"":0,""num_randdir"":1,""num_randdir_good_moves"":0,""num_whilered"":0,""num_whileblue"":0,""num_blue"":7,""num_good_moves"":7}","[296.22232142857143,298.12857142857143,1.5,296.22232142857143,298.12857142857143,101.7,296.22232142857143,298.12857142857143,228.3,296.22232142857143,298.12857142857143,330.5,296.22232142857143,298.12857142857143,431,299.22232142857143,284.12857142857143,542.5,257.22232142857143,332.12857142857143,644.1,-20.777678571428574,638.1285714285714,755,-20.777678571428574,638.1285714285714,858,-20.777678571428574,638.1285714285714,970.6,-23.777678571428574,638.1285714285714,1081.7,-6.777678571428574,590.1285714285714,1194.4,35.222321428571426,552.1285714285714,1296.3,42.222321428571426,545.1285714285714,1404.9,42.222321428571426,545.1285714285714,1512.1,42.222321428571426,545.1285714285714,1615.8,42.222321428571426,545.1285714285714,1717.5,42.222321428571426,545.1285714285714,1820.6,42.222321428571426,545.1285714285714,1927.2,42.222321428571426,545.1285714285714,2028.6,42.222321428571426,545.1285714285714,2132.5,42.222321428571426,545.1285714285714,2235.8,42.222321428571426,545.1285714285714,2336.9,42.222321428571426,545.1285714285714,2437,24.222321428571426,617.1285714285714,2549,66.22232142857143,683.1285714285714,2656.7,72.22232142857143,683.1285714285714,2770.6,72.22232142857143,683.1285714285714,2896.8,72.22232142857143,683.1285714285714,3001.2,72.22232142857143,683.1285714285714,3105.7,72.22232142857143,683.1285714285714,3205.8,72.22232142857143,683.1285714285714,3320,72.22232142857143,683.1285714285714,3420.4,72.22232142857143,683.1285714285714,3522,72.22232142857143,683.1285714285714,3630.4,72.22232142857143,683.1285714285714,3734.7,72.22232142857143,683.1285714285714,3844.1,72.22232142857143,683.1285714285714,3947.5,72.22232142857143,683.1285714285714,4073.8,72.22232142857143,683.1285714285714,4174.9,72.22232142857143,683.1285714285714,4282.9,72.22232142857143,683.1285714285714,4400.8,72.22232142857143,683.1285714285714,4501.2,72.22232142857143,683.1285714285714,4609.8,72.22232142857143,683.1285714285714,4712.4,72.22232142857143,683.1285714285714,4816.3,72.22232142857143,683.1285714285714,4920.8]","[4960.4,4960.2,2493.5,2010.2,456.7,""smooth"",""down"",""down"",""good_move"",16125.9,11161.3,2949.2,12634.1,542.6,""oops"",""down"",""up"",""bad_move"",19043.2,2907.6,2362.2,16135.6,545.4,""smooth"",""down"",""down"",""good_move"",32090.3,13033.4,2548.8,29023.9,517.7,""smooth"",""down"",""down"",""good_move"",35981.5,3888.3,2804.4,32093.2,1083.9,""smooth"",""down"",""down"",""good_move"",38805.9,2820.4,2230.8,35985.6,589.5,""smooth"",""left"",""left"",""good_move"",45633.4,6819.6,2227.3,42854.8,551.3,""smooth"",""left"",""left"",""good_move"",48106.2,2469.1,1957.2,45637.2,511.9,""smooth"",""left"",""left"",""good_move""]"
"6739","","<div style=""width:500px;"">
  <p>What determined the result of this run?</p>
  </div>","84","html-slider-response","19","404183","0.0-7.0-1.1","227","1","2025-08-07 08:48:31","36c45c0696341be0efffe67d72a12abb","102.66.141.23","Mozilla/5.0 (Windows NT 10.0; Win64; x64) AppleWebKit/537.36 (KHTML, like Gecko) Chrome/138.0.0.0 Safari/537.36","WebKit","Chrome","138.0.0.0","Windows","10.0","https://app.prolific.com/","en-US,en;q=0.9","60f41ae35227aa02240ba0d9","6877649eabb845cf142cd221","689468433993915f5b6d4841","1","60f41ae35227aa02240ba0d9","1","2025-08-07T08:55:40.486Z","","","","AttribQ","","","","","","","","","","","50","","","","","","","","","","","","","","","","","","","","","","","","","","",""
"4802","","<div style=""width:500px;"">
  <p>How much control did you have over the ball?</p>
  </div>","84","html-slider-response","20","408994","0.0-7.0-2.1","227","1","2025-08-07 08:48:31","36c45c0696341be0efffe67d72a12abb","102.66.141.23","Mozilla/5.0 (Windows NT 10.0; Win64; x64) AppleWebKit/537.36 (KHTML, like Gecko) Chrome/138.0.0.0 Safari/537.36","WebKit","Chrome","138.0.0.0","Windows","10.0","https://app.prolific.com/","en-US,en;q=0.9","60f41ae35227aa02240ba0d9","6877649eabb845cf142cd221","689468433993915f5b6d4841","1","60f41ae35227aa02240ba0d9","1","2025-08-07T08:55:45.296Z","","","","ControlQ","","","","","","","","","","","50","","","","","","","","","","","","","","","","","","","","","","","","","","",""
"4761","","<div style=""width:500px;"">
  <p>How would you describe your current emotional state?</p>
  </div>","21","html-slider-response","21","413768","0.0-7.0-3.1","227","1","2025-08-07 08:48:31","36c45c0696341be0efffe67d72a12abb","102.66.141.23","Mozilla/5.0 (Windows NT 10.0; Win64; x64) AppleWebKit/537.36 (KHTML, like Gecko) Chrome/138.0.0.0 Safari/537.36","WebKit","Chrome","138.0.0.0","Windows","10.0","https://app.prolific.com/","en-US,en;q=0.9","60f41ae35227aa02240ba0d9","6877649eabb845cf142cd221","689468433993915f5b6d4841","1","60f41ae35227aa02240ba0d9","1","2025-08-07T08:55:50.070Z","","","","StressQ","","","","","","","","","","","50","","","","","","","","","","","","","","","","","","","","","","","","","","",""
"3623","","<div style=""width:500px;"">
  <p>What best describes how you currently feel?</p>
  </div>","84","html-slider-response","22","417400","0.0-7.0-4.1","227","1","2025-08-07 08:48:31","36c45c0696341be0efffe67d72a12abb","102.66.141.23","Mozilla/5.0 (Windows NT 10.0; Win64; x64) AppleWebKit/537.36 (KHTML, like Gecko) Chrome/138.0.0.0 Safari/537.36","WebKit","Chrome","138.0.0.0","Windows","10.0","https://app.prolific.com/","en-US,en;q=0.9","60f41ae35227aa02240ba0d9","6877649eabb845cf142cd221","689468433993915f5b6d4841","1","60f41ae35227aa02240ba0d9","1","2025-08-07T08:55:53.703Z","","","","MotivationQ","","","","","","","","","","","50","","","","","","","","","","","","","","","","","","","","","","","","","","",""
"","","","","ctl-task-cpt","23","459535","0.0-7.0-0.2","227","1","2025-08-07 08:48:31","36c45c0696341be0efffe67d72a12abb","102.66.141.23","Mozilla/5.0 (Windows NT 10.0; Win64; x64) AppleWebKit/537.36 (KHTML, like Gecko) Chrome/138.0.0.0 Safari/537.36","WebKit","Chrome","138.0.0.0","Windows","10.0","https://app.prolific.com/","en-US,en;q=0.9","60f41ae35227aa02240ba0d9","6877649eabb845cf142cd221","689468433993915f5b6d4841","1","60f41ae35227aa02240ba0d9","1","2025-08-07T08:56:35.838Z","","","","","","","","","","","","","","","","win-only","1","g1:NE,g2:SW","0.8","3","0","443259.5","3041.3","8046.3","39065.2","1","4","4","6","2","4","4","16","12","0.12121212121212122","1908","3000","1000","[""down"",""left""]","{""num_key_presses"":8,""num_perfect"":6,""num_errors"":0,""num_randdir"":2,""num_randdir_good_moves"":1,""num_whilered"":0,""num_whileblue"":0,""num_blue"":3,""num_good_moves"":7}","[294.22232142857143,294.12857142857143,2.6,294.22232142857143,294.12857142857143,107,294.22232142857143,294.12857142857143,223,294.22232142857143,294.12857142857143,323.8,294.22232142857143,294.12857142857143,435.8,365.22232142857143,144.12857142857143,557,356.22232142857143,149.12857142857143,661.9,85.22232142857143,373.12857142857143,774.4,79.22232142857143,376.12857142857143,905,79.22232142857143,376.12857142857143,1011.1,14.222321428571426,422.12857142857143,1112.3,12.222321428571426,463.12857142857143,1215.1,28.222321428571426,483.12857142857143,1315.9,29.222321428571426,502.12857142857143,1427.2,34.222321428571426,514.1285714285714,1528.4,37.222321428571426,527.1285714285714,1633.1,37.222321428571426,527.1285714285714,1737.9,37.222321428571426,527.1285714285714,1846.3,37.222321428571426,527.1285714285714,1947.1,37.222321428571426,527.1285714285714,2057.1,37.222321428571426,527.1285714285714,2162.9,37.222321428571426,527.1285714285714,2266.6,37.222321428571426,527.1285714285714,2369.2,37.222321428571426,527.1285714285714,2496.6,37.222321428571426,527.1285714285714,2596.8,37.222321428571426,527.1285714285714,2702.4,37.222321428571426,527.1285714285714,2813.6,37.222321428571426,527.1285714285714,2924.9,37.222321428571426,527.1285714285714,3027.9,37.222321428571426,527.1285714285714,3139.1,37.222321428571426,527.1285714285714,3239.2,37.222321428571426,527.1285714285714,3339.6,37.222321428571426,527.1285714285714,3456.5,37.222321428571426,527.1285714285714,3558.1,37.222321428571426,527.1285714285714,3665.7,37.222321428571426,527.1285714285714,3774.1,37.222321428571426,527.1285714285714,3874.9,37.222321428571426,527.1285714285714,3974.9,37.222321428571426,527.1285714285714,4087.1,37.222321428571426,527.1285714285714,4191,37.222321428571426,527.1285714285714,4293.6,37.222321428571426,527.1285714285714,4393.8,37.222321428571426,527.1285714285714,4499.4,37.222321428571426,527.1285714285714,4601.8,37.222321428571426,527.1285714285714,4708.6,37.222321428571426,527.1285714285714,4812.2,37.222321428571426,527.1285714285714,4936.7]","[1516,1516,1000,0,516,""oops"",""down"",""left"",""good_move"",4772.5,3252.4,2765.8,1520.2,486.6,""smooth"",""down"",""down"",""good_move"",7364.4,2586.5,2100.8,4778.1,485.7,""smooth"",""down"",""down"",""good_move"",10250.4,2882.4,2445.6,7368,436.8,""smooth"",""down"",""down"",""good_move"",16223.1,5967.2,2222.1,13568.3,432.8,""oops"",""left"",""up"",""bad_move"",22367.6,6140.9,2298.3,19566.8,502.5,""smooth"",""down"",""down"",""good_move"",28003.2,5634.5,1621.9,25746.4,634.9,""smooth"",""left"",""left"",""good_move"",30837.5,2828.8,2217.6,28008.8,611.1,""smooth"",""left"",""left"",""good_move""]"
"5906","","<div style=""width:500px;"">
  <p>What determined the result of this run?</p>
  </div>","84","html-slider-response","24","465455","0.0-7.0-1.2","227","1","2025-08-07 08:48:31","36c45c0696341be0efffe67d72a12abb","102.66.141.23","Mozilla/5.0 (Windows NT 10.0; Win64; x64) AppleWebKit/537.36 (KHTML, like Gecko) Chrome/138.0.0.0 Safari/537.36","WebKit","Chrome","138.0.0.0","Windows","10.0","https://app.prolific.com/","en-US,en;q=0.9","60f41ae35227aa02240ba0d9","6877649eabb845cf142cd221","689468433993915f5b6d4841","1","60f41ae35227aa02240ba0d9","1","2025-08-07T08:56:41.758Z","","","","AttribQ","","","","","","","","","","","50","","","","","","","","","","","","","","","","","","","","","","","","","","",""
"5051","","<div style=""width:500px;"">
  <p>How much control did you have over the ball?</p>
  </div>","82","html-slider-response","25","470519","0.0-7.0-2.2","227","1","2025-08-07 08:48:31","36c45c0696341be0efffe67d72a12abb","102.66.141.23","Mozilla/5.0 (Windows NT 10.0; Win64; x64) AppleWebKit/537.36 (KHTML, like Gecko) Chrome/138.0.0.0 Safari/537.36","WebKit","Chrome","138.0.0.0","Windows","10.0","https://app.prolific.com/","en-US,en;q=0.9","60f41ae35227aa02240ba0d9","6877649eabb845cf142cd221","689468433993915f5b6d4841","1","60f41ae35227aa02240ba0d9","1","2025-08-07T08:56:46.821Z","","","","ControlQ","","","","","","","","","","","50","","","","","","","","","","","","","","","","","","","","","","","","","","",""
"3933","","<div style=""width:500px;"">
  <p>How would you describe your current emotional state?</p>
  </div>","16","html-slider-response","26","474461","0.0-7.0-3.2","227","1","2025-08-07 08:48:31","36c45c0696341be0efffe67d72a12abb","102.66.141.23","Mozilla/5.0 (Windows NT 10.0; Win64; x64) AppleWebKit/537.36 (KHTML, like Gecko) Chrome/138.0.0.0 Safari/537.36","WebKit","Chrome","138.0.0.0","Windows","10.0","https://app.prolific.com/","en-US,en;q=0.9","60f41ae35227aa02240ba0d9","6877649eabb845cf142cd221","689468433993915f5b6d4841","1","60f41ae35227aa02240ba0d9","1","2025-08-07T08:56:50.764Z","","","","StressQ","","","","","","","","","","","50","","","","","","","","","","","","","","","","","","","","","","","","","","",""
"3473","","<div style=""width:500px;"">
  <p>What best describes how you currently feel?</p>
  </div>","83","html-slider-response","27","477953","0.0-7.0-4.2","227","1","2025-08-07 08:48:31","36c45c0696341be0efffe67d72a12abb","102.66.141.23","Mozilla/5.0 (Windows NT 10.0; Win64; x64) AppleWebKit/537.36 (KHTML, like Gecko) Chrome/138.0.0.0 Safari/537.36","WebKit","Chrome","138.0.0.0","Windows","10.0","https://app.prolific.com/","en-US,en;q=0.9","60f41ae35227aa02240ba0d9","6877649eabb845cf142cd221","689468433993915f5b6d4841","1","60f41ae35227aa02240ba0d9","1","2025-08-07T08:56:54.255Z","","","","MotivationQ","","","","","","","","","","","50","","","","","","","","","","","","","","","","","","","","","","","","","","",""
"","","","","ctl-task-cpt","28","532248","0.0-7.0-0.3","227","1","2025-08-07 08:48:31","36c45c0696341be0efffe67d72a12abb","102.66.141.23","Mozilla/5.0 (Windows NT 10.0; Win64; x64) AppleWebKit/537.36 (KHTML, like Gecko) Chrome/138.0.0.0 Safari/537.36","WebKit","Chrome","138.0.0.0","Windows","10.0","https://app.prolific.com/","en-US,en;q=0.9","60f41ae35227aa02240ba0d9","6877649eabb845cf142cd221","689468433993915f5b6d4841","1","60f41ae35227aa02240ba0d9","1","2025-08-07T08:57:48.603Z","","","","","","","","","","","","","","","","win-only","1","g1:NE,g2:SW","0.7","4","0","503788.8","1414.6","6428.5","50747.7","1","4","8","6","2","8","8","24","16","0.18181818181818182","1604.5","3000","1300","[""down"",""left""]","{""num_key_presses"":8,""num_perfect"":5,""num_errors"":0,""num_randdir"":3,""num_randdir_good_moves"":2,""num_whilered"":0,""num_whileblue"":0,""num_blue"":6,""num_good_moves"":7}","[300.22232142857143,295.12857142857143,0.8,300.22232142857143,295.12857142857143,104.5,300.22232142857143,295.12857142857143,208.2,300.22232142857143,295.12857142857143,343.7,300.22232142857143,295.12857142857143,457.7,300.22232142857143,295.12857142857143,566.2,207.22232142857143,366.12857142857143,698.2,105.22232142857143,456.12857142857143,838.6,105.22232142857143,456.12857142857143,958.8,64.22232142857143,531.1285714285714,1207.7,64.22232142857143,536.1285714285714,1309.3,64.22232142857143,536.1285714285714,1438.9,64.22232142857143,536.1285714285714,1539.2,64.22232142857143,536.1285714285714,1641.2,64.22232142857143,536.1285714285714,1750.4,64.22232142857143,536.1285714285714,1854.7,64.22232142857143,536.1285714285714,1957,64.22232142857143,536.1285714285714,2059.3,64.22232142857143,536.1285714285714,2507.9,64.22232142857143,536.1285714285714,2614.1,64.22232142857143,536.1285714285714,2715.1,64.22232142857143,536.1285714285714,2821.2,64.22232142857143,536.1285714285714,2926.1,64.22232142857143,536.1285714285714,3027.7,64.22232142857143,536.1285714285714,3140.8,64.22232142857143,536.1285714285714,3247.4,64.22232142857143,536.1285714285714,3353.8,64.22232142857143,536.1285714285714,3498.5,64.22232142857143,536.1285714285714,3599.7,64.22232142857143,536.1285714285714,3709.8,64.22232142857143,536.1285714285714,3814.3,64.22232142857143,536.1285714285714,3986.3,64.22232142857143,536.1285714285714,4090.7,64.22232142857143,536.1285714285714,4192.3,64.22232142857143,536.1285714285714,4302.2,64.22232142857143,536.1285714285714,4414.7,64.22232142857143,536.1285714285714,4532.8,64.22232142857143,536.1285714285714,4641.8,64.22232142857143,536.1285714285714,4745.7,64.22232142857143,536.1285714285714,4849,64.22232142857143,536.1285714285714,4966.7]","[1589.8,1589.8,1000,0,589.9,""smooth"",""down"",""down"",""good_move"",11665.6,10070.4,2554.2,8593.6,517.8,""smooth"",""down"",""down"",""good_move"",15287.8,3549.3,2957.2,11738.8,592,""smooth"",""down"",""down"",""good_move"",25088.3,9797.2,2159.2,22426.1,503,""oops"",""left"",""right"",""bad_move"",31314.6,6219.8,2328.2,28403,583.4,""smooth"",""left"",""left"",""good_move"",38164.5,6844.4,2543,35143.7,477.9,""oops"",""left"",""left"",""good_move"",40951.1,2785.4,2078.3,38165.7,707.3,""smooth"",""left"",""left"",""good_move"",44039.1,3084.7,2463.5,40954.9,621.1,""oops"",""left"",""left"",""good_move""]"
"7091","","<div style=""width:500px;"">
  <p>What determined the result of this run?</p>
  </div>","84","html-slider-response","29","541559","0.0-7.0-1.3","227","1","2025-08-07 08:48:31","36c45c0696341be0efffe67d72a12abb","102.66.141.23","Mozilla/5.0 (Windows NT 10.0; Win64; x64) AppleWebKit/537.36 (KHTML, like Gecko) Chrome/138.0.0.0 Safari/537.36","WebKit","Chrome","138.0.0.0","Windows","10.0","https://app.prolific.com/","en-US,en;q=0.9","60f41ae35227aa02240ba0d9","6877649eabb845cf142cd221","689468433993915f5b6d4841","1","60f41ae35227aa02240ba0d9","1","2025-08-07T08:57:57.862Z","","","","AttribQ","","","","","","","","","","","50","","","","","","","","","","","","","","","","","","","","","","","","","","",""
"4592","","<div style=""width:500px;"">
  <p>How much control did you have over the ball?</p>
  </div>","82","html-slider-response","30","546234","0.0-7.0-2.3","227","1","2025-08-07 08:48:31","36c45c0696341be0efffe67d72a12abb","102.66.141.23","Mozilla/5.0 (Windows NT 10.0; Win64; x64) AppleWebKit/537.36 (KHTML, like Gecko) Chrome/138.0.0.0 Safari/537.36","WebKit","Chrome","138.0.0.0","Windows","10.0","https://app.prolific.com/","en-US,en;q=0.9","60f41ae35227aa02240ba0d9","6877649eabb845cf142cd221","689468433993915f5b6d4841","1","60f41ae35227aa02240ba0d9","1","2025-08-07T08:58:02.536Z","","","","ControlQ","","","","","","","","","","","50","","","","","","","","","","","","","","","","","","","","","","","","","","",""
"4511","","<div style=""width:500px;"">
  <p>How would you describe your current emotional state?</p>
  </div>","12","html-slider-response","31","550750","0.0-7.0-3.3","227","1","2025-08-07 08:48:31","36c45c0696341be0efffe67d72a12abb","102.66.141.23","Mozilla/5.0 (Windows NT 10.0; Win64; x64) AppleWebKit/537.36 (KHTML, like Gecko) Chrome/138.0.0.0 Safari/537.36","WebKit","Chrome","138.0.0.0","Windows","10.0","https://app.prolific.com/","en-US,en;q=0.9","60f41ae35227aa02240ba0d9","6877649eabb845cf142cd221","689468433993915f5b6d4841","1","60f41ae35227aa02240ba0d9","1","2025-08-07T08:58:07.054Z","","","","StressQ","","","","","","","","","","","50","","","","","","","","","","","","","","","","","","","","","","","","","","",""
"3392","","<div style=""width:500px;"">
  <p>What best describes how you currently feel?</p>
  </div>","88","html-slider-response","32","554152","0.0-7.0-4.3","227","1","2025-08-07 08:48:31","36c45c0696341be0efffe67d72a12abb","102.66.141.23","Mozilla/5.0 (Windows NT 10.0; Win64; x64) AppleWebKit/537.36 (KHTML, like Gecko) Chrome/138.0.0.0 Safari/537.36","WebKit","Chrome","138.0.0.0","Windows","10.0","https://app.prolific.com/","en-US,en;q=0.9","60f41ae35227aa02240ba0d9","6877649eabb845cf142cd221","689468433993915f5b6d4841","1","60f41ae35227aa02240ba0d9","1","2025-08-07T08:58:10.454Z","","","","MotivationQ","","","","","","","","","","","50","","","","","","","","","","","","","","","","","","","","","","","","","","",""
"","","","","ctl-task-cpt","33","594214","0.0-7.0-0.4","227","1","2025-08-07 08:48:31","36c45c0696341be0efffe67d72a12abb","102.66.141.23","Mozilla/5.0 (Windows NT 10.0; Win64; x64) AppleWebKit/537.36 (KHTML, like Gecko) Chrome/138.0.0.0 Safari/537.36","WebKit","Chrome","138.0.0.0","Windows","10.0","https://app.prolific.com/","en-US,en;q=0.9","60f41ae35227aa02240ba0d9","6877649eabb845cf142cd221","689468433993915f5b6d4841","1","60f41ae35227aa02240ba0d9","1","2025-08-07T08:58:50.516Z","","","","","","","","","","","","","","","","win-only","1","g1:NE,g2:SW","0.6","5","0","580169.9","1635.3","6673.5","36818.7","1","4","8","6","2","8","8","32","24","0.24242424242424243","1534","3000","1740","[""down"",""left""]","{""num_key_presses"":10,""num_perfect"":6,""num_errors"":0,""num_randdir"":4,""num_randdir_good_moves"":2,""num_whilered"":0,""num_whileblue"":0,""num_blue"":0,""num_good_moves"":8}","[293.22232142857143,292.12857142857143,1.8,293.22232142857143,292.12857142857143,109.4,293.22232142857143,292.12857142857143,235.2,293.22232142857143,292.12857142857143,342.2,293.22232142857143,292.12857142857143,445.5,152.22232142857143,379.12857142857143,564.5,48.222321428571426,488.12857142857143,670.3,28.222321428571426,528.1285714285714,771.8,-4.777678571428574,575.1285714285714,893.4,41.222321428571426,550.1285714285714,1118.3,62.222321428571426,543.1285714285714,1243.1,62.222321428571426,543.1285714285714,1350.2,62.222321428571426,543.1285714285714,1460,62.222321428571426,543.1285714285714,1576.2,62.222321428571426,543.1285714285714,1680.9,62.222321428571426,543.1285714285714,1787.7,62.222321428571426,543.1285714285714,1888,62.222321428571426,543.1285714285714,1994.8,62.222321428571426,543.1285714285714,2101.6,62.222321428571426,543.1285714285714,2210.4,62.222321428571426,543.1285714285714,2310.5,62.222321428571426,543.1285714285714,2417.7,62.222321428571426,543.1285714285714,2522.3,62.222321428571426,543.1285714285714,2625.7,62.222321428571426,543.1285714285714,2730.1,62.222321428571426,543.1285714285714,2841.9,62.222321428571426,543.1285714285714,2944.6,62.222321428571426,543.1285714285714,3059,62.222321428571426,543.1285714285714,3178.5,62.222321428571426,543.1285714285714,3279.1,62.222321428571426,543.1285714285714,3379.8,62.222321428571426,543.1285714285714,3492.9,62.222321428571426,543.1285714285714,3596.1,62.222321428571426,543.1285714285714,3710.9,62.222321428571426,543.1285714285714,3828.5,62.222321428571426,543.1285714285714,3948.6,62.222321428571426,543.1285714285714,4103.3,62.222321428571426,543.1285714285714,4211.4,62.222321428571426,543.1285714285714,4314,62.222321428571426,543.1285714285714,4432,62.222321428571426,543.1285714285714,4547.3,62.222321428571426,543.1285714285714,4662.2,62.222321428571426,543.1285714285714,4775.3,62.222321428571426,543.1285714285714,4888.4,62.222321428571426,543.1285714285714,4996.6]","[1562,1562,1000,0,562.1,""oops"",""down"",""down"",""good_move"",4242.8,2676.7,2087.1,1566.3,589.4,""smooth"",""down"",""down"",""good_move"",6696.4,2431.6,1879,4264.9,552.6,""smooth"",""down"",""down"",""good_move"",8928.5,2225.6,1737.8,6703,487.7,""smooth"",""left"",""left"",""good_move"",13067.2,4133.2,3052.5,8934.1,1082.8,""oops"",""left"",""up"",""bad_move"",16610,3535.7,3087.5,13074.3,448.2,""oops"",""left"",""right"",""bad_move"",19931.9,3318.9,2814.2,16613,504.7,""smooth"",""down"",""down"",""good_move"",23376.3,3443.5,3008.4,19933,435,""smooth"",""left"",""left"",""good_move"",26423.2,3043.4,2102.8,23379.8,940.6,""oops"",""left"",""left"",""good_move"",29777.7,3350.2,2394.8,26427.6,955.4,""smooth"",""left"",""left"",""good_move""]"
"5566","","<div style=""width:500px;"">
  <p>What determined the result of this run?</p>
  </div>","88","html-slider-response","34","599820","0.0-7.0-1.4","227","1","2025-08-07 08:48:31","36c45c0696341be0efffe67d72a12abb","102.66.141.23","Mozilla/5.0 (Windows NT 10.0; Win64; x64) AppleWebKit/537.36 (KHTML, like Gecko) Chrome/138.0.0.0 Safari/537.36","WebKit","Chrome","138.0.0.0","Windows","10.0","https://app.prolific.com/","en-US,en;q=0.9","60f41ae35227aa02240ba0d9","6877649eabb845cf142cd221","689468433993915f5b6d4841","1","60f41ae35227aa02240ba0d9","1","2025-08-07T08:58:56.146Z","","","","AttribQ","","","","","","","","","","","50","","","","","","","","","","","","","","","","","","","","","","","","","","",""
"5755","","<div style=""width:500px;"">
  <p>How much control did you have over the ball?</p>
  </div>","87","html-slider-response","35","605815","0.0-7.0-2.4","227","1","2025-08-07 08:48:31","36c45c0696341be0efffe67d72a12abb","102.66.141.23","Mozilla/5.0 (Windows NT 10.0; Win64; x64) AppleWebKit/537.36 (KHTML, like Gecko) Chrome/138.0.0.0 Safari/537.36","WebKit","Chrome","138.0.0.0","Windows","10.0","https://app.prolific.com/","en-US,en;q=0.9","60f41ae35227aa02240ba0d9","6877649eabb845cf142cd221","689468433993915f5b6d4841","1","60f41ae35227aa02240ba0d9","1","2025-08-07T08:59:02.118Z","","","","ControlQ","","","","","","","","","","","50","","","","","","","","","","","","","","","","","","","","","","","","","","",""
"4816","","<div style=""width:500px;"">
  <p>How would you describe your current emotional state?</p>
  </div>","14","html-slider-response","36","610642","0.0-7.0-3.4","227","1","2025-08-07 08:48:31","36c45c0696341be0efffe67d72a12abb","102.66.141.23","Mozilla/5.0 (Windows NT 10.0; Win64; x64) AppleWebKit/537.36 (KHTML, like Gecko) Chrome/138.0.0.0 Safari/537.36","WebKit","Chrome","138.0.0.0","Windows","10.0","https://app.prolific.com/","en-US,en;q=0.9","60f41ae35227aa02240ba0d9","6877649eabb845cf142cd221","689468433993915f5b6d4841","1","60f41ae35227aa02240ba0d9","1","2025-08-07T08:59:06.946Z","","","","StressQ","","","","","","","","","","","50","","","","","","","","","","","","","","","","","","","","","","","","","","",""
"5400","","<div style=""width:500px;"">
  <p>What best describes how you currently feel?</p>
  </div>","82","html-slider-response","37","616053","0.0-7.0-4.4","227","1","2025-08-07 08:48:31","36c45c0696341be0efffe67d72a12abb","102.66.141.23","Mozilla/5.0 (Windows NT 10.0; Win64; x64) AppleWebKit/537.36 (KHTML, like Gecko) Chrome/138.0.0.0 Safari/537.36","WebKit","Chrome","138.0.0.0","Windows","10.0","https://app.prolific.com/","en-US,en;q=0.9","60f41ae35227aa02240ba0d9","6877649eabb845cf142cd221","689468433993915f5b6d4841","1","60f41ae35227aa02240ba0d9","1","2025-08-07T08:59:12.358Z","","","","MotivationQ","","","","","","","","","","","50","","","","","","","","","","","","","","","","","","","","","","","","","","",""
"","","","","ctl-task-cpt","38","653901","0.0-7.0-0.5","227","1","2025-08-07 08:48:31","36c45c0696341be0efffe67d72a12abb","102.66.141.23","Mozilla/5.0 (Windows NT 10.0; Win64; x64) AppleWebKit/537.36 (KHTML, like Gecko) Chrome/138.0.0.0 Safari/537.36","WebKit","Chrome","138.0.0.0","Windows","10.0","https://app.prolific.com/","en-US,en;q=0.9","60f41ae35227aa02240ba0d9","6877649eabb845cf142cd221","689468433993915f5b6d4841","1","60f41ae35227aa02240ba0d9","1","2025-08-07T08:59:50.203Z","","","","","","","","","","","","","","","","win-only","3","g1:SW,g2:NE","0.5","6","0","641905.3","1543.4","6555.2","34784","1","4","4","6","2","4","4","36","32","0.2727272727272727","1721","3000","2245","[""up"",""right""]","{""num_key_presses"":6,""num_perfect"":3,""num_errors"":0,""num_randdir"":3,""num_randdir_good_moves"":3,""num_whilered"":0,""num_whileblue"":0,""num_blue"":2,""num_good_moves"":6}","[298.22232142857143,295.12857142857143,2.5,298.22232142857143,295.12857142857143,107,298.22232142857143,295.12857142857143,241.9,298.22232142857143,295.12857142857143,360.9,298.22232142857143,295.12857142857143,462,250.22232142857143,326.12857142857143,599.2,230.22232142857143,321.12857142857143,720.9,442.22232142857143,158.12857142857143,838.6,517.2223214285714,124.12857142857143,963.1,521.2223214285714,123.12857142857143,1072.3,526.2223214285714,112.12857142857143,1211.8,533.2223214285714,96.12857142857143,1341.9,535.2223214285714,78.12857142857143,1442.5,535.2223214285714,78.12857142857143,1557.7,535.2223214285714,78.12857142857143,1674.5,535.2223214285714,78.12857142857143,1792.1,535.2223214285714,78.12857142857143,1897,535.2223214285714,78.12857142857143,1998,535.2223214285714,78.12857142857143,2100.2,535.2223214285714,78.12857142857143,2223.6,535.2223214285714,78.12857142857143,2331,535.2223214285714,78.12857142857143,2462.5,535.2223214285714,78.12857142857143,2740.9,535.2223214285714,78.12857142857143,2844.8,535.2223214285714,78.12857142857143,2957.3,535.2223214285714,78.12857142857143,3060.9,535.2223214285714,78.12857142857143,3166.7,535.2223214285714,78.12857142857143,3272.8,535.2223214285714,78.12857142857143,3385.8,535.2223214285714,78.12857142857143,3499.1,535.2223214285714,78.12857142857143,3608.7,535.2223214285714,78.12857142857143,3724,535.2223214285714,78.12857142857143,3839.3,535.2223214285714,78.12857142857143,3950,535.2223214285714,78.12857142857143,4057.7,535.2223214285714,78.12857142857143,4159.2,535.2223214285714,78.12857142857143,4261.7,535.2223214285714,78.12857142857143,4382.6,535.2223214285714,78.12857142857143,4484.8,535.2223214285714,78.12857142857143,4586.2,535.2223214285714,78.12857142857143,4691.6,535.2223214285714,78.12857142857143,4799.2,535.2223214285714,78.12857142857143,4908.4]","[4968.2,4968.2,2397.9,2011,559.5,""smooth"",""up"",""up"",""good_move"",9218.8,4243.8,2057.9,4975.1,2185.9,""oops"",""up"",""up"",""good_move"",13635.8,4412.1,2966.9,9223.7,1445.2,""smooth"",""up"",""up"",""good_move"",21105.6,7464.6,2017.6,18610,478,""oops"",""right"",""right"",""good_move"",24535.1,3427.3,2849.8,21107.8,577.5,""oops"",""right"",""right"",""good_move"",27923.2,3382.4,2871.1,24540.8,511.7,""smooth"",""right"",""right"",""good_move""]"
"4164","","<div style=""width:500px;"">
  <p>What determined the result of this run?</p>
  </div>","91","html-slider-response","39","658094","0.0-7.0-1.5","227","1","2025-08-07 08:48:31","36c45c0696341be0efffe67d72a12abb","102.66.141.23","Mozilla/5.0 (Windows NT 10.0; Win64; x64) AppleWebKit/537.36 (KHTML, like Gecko) Chrome/138.0.0.0 Safari/537.36","WebKit","Chrome","138.0.0.0","Windows","10.0","https://app.prolific.com/","en-US,en;q=0.9","60f41ae35227aa02240ba0d9","6877649eabb845cf142cd221","689468433993915f5b6d4841","1","60f41ae35227aa02240ba0d9","1","2025-08-07T08:59:54.397Z","","","","AttribQ","","","","","","","","","","","50","","","","","","","","","","","","","","","","","","","","","","","","","","",""
"4073","","<div style=""width:500px;"">
  <p>How much control did you have over the ball?</p>
  </div>","84","html-slider-response","40","662181","0.0-7.0-2.5","227","1","2025-08-07 08:48:31","36c45c0696341be0efffe67d72a12abb","102.66.141.23","Mozilla/5.0 (Windows NT 10.0; Win64; x64) AppleWebKit/537.36 (KHTML, like Gecko) Chrome/138.0.0.0 Safari/537.36","WebKit","Chrome","138.0.0.0","Windows","10.0","https://app.prolific.com/","en-US,en;q=0.9","60f41ae35227aa02240ba0d9","6877649eabb845cf142cd221","689468433993915f5b6d4841","1","60f41ae35227aa02240ba0d9","1","2025-08-07T08:59:58.484Z","","","","ControlQ","","","","","","","","","","","50","","","","","","","","","","","","","","","","","","","","","","","","","","",""
"4609","","<div style=""width:500px;"">
  <p>How would you describe your current emotional state?</p>
  </div>","21","html-slider-response","41","666800","0.0-7.0-3.5","227","1","2025-08-07 08:48:31","36c45c0696341be0efffe67d72a12abb","102.66.141.23","Mozilla/5.0 (Windows NT 10.0; Win64; x64) AppleWebKit/537.36 (KHTML, like Gecko) Chrome/138.0.0.0 Safari/537.36","WebKit","Chrome","138.0.0.0","Windows","10.0","https://app.prolific.com/","en-US,en;q=0.9","60f41ae35227aa02240ba0d9","6877649eabb845cf142cd221","689468433993915f5b6d4841","1","60f41ae35227aa02240ba0d9","1","2025-08-07T09:00:03.104Z","","","","StressQ","","","","","","","","","","","50","","","","","","","","","","","","","","","","","","","","","","","","","","",""
"3404","","<div style=""width:500px;"">
  <p>What best describes how you currently feel?</p>
  </div>","85","html-slider-response","42","670215","0.0-7.0-4.5","227","1","2025-08-07 08:48:31","36c45c0696341be0efffe67d72a12abb","102.66.141.23","Mozilla/5.0 (Windows NT 10.0; Win64; x64) AppleWebKit/537.36 (KHTML, like Gecko) Chrome/138.0.0.0 Safari/537.36","WebKit","Chrome","138.0.0.0","Windows","10.0","https://app.prolific.com/","en-US,en;q=0.9","60f41ae35227aa02240ba0d9","6877649eabb845cf142cd221","689468433993915f5b6d4841","1","60f41ae35227aa02240ba0d9","1","2025-08-07T09:00:06.517Z","","","","MotivationQ","","","","","","","","","","","50","","","","","","","","","","","","","","","","","","","","","","","","","","",""
"","","","","ctl-task-cpt","43","735337","0.0-7.0-0.6","227","1","2025-08-07 08:48:31","36c45c0696341be0efffe67d72a12abb","102.66.141.23","Mozilla/5.0 (Windows NT 10.0; Win64; x64) AppleWebKit/537.36 (KHTML, like Gecko) Chrome/138.0.0.0 Safari/537.36","WebKit","Chrome","138.0.0.0","Windows","10.0","https://app.prolific.com/","en-US,en;q=0.9","60f41ae35227aa02240ba0d9","6877649eabb845cf142cd221","689468433993915f5b6d4841","1","60f41ae35227aa02240ba0d9","1","2025-08-07T09:01:11.640Z","","","","","","","","","","","","","","","","win-only","3","g1:SW,g2:NE","0.4","7","0","696064.1","2024.1","7046.7","62064.1","1","4","8","6","2","8","8","44","36","0.3333333333333333","1439.5","3000","1860","[""up"",""right""]","{""num_key_presses"":10,""num_perfect"":4,""num_errors"":0,""num_randdir"":6,""num_randdir_good_moves"":4,""num_whilered"":0,""num_whileblue"":0,""num_blue"":5,""num_good_moves"":8}","[294.22232142857143,301.12857142857143,3.1,294.22232142857143,301.12857142857143,111.8,294.22232142857143,301.12857142857143,245.8,294.22232142857143,301.12857142857143,350.6,265.22232142857143,307.12857142857143,460.5,404.22232142857143,127.12857142857143,591.3,638.2223214285714,22.128571428571426,714.2,679.2223214285714,13.128571428571426,826.6,664.2223214285714,13.128571428571426,929.7,574.2223214285714,55.128571428571426,1063,542.2223214285714,68.12857142857143,1165.2,542.2223214285714,68.12857142857143,1286.6,542.2223214285714,68.12857142857143,1397.3,542.2223214285714,68.12857142857143,1520.4,542.2223214285714,68.12857142857143,1647.8,542.2223214285714,68.12857142857143,1750.2,542.2223214285714,68.12857142857143,1853.5,542.2223214285714,68.12857142857143,1978.5,542.2223214285714,68.12857142857143,2092,542.2223214285714,68.12857142857143,2204.5,525.2223214285714,86.12857142857143,2330,453.22232142857143,192.12857142857143,2444.7,418.22232142857143,260.12857142857143,2554.8,418.22232142857143,260.12857142857143,2656.1,418.22232142857143,260.12857142857143,2757.4,418.22232142857143,260.12857142857143,2871.7,418.22232142857143,260.12857142857143,2973.7,418.22232142857143,260.12857142857143,3086,418.22232142857143,260.12857142857143,3193.2,418.22232142857143,260.12857142857143,3297.2,418.22232142857143,260.12857142857143,3407.8,418.22232142857143,260.12857142857143,3513.3,418.22232142857143,260.12857142857143,3619.7,418.22232142857143,260.12857142857143,3733.2,418.22232142857143,260.12857142857143,3843.2,418.22232142857143,260.12857142857143,3961,418.22232142857143,260.12857142857143,4064.3,418.22232142857143,260.12857142857143,4171,418.22232142857143,260.12857142857143,4281.7,418.22232142857143,260.12857142857143,4400,418.22232142857143,260.12857142857143,4522.8,418.22232142857143,260.12857142857143,4627.8,418.22232142857143,260.12857142857143,4737.6,418.22232142857143,260.12857142857143,4841.1,418.22232142857143,260.12857142857143,4945.8]","[8565.6,8565.6,2118.2,5887.9,559.5,""oops"",""up"",""up"",""good_move"",12765.7,4192.9,1845.4,8572.9,2347.4,""oops"",""up"",""right"",""good_move"",16284,3516,2960.7,12768.1,555.3,""smooth"",""up"",""up"",""good_move"",21327.4,5036.6,2629.6,16290.8,2407,""oops"",""up"",""right"",""good_move"",28556.6,7221,3378.9,24607.9,569.8,""oops"",""up"",""down"",""bad_move"",35122.9,6564.2,2326.5,32277.9,518.7,""smooth"",""up"",""up"",""good_move"",42579.7,7450.4,2809.3,39250,520.5,""oops"",""up"",""left"",""bad_move"",46849.8,4264.9,2377.6,42585.1,1887.3,""smooth"",""up"",""up"",""good_move"",51756.2,4901.2,3113.1,46855,1788.1,""smooth"",""right"",""right"",""good_move"",54600.5,2825.4,2342.2,51775.2,483.1,""oops"",""right"",""right"",""good_move""]"
"4260","","<div style=""width:500px;"">
  <p>What determined the result of this run?</p>
  </div>","89","html-slider-response","44","739622","0.0-7.0-1.6","227","1","2025-08-07 08:48:31","36c45c0696341be0efffe67d72a12abb","102.66.141.23","Mozilla/5.0 (Windows NT 10.0; Win64; x64) AppleWebKit/537.36 (KHTML, like Gecko) Chrome/138.0.0.0 Safari/537.36","WebKit","Chrome","138.0.0.0","Windows","10.0","https://app.prolific.com/","en-US,en;q=0.9","60f41ae35227aa02240ba0d9","6877649eabb845cf142cd221","689468433993915f5b6d4841","1","60f41ae35227aa02240ba0d9","1","2025-08-07T09:01:15.924Z","","","","AttribQ","","","","","","","","","","","50","","","","","","","","","","","","","","","","","","","","","","","","","","",""
"4251","","<div style=""width:500px;"">
  <p>How much control did you have over the ball?</p>
  </div>","41","html-slider-response","45","743885","0.0-7.0-2.6","227","1","2025-08-07 08:48:31","36c45c0696341be0efffe67d72a12abb","102.66.141.23","Mozilla/5.0 (Windows NT 10.0; Win64; x64) AppleWebKit/537.36 (KHTML, like Gecko) Chrome/138.0.0.0 Safari/537.36","WebKit","Chrome","138.0.0.0","Windows","10.0","https://app.prolific.com/","en-US,en;q=0.9","60f41ae35227aa02240ba0d9","6877649eabb845cf142cd221","689468433993915f5b6d4841","1","60f41ae35227aa02240ba0d9","1","2025-08-07T09:01:20.187Z","","","","ControlQ","","","","","","","","","","","50","","","","","","","","","","","","","","","","","","","","","","","","","","",""
"4349","","<div style=""width:500px;"">
  <p>How would you describe your current emotional state?</p>
  </div>","17","html-slider-response","46","748246","0.0-7.0-3.6","227","1","2025-08-07 08:48:31","36c45c0696341be0efffe67d72a12abb","102.66.141.23","Mozilla/5.0 (Windows NT 10.0; Win64; x64) AppleWebKit/537.36 (KHTML, like Gecko) Chrome/138.0.0.0 Safari/537.36","WebKit","Chrome","138.0.0.0","Windows","10.0","https://app.prolific.com/","en-US,en;q=0.9","60f41ae35227aa02240ba0d9","6877649eabb845cf142cd221","689468433993915f5b6d4841","1","60f41ae35227aa02240ba0d9","1","2025-08-07T09:01:24.548Z","","","","StressQ","","","","","","","","","","","50","","","","","","","","","","","","","","","","","","","","","","","","","","",""
"3970","","<div style=""width:500px;"">
  <p>What best describes how you currently feel?</p>
  </div>","89","html-slider-response","47","752235","0.0-7.0-4.6","227","1","2025-08-07 08:48:31","36c45c0696341be0efffe67d72a12abb","102.66.141.23","Mozilla/5.0 (Windows NT 10.0; Win64; x64) AppleWebKit/537.36 (KHTML, like Gecko) Chrome/138.0.0.0 Safari/537.36","WebKit","Chrome","138.0.0.0","Windows","10.0","https://app.prolific.com/","en-US,en;q=0.9","60f41ae35227aa02240ba0d9","6877649eabb845cf142cd221","689468433993915f5b6d4841","1","60f41ae35227aa02240ba0d9","1","2025-08-07T09:01:28.537Z","","","","MotivationQ","","","","","","","","","","","50","","","","","","","","","","","","","","","","","","","","","","","","","","",""
"","","","","ctl-task-cpt","48","826104","0.0-7.0-0.7","227","1","2025-08-07 08:48:31","36c45c0696341be0efffe67d72a12abb","102.66.141.23","Mozilla/5.0 (Windows NT 10.0; Win64; x64) AppleWebKit/537.36 (KHTML, like Gecko) Chrome/138.0.0.0 Safari/537.36","WebKit","Chrome","138.0.0.0","Windows","10.0","https://app.prolific.com/","en-US,en;q=0.9","60f41ae35227aa02240ba0d9","6877649eabb845cf142cd221","689468433993915f5b6d4841","1","60f41ae35227aa02240ba0d9","1","2025-08-07T09:02:42.407Z","","","","","","","","","","","","","","","","win-only","1","g1:NE,g2:SW","0.3","8","0","778080","2402.3","7426","70820","1","4","4","6","2","4","3","47","44","0.3560606060606061","1615.9","3000","1540","[""down"",""left""]","{""num_key_presses"":14,""num_perfect"":5,""num_errors"":1,""num_randdir"":8,""num_randdir_good_moves"":5,""num_whilered"":0,""num_whileblue"":1,""num_blue"":3,""num_good_moves"":10}","[295.22232142857143,298.12857142857143,1.7,295.22232142857143,298.12857142857143,180.3,295.22232142857143,298.12857142857143,291.8,295.22232142857143,298.12857142857143,414.8,285.22232142857143,307.12857142857143,517.3,138.22232142857143,436.12857142857143,617.7,132.22232142857143,444.12857142857143,730.4,132.22232142857143,444.12857142857143,833.4,59.222321428571426,510.12857142857143,961.6,52.222321428571426,514.1285714285714,1068.6,52.222321428571426,514.1285714285714,1185.2,50.222321428571426,521.1285714285714,1286.4,50.222321428571426,525.1285714285714,1394.5,50.222321428571426,525.1285714285714,1495.8,50.222321428571426,525.1285714285714,1605.1,50.222321428571426,525.1285714285714,1718.1,50.222321428571426,525.1285714285714,1823.7,50.222321428571426,525.1285714285714,1924.9,50.222321428571426,525.1285714285714,2042.4,50.222321428571426,525.1285714285714,2142.6,50.222321428571426,525.1285714285714,2255.1,50.222321428571426,525.1285714285714,2382.5,50.222321428571426,525.1285714285714,2513.8,50.222321428571426,525.1285714285714,2644.4,50.222321428571426,525.1285714285714,2771.7,50.222321428571426,525.1285714285714,2881.6,50.222321428571426,525.1285714285714,2984.5,50.222321428571426,525.1285714285714,3105.3,50.222321428571426,525.1285714285714,3209.2,50.222321428571426,525.1285714285714,3326.9,50.222321428571426,525.1285714285714,3446.5,50.222321428571426,525.1285714285714,3567.2,50.222321428571426,525.1285714285714,3684.3,50.222321428571426,525.1285714285714,3798.1,50.222321428571426,525.1285714285714,3914.8,50.222321428571426,525.1285714285714,4033.6,50.222321428571426,525.1285714285714,4163,50.222321428571426,525.1285714285714,4277.4,50.222321428571426,525.1285714285714,4380.9,50.222321428571426,525.1285714285714,4494.4,50.222321428571426,525.1285714285714,4595.7,50.222321428571426,525.1285714285714,4709.7,50.222321428571426,525.1285714285714,4816.8,50.222321428571426,525.1285714285714,4919]","[1650.6,1650.6,1000,0,650.6,""smooth"",""down"",""down"",""good_move"",3591.7,1935.7,1373.2,1656,562.5,""oops"",""down"",""down"",""good_move"",5684.5,2078.2,1545.9,3606.3,532.3,""oops"",""down"",""right"",""bad_move"",8931.9,3242,2768.1,5689.9,473.9,""smooth"",""down"",""down"",""good_move"",12531.1,3593.1,3056.5,8938.1,536.6,""oops"",""left"",""up"",""bad_move"",18336.1,5794.6,5336.7,12541.6,457.9,""while_blue"",""down"",""up"",""bad_move"",28403.9,10062.7,2653.3,25099.5,651.1,""oops"",""down"",""down"",""good_move"",30993.7,2538.8,2002.6,28455.2,536.1,""oops"",""down"",""down"",""good_move"",34440.5,3446.4,2930,30994.1,516.4,""oops"",""left"",""left"",""good_move"",39462.8,5019.9,2873.4,34443,2146.5,""oops"",""left"",""up"",""bad_move"",44500.2,5036.8,2615.9,39463.5,2421,""smooth"",""left"",""left"",""good_move"",50150.1,5643.3,2335.8,44506.8,3307.5,""oops"",""left"",""left"",""good_move"",58200.8,8043.2,2871,54858,471.8,""smooth"",""left"",""left"",""good_move"",62923.1,4720.9,2835,58202.2,1885.9,""smooth"",""down"",""down"",""good_move""]"
"5694","","<div style=""width:500px;"">
  <p>What determined the result of this run?</p>
  </div>","88","html-slider-response","49","831809","0.0-7.0-1.7","227","1","2025-08-07 08:48:31","36c45c0696341be0efffe67d72a12abb","102.66.141.23","Mozilla/5.0 (Windows NT 10.0; Win64; x64) AppleWebKit/537.36 (KHTML, like Gecko) Chrome/138.0.0.0 Safari/537.36","WebKit","Chrome","138.0.0.0","Windows","10.0","https://app.prolific.com/","en-US,en;q=0.9","60f41ae35227aa02240ba0d9","6877649eabb845cf142cd221","689468433993915f5b6d4841","1","60f41ae35227aa02240ba0d9","1","2025-08-07T09:02:48.112Z","","","","AttribQ","","","","","","","","","","","50","","","","","","","","","","","","","","","","","","","","","","","","","","",""
"5372","","<div style=""width:500px;"">
  <p>How much control did you have over the ball?</p>
  </div>","44","html-slider-response","50","837206","0.0-7.0-2.7","227","1","2025-08-07 08:48:31","36c45c0696341be0efffe67d72a12abb","102.66.141.23","Mozilla/5.0 (Windows NT 10.0; Win64; x64) AppleWebKit/537.36 (KHTML, like Gecko) Chrome/138.0.0.0 Safari/537.36","WebKit","Chrome","138.0.0.0","Windows","10.0","https://app.prolific.com/","en-US,en;q=0.9","60f41ae35227aa02240ba0d9","6877649eabb845cf142cd221","689468433993915f5b6d4841","1","60f41ae35227aa02240ba0d9","1","2025-08-07T09:02:53.508Z","","","","ControlQ","","","","","","","","","","","50","","","","","","","","","","","","","","","","","","","","","","","","","","",""
"5180","","<div style=""width:500px;"">
  <p>How would you describe your current emotional state?</p>
  </div>","17","html-slider-response","51","842394","0.0-7.0-3.7","227","1","2025-08-07 08:48:31","36c45c0696341be0efffe67d72a12abb","102.66.141.23","Mozilla/5.0 (Windows NT 10.0; Win64; x64) AppleWebKit/537.36 (KHTML, like Gecko) Chrome/138.0.0.0 Safari/537.36","WebKit","Chrome","138.0.0.0","Windows","10.0","https://app.prolific.com/","en-US,en;q=0.9","60f41ae35227aa02240ba0d9","6877649eabb845cf142cd221","689468433993915f5b6d4841","1","60f41ae35227aa02240ba0d9","1","2025-08-07T09:02:58.698Z","","","","StressQ","","","","","","","","","","","50","","","","","","","","","","","","","","","","","","","","","","","","","","",""
"5809","","<div style=""width:500px;"">
  <p>What best describes how you currently feel?</p>
  </div>","83","html-slider-response","52","848215","0.0-7.0-4.7","227","1","2025-08-07 08:48:31","36c45c0696341be0efffe67d72a12abb","102.66.141.23","Mozilla/5.0 (Windows NT 10.0; Win64; x64) AppleWebKit/537.36 (KHTML, like Gecko) Chrome/138.0.0.0 Safari/537.36","WebKit","Chrome","138.0.0.0","Windows","10.0","https://app.prolific.com/","en-US,en;q=0.9","60f41ae35227aa02240ba0d9","6877649eabb845cf142cd221","689468433993915f5b6d4841","1","60f41ae35227aa02240ba0d9","1","2025-08-07T09:03:04.518Z","","","","MotivationQ","","","","","","","","","","","50","","","","","","","","","","","","","","","","","","","","","","","","","","",""
"","","","","ctl-task-cpt","53","930728","0.0-7.0-0.8","227","1","2025-08-07 08:48:31","36c45c0696341be0efffe67d72a12abb","102.66.141.23","Mozilla/5.0 (Windows NT 10.0; Win64; x64) AppleWebKit/537.36 (KHTML, like Gecko) Chrome/138.0.0.0 Safari/537.36","WebKit","Chrome","138.0.0.0","Windows","10.0","https://app.prolific.com/","en-US,en;q=0.9","60f41ae35227aa02240ba0d9","6877649eabb845cf142cd221","689468433993915f5b6d4841","1","60f41ae35227aa02240ba0d9","1","2025-08-07T09:04:27.031Z","","","","","","","","","","","","","","","","win-only","0","g1:NW,g2:SE","0.4","9","0","874059.8","1878.5","6892.2","79454.7","1","4","8","6","2","8","8","55","47","0.4166666666666667","1473","3000","1255","[""down"",""right""]","{""num_key_presses"":16,""num_perfect"":8,""num_errors"":0,""num_randdir"":8,""num_randdir_good_moves"":3,""num_whilered"":0,""num_whileblue"":0,""num_blue"":4,""num_good_moves"":11}","[293.22232142857143,293.12857142857143,0.6,293.22232142857143,293.12857142857143,140.6,293.22232142857143,293.12857142857143,257.9,293.22232142857143,293.12857142857143,374.8,293.22232142857143,293.12857142857143,491.4,306.22232142857143,296.12857142857143,622.8,393.22232142857143,344.12857142857143,725.7,518.2223214285714,518.1285714285714,845.9,570.2223214285714,556.1285714285714,966.6,568.2223214285714,561.1285714285714,1075.8,555.2223214285714,561.1285714285714,1188.3,555.2223214285714,561.1285714285714,1302,555.2223214285714,561.1285714285714,1421.6,555.2223214285714,561.1285714285714,1536.5,555.2223214285714,561.1285714285714,1652,555.2223214285714,561.1285714285714,1772.1,555.2223214285714,561.1285714285714,1880.5,555.2223214285714,561.1285714285714,1991.1,555.2223214285714,561.1285714285714,2093.7,555.2223214285714,561.1285714285714,2208.5,555.2223214285714,561.1285714285714,2321.5,555.2223214285714,561.1285714285714,2432,567.2223214285714,505.12857142857143,2534.2,745.2223214285714,171.12857142857143,2669.1,746.2223214285714,171.12857142857143,2771.3,746.2223214285714,171.12857142857143,2876.5,746.2223214285714,171.12857142857143,2996.1,746.2223214285714,171.12857142857143,3097.4,746.2223214285714,171.12857142857143,3205.9,746.2223214285714,171.12857142857143,3318.3,746.2223214285714,171.12857142857143,3422,746.2223214285714,171.12857142857143,3536.6,746.2223214285714,171.12857142857143,3656.9,746.2223214285714,171.12857142857143,3774.8,746.2223214285714,171.12857142857143,3886.7,746.2223214285714,171.12857142857143,4001.6,746.2223214285714,171.12857142857143,4113.3,746.2223214285714,171.12857142857143,4225.1,746.2223214285714,171.12857142857143,4337,746.2223214285714,171.12857142857143,4450.8,746.2223214285714,171.12857142857143,4568.4,746.2223214285714,171.12857142857143,4687.8,746.2223214285714,171.12857142857143,4800.7,746.2223214285714,171.12857142857143,4903.9]","[1605.9,1605.9,1000,0,605.9,""oops"",""down"",""down"",""good_move"",5005.8,3396.9,2856,1608.9,540.9,""oops"",""down"",""up"",""bad_move"",12188.4,7177.4,2216.3,5011.3,4961.1,""oops"",""down"",""left"",""bad_move"",16647.4,4452.7,2692.6,12194.7,1760.1,""smooth"",""down"",""down"",""good_move"",26330.9,9679.4,2087.1,23676.3,567.6,""smooth"",""down"",""down"",""good_move"",29639.2,3303.2,2728.8,26336,574.4,""smooth"",""down"",""down"",""good_move"",33063.2,3419.7,2931.4,29643.5,488.4,""oops"",""right"",""right"",""good_move"",35493.4,2424.6,1770.8,33068.8,653.8,""smooth"",""right"",""right"",""good_move"",38217.4,2709.9,2240.5,35507.6,469.3,""oops"",""right"",""right"",""good_move"",40283.6,2063.3,1322.1,38220.4,741.1,""oops"",""right"",""left"",""bad_move"",48864.3,8575.5,2454.4,45767.2,642.7,""oops"",""right"",""up"",""bad_move"",52990.2,4120.1,2479.2,48870.1,1640.9,""smooth"",""right"",""right"",""good_move"",56488,3489.3,2912.1,52998.8,577.2,""oops"",""right"",""up"",""bad_move"",61454.4,4958.6,2198.2,56495.8,2760.4,""smooth"",""down"",""down"",""good_move"",64768.6,3307.6,2773.6,61461,534,""smooth"",""down"",""down"",""good_move"",72053.8,7283.2,2923.2,68617.4,513.2,""smooth"",""right"",""right"",""good_move""]"
"10041","","<div style=""width:500px;"">
  <p>What determined the result of this run?</p>
  </div>","85","html-slider-response","54","940779","0.0-7.0-1.8","227","1","2025-08-07 08:48:31","36c45c0696341be0efffe67d72a12abb","102.66.141.23","Mozilla/5.0 (Windows NT 10.0; Win64; x64) AppleWebKit/537.36 (KHTML, like Gecko) Chrome/138.0.0.0 Safari/537.36","WebKit","Chrome","138.0.0.0","Windows","10.0","https://app.prolific.com/","en-US,en;q=0.9","60f41ae35227aa02240ba0d9","6877649eabb845cf142cd221","689468433993915f5b6d4841","1","60f41ae35227aa02240ba0d9","1","2025-08-07T09:04:37.081Z","","","","AttribQ","","","","","","","","","","","50","","","","","","","","","","","","","","","","","","","","","","","","","","",""
"14997","","<div style=""width:500px;"">
  <p>How much control did you have over the ball?</p>
  </div>","78","html-slider-response","55","955786","0.0-7.0-2.8","227","1","2025-08-07 08:48:31","36c45c0696341be0efffe67d72a12abb","102.66.141.23","Mozilla/5.0 (Windows NT 10.0; Win64; x64) AppleWebKit/537.36 (KHTML, like Gecko) Chrome/138.0.0.0 Safari/537.36","WebKit","Chrome","138.0.0.0","Windows","10.0","https://app.prolific.com/","en-US,en;q=0.9","60f41ae35227aa02240ba0d9","6877649eabb845cf142cd221","689468433993915f5b6d4841","1","60f41ae35227aa02240ba0d9","1","2025-08-07T09:04:52.092Z","","","","ControlQ","","","","","","","","","","","50","","","","","","","","","","","","","","","","","","","","","","","","","","",""
"6452","","<div style=""width:500px;"">
  <p>How would you describe your current emotional state?</p>
  </div>","21","html-slider-response","56","962251","0.0-7.0-3.8","227","1","2025-08-07 08:48:31","36c45c0696341be0efffe67d72a12abb","102.66.141.23","Mozilla/5.0 (Windows NT 10.0; Win64; x64) AppleWebKit/537.36 (KHTML, like Gecko) Chrome/138.0.0.0 Safari/537.36","WebKit","Chrome","138.0.0.0","Windows","10.0","https://app.prolific.com/","en-US,en;q=0.9","60f41ae35227aa02240ba0d9","6877649eabb845cf142cd221","689468433993915f5b6d4841","1","60f41ae35227aa02240ba0d9","1","2025-08-07T09:04:58.554Z","","","","StressQ","","","","","","","","","","","50","","","","","","","","","","","","","","","","","","","","","","","","","","",""
"5978","","<div style=""width:500px;"">
  <p>What best describes how you currently feel?</p>
  </div>","86","html-slider-response","57","968241","0.0-7.0-4.8","227","1","2025-08-07 08:48:31","36c45c0696341be0efffe67d72a12abb","102.66.141.23","Mozilla/5.0 (Windows NT 10.0; Win64; x64) AppleWebKit/537.36 (KHTML, like Gecko) Chrome/138.0.0.0 Safari/537.36","WebKit","Chrome","138.0.0.0","Windows","10.0","https://app.prolific.com/","en-US,en;q=0.9","60f41ae35227aa02240ba0d9","6877649eabb845cf142cd221","689468433993915f5b6d4841","1","60f41ae35227aa02240ba0d9","1","2025-08-07T09:05:04.543Z","","","","MotivationQ","","","","","","","","","","","50","","","","","","","","","","","","","","","","","","","","","","","","","","",""
"","","","","ctl-task-cpt","58","1021280","0.0-7.0-0.9","227","1","2025-08-07 08:48:31","36c45c0696341be0efffe67d72a12abb","102.66.141.23","Mozilla/5.0 (Windows NT 10.0; Win64; x64) AppleWebKit/537.36 (KHTML, like Gecko) Chrome/138.0.0.0 Safari/537.36","WebKit","Chrome","138.0.0.0","Windows","10.0","https://app.prolific.com/","en-US,en;q=0.9","60f41ae35227aa02240ba0d9","6877649eabb845cf142cd221","689468433993915f5b6d4841","1","60f41ae35227aa02240ba0d9","1","2025-08-07T09:05:57.583Z","","","","","","","","","","","","","","","","win-only","0","g1:NW,g2:SE","0.5","10","0","994081.2","24219.8","29222.4","49906.5","1","4","4","6","2","4","4","59","55","0.44696969696969696","2081.2","3000","2490","[""down"",""right""]","{""num_key_presses"":6,""num_perfect"":3,""num_errors"":0,""num_randdir"":3,""num_randdir_good_moves"":3,""num_whilered"":0,""num_whileblue"":0,""num_blue"":1,""num_good_moves"":6}","[296.22232142857143,296.12857142857143,2.1,296.22232142857143,296.12857142857143,107.2,296.22232142857143,296.12857142857143,227.7,296.22232142857143,296.12857142857143,334.3,296.22232142857143,296.12857142857143,471.1,296.22232142857143,296.12857142857143,607.9,244.22232142857143,270.12857142857143,743.3,391.22232142857143,326.12857142857143,851,450.22232142857143,421.12857142857143,961.6,465.22232142857143,465.12857142857143,1097.2,465.22232142857143,465.12857142857143,1229.3,478.22232142857143,473.12857142857143,1379.6,520.2223214285714,504.12857142857143,1499.7,535.2223214285714,516.1285714285714,1637.4,539.2223214285714,535.1285714285714,1851.9,538.2223214285714,536.1285714285714,1992.4,538.2223214285714,536.1285714285714,2095.5,538.2223214285714,536.1285714285714,2197.9,538.2223214285714,536.1285714285714,2332.7,538.2223214285714,536.1285714285714,2485.8,538.2223214285714,536.1285714285714,2595.9,538.2223214285714,536.1285714285714,2794.1,538.2223214285714,536.1285714285714,2928.9,538.2223214285714,536.1285714285714,3036.8,538.2223214285714,536.1285714285714,3155.9,538.2223214285714,536.1285714285714,3265.9,538.2223214285714,536.1285714285714,3376.6,538.2223214285714,536.1285714285714,3522.1,538.2223214285714,536.1285714285714,3628.4,538.2223214285714,536.1285714285714,3740.8,538.2223214285714,536.1285714285714,3863.6,538.2223214285714,536.1285714285714,3981.3,538.2223214285714,536.1285714285714,4110.6,538.2223214285714,536.1285714285714,4237.3,538.2223214285714,536.1285714285714,4355.3,538.2223214285714,536.1285714285714,4466.8,538.2223214285714,536.1285714285714,4597.6,538.2223214285714,536.1285714285714,4714.2,538.2223214285714,536.1285714285714,4825.1,538.2223214285714,536.1285714285714,4931.3]","[1565.7,1565.8,1000,0,565.8,""oops"",""down"",""right"",""good_move"",4741.2,3173.2,2547.6,1568.1,625.6,""smooth"",""down"",""down"",""good_move"",7750.7,3003.8,2457.4,4747,546.4,""oops"",""down"",""down"",""good_move"",10660.4,2902.1,2415.5,7758.5,486.5,""smooth"",""down"",""down"",""good_move"",13588.7,2923.5,2320.6,10665.2,603,""smooth"",""right"",""right"",""good_move"",20047.5,6453.2,3073.7,16445.9,527.9,""oops"",""right"",""right"",""good_move""]"
"5284","","<div style=""width:500px;"">
  <p>What determined the result of this run?</p>
  </div>","85","html-slider-response","59","1026587","0.0-7.0-1.9","227","1","2025-08-07 08:48:31","36c45c0696341be0efffe67d72a12abb","102.66.141.23","Mozilla/5.0 (Windows NT 10.0; Win64; x64) AppleWebKit/537.36 (KHTML, like Gecko) Chrome/138.0.0.0 Safari/537.36","WebKit","Chrome","138.0.0.0","Windows","10.0","https://app.prolific.com/","en-US,en;q=0.9","60f41ae35227aa02240ba0d9","6877649eabb845cf142cd221","689468433993915f5b6d4841","1","60f41ae35227aa02240ba0d9","1","2025-08-07T09:06:02.890Z","","","","AttribQ","","","","","","","","","","","50","","","","","","","","","","","","","","","","","","","","","","","","","","",""
"15500","","<div style=""width:500px;"">
  <p>How much control did you have over the ball?</p>
  </div>","81","html-slider-response","60","1042095","0.0-7.0-2.9","227","1","2025-08-07 08:48:31","36c45c0696341be0efffe67d72a12abb","102.66.141.23","Mozilla/5.0 (Windows NT 10.0; Win64; x64) AppleWebKit/537.36 (KHTML, like Gecko) Chrome/138.0.0.0 Safari/537.36","WebKit","Chrome","138.0.0.0","Windows","10.0","https://app.prolific.com/","en-US,en;q=0.9","60f41ae35227aa02240ba0d9","6877649eabb845cf142cd221","689468433993915f5b6d4841","1","60f41ae35227aa02240ba0d9","1","2025-08-07T09:06:18.399Z","","","","ControlQ","","","","","","","","","","","50","","","","","","","","","","","","","","","","","","","","","","","","","","",""
"5787","","<div style=""width:500px;"">
  <p>How would you describe your current emotional state?</p>
  </div>","22","html-slider-response","61","1047896","0.0-7.0-3.9","227","1","2025-08-07 08:48:31","36c45c0696341be0efffe67d72a12abb","102.66.141.23","Mozilla/5.0 (Windows NT 10.0; Win64; x64) AppleWebKit/537.36 (KHTML, like Gecko) Chrome/138.0.0.0 Safari/537.36","WebKit","Chrome","138.0.0.0","Windows","10.0","https://app.prolific.com/","en-US,en;q=0.9","60f41ae35227aa02240ba0d9","6877649eabb845cf142cd221","689468433993915f5b6d4841","1","60f41ae35227aa02240ba0d9","1","2025-08-07T09:06:24.199Z","","","","StressQ","","","","","","","","","","","50","","","","","","","","","","","","","","","","","","","","","","","","","","",""
"3513","","<div style=""width:500px;"">
  <p>What best describes how you currently feel?</p>
  </div>","80","html-slider-response","62","1051422","0.0-7.0-4.9","227","1","2025-08-07 08:48:31","36c45c0696341be0efffe67d72a12abb","102.66.141.23","Mozilla/5.0 (Windows NT 10.0; Win64; x64) AppleWebKit/537.36 (KHTML, like Gecko) Chrome/138.0.0.0 Safari/537.36","WebKit","Chrome","138.0.0.0","Windows","10.0","https://app.prolific.com/","en-US,en;q=0.9","60f41ae35227aa02240ba0d9","6877649eabb845cf142cd221","689468433993915f5b6d4841","1","60f41ae35227aa02240ba0d9","1","2025-08-07T09:06:27.726Z","","","","MotivationQ","","","","","","","","","","","50","","","","","","","","","","","","","","","","","","","","","","","","","","",""
"","","","","ctl-task-cpt","63","1158474","0.0-7.0-0.10","227","1","2025-08-07 08:48:31","36c45c0696341be0efffe67d72a12abb","102.66.141.23","Mozilla/5.0 (Windows NT 10.0; Win64; x64) AppleWebKit/537.36 (KHTML, like Gecko) Chrome/138.0.0.0 Safari/537.36","WebKit","Chrome","138.0.0.0","Windows","10.0","https://app.prolific.com/","en-US,en;q=0.9","60f41ae35227aa02240ba0d9","6877649eabb845cf142cd221","689468433993915f5b6d4841","1","60f41ae35227aa02240ba0d9","1","2025-08-07T09:08:14.777Z","","","","","","","","","","","","","","","","win-only","2","g1:SE,g2:NW","0.6","11","0","1077264.8","1522.7","6583.8","103974.5","1","4","4","6","2","4","4","63","59","0.4772727272727273","1555.2","3000","1545","[""left"",""up""]","{""num_key_presses"":16,""num_perfect"":10,""num_errors"":0,""num_randdir"":6,""num_randdir_good_moves"":1,""num_whilered"":0,""num_whileblue"":0,""num_blue"":4,""num_good_moves"":11}","[297.22232142857143,297.12857142857143,2.2,297.22232142857143,297.12857142857143,164.4,297.22232142857143,297.12857142857143,311.6,297.22232142857143,297.12857142857143,447.9,297.22232142857143,299.12857142857143,595.3,314.22232142857143,322.12857142857143,743.1,179.22232142857143,274.12857142857143,878,66.22232142857143,128.12857142857143,988.4,55.222321428571426,91.12857142857143,1123.8,60.222321428571426,76.12857142857143,1225.3,60.222321428571426,76.12857142857143,1343.7,60.222321428571426,76.12857142857143,1463.5,60.222321428571426,76.12857142857143,1597.7,60.222321428571426,76.12857142857143,1711.1,60.222321428571426,76.12857142857143,1848.9,60.222321428571426,76.12857142857143,1977.9,60.222321428571426,76.12857142857143,2123.6,60.222321428571426,76.12857142857143,2286.3,97.22232142857143,282.12857142857143,2404,131.22232142857143,380.12857142857143,2520.8,131.22232142857143,380.12857142857143,2638.2,131.22232142857143,380.12857142857143,2757.9,131.22232142857143,380.12857142857143,2866.8,131.22232142857143,380.12857142857143,2977.9,131.22232142857143,380.12857142857143,3094.7,131.22232142857143,380.12857142857143,3200.1,131.22232142857143,380.12857142857143,3339,131.22232142857143,380.12857142857143,3457.4,131.22232142857143,380.12857142857143,3573.6,131.22232142857143,380.12857142857143,3693.6,131.22232142857143,380.12857142857143,3811.7,131.22232142857143,380.12857142857143,3933,131.22232142857143,380.12857142857143,4052.8,131.22232142857143,380.12857142857143,4186.6,131.22232142857143,380.12857142857143,4305.7,131.22232142857143,380.12857142857143,4430.9,131.22232142857143,380.12857142857143,4553.7,131.22232142857143,380.12857142857143,4672.8,131.22232142857143,380.12857142857143,4792.3,131.22232142857143,380.12857142857143,4915.6]","[4878,4878,2301.2,2083.9,492.9,""smooth"",""up"",""up"",""good_move"",12309.6,7430.5,2459.8,4879.1,4970.7,""oops"",""up"",""left"",""good_move"",17516.5,5204.5,1917.4,12312,3287.1,""smooth"",""up"",""up"",""good_move"",23577.2,6050.4,2457.8,17526.9,3592.6,""oops"",""up"",""down"",""bad_move"",27011.6,3428.6,2856.8,23583,571.8,""smooth"",""up"",""up"",""good_move"",32750,5733,3337.1,27017,2395.9,""oops"",""up"",""down"",""bad_move"",36894.9,4143.3,3471.1,32751.7,672.1,""oops"",""up"",""right"",""bad_move"",45999.9,9099.3,2196,43285.3,518.7,""smooth"",""up"",""up"",""good_move"",52783.1,6781.5,1779.4,46001.8,5001.9,""smooth"",""up"",""up"",""good_move"",60774.2,7989.7,2751.3,52784.7,5238.2,""smooth"",""left"",""left"",""good_move"",72407.7,11628.4,3385.8,68444.4,577.5,""smooth"",""left"",""left"",""good_move"",78339.2,5927.6,2116.7,72411.6,3810.9,""oops"",""left"",""right"",""bad_move"",82438.1,4092.6,2972.6,78345.6,1120,""oops"",""left"",""right"",""bad_move"",85413.6,2967.4,2010.2,82446.4,957,""smooth"",""left"",""left"",""good_move"",90887.5,5467.1,2016.8,85420.4,3450.3,""smooth"",""left"",""left"",""good_move"",96800.2,5909.3,1792.8,90891,4116.5,""smooth"",""left"",""left"",""good_move""]"
"4620","","<div style=""width:500px;"">
  <p>What determined the result of this run?</p>
  </div>","87","html-slider-response","64","1163133","0.0-7.0-1.10","227","1","2025-08-07 08:48:31","36c45c0696341be0efffe67d72a12abb","102.66.141.23","Mozilla/5.0 (Windows NT 10.0; Win64; x64) AppleWebKit/537.36 (KHTML, like Gecko) Chrome/138.0.0.0 Safari/537.36","WebKit","Chrome","138.0.0.0","Windows","10.0","https://app.prolific.com/","en-US,en;q=0.9","60f41ae35227aa02240ba0d9","6877649eabb845cf142cd221","689468433993915f5b6d4841","1","60f41ae35227aa02240ba0d9","1","2025-08-07T09:08:19.437Z","","","","AttribQ","","","","","","","","","","","50","","","","","","","","","","","","","","","","","","","","","","","","","","",""
"3934","","<div style=""width:500px;"">
  <p>How much control did you have over the ball?</p>
  </div>","80","html-slider-response","65","1167107","0.0-7.0-2.10","227","1","2025-08-07 08:48:31","36c45c0696341be0efffe67d72a12abb","102.66.141.23","Mozilla/5.0 (Windows NT 10.0; Win64; x64) AppleWebKit/537.36 (KHTML, like Gecko) Chrome/138.0.0.0 Safari/537.36","WebKit","Chrome","138.0.0.0","Windows","10.0","https://app.prolific.com/","en-US,en;q=0.9","60f41ae35227aa02240ba0d9","6877649eabb845cf142cd221","689468433993915f5b6d4841","1","60f41ae35227aa02240ba0d9","1","2025-08-07T09:08:23.409Z","","","","ControlQ","","","","","","","","","","","50","","","","","","","","","","","","","","","","","","","","","","","","","","",""
"4733","","<div style=""width:500px;"">
  <p>How would you describe your current emotional state?</p>
  </div>","23","html-slider-response","66","1171850","0.0-7.0-3.10","227","1","2025-08-07 08:48:31","36c45c0696341be0efffe67d72a12abb","102.66.141.23","Mozilla/5.0 (Windows NT 10.0; Win64; x64) AppleWebKit/537.36 (KHTML, like Gecko) Chrome/138.0.0.0 Safari/537.36","WebKit","Chrome","138.0.0.0","Windows","10.0","https://app.prolific.com/","en-US,en;q=0.9","60f41ae35227aa02240ba0d9","6877649eabb845cf142cd221","689468433993915f5b6d4841","1","60f41ae35227aa02240ba0d9","1","2025-08-07T09:08:28.153Z","","","","StressQ","","","","","","","","","","","50","","","","","","","","","","","","","","","","","","","","","","","","","","",""
"4031","","<div style=""width:500px;"">
  <p>What best describes how you currently feel?</p>
  </div>","77","html-slider-response","67","1175893","0.0-7.0-4.10","227","1","2025-08-07 08:48:31","36c45c0696341be0efffe67d72a12abb","102.66.141.23","Mozilla/5.0 (Windows NT 10.0; Win64; x64) AppleWebKit/537.36 (KHTML, like Gecko) Chrome/138.0.0.0 Safari/537.36","WebKit","Chrome","138.0.0.0","Windows","10.0","https://app.prolific.com/","en-US,en;q=0.9","60f41ae35227aa02240ba0d9","6877649eabb845cf142cd221","689468433993915f5b6d4841","1","60f41ae35227aa02240ba0d9","1","2025-08-07T09:08:32.197Z","","","","MotivationQ","","","","","","","","","","","50","","","","","","","","","","","","","","","","","","","","","","","","","","",""
"","","","","ctl-task-cpt","68","1245840","0.0-7.0-0.11","227","1","2025-08-07 08:48:31","36c45c0696341be0efffe67d72a12abb","102.66.141.23","Mozilla/5.0 (Windows NT 10.0; Win64; x64) AppleWebKit/537.36 (KHTML, like Gecko) Chrome/138.0.0.0 Safari/537.36","WebKit","Chrome","138.0.0.0","Windows","10.0","https://app.prolific.com/","en-US,en;q=0.9","60f41ae35227aa02240ba0d9","6877649eabb845cf142cd221","689468433993915f5b6d4841","1","60f41ae35227aa02240ba0d9","1","2025-08-07T09:09:42.144Z","","","","","","","","","","","","","","","","win-only","2","g1:SE,g2:NW","0.7","12","0","1201735.7","2496.2","7516.2","66892.9","1","4","8","6","2","8","8","71","63","0.5378787878787878","1585.5","3000","2320","[""left"",""up""]","{""num_key_presses"":8,""num_perfect"":6,""num_errors"":0,""num_randdir"":2,""num_randdir_good_moves"":1,""num_whilered"":0,""num_whileblue"":0,""num_blue"":4,""num_good_moves"":7}","[295.22232142857143,297.12857142857143,0.8,295.22232142857143,297.12857142857143,109.9,295.22232142857143,297.12857142857143,231.3,295.22232142857143,297.12857142857143,332.2,295.22232142857143,297.12857142857143,440.1,295.22232142857143,292.12857142857143,546.7,295.22232142857143,285.12857142857143,649.8,224.22232142857143,190.12857142857143,769.9,119.22232142857143,81.12857142857143,897.3,118.22232142857143,80.12857142857143,1019.2,118.22232142857143,80.12857142857143,1126.1,93.22232142857143,79.12857142857143,1243.4,70.22232142857143,72.12857142857143,1359.1,70.22232142857143,72.12857142857143,1495.9,70.22232142857143,72.12857142857143,1637.4,70.22232142857143,72.12857142857143,1737.8,70.22232142857143,72.12857142857143,1859.6,70.22232142857143,72.12857142857143,1961.6,70.22232142857143,72.12857142857143,2075.1,70.22232142857143,72.12857142857143,2209.4,70.22232142857143,72.12857142857143,2330.2,56.222321428571426,212.12857142857143,2478.8,44.222321428571426,293.12857142857143,2580.9,35.222321428571426,343.12857142857143,2774.2,35.222321428571426,343.12857142857143,2935.1,35.222321428571426,343.12857142857143,3090.2,35.222321428571426,343.12857142857143,3192.3,35.222321428571426,343.12857142857143,3334,35.222321428571426,343.12857142857143,3463.8,35.222321428571426,343.12857142857143,3595,35.222321428571426,343.12857142857143,3709.3,35.222321428571426,343.12857142857143,3814.2,35.222321428571426,343.12857142857143,3927.8,35.222321428571426,343.12857142857143,4054.4,35.222321428571426,343.12857142857143,4188.2,35.222321428571426,343.12857142857143,4292.4,35.222321428571426,343.12857142857143,4416.3,35.222321428571426,343.12857142857143,4520.5,35.222321428571426,343.12857142857143,4635.9,35.222321428571426,343.12857142857143,4740.8,35.222321428571426,343.12857142857143,4842.2,35.222321428571426,343.12857142857143,4946.9]","[1589.2,1589.2,1000,0,589.2,""smooth"",""up"",""up"",""good_move"",11960.4,10356.9,3243.6,8073.8,643,""oops"",""up"",""down"",""bad_move"",19791.6,7824.1,3210.4,16055.7,525.5,""smooth"",""up"",""up"",""good_move"",25419.5,5624.7,2923.4,19794.9,2701.3,""smooth"",""up"",""up"",""good_move"",31356.4,5931.6,2492.3,25424.8,3439.4,""smooth"",""up"",""up"",""good_move"",37908.4,6550.6,3543.8,31357.9,3006.7,""smooth"",""left"",""left"",""good_move"",49370.2,11451.7,2992.5,45730,647.7,""oops"",""left"",""left"",""good_move"",58678.9,9304.5,2041.2,55970.3,667.4,""smooth"",""left"",""left"",""good_move""]"
"10875","","<div style=""width:500px;"">
  <p>What determined the result of this run?</p>
  </div>","80","html-slider-response","69","1256744","0.0-7.0-1.11","227","1","2025-08-07 08:48:31","36c45c0696341be0efffe67d72a12abb","102.66.141.23","Mozilla/5.0 (Windows NT 10.0; Win64; x64) AppleWebKit/537.36 (KHTML, like Gecko) Chrome/138.0.0.0 Safari/537.36","WebKit","Chrome","138.0.0.0","Windows","10.0","https://app.prolific.com/","en-US,en;q=0.9","60f41ae35227aa02240ba0d9","6877649eabb845cf142cd221","689468433993915f5b6d4841","1","60f41ae35227aa02240ba0d9","1","2025-08-07T09:09:53.047Z","","","","AttribQ","","","","","","","","","","","50","","","","","","","","","","","","","","","","","","","","","","","","","","",""
"6724","","<div style=""width:500px;"">
  <p>How much control did you have over the ball?</p>
  </div>","76","html-slider-response","70","1263481","0.0-7.0-2.11","227","1","2025-08-07 08:48:31","36c45c0696341be0efffe67d72a12abb","102.66.141.23","Mozilla/5.0 (Windows NT 10.0; Win64; x64) AppleWebKit/537.36 (KHTML, like Gecko) Chrome/138.0.0.0 Safari/537.36","WebKit","Chrome","138.0.0.0","Windows","10.0","https://app.prolific.com/","en-US,en;q=0.9","60f41ae35227aa02240ba0d9","6877649eabb845cf142cd221","689468433993915f5b6d4841","1","60f41ae35227aa02240ba0d9","1","2025-08-07T09:09:59.784Z","","","","ControlQ","","","","","","","","","","","50","","","","","","","","","","","","","","","","","","","","","","","","","","",""
"4215","","<div style=""width:500px;"">
  <p>How would you describe your current emotional state?</p>
  </div>","29","html-slider-response","71","1267712","0.0-7.0-3.11","227","1","2025-08-07 08:48:31","36c45c0696341be0efffe67d72a12abb","102.66.141.23","Mozilla/5.0 (Windows NT 10.0; Win64; x64) AppleWebKit/537.36 (KHTML, like Gecko) Chrome/138.0.0.0 Safari/537.36","WebKit","Chrome","138.0.0.0","Windows","10.0","https://app.prolific.com/","en-US,en;q=0.9","60f41ae35227aa02240ba0d9","6877649eabb845cf142cd221","689468433993915f5b6d4841","1","60f41ae35227aa02240ba0d9","1","2025-08-07T09:10:04.015Z","","","","StressQ","","","","","","","","","","","50","","","","","","","","","","","","","","","","","","","","","","","","","","",""
"3875","","<div style=""width:500px;"">
  <p>What best describes how you currently feel?</p>
  </div>","83","html-slider-response","72","1271595","0.0-7.0-4.11","227","1","2025-08-07 08:48:31","36c45c0696341be0efffe67d72a12abb","102.66.141.23","Mozilla/5.0 (Windows NT 10.0; Win64; x64) AppleWebKit/537.36 (KHTML, like Gecko) Chrome/138.0.0.0 Safari/537.36","WebKit","Chrome","138.0.0.0","Windows","10.0","https://app.prolific.com/","en-US,en;q=0.9","60f41ae35227aa02240ba0d9","6877649eabb845cf142cd221","689468433993915f5b6d4841","1","60f41ae35227aa02240ba0d9","1","2025-08-07T09:10:07.899Z","","","","MotivationQ","","","","","","","","","","","50","","","","","","","","","","","","","","","","","","","","","","","","","","",""
"","","","","ctl-task-cpt","73","1360846","0.0-7.0-0.12","227","1","2025-08-07 08:48:31","36c45c0696341be0efffe67d72a12abb","102.66.141.23","Mozilla/5.0 (Windows NT 10.0; Win64; x64) AppleWebKit/537.36 (KHTML, like Gecko) Chrome/138.0.0.0 Safari/537.36","WebKit","Chrome","138.0.0.0","Windows","10.0","https://app.prolific.com/","en-US,en;q=0.9","60f41ae35227aa02240ba0d9","6877649eabb845cf142cd221","689468433993915f5b6d4841","1","60f41ae35227aa02240ba0d9","1","2025-08-07T09:11:37.149Z","","","","","","","","","","","","","","","","win-only","2","g1:SE,g2:NW","0.8","13","0","1297578.2","3229.1","8260.6","86054.4","1","4","8","6","2","8","8","79","71","0.5984848484848485","1473.9","3000","2220","[""left"",""up""]","{""num_key_presses"":10,""num_perfect"":8,""num_errors"":0,""num_randdir"":2,""num_randdir_good_moves"":0,""num_whilered"":0,""num_whileblue"":0,""num_blue"":6,""num_good_moves"":8}","[295.22232142857143,295.12857142857143,0.3,295.22232142857143,295.12857142857143,118.9,295.22232142857143,295.12857142857143,218.9,295.22232142857143,295.12857142857143,341.3,295.22232142857143,295.12857142857143,572.6,82.22232142857143,6.128571428571426,753,75.22232142857143,-3.8714285714285737,864.7,78.22232142857143,3.1285714285714263,1015.6,85.22232142857143,42.128571428571426,1223.6,81.22232142857143,56.128571428571426,1364.7,81.22232142857143,56.128571428571426,1482.5,81.22232142857143,56.128571428571426,1587.6,81.22232142857143,56.128571428571426,1745.9,81.22232142857143,56.128571428571426,1869.1,81.22232142857143,56.128571428571426,1993.8,81.22232142857143,56.128571428571426,2094.7,81.22232142857143,56.128571428571426,2201,81.22232142857143,56.128571428571426,2310.3,81.22232142857143,56.128571428571426,2417.6,81.22232142857143,56.128571428571426,2543.3,81.22232142857143,56.128571428571426,2656.7,81.22232142857143,56.128571428571426,2785.8,81.22232142857143,56.128571428571426,2888.3,81.22232142857143,56.128571428571426,2988.8,81.22232142857143,56.128571428571426,3108.7,81.22232142857143,56.128571428571426,3224.6,81.22232142857143,56.128571428571426,3334.5,81.22232142857143,56.128571428571426,3440.5,81.22232142857143,56.128571428571426,3545,81.22232142857143,56.128571428571426,3657.9,81.22232142857143,56.128571428571426,3799.7,81.22232142857143,56.128571428571426,3917.2,81.22232142857143,56.128571428571426,4019.5,81.22232142857143,56.128571428571426,4136.2,81.22232142857143,56.128571428571426,4280.8,81.22232142857143,56.128571428571426,4416.3,81.22232142857143,56.128571428571426,4533,81.22232142857143,56.128571428571426,4675.2,81.22232142857143,56.128571428571426,4799.3,81.22232142857143,56.128571428571426,4916.8]","[1616.6,1616.6,1000,0,616.6,""smooth"",""up"",""up"",""good_move"",11366.8,9746.4,2291.2,8584.7,491,""smooth"",""up"",""up"",""good_move"",18425.4,7036.8,2109.4,11388.7,4927.3,""smooth"",""up"",""up"",""good_move"",24463.6,6036.4,1868.8,18427.4,4167.5,""smooth"",""left"",""left"",""good_move"",41283.6,16814.5,2502.7,38257.2,523.7,""oops"",""left"",""right"",""bad_move"",48182.2,6873.4,2489.5,45182.5,511.2,""smooth"",""left"",""left"",""good_move"",60465.5,12280.2,3141.8,56738.3,585.5,""smooth"",""left"",""left"",""good_move"",66621.7,6153.3,3061.3,60468.6,3091.8,""oops"",""left"",""down"",""bad_move"",69458.8,2834.7,1990.6,66624.1,844.1,""smooth"",""left"",""left"",""good_move"",77230.7,7767,2416.4,69463.9,5350.5,""smooth"",""up"",""up"",""good_move""]"
"4349","","<div style=""width:500px;"">
  <p>What determined the result of this run?</p>
  </div>","76","html-slider-response","74","1365203","0.0-7.0-1.12","227","1","2025-08-07 08:48:31","36c45c0696341be0efffe67d72a12abb","102.66.141.23","Mozilla/5.0 (Windows NT 10.0; Win64; x64) AppleWebKit/537.36 (KHTML, like Gecko) Chrome/138.0.0.0 Safari/537.36","WebKit","Chrome","138.0.0.0","Windows","10.0","https://app.prolific.com/","en-US,en;q=0.9","60f41ae35227aa02240ba0d9","6877649eabb845cf142cd221","689468433993915f5b6d4841","1","60f41ae35227aa02240ba0d9","1","2025-08-07T09:11:41.506Z","","","","AttribQ","","","","","","","","","","","50","","","","","","","","","","","","","","","","","","","","","","","","","","",""
"5121","","<div style=""width:500px;"">
  <p>How much control did you have over the ball?</p>
  </div>","77","html-slider-response","75","1370333","0.0-7.0-2.12","227","1","2025-08-07 08:48:31","36c45c0696341be0efffe67d72a12abb","102.66.141.23","Mozilla/5.0 (Windows NT 10.0; Win64; x64) AppleWebKit/537.36 (KHTML, like Gecko) Chrome/138.0.0.0 Safari/537.36","WebKit","Chrome","138.0.0.0","Windows","10.0","https://app.prolific.com/","en-US,en;q=0.9","60f41ae35227aa02240ba0d9","6877649eabb845cf142cd221","689468433993915f5b6d4841","1","60f41ae35227aa02240ba0d9","1","2025-08-07T09:11:46.635Z","","","","ControlQ","","","","","","","","","","","50","","","","","","","","","","","","","","","","","","","","","","","","","","",""
"3673","","<div style=""width:500px;"">
  <p>How would you describe your current emotional state?</p>
  </div>","22","html-slider-response","76","1374016","0.0-7.0-3.12","227","1","2025-08-07 08:48:31","36c45c0696341be0efffe67d72a12abb","102.66.141.23","Mozilla/5.0 (Windows NT 10.0; Win64; x64) AppleWebKit/537.36 (KHTML, like Gecko) Chrome/138.0.0.0 Safari/537.36","WebKit","Chrome","138.0.0.0","Windows","10.0","https://app.prolific.com/","en-US,en;q=0.9","60f41ae35227aa02240ba0d9","6877649eabb845cf142cd221","689468433993915f5b6d4841","1","60f41ae35227aa02240ba0d9","1","2025-08-07T09:11:50.322Z","","","","StressQ","","","","","","","","","","","50","","","","","","","","","","","","","","","","","","","","","","","","","","",""
"6183","","<div style=""width:500px;"">
  <p>What best describes how you currently feel?</p>
  </div>","80","html-slider-response","77","1380211","0.0-7.0-4.12","227","1","2025-08-07 08:48:31","36c45c0696341be0efffe67d72a12abb","102.66.141.23","Mozilla/5.0 (Windows NT 10.0; Win64; x64) AppleWebKit/537.36 (KHTML, like Gecko) Chrome/138.0.0.0 Safari/537.36","WebKit","Chrome","138.0.0.0","Windows","10.0","https://app.prolific.com/","en-US,en;q=0.9","60f41ae35227aa02240ba0d9","6877649eabb845cf142cd221","689468433993915f5b6d4841","1","60f41ae35227aa02240ba0d9","1","2025-08-07T09:11:56.514Z","","","","MotivationQ","","","","","","","","","","","50","","","","","","","","","","","","","","","","","","","","","","","","","","",""
