"rt","response_timestamp","stimulus","response","trial_type","trial_index","time_elapsed","internal_node_id","run_id","condition","recorded_at","source_code_version","ip","user_agent","device","browser","browser_version","platform","platform_version","referer","accept_language","PROLIFIC_PID","STUDY_ID","SESSION_ID","BATCH","prolific_id","batch","realtime","success","question_order","question_id","eventType","responses","item_order","radio_event_ids","radio_event_times","key_event_times","mouse_event_times","straightlining","zigzagging","honeypot","view_history","slider_start","which_type","canvas_config","goals_layout","control_level","trial_number","tutorial_trial_number","trial_start_time","phase1_start_time","phase2_start_time","phase3_start_time","goal_1_value","goal_1_distance","goal_2_value","goal_2_distance","goal_selected","outcome","outcome_total","participant_final_score","participant_initial_score","participant_final_score_prop","goal_choice_rt","allocated_time","allocated_time_remaining","goal_direction","counts","mouse_movements","key_presses"
"92603","1753864961225","<p style='font-size:40px;line-height:1.25'><strong>Welcome to the experiment!</strong></p><p style='font-size:1.1em;line-height:1.25'>Thank you for participanting in our experiment again! You will be asked to play the Dysfunctional Ball Game again. We will briefly recap the rules before we start.</p><p style='font-size:1.1em;line-height:1.25'>Press <strong>Next</strong> to continue.</p>","0","custom-html-button-response","0","92613","0.0-0.0","30","1","2025-07-30 08:40:58","36c45c0696341be0efffe67d72a12abb","41.150.248.188","Mozilla/5.0 (Windows NT 10.0; Win64; x64) AppleWebKit/537.36 (KHTML, like Gecko) Chrome/138.0.0.0 Safari/537.36","WebKit","Chrome","138.0.0.0","Windows","10.0","https://app.prolific.com/","en-US,en;q=0.9","60f6acaed2336346c8997195","687a19d2168e237449fb8af4","6889d9e5e515273ca651609c","0","60f6acaed2336346c8997195","0","2025-07-30T08:42:41.230Z","","","","","","","","","","","","","","","","","","","","","","","","","","","","","","","","","","","","","","","","","",""
"30825","","","","fullscreen","1","124476","0.0-1.0","30","1","2025-07-30 08:40:58","36c45c0696341be0efffe67d72a12abb","41.150.248.188","Mozilla/5.0 (Windows NT 10.0; Win64; x64) AppleWebKit/537.36 (KHTML, like Gecko) Chrome/138.0.0.0 Safari/537.36","WebKit","Chrome","138.0.0.0","Windows","10.0","https://app.prolific.com/","en-US,en;q=0.9","60f6acaed2336346c8997195","687a19d2168e237449fb8af4","6889d9e5e515273ca651609c","0","60f6acaed2336346c8997195","0","","true","","","","","","","","","","","","","","","","","","","","","","","","","","","","","","","","","","","","","","","","",""
"14998","1753865008093"," <p style='font-size:1.1em;line-height:1.25'>Thank you for closing all other tabs.</p><p style='font-size:1.1em;line-height:1.25'>We will now invite you to fill in some questionnaires, before starting the game.<br>This will take about 5 minutes.<br></p><p style='font-size:1.1em;line-height:1.25'>Press the <strong>Next</strong> button to continue.</p>","0","custom-html-button-response","2","139478","0.0-2.0","30","1","2025-07-30 08:40:58","36c45c0696341be0efffe67d72a12abb","41.150.248.188","Mozilla/5.0 (Windows NT 10.0; Win64; x64) AppleWebKit/537.36 (KHTML, like Gecko) Chrome/138.0.0.0 Safari/537.36","WebKit","Chrome","138.0.0.0","Windows","10.0","https://app.prolific.com/","en-US,en;q=0.9","60f6acaed2336346c8997195","687a19d2168e237449fb8af4","6889d9e5e515273ca651609c","0","60f6acaed2336346c8997195","0","2025-07-30T08:43:28.095Z","","","","","","","","","","","","","","","","","","","","","","","","","","","","","","","","","","","","","","","","","",""
"3726","","","{""assigned_sex"":""male""}","survey-multi-choice","3","143217","0.0-3.0-0.0","30","1","2025-07-30 08:40:58","36c45c0696341be0efffe67d72a12abb","41.150.248.188","Mozilla/5.0 (Windows NT 10.0; Win64; x64) AppleWebKit/537.36 (KHTML, like Gecko) Chrome/138.0.0.0 Safari/537.36","WebKit","Chrome","138.0.0.0","Windows","10.0","https://app.prolific.com/","en-US,en;q=0.9","60f6acaed2336346c8997195","687a19d2168e237449fb8af4","6889d9e5e515273ca651609c","0","60f6acaed2336346c8997195","0","","","[0]","0","demographics","","","","","","","","","","","","","","","","","","","","","","","","","","","","","","","","","","","","","",""
"81765","1753865093603","<p style='font-size:1.1em;line-height:1.25'>In the following, we will perform a baseline assessment. This means that we will ask you a few questions relating to your experiences over the past month.<br></p><p style='font-size:1.1em;line-height:1.25'>Press the <strong>Next</strong> button to continue.</p>","0","custom-html-button-response","4","224989","0.0-4.0-0.0","30","1","2025-07-30 08:40:58","36c45c0696341be0efffe67d72a12abb","41.150.248.188","Mozilla/5.0 (Windows NT 10.0; Win64; x64) AppleWebKit/537.36 (KHTML, like Gecko) Chrome/138.0.0.0 Safari/537.36","WebKit","Chrome","138.0.0.0","Windows","10.0","https://app.prolific.com/","en-US,en;q=0.9","60f6acaed2336346c8997195","687a19d2168e237449fb8af4","6889d9e5e515273ca651609c","0","60f6acaed2336346c8997195","0","2025-07-30T08:44:53.605Z","","","","","","","","","","","","","","","","","","","","","","","","","","","","","","","","","","","","","","","","","",""
"260801.70000000298","","","","survey-template","5","485804","0.0-4.0-1.0","30","1","2025-07-30 08:40:58","36c45c0696341be0efffe67d72a12abb","41.150.248.188","Mozilla/5.0 (Windows NT 10.0; Win64; x64) AppleWebKit/537.36 (KHTML, like Gecko) Chrome/138.0.0.0 Safari/537.36","WebKit","Chrome","138.0.0.0","Windows","10.0","https://app.prolific.com/","en-US,en;q=0.9","60f6acaed2336346c8997195","687a19d2168e237449fb8af4","6889d9e5e515273ca651609c","0","60f6acaed2336346c8997195","0","2025-07-30T08:49:14.421Z","","","","pss","{""Q01"":""2"",""Q02"":""1"",""Q03"":""3"",""Q04"":""0"",""Q05"":""1"",""Q06"":""1"",""Q07"":""1"",""Q08"":""1"",""Q09"":""1"",""Q10"":""1""}","[0,1,2,3,4,5,6,7,8,9]","[""Q01"",""Q01"",""Q02"",""Q03"",""Q04"",""Q05"",""Q06"",""Q07"",""Q08"",""Q08"",""Q09"",""Q10""]","[163622.79999999702,164834.10000000894,174102.60000000894,176643.90000000596,227751.20000000298,230961.70000000298,234610.70000000298,239790.40000000596,243470.20000000298,244755.79999999702,250644.70000000298,259507.20000000298]","[]","[0.29999999701976776,162508,163622.79999999702,164834.10000000894,174102.60000000894,176643.90000000596,227751.20000000298,230961.70000000298,234610.70000000298,238563.29999999702,239790.40000000596,243470.20000000298,244755.79999999702,249556.29999999702,250644.70000000298,259507.20000000298,260788.10000000894]","0.4","0.3333333333333333","0","","","","","","","","","","","","","","","","","","","","","","","","","","","","",""
"3107","1753865357532","<p style='font-size:1.1em;line-height:1.25'>Thank you for your answers! Now we will ask you a few more questions relating to your feelings in the last 24 hours.<br></p><p style='font-size:1.1em;line-height:1.25'>Press the <strong>Next</strong> button to continue.</p>","0","custom-html-button-response","6","488917","0.0-4.0-2.0","30","1","2025-07-30 08:40:58","36c45c0696341be0efffe67d72a12abb","41.150.248.188","Mozilla/5.0 (Windows NT 10.0; Win64; x64) AppleWebKit/537.36 (KHTML, like Gecko) Chrome/138.0.0.0 Safari/537.36","WebKit","Chrome","138.0.0.0","Windows","10.0","https://app.prolific.com/","en-US,en;q=0.9","60f6acaed2336346c8997195","687a19d2168e237449fb8af4","6889d9e5e515273ca651609c","0","60f6acaed2336346c8997195","0","2025-07-30T08:49:17.533Z","","","","","","","","","","","","","","","","","","","","","","","","","","","","","","","","","","","","","","","","","",""
"77275.5","","","","survey-template","7","566208","0.0-4.0-3.0","30","1","2025-07-30 08:40:58","36c45c0696341be0efffe67d72a12abb","41.150.248.188","Mozilla/5.0 (Windows NT 10.0; Win64; x64) AppleWebKit/537.36 (KHTML, like Gecko) Chrome/138.0.0.0 Safari/537.36","WebKit","Chrome","138.0.0.0","Windows","10.0","https://app.prolific.com/","en-US,en;q=0.9","60f6acaed2336346c8997195","687a19d2168e237449fb8af4","6889d9e5e515273ca651609c","0","60f6acaed2336346c8997195","0","2025-07-30T08:50:34.825Z","","","","drsp","{""Q01"":""1"",""Q02"":""0"",""Q03"":""1"",""Q04"":""0"",""Q05"":""1"",""Q06"":""1"",""Q07"":""2"",""Q08"":""1"",""Q09"":""0"",""Q10"":""0"",""Q11"":""0"",""Q12"":""0"",""Q13"":""5"",""Q14"":""2"",""Q15"":""0"",""Q16"":""0"",""Q17"":""0"",""Q18"":""0"",""Q19"":""0"",""Q20"":""0"",""Q21"":""0"",""Q22"":""1""}","[0,1,2,3,4,5,6,7,8,9,10,11,12,13,14,15,16,17,18,19,20,21]","[""Q01"",""Q02"",""Q03"",""Q04"",""Q06"",""Q05"",""Q07"",""Q08"",""Q09"",""Q10"",""Q11"",""Q12"",""Q13"",""Q14"",""Q14"",""Q15"",""Q16"",""Q18"",""Q19"",""Q20"",""Q21"",""Q22"",""Q17""]","[5448.800000011921,6811.800000011921,8898.300000011921,11912.70000000298,15468.60000000894,16834.10000000894,21134.5,22848.90000000596,29109.80000001192,30779.10000000894,32823.5,34597.30000001192,36928,40858.60000000894,43011.70000000298,48392,50508.10000000894,53344.30000001192,57534.30000001192,63674.80000001192,66746.40000000596,69358.40000000596,75662.60000000894]","[]","[0.20000000298023224,5448.800000011921,6811.800000011921,8898.300000011921,11055.5,11912.70000000298,13383.70000000298,15468.60000000894,16834.10000000894,21134.5,22848.90000000596,29109.80000001192,30779.10000000894,32823.5,34597.30000001192,36928,40858.60000000894,43011.70000000298,48392,50508.10000000894,51893,53344.30000001192,57534.30000001192,63674.80000001192,66746.40000000596,67859.70000000298,69358.40000000596,72478.70000000298,75662.60000000894,77256.10000000894]","0.5909090909090909","0.42857142857142855","0","","","","","","","","","","","","","","","","","","","","","","","","","","","","",""
"23325","","","","survey-template","8","589541","0.0-4.0-4.0","30","1","2025-07-30 08:40:58","36c45c0696341be0efffe67d72a12abb","41.150.248.188","Mozilla/5.0 (Windows NT 10.0; Win64; x64) AppleWebKit/537.36 (KHTML, like Gecko) Chrome/138.0.0.0 Safari/537.36","WebKit","Chrome","138.0.0.0","Windows","10.0","https://app.prolific.com/","en-US,en;q=0.9","60f6acaed2336346c8997195","687a19d2168e237449fb8af4","6889d9e5e515273ca651609c","0","60f6acaed2336346c8997195","0","2025-07-30T08:50:58.157Z","","","","stress","{""Q01"":""1"",""Q02"":""3"",""Q03"":""0""}","[0,1,2]","[""Q01"",""Q02"",""Q03""]","[11224.59999999404,14275.20000000298,22102.09999999404]","[]","[11224.59999999404,14275.20000000298,22102.09999999404,23321.09999999404]","0.3333333333333333","0.5","0","","","","","","","","","","","","","","","","","","","","","","","","","","","","",""
"28779","","","","instructions","9","618326","0.0-5.0-0.0","30","1","2025-07-30 08:40:58","36c45c0696341be0efffe67d72a12abb","41.150.248.188","Mozilla/5.0 (Windows NT 10.0; Win64; x64) AppleWebKit/537.36 (KHTML, like Gecko) Chrome/138.0.0.0 Safari/537.36","WebKit","Chrome","138.0.0.0","Windows","10.0","https://app.prolific.com/","en-US,en;q=0.9","60f6acaed2336346c8997195","687a19d2168e237449fb8af4","6889d9e5e515273ca651609c","0","60f6acaed2336346c8997195","0","","","","","","","","","","","","","","","[{""page_index"":0,""viewing_time"":28778}]","","","","","","","","","","","","","","","","","","","","","","","","","","","",""
"57682","","<p>Before you start with this game please answer the following three questions yourself. </p>
  <p>Through this game, we measure several aspects of your cognitive performance, such as reaction times, multi-tasking capabilities </p>
  <p>and the ability to assess the situation you are in.</p>
  <p></p>
  <p><b>How good do you usually are in such tasks?</b></p>","60","html-slider-response","10","676015","0.0-6.0-0.0","30","1","2025-07-30 08:40:58","36c45c0696341be0efffe67d72a12abb","41.150.248.188","Mozilla/5.0 (Windows NT 10.0; Win64; x64) AppleWebKit/537.36 (KHTML, like Gecko) Chrome/138.0.0.0 Safari/537.36","WebKit","Chrome","138.0.0.0","Windows","10.0","https://app.prolific.com/","en-US,en;q=0.9","60f6acaed2336346c8997195","687a19d2168e237449fb8af4","6889d9e5e515273ca651609c","0","60f6acaed2336346c8997195","0","2025-07-30T08:52:24.632Z","","","","PreSkillQ","","","","","","","","","","","50","","","","","","","","","","","","","","","","","","","","","","","","","","",""
"5387","","<div style=""width:500px;"">
  <p>How well do you think you will perform in this task compared to other participants?</p>
  </div>","51","html-slider-response","11","681406","0.0-6.0-1.0","30","1","2025-07-30 08:40:58","36c45c0696341be0efffe67d72a12abb","41.150.248.188","Mozilla/5.0 (Windows NT 10.0; Win64; x64) AppleWebKit/537.36 (KHTML, like Gecko) Chrome/138.0.0.0 Safari/537.36","WebKit","Chrome","138.0.0.0","Windows","10.0","https://app.prolific.com/","en-US,en;q=0.9","60f6acaed2336346c8997195","687a19d2168e237449fb8af4","6889d9e5e515273ca651609c","0","60f6acaed2336346c8997195","0","2025-07-30T08:52:30.023Z","","","","PrePerfQ","","","","","","","","","","","50","","","","","","","","","","","","","","","","","","","","","","","","","","",""
"2761","","<div style=""width:500px;"">
  <p>What best describes how you currently feel?</p>
  </div>","97","html-slider-response","12","684178","0.0-6.0-2.0","30","1","2025-07-30 08:40:58","36c45c0696341be0efffe67d72a12abb","41.150.248.188","Mozilla/5.0 (Windows NT 10.0; Win64; x64) AppleWebKit/537.36 (KHTML, like Gecko) Chrome/138.0.0.0 Safari/537.36","WebKit","Chrome","138.0.0.0","Windows","10.0","https://app.prolific.com/","en-US,en;q=0.9","60f6acaed2336346c8997195","687a19d2168e237449fb8af4","6889d9e5e515273ca651609c","0","60f6acaed2336346c8997195","0","2025-07-30T08:52:32.794Z","","","","PreMotivationQ","","","","","","","","","","","50","","","","","","","","","","","","","","","","","","","","","","","","","","",""
"","","","","ctl-task-cpt","13","713232","0.0-7.0-0.0","30","1","2025-07-30 08:40:58","36c45c0696341be0efffe67d72a12abb","41.150.248.188","Mozilla/5.0 (Windows NT 10.0; Win64; x64) AppleWebKit/537.36 (KHTML, like Gecko) Chrome/138.0.0.0 Safari/537.36","WebKit","Chrome","138.0.0.0","Windows","10.0","https://app.prolific.com/","en-US,en;q=0.9","60f6acaed2336346c8997195","687a19d2168e237449fb8af4","6889d9e5e515273ca651609c","0","60f6acaed2336346c8997195","0","2025-07-30T08:53:01.848Z","","","","","","","","","","","","","","","","win-only","0","g1:NW,g2:SE","1","1","0","698231.8","2090.2","7095.7","26031.9","1","4","4","6","1","1","1","1","0","0.007575757575757576","5005.3","3000","1045","[""left"",""up""]","{""num_key_presses"":4,""num_perfect"":4,""num_errors"":0,""num_randdir"":0,""num_randdir_good_moves"":0,""num_whilered"":0,""num_whileblue"":0,""num_blue"":2,""num_good_moves"":4}","[298.22232142857143,302.12857142857143,0.6,298.22232142857143,302.12857142857143,124.8,298.22232142857143,302.12857142857143,228.2,298.22232142857143,302.12857142857143,328.3,298.22232142857143,302.12857142857143,435.9,298.22232142857143,302.12857142857143,554.9,298.22232142857143,302.12857142857143,664.3,298.22232142857143,302.12857142857143,768.1,298.22232142857143,302.12857142857143,868.7,298.22232142857143,302.12857142857143,979.2,298.22232142857143,302.12857142857143,1091.5,298.22232142857143,302.12857142857143,1195.5,298.22232142857143,302.12857142857143,1301.6,298.22232142857143,302.12857142857143,1405.5,298.22232142857143,302.12857142857143,1512.3,298.22232142857143,302.12857142857143,1618.8,298.22232142857143,302.12857142857143,1719.7,298.22232142857143,302.12857142857143,1824.2,298.22232142857143,302.12857142857143,1924.9,298.22232142857143,302.12857142857143,2036.4,298.22232142857143,302.12857142857143,2140,298.22232142857143,302.12857142857143,2251.4,298.22232142857143,302.12857142857143,2351.5,298.22232142857143,302.12857142857143,2466.1,298.22232142857143,302.12857142857143,2567.3,298.22232142857143,302.12857142857143,2667.7,298.22232142857143,302.12857142857143,2768.8,298.22232142857143,302.12857142857143,2889.2,298.22232142857143,302.12857142857143,2991.8,298.22232142857143,302.12857142857143,3096.9,298.22232142857143,302.12857142857143,3205.3,298.22232142857143,302.12857142857143,3305.8,298.22232142857143,302.12857142857143,3408.4,298.22232142857143,302.12857142857143,3512,298.22232142857143,302.12857142857143,3622.9,298.22232142857143,302.12857142857143,3729.3,298.22232142857143,302.12857142857143,3835.1,298.22232142857143,302.12857142857143,3936.6,298.22232142857143,302.12857142857143,4036.9,298.22232142857143,302.12857142857143,4148.5,298.22232142857143,302.12857142857143,4260.3,298.22232142857143,302.12857142857143,4369.1,469.22232142857143,460.12857142857143,4482.5,530.2223214285714,609.1285714285714,4586.9,548.2223214285714,622.1285714285714,4703.5,548.2223214285714,622.1285714285714,4813.1,548.2223214285714,622.1285714285714,4919.4]","[4521.8,4521.8,2070.5,2006.7,444.6,""smooth"",""up"",""up"",""good_move"",8863.8,4339.2,3077.5,4524.6,1261.7,""smooth"",""left"",""left"",""good_move"",11874.7,3011.6,2145.3,8869.8,866.7,""smooth"",""up"",""up"",""good_move"",18762.4,6878.8,2803.7,15501.7,457.1,""smooth"",""left"",""left"",""good_move""]"
"3969","","<div style=""width:500px;"">
  <p>What determined the result of this run?</p>
  </div>","70","html-slider-response","14","717205","0.0-7.0-1.0","30","1","2025-07-30 08:40:58","36c45c0696341be0efffe67d72a12abb","41.150.248.188","Mozilla/5.0 (Windows NT 10.0; Win64; x64) AppleWebKit/537.36 (KHTML, like Gecko) Chrome/138.0.0.0 Safari/537.36","WebKit","Chrome","138.0.0.0","Windows","10.0","https://app.prolific.com/","en-US,en;q=0.9","60f6acaed2336346c8997195","687a19d2168e237449fb8af4","6889d9e5e515273ca651609c","0","60f6acaed2336346c8997195","0","2025-07-30T08:53:05.822Z","","","","AttribQ","","","","","","","","","","","50","","","","","","","","","","","","","","","","","","","","","","","","","","",""
"2387","","<div style=""width:500px;"">
  <p>How much control did you have over the ball?</p>
  </div>","70","html-slider-response","15","719596","0.0-7.0-2.0","30","1","2025-07-30 08:40:58","36c45c0696341be0efffe67d72a12abb","41.150.248.188","Mozilla/5.0 (Windows NT 10.0; Win64; x64) AppleWebKit/537.36 (KHTML, like Gecko) Chrome/138.0.0.0 Safari/537.36","WebKit","Chrome","138.0.0.0","Windows","10.0","https://app.prolific.com/","en-US,en;q=0.9","60f6acaed2336346c8997195","687a19d2168e237449fb8af4","6889d9e5e515273ca651609c","0","60f6acaed2336346c8997195","0","2025-07-30T08:53:08.212Z","","","","ControlQ","","","","","","","","","","","50","","","","","","","","","","","","","","","","","","","","","","","","","","",""
"9340","","<div style=""width:500px;"">
  <p>How would you describe your current emotional state?</p>
  </div>","29","html-slider-response","16","728943","0.0-7.0-3.0","30","1","2025-07-30 08:40:58","36c45c0696341be0efffe67d72a12abb","41.150.248.188","Mozilla/5.0 (Windows NT 10.0; Win64; x64) AppleWebKit/537.36 (KHTML, like Gecko) Chrome/138.0.0.0 Safari/537.36","WebKit","Chrome","138.0.0.0","Windows","10.0","https://app.prolific.com/","en-US,en;q=0.9","60f6acaed2336346c8997195","687a19d2168e237449fb8af4","6889d9e5e515273ca651609c","0","60f6acaed2336346c8997195","0","2025-07-30T08:53:17.560Z","","","","StressQ","","","","","","","","","","","50","","","","","","","","","","","","","","","","","","","","","","","","","","",""
"3921","","<div style=""width:500px;"">
  <p>What best describes how you currently feel?</p>
  </div>","59","html-slider-response","17","732870","0.0-7.0-4.0","30","1","2025-07-30 08:40:58","36c45c0696341be0efffe67d72a12abb","41.150.248.188","Mozilla/5.0 (Windows NT 10.0; Win64; x64) AppleWebKit/537.36 (KHTML, like Gecko) Chrome/138.0.0.0 Safari/537.36","WebKit","Chrome","138.0.0.0","Windows","10.0","https://app.prolific.com/","en-US,en;q=0.9","60f6acaed2336346c8997195","687a19d2168e237449fb8af4","6889d9e5e515273ca651609c","0","60f6acaed2336346c8997195","0","2025-07-30T08:53:21.487Z","","","","MotivationQ","","","","","","","","","","","50","","","","","","","","","","","","","","","","","","","","","","","","","","",""
"","","","","ctl-task-cpt","18","761165","0.0-7.0-0.1","30","1","2025-07-30 08:40:58","36c45c0696341be0efffe67d72a12abb","41.150.248.188","Mozilla/5.0 (Windows NT 10.0; Win64; x64) AppleWebKit/537.36 (KHTML, like Gecko) Chrome/138.0.0.0 Safari/537.36","WebKit","Chrome","138.0.0.0","Windows","10.0","https://app.prolific.com/","en-US,en;q=0.9","60f6acaed2336346c8997195","687a19d2168e237449fb8af4","6889d9e5e515273ca651609c","0","60f6acaed2336346c8997195","0","2025-07-30T08:53:49.781Z","","","","","","","","","","","","","","","","win-only","1","g1:NE,g2:SW","0.9","2","0","746918.9","1956.7","7005.8","25278.6","1","4","8","6","2","8","8","9","1","0.06818181818181818","1563.9","3000","1540","[""down"",""left""]","{""num_key_presses"":6,""num_perfect"":6,""num_errors"":0,""num_randdir"":0,""num_randdir_good_moves"":0,""num_whilered"":0,""num_whileblue"":0,""num_blue"":1,""num_good_moves"":6}","[298.22232142857143,293.12857142857143,1.1,298.22232142857143,293.12857142857143,112.1,298.22232142857143,293.12857142857143,216.5,298.22232142857143,293.12857142857143,325.7,298.22232142857143,293.12857142857143,428.4,347.22232142857143,249.12857142857143,531.7,291.22232142857143,375.12857142857143,632.3,227.22232142857143,433.12857142857143,739.9,227.22232142857143,433.12857142857143,845,51.222321428571426,565.1285714285714,952.8,8.222321428571426,593.1285714285714,1053.4,4.222321428571426,595.1285714285714,1155.9,3.2223214285714263,595.1285714285714,1256,9.222321428571426,586.1285714285714,1371.2,34.222321428571426,557.1285714285714,1482.1,42.222321428571426,547.1285714285714,1584.4,42.222321428571426,547.1285714285714,1687.8,42.222321428571426,546.1285714285714,1800,42.222321428571426,546.1285714285714,1920.1,42.222321428571426,546.1285714285714,2033.3,42.222321428571426,546.1285714285714,2135.7,43.222321428571426,546.1285714285714,2239.4,43.222321428571426,546.1285714285714,2342.4,43.222321428571426,546.1285714285714,2452.8,43.222321428571426,546.1285714285714,2560.6,43.222321428571426,546.1285714285714,2672,43.222321428571426,546.1285714285714,2788.1,43.222321428571426,546.1285714285714,2891.6,43.222321428571426,546.1285714285714,2991.7,43.222321428571426,546.1285714285714,3098,43.222321428571426,546.1285714285714,3198.9,43.222321428571426,546.1285714285714,3305.9,43.222321428571426,546.1285714285714,3410.6,43.222321428571426,546.1285714285714,3518.3,43.222321428571426,546.1285714285714,3623,43.222321428571426,546.1285714285714,3727.7,43.222321428571426,546.1285714285714,3830.6,43.222321428571426,546.1285714285714,3935.4,43.222321428571426,546.1285714285714,4040.3,43.222321428571426,546.1285714285714,4146.1,43.222321428571426,546.1285714285714,4246.4,43.222321428571426,546.1285714285714,4348.5,43.222321428571426,546.1285714285714,4458.4,43.222321428571426,546.1285714285714,4567.4,43.222321428571426,546.1285714285714,4674.5,43.222321428571426,546.1285714285714,4791,43.222321428571426,546.1285714285714,4899.7]","[5042.7,5042.6,2578.5,2003.4,460.9,""smooth"",""down"",""down"",""good_move"",8090.2,3042.7,2562.6,5047.5,480.2,""smooth"",""left"",""left"",""good_move"",10132.2,2037.6,1652.3,8094.7,385.3,""smooth"",""down"",""down"",""good_move"",13185.2,3049.3,2643.1,10135.9,406.3,""smooth"",""left"",""left"",""good_move"",15332.4,2144.6,1769.7,13187.9,374.8,""smooth"",""down"",""down"",""good_move"",18096.6,2760.5,2357,15336.2,403.5,""smooth"",""left"",""left"",""good_move""]"
"13144","","<div style=""width:500px;"">
  <p>What determined the result of this run?</p>
  </div>","72","html-slider-response","19","774315","0.0-7.0-1.1","30","1","2025-07-30 08:40:58","36c45c0696341be0efffe67d72a12abb","41.150.248.188","Mozilla/5.0 (Windows NT 10.0; Win64; x64) AppleWebKit/537.36 (KHTML, like Gecko) Chrome/138.0.0.0 Safari/537.36","WebKit","Chrome","138.0.0.0","Windows","10.0","https://app.prolific.com/","en-US,en;q=0.9","60f6acaed2336346c8997195","687a19d2168e237449fb8af4","6889d9e5e515273ca651609c","0","60f6acaed2336346c8997195","0","2025-07-30T08:54:02.931Z","","","","AttribQ","","","","","","","","","","","50","","","","","","","","","","","","","","","","","","","","","","","","","","",""
"3003","","<div style=""width:500px;"">
  <p>How much control did you have over the ball?</p>
  </div>","74","html-slider-response","20","777322","0.0-7.0-2.1","30","1","2025-07-30 08:40:58","36c45c0696341be0efffe67d72a12abb","41.150.248.188","Mozilla/5.0 (Windows NT 10.0; Win64; x64) AppleWebKit/537.36 (KHTML, like Gecko) Chrome/138.0.0.0 Safari/537.36","WebKit","Chrome","138.0.0.0","Windows","10.0","https://app.prolific.com/","en-US,en;q=0.9","60f6acaed2336346c8997195","687a19d2168e237449fb8af4","6889d9e5e515273ca651609c","0","60f6acaed2336346c8997195","0","2025-07-30T08:54:05.938Z","","","","ControlQ","","","","","","","","","","","50","","","","","","","","","","","","","","","","","","","","","","","","","","",""
"3351","","<div style=""width:500px;"">
  <p>How would you describe your current emotional state?</p>
  </div>","28","html-slider-response","21","780682","0.0-7.0-3.1","30","1","2025-07-30 08:40:58","36c45c0696341be0efffe67d72a12abb","41.150.248.188","Mozilla/5.0 (Windows NT 10.0; Win64; x64) AppleWebKit/537.36 (KHTML, like Gecko) Chrome/138.0.0.0 Safari/537.36","WebKit","Chrome","138.0.0.0","Windows","10.0","https://app.prolific.com/","en-US,en;q=0.9","60f6acaed2336346c8997195","687a19d2168e237449fb8af4","6889d9e5e515273ca651609c","0","60f6acaed2336346c8997195","0","2025-07-30T08:54:09.298Z","","","","StressQ","","","","","","","","","","","50","","","","","","","","","","","","","","","","","","","","","","","","","","",""
"7496","","<div style=""width:500px;"">
  <p>What best describes how you currently feel?</p>
  </div>","61","html-slider-response","22","788183","0.0-7.0-4.1","30","1","2025-07-30 08:40:58","36c45c0696341be0efffe67d72a12abb","41.150.248.188","Mozilla/5.0 (Windows NT 10.0; Win64; x64) AppleWebKit/537.36 (KHTML, like Gecko) Chrome/138.0.0.0 Safari/537.36","WebKit","Chrome","138.0.0.0","Windows","10.0","https://app.prolific.com/","en-US,en;q=0.9","60f6acaed2336346c8997195","687a19d2168e237449fb8af4","6889d9e5e515273ca651609c","0","60f6acaed2336346c8997195","0","2025-07-30T08:54:16.799Z","","","","MotivationQ","","","","","","","","","","","50","","","","","","","","","","","","","","","","","","","","","","","","","","",""
"","","","","ctl-task-cpt","23","816255","0.0-7.0-0.2","30","1","2025-07-30 08:40:58","36c45c0696341be0efffe67d72a12abb","41.150.248.188","Mozilla/5.0 (Windows NT 10.0; Win64; x64) AppleWebKit/537.36 (KHTML, like Gecko) Chrome/138.0.0.0 Safari/537.36","WebKit","Chrome","138.0.0.0","Windows","10.0","https://app.prolific.com/","en-US,en;q=0.9","60f6acaed2336346c8997195","687a19d2168e237449fb8af4","6889d9e5e515273ca651609c","0","60f6acaed2336346c8997195","0","2025-07-30T08:54:44.872Z","","","","","","","","","","","","","","","","win-only","2","g1:SE,g2:NW","0.8","3","0","802237.6","1603.3","6622","25044.1","1","4","8","6","2","8","8","17","9","0.12878787878787878","1124.8","3000","1640","[""left"",""up""]","{""num_key_presses"":6,""num_perfect"":6,""num_errors"":0,""num_randdir"":0,""num_randdir_good_moves"":0,""num_whilered"":0,""num_whileblue"":0,""num_blue"":1,""num_good_moves"":6}","[293.22232142857143,295.12857142857143,0.9,293.22232142857143,295.12857142857143,107,293.22232142857143,295.12857142857143,213.6,293.22232142857143,295.12857142857143,320.2,293.22232142857143,295.12857142857143,429.7,293.22232142857143,295.12857142857143,532.4,162.22232142857143,222.12857142857143,633.9,13.222321428571426,111.12857142857143,740.6,19.222321428571426,92.12857142857143,848.8,36.222321428571426,75.12857142857143,950.1,65.22232142857143,59.128571428571426,1055.3,66.22232142857143,59.128571428571426,1167.2,66.22232142857143,59.128571428571426,1273,66.22232142857143,59.128571428571426,1373.8,69.22232142857143,63.128571428571426,1482.9,121.22232142857143,206.12857142857143,1590.4,141.22232142857143,267.12857142857143,1701.6,142.22232142857143,274.12857142857143,1826.4,142.22232142857143,275.12857142857143,1951.1,113.22232142857143,230.12857142857143,2064.4,85.22232142857143,177.12857142857143,2167,54.222321428571426,85.12857142857143,2272.2,55.222321428571426,75.12857142857143,2390.1,58.222321428571426,70.12857142857143,2495.1,58.222321428571426,69.12857142857143,2598.2,62.222321428571426,72.12857142857143,2723.1,113.22232142857143,173.12857142857143,2826.2,96.22232142857143,155.12857142857143,2937,73.22232142857143,99.12857142857143,3041.3,65.22232142857143,76.12857142857143,3148.4,63.222321428571426,72.12857142857143,3250.5,63.222321428571426,72.12857142857143,3354,63.222321428571426,71.12857142857143,3465,129.22232142857143,198.12857142857143,3592.5,171.22232142857143,297.12857142857143,3705.8,171.22232142857143,297.12857142857143,3810.9,171.22232142857143,297.12857142857143,3923.8,171.22232142857143,297.12857142857143,4029.4,171.22232142857143,297.12857142857143,4141,171.22232142857143,297.12857142857143,4247.2,171.22232142857143,297.12857142857143,4366.9,171.22232142857143,297.12857142857143,4473,171.22232142857143,297.12857142857143,4574.4,171.22232142857143,297.12857142857143,4686.2,171.22232142857143,297.12857142857143,4798.9,171.22232142857143,297.12857142857143,4916.7]","[1546.6,1546.6,1000,0,546.6,""smooth"",""left"",""left"",""good_move"",3775,2225,1725.9,1550,499.1,""smooth"",""up"",""up"",""good_move"",6983.2,3204.8,2644.9,3778.4,559.9,""smooth"",""up"",""up"",""good_move"",9319.7,2334.4,1944.7,6985.5,389.5,""smooth"",""left"",""left"",""good_move"",15938.9,6616.9,2211.7,13314.5,412.7,""smooth"",""up"",""up"",""good_move"",18246.7,2302.9,1782.9,15943.8,520,""smooth"",""left"",""left"",""good_move""]"
"3408","","<div style=""width:500px;"">
  <p>What determined the result of this run?</p>
  </div>","84","html-slider-response","24","819669","0.0-7.0-1.2","30","1","2025-07-30 08:40:58","36c45c0696341be0efffe67d72a12abb","41.150.248.188","Mozilla/5.0 (Windows NT 10.0; Win64; x64) AppleWebKit/537.36 (KHTML, like Gecko) Chrome/138.0.0.0 Safari/537.36","WebKit","Chrome","138.0.0.0","Windows","10.0","https://app.prolific.com/","en-US,en;q=0.9","60f6acaed2336346c8997195","687a19d2168e237449fb8af4","6889d9e5e515273ca651609c","0","60f6acaed2336346c8997195","0","2025-07-30T08:54:48.285Z","","","","AttribQ","","","","","","","","","","","50","","","","","","","","","","","","","","","","","","","","","","","","","","",""
"2356","","<div style=""width:500px;"">
  <p>How much control did you have over the ball?</p>
  </div>","76","html-slider-response","25","822029","0.0-7.0-2.2","30","1","2025-07-30 08:40:58","36c45c0696341be0efffe67d72a12abb","41.150.248.188","Mozilla/5.0 (Windows NT 10.0; Win64; x64) AppleWebKit/537.36 (KHTML, like Gecko) Chrome/138.0.0.0 Safari/537.36","WebKit","Chrome","138.0.0.0","Windows","10.0","https://app.prolific.com/","en-US,en;q=0.9","60f6acaed2336346c8997195","687a19d2168e237449fb8af4","6889d9e5e515273ca651609c","0","60f6acaed2336346c8997195","0","2025-07-30T08:54:50.646Z","","","","ControlQ","","","","","","","","","","","50","","","","","","","","","","","","","","","","","","","","","","","","","","",""
"2370","","<div style=""width:500px;"">
  <p>How would you describe your current emotional state?</p>
  </div>","29","html-slider-response","26","824403","0.0-7.0-3.2","30","1","2025-07-30 08:40:58","36c45c0696341be0efffe67d72a12abb","41.150.248.188","Mozilla/5.0 (Windows NT 10.0; Win64; x64) AppleWebKit/537.36 (KHTML, like Gecko) Chrome/138.0.0.0 Safari/537.36","WebKit","Chrome","138.0.0.0","Windows","10.0","https://app.prolific.com/","en-US,en;q=0.9","60f6acaed2336346c8997195","687a19d2168e237449fb8af4","6889d9e5e515273ca651609c","0","60f6acaed2336346c8997195","0","2025-07-30T08:54:53.020Z","","","","StressQ","","","","","","","","","","","50","","","","","","","","","","","","","","","","","","","","","","","","","","",""
"2238","","<div style=""width:500px;"">
  <p>What best describes how you currently feel?</p>
  </div>","80","html-slider-response","27","826645","0.0-7.0-4.2","30","1","2025-07-30 08:40:58","36c45c0696341be0efffe67d72a12abb","41.150.248.188","Mozilla/5.0 (Windows NT 10.0; Win64; x64) AppleWebKit/537.36 (KHTML, like Gecko) Chrome/138.0.0.0 Safari/537.36","WebKit","Chrome","138.0.0.0","Windows","10.0","https://app.prolific.com/","en-US,en;q=0.9","60f6acaed2336346c8997195","687a19d2168e237449fb8af4","6889d9e5e515273ca651609c","0","60f6acaed2336346c8997195","0","2025-07-30T08:54:55.261Z","","","","MotivationQ","","","","","","","","","","","50","","","","","","","","","","","","","","","","","","","","","","","","","","",""
"","","","","ctl-task-cpt","28","854078","0.0-7.0-0.3","30","1","2025-07-30 08:40:58","36c45c0696341be0efffe67d72a12abb","41.150.248.188","Mozilla/5.0 (Windows NT 10.0; Win64; x64) AppleWebKit/537.36 (KHTML, like Gecko) Chrome/138.0.0.0 Safari/537.36","WebKit","Chrome","138.0.0.0","Windows","10.0","https://app.prolific.com/","en-US,en;q=0.9","60f6acaed2336346c8997195","687a19d2168e237449fb8af4","6889d9e5e515273ca651609c","0","60f6acaed2336346c8997195","0","2025-07-30T08:55:22.694Z","","","","","","","","","","","","","","","","win-only","3","g1:SW,g2:NE","0.7","4","0","840696.5","1368.5","6378.7","24402.2","1","4","4","6","2","4","4","21","17","0.1590909090909091","1894.8","3000","1915","[""up"",""right""]","{""num_key_presses"":6,""num_perfect"":5,""num_errors"":0,""num_randdir"":1,""num_randdir_good_moves"":1,""num_whilered"":0,""num_whileblue"":0,""num_blue"":0,""num_good_moves"":6}","[298.22232142857143,291.12857142857143,4.8,298.22232142857143,291.12857142857143,105.1,298.22232142857143,291.12857142857143,218.4,298.22232142857143,291.12857142857143,320.9,298.22232142857143,291.12857142857143,428.5,296.22232142857143,291.12857142857143,542.4,440.22232142857143,98.12857142857143,654.1,491.22232142857143,47.128571428571426,760.3,500.22232142857143,44.128571428571426,861.9,509.22232142857143,46.128571428571426,1029.2,523.2223214285714,54.128571428571426,1138.8,342.22232142857143,226.12857142857143,1245.5,260.22232142857143,304.12857142857143,1350.2,392.22232142857143,129.12857142857143,1457.9,445.22232142857143,104.12857142857143,1559.8,480.22232142857143,97.12857142857143,1671.8,517.2223214285714,79.12857142857143,1806.6,518.2223214285714,78.12857142857143,1911.8,518.2223214285714,78.12857142857143,2037.3,518.2223214285714,78.12857142857143,2146.2,518.2223214285714,78.12857142857143,2249.5,518.2223214285714,78.12857142857143,2354.4,518.2223214285714,78.12857142857143,2462.6,518.2223214285714,78.12857142857143,2571.8,518.2223214285714,78.12857142857143,2674.6,518.2223214285714,78.12857142857143,2775.6,518.2223214285714,78.12857142857143,2880.3,518.2223214285714,78.12857142857143,2984.2,518.2223214285714,78.12857142857143,3089.2,518.2223214285714,78.12857142857143,3192.1,518.2223214285714,78.12857142857143,3300.7,518.2223214285714,78.12857142857143,3407.9,518.2223214285714,78.12857142857143,3513.3,518.2223214285714,78.12857142857143,3614,518.2223214285714,78.12857142857143,3722.7,518.2223214285714,78.12857142857143,3824.6,518.2223214285714,78.12857142857143,3928.7,518.2223214285714,78.12857142857143,4037.7,518.2223214285714,78.12857142857143,4138.1,518.2223214285714,78.12857142857143,4246.4,518.2223214285714,78.12857142857143,4351,518.2223214285714,78.12857142857143,4454.1,518.2223214285714,78.12857142857143,4564.6,518.2223214285714,78.12857142857143,4673.9,518.2223214285714,78.12857142857143,4792.9,518.2223214285714,78.12857142857143,4910.5]","[1767.6,1767.6,1000,0,767.6,""smooth"",""up"",""up"",""good_move"",4944.9,3175.1,2802.8,1769.9,372.3,""smooth"",""up"",""up"",""good_move"",8743.5,3798.5,3402.5,4945,396,""smooth"",""right"",""right"",""good_move"",11648.2,2900.9,2477.7,8747.3,423.2,""oops"",""up"",""right"",""good_move"",14831.7,3181.4,2813.6,11650.4,367.8,""smooth"",""up"",""up"",""good_move"",17720.5,2887.3,1962.3,14833.2,925,""smooth"",""right"",""right"",""good_move""]"
"2849","","<div style=""width:500px;"">
  <p>What determined the result of this run?</p>
  </div>","59","html-slider-response","29","856934","0.0-7.0-1.3","30","1","2025-07-30 08:40:58","36c45c0696341be0efffe67d72a12abb","41.150.248.188","Mozilla/5.0 (Windows NT 10.0; Win64; x64) AppleWebKit/537.36 (KHTML, like Gecko) Chrome/138.0.0.0 Safari/537.36","WebKit","Chrome","138.0.0.0","Windows","10.0","https://app.prolific.com/","en-US,en;q=0.9","60f6acaed2336346c8997195","687a19d2168e237449fb8af4","6889d9e5e515273ca651609c","0","60f6acaed2336346c8997195","0","2025-07-30T08:55:25.551Z","","","","AttribQ","","","","","","","","","","","50","","","","","","","","","","","","","","","","","","","","","","","","","","",""
"2340","","<div style=""width:500px;"">
  <p>How much control did you have over the ball?</p>
  </div>","61","html-slider-response","30","859286","0.0-7.0-2.3","30","1","2025-07-30 08:40:58","36c45c0696341be0efffe67d72a12abb","41.150.248.188","Mozilla/5.0 (Windows NT 10.0; Win64; x64) AppleWebKit/537.36 (KHTML, like Gecko) Chrome/138.0.0.0 Safari/537.36","WebKit","Chrome","138.0.0.0","Windows","10.0","https://app.prolific.com/","en-US,en;q=0.9","60f6acaed2336346c8997195","687a19d2168e237449fb8af4","6889d9e5e515273ca651609c","0","60f6acaed2336346c8997195","0","2025-07-30T08:55:27.902Z","","","","ControlQ","","","","","","","","","","","50","","","","","","","","","","","","","","","","","","","","","","","","","","",""
"8808","","<div style=""width:500px;"">
  <p>How would you describe your current emotional state?</p>
  </div>","34","html-slider-response","31","868103","0.0-7.0-3.3","30","1","2025-07-30 08:40:58","36c45c0696341be0efffe67d72a12abb","41.150.248.188","Mozilla/5.0 (Windows NT 10.0; Win64; x64) AppleWebKit/537.36 (KHTML, like Gecko) Chrome/138.0.0.0 Safari/537.36","WebKit","Chrome","138.0.0.0","Windows","10.0","https://app.prolific.com/","en-US,en;q=0.9","60f6acaed2336346c8997195","687a19d2168e237449fb8af4","6889d9e5e515273ca651609c","0","60f6acaed2336346c8997195","0","2025-07-30T08:55:36.720Z","","","","StressQ","","","","","","","","","","","50","","","","","","","","","","","","","","","","","","","","","","","","","","",""
"3429","","<div style=""width:500px;"">
  <p>What best describes how you currently feel?</p>
  </div>","66","html-slider-response","32","871539","0.0-7.0-4.3","30","1","2025-07-30 08:40:58","36c45c0696341be0efffe67d72a12abb","41.150.248.188","Mozilla/5.0 (Windows NT 10.0; Win64; x64) AppleWebKit/537.36 (KHTML, like Gecko) Chrome/138.0.0.0 Safari/537.36","WebKit","Chrome","138.0.0.0","Windows","10.0","https://app.prolific.com/","en-US,en;q=0.9","60f6acaed2336346c8997195","687a19d2168e237449fb8af4","6889d9e5e515273ca651609c","0","60f6acaed2336346c8997195","0","2025-07-30T08:55:40.161Z","","","","MotivationQ","","","","","","","","","","","50","","","","","","","","","","","","","","","","","","","","","","","","","","",""
"","","","","ctl-task-cpt","33","920545","0.0-7.0-0.4","30","1","2025-07-30 08:40:58","36c45c0696341be0efffe67d72a12abb","41.150.248.188","Mozilla/5.0 (Windows NT 10.0; Win64; x64) AppleWebKit/537.36 (KHTML, like Gecko) Chrome/138.0.0.0 Safari/537.36","WebKit","Chrome","138.0.0.0","Windows","10.0","https://app.prolific.com/","en-US,en;q=0.9","60f6acaed2336346c8997195","687a19d2168e237449fb8af4","6889d9e5e515273ca651609c","0","60f6acaed2336346c8997195","0","2025-07-30T08:56:29.161Z","","","","","","","","","","","","","","","","win-only","3","g1:SW,g2:NE","0.6","5","0","885599.4","1188.4","6206.3","45946.4","1","4","4","6","2","4","4","25","21","0.1893939393939394","1141.4","3000","1750","[""up"",""right""]","{""num_key_presses"":10,""num_perfect"":6,""num_errors"":0,""num_randdir"":4,""num_randdir_good_moves"":2,""num_whilered"":0,""num_whileblue"":0,""num_blue"":3,""num_good_moves"":8}","[297.22232142857143,300.12857142857143,1.5,297.22232142857143,300.12857142857143,101.1,297.22232142857143,300.12857142857143,221.8,297.22232142857143,300.12857142857143,339.8,297.22232142857143,300.12857142857143,442.3,297.22232142857143,300.12857142857143,543.9,360.22232142857143,223.12857142857143,654.1,538.2223214285714,55.128571428571426,772.2,565.2223214285714,44.128571428571426,880.6,570.2223214285714,40.128571428571426,982.3,570.2223214285714,40.128571428571426,1083.7,570.2223214285714,40.128571428571426,1197.5,570.2223214285714,40.128571428571426,1305.8,570.2223214285714,40.128571428571426,1408.1,570.2223214285714,40.128571428571426,1508.5,570.2223214285714,40.128571428571426,1610.9,570.2223214285714,40.128571428571426,1714.5,570.2223214285714,40.128571428571426,1815.2,570.2223214285714,40.128571428571426,1920.6,570.2223214285714,40.128571428571426,2029.9,570.2223214285714,40.128571428571426,2167.1,570.2223214285714,40.128571428571426,2277.8,570.2223214285714,40.128571428571426,2402.7,570.2223214285714,40.128571428571426,2507.4,570.2223214285714,40.128571428571426,2623.1,570.2223214285714,40.128571428571426,2732.8,570.2223214285714,40.128571428571426,2839,570.2223214285714,40.128571428571426,2941.7,570.2223214285714,40.128571428571426,3049.2,570.2223214285714,40.128571428571426,3150.2,570.2223214285714,40.128571428571426,3251,570.2223214285714,40.128571428571426,3352.9,570.2223214285714,40.128571428571426,3455.3,570.2223214285714,40.128571428571426,3559.6,570.2223214285714,40.128571428571426,3670.4,570.2223214285714,40.128571428571426,3787,570.2223214285714,40.128571428571426,3888.2,570.2223214285714,40.128571428571426,3991.4,570.2223214285714,40.128571428571426,4094.7,570.2223214285714,40.128571428571426,4197,570.2223214285714,40.128571428571426,4303,570.2223214285714,40.128571428571426,4403.6,570.2223214285714,40.128571428571426,4526.3,570.2223214285714,40.128571428571426,4628.2,570.2223214285714,40.128571428571426,4739.7,570.2223214285714,40.128571428571426,4841.6,570.2223214285714,40.128571428571426,4942.4]","[1496.4,1496.5,1000,0,496.5,""smooth"",""up"",""up"",""good_move"",3908.3,2410.7,1698.3,1497.6,712.4,""smooth"",""up"",""up"",""good_move"",7207.5,3299,2879,3908.5,420,""oops"",""right"",""down"",""bad_move"",13207.7,5999.8,2643.2,10087.7,476.8,""oops"",""up"",""left"",""bad_move"",20341.5,7128.3,2305.8,17629.5,406.2,""smooth"",""right"",""right"",""good_move"",23522.1,3176.6,2767,20345.5,409.6,""smooth"",""right"",""right"",""good_move"",26830.1,3305.7,2840,23524.5,465.6,""smooth"",""up"",""up"",""good_move"",30782.2,3949.5,3154.9,26832.7,794.6,""oops"",""right"",""right"",""good_move"",33845.3,3060.6,2591,30784.9,469.5,""oops"",""right"",""right"",""good_move"",39441.6,5591.2,2003.7,36951.6,486.4,""smooth"",""up"",""up"",""good_move""]"
"2222","","<div style=""width:500px;"">
  <p>What determined the result of this run?</p>
  </div>","64","html-slider-response","34","922772","0.0-7.0-1.4","30","1","2025-07-30 08:40:58","36c45c0696341be0efffe67d72a12abb","41.150.248.188","Mozilla/5.0 (Windows NT 10.0; Win64; x64) AppleWebKit/537.36 (KHTML, like Gecko) Chrome/138.0.0.0 Safari/537.36","WebKit","Chrome","138.0.0.0","Windows","10.0","https://app.prolific.com/","en-US,en;q=0.9","60f6acaed2336346c8997195","687a19d2168e237449fb8af4","6889d9e5e515273ca651609c","0","60f6acaed2336346c8997195","0","2025-07-30T08:56:31.390Z","","","","AttribQ","","","","","","","","","","","50","","","","","","","","","","","","","","","","","","","","","","","","","","",""
"2484","","<div style=""width:500px;"">
  <p>How much control did you have over the ball?</p>
  </div>","58","html-slider-response","35","925264","0.0-7.0-2.4","30","1","2025-07-30 08:40:58","36c45c0696341be0efffe67d72a12abb","41.150.248.188","Mozilla/5.0 (Windows NT 10.0; Win64; x64) AppleWebKit/537.36 (KHTML, like Gecko) Chrome/138.0.0.0 Safari/537.36","WebKit","Chrome","138.0.0.0","Windows","10.0","https://app.prolific.com/","en-US,en;q=0.9","60f6acaed2336346c8997195","687a19d2168e237449fb8af4","6889d9e5e515273ca651609c","0","60f6acaed2336346c8997195","0","2025-07-30T08:56:33.880Z","","","","ControlQ","","","","","","","","","","","50","","","","","","","","","","","","","","","","","","","","","","","","","","",""
"1636","","<div style=""width:500px;"">
  <p>How would you describe your current emotional state?</p>
  </div>","50","html-slider-response","36","926903","0.0-7.0-3.4","30","1","2025-07-30 08:40:58","36c45c0696341be0efffe67d72a12abb","41.150.248.188","Mozilla/5.0 (Windows NT 10.0; Win64; x64) AppleWebKit/537.36 (KHTML, like Gecko) Chrome/138.0.0.0 Safari/537.36","WebKit","Chrome","138.0.0.0","Windows","10.0","https://app.prolific.com/","en-US,en;q=0.9","60f6acaed2336346c8997195","687a19d2168e237449fb8af4","6889d9e5e515273ca651609c","0","60f6acaed2336346c8997195","0","2025-07-30T08:56:35.520Z","","","","StressQ","","","","","","","","","","","50","","","","","","","","","","","","","","","","","","","","","","","","","","",""
"4106","","<div style=""width:500px;"">
  <p>What best describes how you currently feel?</p>
  </div>","55","html-slider-response","37","931019","0.0-7.0-4.4","30","1","2025-07-30 08:40:58","36c45c0696341be0efffe67d72a12abb","41.150.248.188","Mozilla/5.0 (Windows NT 10.0; Win64; x64) AppleWebKit/537.36 (KHTML, like Gecko) Chrome/138.0.0.0 Safari/537.36","WebKit","Chrome","138.0.0.0","Windows","10.0","https://app.prolific.com/","en-US,en;q=0.9","60f6acaed2336346c8997195","687a19d2168e237449fb8af4","6889d9e5e515273ca651609c","0","60f6acaed2336346c8997195","0","2025-07-30T08:56:39.636Z","","","","MotivationQ","","","","","","","","","","","50","","","","","","","","","","","","","","","","","","","","","","","","","","",""
"","","","","ctl-task-cpt","38","1015464","0.0-7.0-0.5","30","1","2025-07-30 08:40:58","36c45c0696341be0efffe67d72a12abb","41.150.248.188","Mozilla/5.0 (Windows NT 10.0; Win64; x64) AppleWebKit/537.36 (KHTML, like Gecko) Chrome/138.0.0.0 Safari/537.36","WebKit","Chrome","138.0.0.0","Windows","10.0","https://app.prolific.com/","en-US,en;q=0.9","60f6acaed2336346c8997195","687a19d2168e237449fb8af4","6889d9e5e515273ca651609c","0","60f6acaed2336346c8997195","0","2025-07-30T08:58:04.080Z","","","","","","","","","","","","","","","","win-only","0","g1:NW,g2:SE","0.5","6","0","945076.9","998.3","6020.7","81402","1","4","8","6","2","8","8","33","25","0.25","1510.9","3000","1085","[""down"",""right""]","{""num_key_presses"":18,""num_perfect"":9,""num_errors"":0,""num_randdir"":9,""num_randdir_good_moves"":3,""num_whilered"":0,""num_whileblue"":0,""num_blue"":5,""num_good_moves"":12}","[299.22232142857143,304.12857142857143,2.4,299.22232142857143,304.12857142857143,115.4,299.22232142857143,304.12857142857143,228,299.22232142857143,304.12857142857143,334.6,299.22232142857143,304.12857142857143,458.2,403.22232142857143,428.12857142857143,571,516.2223214285714,559.1285714285714,695.4,526.2223214285714,571.1285714285714,803,533.2223214285714,580.1285714285714,933.6,534.2223214285714,581.1285714285714,1046.9,527.2223214285714,565.1285714285714,1156,526.2223214285714,564.1285714285714,1276.2,526.2223214285714,563.1285714285714,1384,526.2223214285714,563.1285714285714,1498,526.2223214285714,563.1285714285714,1628.6,526.2223214285714,563.1285714285714,1746.1,526.2223214285714,563.1285714285714,1863.3,526.2223214285714,563.1285714285714,1984.9,526.2223214285714,563.1285714285714,2085.9,526.2223214285714,563.1285714285714,2203.5,526.2223214285714,563.1285714285714,2318,526.2223214285714,563.1285714285714,2427.4,526.2223214285714,563.1285714285714,2528.4,526.2223214285714,563.1285714285714,2642.5,526.2223214285714,563.1285714285714,2750.1,526.2223214285714,563.1285714285714,2858.3,526.2223214285714,563.1285714285714,2966,526.2223214285714,563.1285714285714,3078,526.2223214285714,563.1285714285714,3183,526.2223214285714,563.1285714285714,3300.1,526.2223214285714,563.1285714285714,3414.9,526.2223214285714,563.1285714285714,3526.7,526.2223214285714,563.1285714285714,3636.5,526.2223214285714,563.1285714285714,3737.2,526.2223214285714,563.1285714285714,3848.1,526.2223214285714,563.1285714285714,3956.4,526.2223214285714,563.1285714285714,4061.3,526.2223214285714,563.1285714285714,4172.8,526.2223214285714,563.1285714285714,4289,526.2223214285714,563.1285714285714,4394,526.2223214285714,563.1285714285714,4505.8,526.2223214285714,563.1285714285714,4621.2,526.2223214285714,563.1285714285714,4734.2,526.2223214285714,563.1285714285714,4835.7,526.2223214285714,563.1285714285714,4939.8]","[1433.4,1433.4,1000,0,433.4,""smooth"",""down"",""down"",""good_move"",4445.1,3009.1,2566,1436,443.1,""oops"",""down"",""left"",""bad_move"",8923,4475.2,1977.7,4447.8,2497.5,""oops"",""down"",""down"",""good_move"",11754.3,2829,2332.8,8925.3,496.2,""smooth"",""down"",""down"",""good_move"",18681.8,6925.6,2929.2,15231.8,520.9,""smooth"",""right"",""right"",""good_move"",22005.9,3319.9,2828.6,18686,491.3,""smooth"",""right"",""right"",""good_move"",29018.5,7010.4,2738,25836.4,444.1,""oops"",""right"",""right"",""good_move"",31895.7,2874,2441.6,29021.7,432.4,""oops"",""right"",""up"",""bad_move"",35112.6,3214.9,2788.3,31897.8,426.5,""smooth"",""down"",""down"",""good_move"",37549.7,2420.7,2021.8,35129.1,398.9,""oops"",""right"",""up"",""bad_move"",40628.3,3074.1,2139.8,37554.2,934.3,""oops"",""down"",""up"",""bad_move"",47539.5,6907.4,2317.6,44750.2,471.7,""oops"",""down"",""left"",""bad_move"",51532,3989.7,2678.2,47542.4,1311.5,""smooth"",""right"",""right"",""good_move"",61502.1,9965.5,2960.8,58078.9,462.4,""oops"",""down"",""up"",""bad_move"",66561,5057.6,3560.4,61503.6,1497.1,""smooth"",""down"",""down"",""good_move"",69665.2,3100.7,2711.9,66564.5,388.8,""smooth"",""down"",""down"",""good_move"",72257.4,2587.5,2136.1,69669.9,451.4,""oops"",""down"",""down"",""good_move"",74992,2734.2,2323.3,72259.3,410.9,""smooth"",""right"",""right"",""good_move""]"
"1796","","<div style=""width:500px;"">
  <p>What determined the result of this run?</p>
  </div>","58","html-slider-response","39","1017265","0.0-7.0-1.5","30","1","2025-07-30 08:40:58","36c45c0696341be0efffe67d72a12abb","41.150.248.188","Mozilla/5.0 (Windows NT 10.0; Win64; x64) AppleWebKit/537.36 (KHTML, like Gecko) Chrome/138.0.0.0 Safari/537.36","WebKit","Chrome","138.0.0.0","Windows","10.0","https://app.prolific.com/","en-US,en;q=0.9","60f6acaed2336346c8997195","687a19d2168e237449fb8af4","6889d9e5e515273ca651609c","0","60f6acaed2336346c8997195","0","2025-07-30T08:58:05.882Z","","","","AttribQ","","","","","","","","","","","50","","","","","","","","","","","","","","","","","","","","","","","","","","",""
"3858","","<div style=""width:500px;"">
  <p>How much control did you have over the ball?</p>
  </div>","41","html-slider-response","40","1021134","0.0-7.0-2.5","30","1","2025-07-30 08:40:58","36c45c0696341be0efffe67d72a12abb","41.150.248.188","Mozilla/5.0 (Windows NT 10.0; Win64; x64) AppleWebKit/537.36 (KHTML, like Gecko) Chrome/138.0.0.0 Safari/537.36","WebKit","Chrome","138.0.0.0","Windows","10.0","https://app.prolific.com/","en-US,en;q=0.9","60f6acaed2336346c8997195","687a19d2168e237449fb8af4","6889d9e5e515273ca651609c","0","60f6acaed2336346c8997195","0","2025-07-30T08:58:09.751Z","","","","ControlQ","","","","","","","","","","","50","","","","","","","","","","","","","","","","","","","","","","","","","","",""
"2601","","<div style=""width:500px;"">
  <p>How would you describe your current emotional state?</p>
  </div>","62","html-slider-response","41","1023744","0.0-7.0-3.5","30","1","2025-07-30 08:40:58","36c45c0696341be0efffe67d72a12abb","41.150.248.188","Mozilla/5.0 (Windows NT 10.0; Win64; x64) AppleWebKit/537.36 (KHTML, like Gecko) Chrome/138.0.0.0 Safari/537.36","WebKit","Chrome","138.0.0.0","Windows","10.0","https://app.prolific.com/","en-US,en;q=0.9","60f6acaed2336346c8997195","687a19d2168e237449fb8af4","6889d9e5e515273ca651609c","0","60f6acaed2336346c8997195","0","2025-07-30T08:58:12.361Z","","","","StressQ","","","","","","","","","","","50","","","","","","","","","","","","","","","","","","","","","","","","","","",""
"2244","","<div style=""width:500px;"">
  <p>What best describes how you currently feel?</p>
  </div>","40","html-slider-response","42","1025993","0.0-7.0-4.5","30","1","2025-07-30 08:40:58","36c45c0696341be0efffe67d72a12abb","41.150.248.188","Mozilla/5.0 (Windows NT 10.0; Win64; x64) AppleWebKit/537.36 (KHTML, like Gecko) Chrome/138.0.0.0 Safari/537.36","WebKit","Chrome","138.0.0.0","Windows","10.0","https://app.prolific.com/","en-US,en;q=0.9","60f6acaed2336346c8997195","687a19d2168e237449fb8af4","6889d9e5e515273ca651609c","0","60f6acaed2336346c8997195","0","2025-07-30T08:58:14.610Z","","","","MotivationQ","","","","","","","","","","","50","","","","","","","","","","","","","","","","","","","","","","","","","","",""
"","","","","ctl-task-cpt","43","1161111","0.0-7.0-0.6","30","1","2025-07-30 08:40:58","36c45c0696341be0efffe67d72a12abb","41.150.248.188","Mozilla/5.0 (Windows NT 10.0; Win64; x64) AppleWebKit/537.36 (KHTML, like Gecko) Chrome/138.0.0.0 Safari/537.36","WebKit","Chrome","138.0.0.0","Windows","10.0","https://app.prolific.com/","en-US,en;q=0.9","60f6acaed2336346c8997195","687a19d2168e237449fb8af4","6889d9e5e515273ca651609c","0","60f6acaed2336346c8997195","0","2025-07-30T09:00:29.728Z","","","","","","","","","","","","","","","","win-only","2","g1:SE,g2:NW","0.4","7","0","1040045.5","1319.7","6332.6","132087.7","1","4","8","6","2","-8","-8","25","33","0.1893939393939394","1477.8","3000","-780","[""left"",""up""]","{""num_key_presses"":28,""num_perfect"":11,""num_errors"":0,""num_randdir"":17,""num_randdir_good_moves"":5,""num_whilered"":0,""num_whileblue"":0,""num_blue"":6,""num_good_moves"":16}","[294.22232142857143,298.12857142857143,1.8,294.22232142857143,298.12857142857143,148.3,294.22232142857143,298.12857142857143,260.3,294.22232142857143,298.12857142857143,388.4,294.22232142857143,298.12857142857143,515.7,164.22232142857143,179.12857142857143,626.3,19.222321428571426,19.128571428571426,727.3,11.222321428571426,11.128571428571426,836.4,10.222321428571426,11.128571428571426,938.8,12.222321428571426,14.128571428571426,1047,18.222321428571426,20.128571428571426,1161.5,23.222321428571426,25.128571428571426,1300.7,27.222321428571426,30.128571428571426,1423.2,28.222321428571426,31.128571428571426,1550.1,28.222321428571426,31.128571428571426,1671.6,28.222321428571426,31.128571428571426,1773.8,30.222321428571426,31.128571428571426,1874.8,91.22232142857143,67.12857142857143,1997.9,159.22232142857143,146.12857142857143,2112.7,159.22232142857143,146.12857142857143,2213.1,159.22232142857143,146.12857142857143,2338.8,159.22232142857143,146.12857142857143,2458.4,159.22232142857143,146.12857142857143,2560.7,159.22232142857143,146.12857142857143,2674.2,159.22232142857143,146.12857142857143,2794.9,159.22232142857143,146.12857142857143,2897.3,159.22232142857143,146.12857142857143,3005.4,159.22232142857143,146.12857142857143,3111,159.22232142857143,146.12857142857143,3217.5,159.22232142857143,146.12857142857143,3328.9,159.22232142857143,146.12857142857143,3446.9,159.22232142857143,146.12857142857143,3563.8,159.22232142857143,146.12857142857143,3676.4,159.22232142857143,146.12857142857143,3786.4,159.22232142857143,146.12857142857143,3895.5,159.22232142857143,146.12857142857143,4011.5,159.22232142857143,146.12857142857143,4114.4,159.22232142857143,146.12857142857143,4223.6,159.22232142857143,146.12857142857143,4331.6,159.22232142857143,146.12857142857143,4441.5,159.22232142857143,146.12857142857143,4556.7,159.22232142857143,146.12857142857143,4659.3,159.22232142857143,146.12857142857143,4764.8,159.22232142857143,146.12857142857143,4871.7,159.22232142857143,146.12857142857143,4980.5]","[1450,1450,1000,0,450.1,""oops"",""up"",""left"",""good_move"",5506.6,4054.8,2274.5,1451.9,1780.2,""smooth"",""up"",""up"",""good_move"",10113,4602.7,2738.5,5510.3,1864.2,""smooth"",""left"",""left"",""good_move"",14934.9,4819.4,3449.2,10115.5,1370.2,""oops"",""up"",""down"",""bad_move"",18189.4,3231.6,2677.9,14957.9,553.7,""oops"",""up"",""right"",""bad_move"",21073.2,2880.3,2431.5,18192.9,448.8,""oops"",""up"",""left"",""good_move"",26343.9,5268,1956.9,21075.9,3311.1,""oops"",""up"",""right"",""bad_move"",29470.7,3125,2588.5,26345.7,536.5,""smooth"",""up"",""up"",""good_move"",33679,4206.3,3151.6,29473,1054.4,""oops"",""left"",""down"",""bad_move"",36374.7,2693.3,2235.3,33681.4,458,""smooth"",""left"",""left"",""good_move"",40048.3,3671.9,2176.6,36376.5,1495.2,""oops"",""left"",""right"",""bad_move"",42965.9,2912.1,2353.5,40053.9,558.5,""smooth"",""up"",""up"",""good_move"",46207.6,3238.6,2806.4,42969.2,432.1,""smooth"",""left"",""left"",""good_move"",50014.4,3802.5,2746.8,46211.9,1055.7,""oops"",""up"",""down"",""bad_move"",53392.2,3365.5,3047.1,50026.7,318.4,""oops"",""left"",""left"",""good_move"",60698.1,7303.2,1691.9,58602.8,403.4,""oops"",""up"",""down"",""bad_move"",69984.1,9283.8,2907.9,66628.2,448,""smooth"",""up"",""up"",""good_move"",73939,3953,2954,69986,999,""oops"",""up"",""down"",""bad_move"",76937.4,2994.4,2308.8,73943,685.6,""smooth"",""up"",""up"",""good_move"",81480.8,4535.7,3292.6,76945.2,1243,""oops"",""up"",""up"",""good_move"",85342.7,3859.1,2153.8,81483.6,1705.3,""oops"",""up"",""down"",""bad_move"",95332.1,9987.3,2212.4,92476.1,643.6,""oops"",""up"",""right"",""bad_move"",98247.5,2910.4,2022.4,95337.1,888,""smooth"",""up"",""up"",""good_move"",103402.1,5152.7,2607.4,98249.4,2545.3,""smooth"",""up"",""up"",""good_move"",112246.2,8819.6,2319.1,109448.2,478.9,""oops"",""left"",""down"",""bad_move"",115953,3705.3,3206.7,112247.7,498.6,""oops"",""up"",""left"",""good_move"",119922.1,3935.7,2777.9,115986.5,1157.7,""oops"",""up"",""right"",""bad_move"",122554.8,2629.5,1984.3,119925.3,645.2,""smooth"",""up"",""up"",""good_move""]"
"2865","","<div style=""width:500px;"">
  <p>What determined the result of this run?</p>
  </div>","56","html-slider-response","44","1163982","0.0-7.0-1.6","30","1","2025-07-30 08:40:58","36c45c0696341be0efffe67d72a12abb","41.150.248.188","Mozilla/5.0 (Windows NT 10.0; Win64; x64) AppleWebKit/537.36 (KHTML, like Gecko) Chrome/138.0.0.0 Safari/537.36","WebKit","Chrome","138.0.0.0","Windows","10.0","https://app.prolific.com/","en-US,en;q=0.9","60f6acaed2336346c8997195","687a19d2168e237449fb8af4","6889d9e5e515273ca651609c","0","60f6acaed2336346c8997195","0","2025-07-30T09:00:32.598Z","","","","AttribQ","","","","","","","","","","","50","","","","","","","","","","","","","","","","","","","","","","","","","","",""
"2235","","<div style=""width:500px;"">
  <p>How much control did you have over the ball?</p>
  </div>","0","html-slider-response","45","1166272","0.0-7.0-2.6","30","1","2025-07-30 08:40:58","36c45c0696341be0efffe67d72a12abb","41.150.248.188","Mozilla/5.0 (Windows NT 10.0; Win64; x64) AppleWebKit/537.36 (KHTML, like Gecko) Chrome/138.0.0.0 Safari/537.36","WebKit","Chrome","138.0.0.0","Windows","10.0","https://app.prolific.com/","en-US,en;q=0.9","60f6acaed2336346c8997195","687a19d2168e237449fb8af4","6889d9e5e515273ca651609c","0","60f6acaed2336346c8997195","0","2025-07-30T09:00:34.889Z","","","","ControlQ","","","","","","","","","","","50","","","","","","","","","","","","","","","","","","","","","","","","","","",""
"2971","","<div style=""width:500px;"">
  <p>How would you describe your current emotional state?</p>
  </div>","100","html-slider-response","46","1169250","0.0-7.0-3.6","30","1","2025-07-30 08:40:58","36c45c0696341be0efffe67d72a12abb","41.150.248.188","Mozilla/5.0 (Windows NT 10.0; Win64; x64) AppleWebKit/537.36 (KHTML, like Gecko) Chrome/138.0.0.0 Safari/537.36","WebKit","Chrome","138.0.0.0","Windows","10.0","https://app.prolific.com/","en-US,en;q=0.9","60f6acaed2336346c8997195","687a19d2168e237449fb8af4","6889d9e5e515273ca651609c","0","60f6acaed2336346c8997195","0","2025-07-30T09:00:37.866Z","","","","StressQ","","","","","","","","","","","50","","","","","","","","","","","","","","","","","","","","","","","","","","",""
"4722","","<div style=""width:500px;"">
  <p>What best describes how you currently feel?</p>
  </div>","0","html-slider-response","47","1173977","0.0-7.0-4.6","30","1","2025-07-30 08:40:58","36c45c0696341be0efffe67d72a12abb","41.150.248.188","Mozilla/5.0 (Windows NT 10.0; Win64; x64) AppleWebKit/537.36 (KHTML, like Gecko) Chrome/138.0.0.0 Safari/537.36","WebKit","Chrome","138.0.0.0","Windows","10.0","https://app.prolific.com/","en-US,en;q=0.9","60f6acaed2336346c8997195","687a19d2168e237449fb8af4","6889d9e5e515273ca651609c","0","60f6acaed2336346c8997195","0","2025-07-30T09:00:42.594Z","","","","MotivationQ","","","","","","","","","","","50","","","","","","","","","","","","","","","","","","","","","","","","","","",""
"","","","","ctl-task-cpt","48","1236877","0.0-7.0-0.7","30","1","2025-07-30 08:40:58","36c45c0696341be0efffe67d72a12abb","41.150.248.188","Mozilla/5.0 (Windows NT 10.0; Win64; x64) AppleWebKit/537.36 (KHTML, like Gecko) Chrome/138.0.0.0 Safari/537.36","WebKit","Chrome","138.0.0.0","Windows","10.0","https://app.prolific.com/","en-US,en;q=0.9","60f6acaed2336346c8997195","687a19d2168e237449fb8af4","6889d9e5e515273ca651609c","0","60f6acaed2336346c8997195","0","2025-07-30T09:01:45.493Z","","","","","","","","","","","","","","","","win-only","2","g1:SE,g2:NW","0.3","8","0","1188028","992","5999.9","59831.7","1","4","4","6","1","1","1","26","25","0.19696969696969696","1257.3","3000","1725","[""down"",""right""]","{""num_key_presses"":14,""num_perfect"":6,""num_errors"":0,""num_randdir"":8,""num_randdir_good_moves"":3,""num_whilered"":0,""num_whileblue"":0,""num_blue"":1,""num_good_moves"":9}","[294.22232142857143,299.12857142857143,0.1,294.22232142857143,299.12857142857143,140.1,294.22232142857143,299.12857142857143,260.5,294.22232142857143,299.12857142857143,368.4,294.22232142857143,299.12857142857143,475.9,296.22232142857143,299.12857142857143,584.5,406.22232142857143,358.12857142857143,692.6,496.22232142857143,526.1285714285714,807.8,539.2223214285714,592.1285714285714,916.1,536.2223214285714,582.1285714285714,1021.4,533.2223214285714,568.1285714285714,1139.3,533.2223214285714,567.1285714285714,1268.5,533.2223214285714,566.1285714285714,1377.2,533.2223214285714,566.1285714285714,1505.3,533.2223214285714,566.1285714285714,1613.3,533.2223214285714,566.1285714285714,1731.1,533.2223214285714,566.1285714285714,1849.6,533.2223214285714,566.1285714285714,1952.3,533.2223214285714,565.1285714285714,2059.3,533.2223214285714,565.1285714285714,2165.6,533.2223214285714,565.1285714285714,2271.9,533.2223214285714,565.1285714285714,2382.4,533.2223214285714,565.1285714285714,2498.5,533.2223214285714,565.1285714285714,2601.1,528.2223214285714,523.1285714285714,2707,524.2223214285714,495.12857142857143,2815.7,524.2223214285714,489.12857142857143,2922.6,524.2223214285714,490.12857142857143,3027.8,533.2223214285714,523.1285714285714,3143.9,534.2223214285714,526.1285714285714,3262,534.2223214285714,526.1285714285714,3379.9,534.2223214285714,526.1285714285714,3500.6,534.2223214285714,526.1285714285714,3603.8,534.2223214285714,526.1285714285714,3718.8,534.2223214285714,526.1285714285714,3821.1,534.2223214285714,526.1285714285714,3942.7,534.2223214285714,526.1285714285714,4058.9,534.2223214285714,526.1285714285714,4161.7,534.2223214285714,526.1285714285714,4269.7,534.2223214285714,526.1285714285714,4392.9,534.2223214285714,526.1285714285714,4505.3,534.2223214285714,526.1285714285714,4619.2,534.2223214285714,526.1285714285714,4730.2,534.2223214285714,526.1285714285714,4841.2,534.2223214285714,526.1285714285714,4954.5]","[1464.3,1464.3,1000,0,464.3,""oops"",""down"",""up"",""bad_move"",5654.2,4188.5,2218.8,1465.8,1969.6,""smooth"",""down"",""down"",""good_move"",8181.3,2526.2,2084,5655.1,442.2,""oops"",""right"",""left"",""bad_move"",14009.7,5824.2,2583.6,8185.5,3240.6,""oops"",""down"",""right"",""good_move"",16745.9,2733.9,1993.6,14012,740.3,""oops"",""right"",""up"",""bad_move"",22188.2,5438.9,2468,16749.3,2970.9,""oops"",""down"",""down"",""good_move"",25714.7,3525.2,3071.1,22189.6,454,""oops"",""down"",""left"",""bad_move"",29927.4,4208.8,2512.9,25718.7,1695.8,""oops"",""down"",""right"",""good_move"",33199.3,3269.2,2861.9,29930.2,407.2,""smooth"",""down"",""down"",""good_move"",36242.7,3040.2,2586.6,33202.6,453.6,""smooth"",""right"",""right"",""good_move"",41592.3,5347.3,1788.2,39353.8,450.3,""oops"",""right"",""left"",""bad_move"",45973.7,4369,2828.2,41604.7,1540.8,""smooth"",""right"",""right"",""good_move"",49006,3030.2,2454.7,45976,575.3,""smooth"",""down"",""down"",""good_move"",53190.1,4181.7,3380.6,49008.4,801.1,""smooth"",""right"",""right"",""good_move""]"
"2589","","<div style=""width:500px;"">
  <p>What determined the result of this run?</p>
  </div>","24","html-slider-response","49","1239476","0.0-7.0-1.7","30","1","2025-07-30 08:40:58","36c45c0696341be0efffe67d72a12abb","41.150.248.188","Mozilla/5.0 (Windows NT 10.0; Win64; x64) AppleWebKit/537.36 (KHTML, like Gecko) Chrome/138.0.0.0 Safari/537.36","WebKit","Chrome","138.0.0.0","Windows","10.0","https://app.prolific.com/","en-US,en;q=0.9","60f6acaed2336346c8997195","687a19d2168e237449fb8af4","6889d9e5e515273ca651609c","0","60f6acaed2336346c8997195","0","2025-07-30T09:01:48.093Z","","","","AttribQ","","","","","","","","","","","50","","","","","","","","","","","","","","","","","","","","","","","","","","",""
"2192","","<div style=""width:500px;"">
  <p>How much control did you have over the ball?</p>
  </div>","0","html-slider-response","50","1241674","0.0-7.0-2.7","30","1","2025-07-30 08:40:58","36c45c0696341be0efffe67d72a12abb","41.150.248.188","Mozilla/5.0 (Windows NT 10.0; Win64; x64) AppleWebKit/537.36 (KHTML, like Gecko) Chrome/138.0.0.0 Safari/537.36","WebKit","Chrome","138.0.0.0","Windows","10.0","https://app.prolific.com/","en-US,en;q=0.9","60f6acaed2336346c8997195","687a19d2168e237449fb8af4","6889d9e5e515273ca651609c","0","60f6acaed2336346c8997195","0","2025-07-30T09:01:50.291Z","","","","ControlQ","","","","","","","","","","","50","","","","","","","","","","","","","","","","","","","","","","","","","","",""
"2253","","<div style=""width:500px;"">
  <p>How would you describe your current emotional state?</p>
  </div>","100","html-slider-response","51","1243935","0.0-7.0-3.7","30","1","2025-07-30 08:40:58","36c45c0696341be0efffe67d72a12abb","41.150.248.188","Mozilla/5.0 (Windows NT 10.0; Win64; x64) AppleWebKit/537.36 (KHTML, like Gecko) Chrome/138.0.0.0 Safari/537.36","WebKit","Chrome","138.0.0.0","Windows","10.0","https://app.prolific.com/","en-US,en;q=0.9","60f6acaed2336346c8997195","687a19d2168e237449fb8af4","6889d9e5e515273ca651609c","0","60f6acaed2336346c8997195","0","2025-07-30T09:01:52.551Z","","","","StressQ","","","","","","","","","","","50","","","","","","","","","","","","","","","","","","","","","","","","","","",""
"2622","","<div style=""width:500px;"">
  <p>What best describes how you currently feel?</p>
  </div>","100","html-slider-response","52","1246563","0.0-7.0-4.7","30","1","2025-07-30 08:40:58","36c45c0696341be0efffe67d72a12abb","41.150.248.188","Mozilla/5.0 (Windows NT 10.0; Win64; x64) AppleWebKit/537.36 (KHTML, like Gecko) Chrome/138.0.0.0 Safari/537.36","WebKit","Chrome","138.0.0.0","Windows","10.0","https://app.prolific.com/","en-US,en;q=0.9","60f6acaed2336346c8997195","687a19d2168e237449fb8af4","6889d9e5e515273ca651609c","0","60f6acaed2336346c8997195","0","2025-07-30T09:01:55.179Z","","","","MotivationQ","","","","","","","","","","","50","","","","","","","","","","","","","","","","","","","","","","","","","","",""
"","","","","ctl-task-cpt","53","1349946","0.0-7.0-0.8","30","1","2025-07-30 08:40:58","36c45c0696341be0efffe67d72a12abb","41.150.248.188","Mozilla/5.0 (Windows NT 10.0; Win64; x64) AppleWebKit/537.36 (KHTML, like Gecko) Chrome/138.0.0.0 Safari/537.36","WebKit","Chrome","138.0.0.0","Windows","10.0","https://app.prolific.com/","en-US,en;q=0.9","60f6acaed2336346c8997195","687a19d2168e237449fb8af4","6889d9e5e515273ca651609c","0","60f6acaed2336346c8997195","0","2025-07-30T09:03:38.563Z","","","","","","","","","","","","","","","","win-only","0","g1:NW,g2:SE","0.4","9","0","1260616.4","1020.2","6038","100332.3","1","4","4","6","2","-4","-8","18","26","0.13636363636363635","1952.8","3000","-555","[""down"",""right""]","{""num_key_presses"":24,""num_perfect"":7,""num_errors"":4,""num_randdir"":10,""num_randdir_good_moves"":3,""num_whilered"":3,""num_whileblue"":1,""num_blue"":3,""num_good_moves"":10}","[300.22232142857143,294.12857142857143,7.9,300.22232142857143,294.12857142857143,125.5,300.22232142857143,294.12857142857143,243.8,300.22232142857143,294.12857142857143,352.5,300.22232142857143,294.12857142857143,484.3,300.22232142857143,294.12857142857143,598.9,300.22232142857143,294.12857142857143,701.5,460.22232142857143,425.12857142857143,817.7,601.2223214285714,606.1285714285714,939.5,602.2223214285714,608.1285714285714,1059.9,593.2223214285714,597.1285714285714,1170.6,567.2223214285714,561.1285714285714,1270.9,563.2223214285714,556.1285714285714,1394.2,563.2223214285714,556.1285714285714,1501.4,563.2223214285714,556.1285714285714,1614.1,563.2223214285714,555.1285714285714,1739.1,563.2223214285714,555.1285714285714,1868.5,563.2223214285714,555.1285714285714,1972.9,563.2223214285714,555.1285714285714,2089.1,563.2223214285714,555.1285714285714,2191.8,563.2223214285714,555.1285714285714,2294.2,563.2223214285714,555.1285714285714,2421,563.2223214285714,554.1285714285714,2552,563.2223214285714,554.1285714285714,2670.5,563.2223214285714,554.1285714285714,2774.7,563.2223214285714,554.1285714285714,2885.9,563.2223214285714,554.1285714285714,3003.4,563.2223214285714,554.1285714285714,3117.5,563.2223214285714,554.1285714285714,3227.3,563.2223214285714,554.1285714285714,3338.9,563.2223214285714,554.1285714285714,3455.1,563.2223214285714,554.1285714285714,3568.1,563.2223214285714,554.1285714285714,3674.8,563.2223214285714,554.1285714285714,3782.8,563.2223214285714,554.1285714285714,3885.4,563.2223214285714,554.1285714285714,4005.7,563.2223214285714,554.1285714285714,4110.2,563.2223214285714,554.1285714285714,4232.3,563.2223214285714,554.1285714285714,4342.4,563.2223214285714,554.1285714285714,4446.4,563.2223214285714,554.1285714285714,4585.5,563.2223214285714,554.1285714285714,4686.2,563.2223214285714,554.1285714285714,4812.1,563.2223214285714,554.1285714285714,4914.9]","[1972.4,1972.4,1000,0,972.4,""smooth"",""down"",""down"",""good_move"",5976,4000.7,2852.3,1975.3,1148.4,""smooth"",""right"",""right"",""good_move"",9153.1,3175.3,2349.2,5980.1,823.8,""smooth"",""right"",""right"",""good_move"",12530.4,3374.9,2368.3,9155.5,1006.6,""oops"",""right"",""left"",""bad_move"",17770.1,5237.1,2376.2,12533,2860.9,""oops"",""down"",""up"",""bad_move"",24112,6338.5,2774.1,17773.6,3564.3,""oops"",""right"",""left"",""bad_move"",30473.2,6358.9,6038.6,24114.4,320.3,""while_blue"",""down"",""up"",""bad_move"",35715.7,5240.1,3012.2,30475.6,2227.9,""oops"",""down"",""up"",""bad_move"",40704.3,4987.5,2295.4,35716.9,2692,""oops"",""right"",""right"",""good_move"",45188.1,4480,2074.5,40708.1,2405.5,""smooth"",""right"",""right"",""good_move"",48395.5,3200.7,2544.3,45194.8,656.4,""oops"",""right"",""right"",""good_move"",51848.4,3450.2,2583.3,48398.2,867,""smooth"",""down"",""down"",""good_move"",54885.9,3033.1,2168.3,51852.8,864.8,""smooth"",""down"",""down"",""good_move"",57903.5,3015.8,2089.9,54887.8,925.8,""oops"",""down"",""up"",""bad_move"",63826.8,5919.3,2590.2,57907.5,3329.1,""oops"",""down"",""up"",""bad_move"",64991.8,1163.1,1948.5,63828.9,-785.6,""error"",""-"",""-"",""no_move"",65476.3,481.5,1948.5,63828.9,-301.1,""while_red"",""-"",""-"",""no_move"",65720,725.2,1948.5,63828.9,-57.4,""while_red"",""-"",""-"",""no_move"",65978.1,983.3,1948.5,63828.9,200.7,""while_red"",""-"",""-"",""no_move"",66591.3,1596.5,2003,66018.6,-1430.2,""error"",""-"",""-"",""no_move"",67846.3,1251.8,2024.5,67600.9,-1779.1,""error"",""-"",""-"",""no_move"",72690.7,4842.3,3292.3,68870.8,527.7,""oops"",""right"",""left"",""bad_move"",83888.7,11194.6,2943.7,78492.7,2452.3,""oops"",""right"",""right"",""good_move"",87526.3,3636.3,3041.5,83890,594.8,""smooth"",""down"",""down"",""good_move""]"
"2854","","<div style=""width:500px;"">
  <p>What determined the result of this run?</p>
  </div>","0","html-slider-response","54","1352806","0.0-7.0-1.8","30","1","2025-07-30 08:40:58","36c45c0696341be0efffe67d72a12abb","41.150.248.188","Mozilla/5.0 (Windows NT 10.0; Win64; x64) AppleWebKit/537.36 (KHTML, like Gecko) Chrome/138.0.0.0 Safari/537.36","WebKit","Chrome","138.0.0.0","Windows","10.0","https://app.prolific.com/","en-US,en;q=0.9","60f6acaed2336346c8997195","687a19d2168e237449fb8af4","6889d9e5e515273ca651609c","0","60f6acaed2336346c8997195","0","2025-07-30T09:03:41.422Z","","","","AttribQ","","","","","","","","","","","50","","","","","","","","","","","","","","","","","","","","","","","","","","",""
"2208","","<div style=""width:500px;"">
  <p>How much control did you have over the ball?</p>
  </div>","0","html-slider-response","55","1355019","0.0-7.0-2.8","30","1","2025-07-30 08:40:58","36c45c0696341be0efffe67d72a12abb","41.150.248.188","Mozilla/5.0 (Windows NT 10.0; Win64; x64) AppleWebKit/537.36 (KHTML, like Gecko) Chrome/138.0.0.0 Safari/537.36","WebKit","Chrome","138.0.0.0","Windows","10.0","https://app.prolific.com/","en-US,en;q=0.9","60f6acaed2336346c8997195","687a19d2168e237449fb8af4","6889d9e5e515273ca651609c","0","60f6acaed2336346c8997195","0","2025-07-30T09:03:43.635Z","","","","ControlQ","","","","","","","","","","","50","","","","","","","","","","","","","","","","","","","","","","","","","","",""
"2217","","<div style=""width:500px;"">
  <p>How would you describe your current emotional state?</p>
  </div>","100","html-slider-response","56","1357241","0.0-7.0-3.8","30","1","2025-07-30 08:40:58","36c45c0696341be0efffe67d72a12abb","41.150.248.188","Mozilla/5.0 (Windows NT 10.0; Win64; x64) AppleWebKit/537.36 (KHTML, like Gecko) Chrome/138.0.0.0 Safari/537.36","WebKit","Chrome","138.0.0.0","Windows","10.0","https://app.prolific.com/","en-US,en;q=0.9","60f6acaed2336346c8997195","687a19d2168e237449fb8af4","6889d9e5e515273ca651609c","0","60f6acaed2336346c8997195","0","2025-07-30T09:03:45.858Z","","","","StressQ","","","","","","","","","","","50","","","","","","","","","","","","","","","","","","","","","","","","","","",""
"1971","","<div style=""width:500px;"">
  <p>What best describes how you currently feel?</p>
  </div>","100","html-slider-response","57","1359225","0.0-7.0-4.8","30","1","2025-07-30 08:40:58","36c45c0696341be0efffe67d72a12abb","41.150.248.188","Mozilla/5.0 (Windows NT 10.0; Win64; x64) AppleWebKit/537.36 (KHTML, like Gecko) Chrome/138.0.0.0 Safari/537.36","WebKit","Chrome","138.0.0.0","Windows","10.0","https://app.prolific.com/","en-US,en;q=0.9","60f6acaed2336346c8997195","687a19d2168e237449fb8af4","6889d9e5e515273ca651609c","0","60f6acaed2336346c8997195","0","2025-07-30T09:03:47.841Z","","","","MotivationQ","","","","","","","","","","","50","","","","","","","","","","","","","","","","","","","","","","","","","","",""
"","","","","ctl-task-cpt","58","1397253","0.0-7.0-0.9","30","1","2025-07-30 08:40:58","36c45c0696341be0efffe67d72a12abb","41.150.248.188","Mozilla/5.0 (Windows NT 10.0; Win64; x64) AppleWebKit/537.36 (KHTML, like Gecko) Chrome/138.0.0.0 Safari/537.36","WebKit","Chrome","138.0.0.0","Windows","10.0","https://app.prolific.com/","en-US,en;q=0.9","60f6acaed2336346c8997195","687a19d2168e237449fb8af4","6889d9e5e515273ca651609c","0","60f6acaed2336346c8997195","0","2025-07-30T09:04:25.869Z","","","","","","","","","","","","","","","","win-only","2","g1:SE,g2:NW","0.5","10","0","1373279.3","1125.5","6139.3","34969.1","1","4","8","6","1","1","1","19","18","0.14393939393939395","1139.2","3000","2410","[""down"",""right""]","{""num_key_presses"":6,""num_perfect"":2,""num_errors"":0,""num_randdir"":4,""num_randdir_good_moves"":3,""num_whilered"":0,""num_whileblue"":0,""num_blue"":2,""num_good_moves"":5}","[295.22232142857143,298.12857142857143,0.8,295.22232142857143,298.12857142857143,136.1,295.22232142857143,298.12857142857143,274.8,295.22232142857143,298.12857142857143,408.4,317.22232142857143,305.12857142857143,542.2,500.22232142857143,464.12857142857143,676.1,500.22232142857143,467.12857142857143,778.1,507.22232142857143,477.12857142857143,918.7,554.2223214285714,541.1285714285714,1027.7,558.2223214285714,551.1285714285714,1165,558.2223214285714,552.1285714285714,1269.2,558.2223214285714,552.1285714285714,1387.7,558.2223214285714,552.1285714285714,1509.5,558.2223214285714,552.1285714285714,1616.4,558.2223214285714,552.1285714285714,1723.5,558.2223214285714,552.1285714285714,1844.9,558.2223214285714,552.1285714285714,1951.9,558.2223214285714,552.1285714285714,2066.4,558.2223214285714,552.1285714285714,2167.7,558.2223214285714,552.1285714285714,2270.1,558.2223214285714,552.1285714285714,2415,558.2223214285714,552.1285714285714,2519.4,558.2223214285714,552.1285714285714,2647.1,558.2223214285714,552.1285714285714,2760.1,558.2223214285714,552.1285714285714,2886.8,558.2223214285714,552.1285714285714,2996.3,558.2223214285714,552.1285714285714,3110,558.2223214285714,552.1285714285714,3218.6,558.2223214285714,552.1285714285714,3323.4,558.2223214285714,552.1285714285714,3447.1,558.2223214285714,552.1285714285714,3555.5,558.2223214285714,552.1285714285714,3663.5,558.2223214285714,552.1285714285714,3772.3,558.2223214285714,552.1285714285714,3903.2,558.2223214285714,552.1285714285714,4018.7,558.2223214285714,552.1285714285714,4129.9,558.2223214285714,552.1285714285714,4274.6,558.2223214285714,552.1285714285714,4393.7,558.2223214285714,552.1285714285714,4551.5,558.2223214285714,552.1285714285714,4682.3,558.2223214285714,552.1285714285714,4799.8,558.2223214285714,552.1285714285714,4899.8]","[1883.9,1883.9,1000,0,883.9,""oops"",""down"",""right"",""good_move"",9366.4,7479.9,2951.2,5806,609.2,""oops"",""down"",""up"",""bad_move"",14537.1,5169.4,2416.9,9367.9,2752.3,""oops"",""down"",""down"",""good_move"",18280.4,3736,3221.2,14544.4,514.8,""smooth"",""down"",""down"",""good_move"",21337.7,3052,2571.3,18285.7,480.7,""smooth"",""down"",""down"",""good_move"",28248.3,6907.1,2760.5,24708.8,779,""oops"",""right"",""right"",""good_move""]"
"7443","","<div style=""width:500px;"">
  <p>What determined the result of this run?</p>
  </div>","25","html-slider-response","59","1404700","0.0-7.0-1.9","30","1","2025-07-30 08:40:58","36c45c0696341be0efffe67d72a12abb","41.150.248.188","Mozilla/5.0 (Windows NT 10.0; Win64; x64) AppleWebKit/537.36 (KHTML, like Gecko) Chrome/138.0.0.0 Safari/537.36","WebKit","Chrome","138.0.0.0","Windows","10.0","https://app.prolific.com/","en-US,en;q=0.9","60f6acaed2336346c8997195","687a19d2168e237449fb8af4","6889d9e5e515273ca651609c","0","60f6acaed2336346c8997195","0","2025-07-30T09:04:33.317Z","","","","AttribQ","","","","","","","","","","","50","","","","","","","","","","","","","","","","","","","","","","","","","","",""
"2204","","<div style=""width:500px;"">
  <p>How much control did you have over the ball?</p>
  </div>","21","html-slider-response","60","1406912","0.0-7.0-2.9","30","1","2025-07-30 08:40:58","36c45c0696341be0efffe67d72a12abb","41.150.248.188","Mozilla/5.0 (Windows NT 10.0; Win64; x64) AppleWebKit/537.36 (KHTML, like Gecko) Chrome/138.0.0.0 Safari/537.36","WebKit","Chrome","138.0.0.0","Windows","10.0","https://app.prolific.com/","en-US,en;q=0.9","60f6acaed2336346c8997195","687a19d2168e237449fb8af4","6889d9e5e515273ca651609c","0","60f6acaed2336346c8997195","0","2025-07-30T09:04:35.528Z","","","","ControlQ","","","","","","","","","","","50","","","","","","","","","","","","","","","","","","","","","","","","","","",""
"2377","","<div style=""width:500px;"">
  <p>How would you describe your current emotional state?</p>
  </div>","100","html-slider-response","61","1409297","0.0-7.0-3.9","30","1","2025-07-30 08:40:58","36c45c0696341be0efffe67d72a12abb","41.150.248.188","Mozilla/5.0 (Windows NT 10.0; Win64; x64) AppleWebKit/537.36 (KHTML, like Gecko) Chrome/138.0.0.0 Safari/537.36","WebKit","Chrome","138.0.0.0","Windows","10.0","https://app.prolific.com/","en-US,en;q=0.9","60f6acaed2336346c8997195","687a19d2168e237449fb8af4","6889d9e5e515273ca651609c","0","60f6acaed2336346c8997195","0","2025-07-30T09:04:37.914Z","","","","StressQ","","","","","","","","","","","50","","","","","","","","","","","","","","","","","","","","","","","","","","",""
"3379","","<div style=""width:500px;"">
  <p>What best describes how you currently feel?</p>
  </div>","0","html-slider-response","62","1412683","0.0-7.0-4.9","30","1","2025-07-30 08:40:58","36c45c0696341be0efffe67d72a12abb","41.150.248.188","Mozilla/5.0 (Windows NT 10.0; Win64; x64) AppleWebKit/537.36 (KHTML, like Gecko) Chrome/138.0.0.0 Safari/537.36","WebKit","Chrome","138.0.0.0","Windows","10.0","https://app.prolific.com/","en-US,en;q=0.9","60f6acaed2336346c8997195","687a19d2168e237449fb8af4","6889d9e5e515273ca651609c","0","60f6acaed2336346c8997195","0","2025-07-30T09:04:41.300Z","","","","MotivationQ","","","","","","","","","","","50","","","","","","","","","","","","","","","","","","","","","","","","","","",""
"","","","","ctl-task-cpt","63","1463954","0.0-7.0-0.10","30","1","2025-07-30 08:40:58","36c45c0696341be0efffe67d72a12abb","41.150.248.188","Mozilla/5.0 (Windows NT 10.0; Win64; x64) AppleWebKit/537.36 (KHTML, like Gecko) Chrome/138.0.0.0 Safari/537.36","WebKit","Chrome","138.0.0.0","Windows","10.0","https://app.prolific.com/","en-US,en;q=0.9","60f6acaed2336346c8997195","687a19d2168e237449fb8af4","6889d9e5e515273ca651609c","0","60f6acaed2336346c8997195","0","2025-07-30T09:05:32.570Z","","","","","","","","","","","","","","","","win-only","3","g1:SW,g2:NE","0.6","11","0","1426736.4","824.5","5831.5","48230","1","4","4","6","1","1","1","20","19","0.15151515151515152","1605","3000","2125","[""down"",""left""]","{""num_key_presses"":10,""num_perfect"":6,""num_errors"":0,""num_randdir"":4,""num_randdir_good_moves"":1,""num_whilered"":0,""num_whileblue"":0,""num_blue"":0,""num_good_moves"":7}","[293.22232142857143,293.12857142857143,2.1,293.22232142857143,293.12857142857143,135.7,293.22232142857143,293.12857142857143,271.1,293.22232142857143,293.12857142857143,374,293.22232142857143,293.12857142857143,506.1,287.22232142857143,300.12857142857143,607.1,214.22232142857143,383.12857142857143,723,214.22232142857143,383.12857142857143,843.9,210.22232142857143,387.12857142857143,958.2,83.22232142857143,515.1285714285714,1093.3,59.222321428571426,541.1285714285714,1206.4,48.222321428571426,554.1285714285714,1339.2,47.222321428571426,555.1285714285714,1462.9,47.222321428571426,555.1285714285714,1578.4,47.222321428571426,555.1285714285714,1692.2,47.222321428571426,555.1285714285714,1803,47.222321428571426,555.1285714285714,1929.5,47.222321428571426,555.1285714285714,2056.1,47.222321428571426,555.1285714285714,2186,47.222321428571426,555.1285714285714,2301.1,47.222321428571426,555.1285714285714,2430.9,47.222321428571426,555.1285714285714,2552.7,47.222321428571426,555.1285714285714,2683.1,47.222321428571426,555.1285714285714,2788.9,47.222321428571426,555.1285714285714,2893.9,47.222321428571426,555.1285714285714,2998.4,47.222321428571426,555.1285714285714,3108.1,47.222321428571426,555.1285714285714,3210.2,47.222321428571426,555.1285714285714,3318.1,47.222321428571426,555.1285714285714,3427.2,47.222321428571426,555.1285714285714,3537.8,47.222321428571426,555.1285714285714,3655.8,47.222321428571426,555.1285714285714,3758.6,47.222321428571426,555.1285714285714,3872.8,47.222321428571426,555.1285714285714,3984.7,47.222321428571426,555.1285714285714,4093.8,47.222321428571426,555.1285714285714,4195.6,47.222321428571426,555.1285714285714,4310.8,47.222321428571426,555.1285714285714,4418.9,47.222321428571426,555.1285714285714,4538.3,47.222321428571426,555.1285714285714,4639.8,47.222321428571426,555.1285714285714,4743.2,47.222321428571426,555.1285714285714,4849.7,47.222321428571426,555.1285714285714,4953]","[1052.8,1052.8,1000,0,52.8,""smooth"",""down"",""down"",""good_move"",3905.2,2824.2,2254.9,1081.1,569.2,""smooth"",""left"",""left"",""good_move"",9319.7,5408.8,1976.3,3911,3432.5,""oops"",""down"",""up"",""bad_move"",15552.6,6227.7,2340.5,9324.9,3887.2,""oops"",""down"",""right"",""bad_move"",19987.1,4432.6,2853.7,15554.6,1578.8,""smooth"",""down"",""down"",""good_move"",23583.2,3591.2,2761.1,19992,830.1,""smooth"",""left"",""left"",""good_move"",30035.8,6450.9,2584.6,23585.2,3866.1,""smooth"",""left"",""left"",""good_move"",35607,5569.5,2768.6,30037.7,2800.7,""oops"",""down"",""right"",""bad_move"",38860.7,3251.4,2125,35609.4,1126.4,""oops"",""left"",""down"",""good_move"",41879.7,3016.1,2579.2,38863.8,436.8,""smooth"",""left"",""left"",""good_move""]"
"2718","","<div style=""width:500px;"">
  <p>What determined the result of this run?</p>
  </div>","0","html-slider-response","64","1466681","0.0-7.0-1.10","30","1","2025-07-30 08:40:58","36c45c0696341be0efffe67d72a12abb","41.150.248.188","Mozilla/5.0 (Windows NT 10.0; Win64; x64) AppleWebKit/537.36 (KHTML, like Gecko) Chrome/138.0.0.0 Safari/537.36","WebKit","Chrome","138.0.0.0","Windows","10.0","https://app.prolific.com/","en-US,en;q=0.9","60f6acaed2336346c8997195","687a19d2168e237449fb8af4","6889d9e5e515273ca651609c","0","60f6acaed2336346c8997195","0","2025-07-30T09:05:35.298Z","","","","AttribQ","","","","","","","","","","","50","","","","","","","","","","","","","","","","","","","","","","","","","","",""
"2006","","<div style=""width:500px;"">
  <p>How much control did you have over the ball?</p>
  </div>","0","html-slider-response","65","1468695","0.0-7.0-2.10","30","1","2025-07-30 08:40:58","36c45c0696341be0efffe67d72a12abb","41.150.248.188","Mozilla/5.0 (Windows NT 10.0; Win64; x64) AppleWebKit/537.36 (KHTML, like Gecko) Chrome/138.0.0.0 Safari/537.36","WebKit","Chrome","138.0.0.0","Windows","10.0","https://app.prolific.com/","en-US,en;q=0.9","60f6acaed2336346c8997195","687a19d2168e237449fb8af4","6889d9e5e515273ca651609c","0","60f6acaed2336346c8997195","0","2025-07-30T09:05:37.311Z","","","","ControlQ","","","","","","","","","","","50","","","","","","","","","","","","","","","","","","","","","","","","","","",""
"2616","","<div style=""width:500px;"">
  <p>How would you describe your current emotional state?</p>
  </div>","100","html-slider-response","66","1471319","0.0-7.0-3.10","30","1","2025-07-30 08:40:58","36c45c0696341be0efffe67d72a12abb","41.150.248.188","Mozilla/5.0 (Windows NT 10.0; Win64; x64) AppleWebKit/537.36 (KHTML, like Gecko) Chrome/138.0.0.0 Safari/537.36","WebKit","Chrome","138.0.0.0","Windows","10.0","https://app.prolific.com/","en-US,en;q=0.9","60f6acaed2336346c8997195","687a19d2168e237449fb8af4","6889d9e5e515273ca651609c","0","60f6acaed2336346c8997195","0","2025-07-30T09:05:39.936Z","","","","StressQ","","","","","","","","","","","50","","","","","","","","","","","","","","","","","","","","","","","","","","",""
"2185","","<div style=""width:500px;"">
  <p>What best describes how you currently feel?</p>
  </div>","0","html-slider-response","67","1473511","0.0-7.0-4.10","30","1","2025-07-30 08:40:58","36c45c0696341be0efffe67d72a12abb","41.150.248.188","Mozilla/5.0 (Windows NT 10.0; Win64; x64) AppleWebKit/537.36 (KHTML, like Gecko) Chrome/138.0.0.0 Safari/537.36","WebKit","Chrome","138.0.0.0","Windows","10.0","https://app.prolific.com/","en-US,en;q=0.9","60f6acaed2336346c8997195","687a19d2168e237449fb8af4","6889d9e5e515273ca651609c","0","60f6acaed2336346c8997195","0","2025-07-30T09:05:42.127Z","","","","MotivationQ","","","","","","","","","","","50","","","","","","","","","","","","","","","","","","","","","","","","","","",""
"","","","","ctl-task-cpt","68","1507958","0.0-7.0-0.11","30","1","2025-07-30 08:40:58","36c45c0696341be0efffe67d72a12abb","41.150.248.188","Mozilla/5.0 (Windows NT 10.0; Win64; x64) AppleWebKit/537.36 (KHTML, like Gecko) Chrome/138.0.0.0 Safari/537.36","WebKit","Chrome","138.0.0.0","Windows","10.0","https://app.prolific.com/","en-US,en;q=0.9","60f6acaed2336346c8997195","687a19d2168e237449fb8af4","6889d9e5e515273ca651609c","0","60f6acaed2336346c8997195","0","2025-07-30T09:06:16.575Z","","","","","","","","","","","","","","","","win-only","0","g1:NW,g2:SE","0.7","12","0","1487567.9","1024.1","6045.9","31379.8","1","4","8","6","1","1","1","21","20","0.1590909090909091","1937.3","3000","2645","[""left"",""up""]","{""num_key_presses"":4,""num_perfect"":3,""num_errors"":0,""num_randdir"":1,""num_randdir_good_moves"":1,""num_whilered"":0,""num_whileblue"":0,""num_blue"":0,""num_good_moves"":4}","[301.22232142857143,301.12857142857143,3.1,301.22232142857143,301.12857142857143,116.3,301.22232142857143,301.12857142857143,229.5,301.22232142857143,301.12857142857143,351.6,301.22232142857143,301.12857142857143,464.3,301.22232142857143,301.12857142857143,605.9,301.22232142857143,301.12857142857143,726.4,301.22232142857143,301.12857142857143,831.2,301.22232142857143,301.12857142857143,934.3,301.22232142857143,301.12857142857143,1046.5,61.222321428571426,27.128571428571426,1176.8,24.222321428571426,2.1285714285714263,1294.3,21.222321428571426,1.1285714285714263,1420.2,20.222321428571426,1.1285714285714263,1539.5,44.222321428571426,44.128571428571426,1669.4,48.222321428571426,54.128571428571426,1777.3,48.222321428571426,55.128571428571426,1890.8,48.222321428571426,55.128571428571426,2022.5,48.222321428571426,55.128571428571426,2135.2,48.222321428571426,55.128571428571426,2244.5,48.222321428571426,55.128571428571426,2361.8,48.222321428571426,55.128571428571426,2549.5,48.222321428571426,55.128571428571426,2661.3,48.222321428571426,55.128571428571426,2783.5,48.222321428571426,55.128571428571426,2892.8,48.222321428571426,55.128571428571426,3012,48.222321428571426,55.128571428571426,3123.4,48.222321428571426,55.128571428571426,3239.7,48.222321428571426,55.128571428571426,3356.8,48.222321428571426,55.128571428571426,3471.2,48.222321428571426,55.128571428571426,3584.7,48.222321428571426,55.128571428571426,3699.4,48.222321428571426,55.128571428571426,3829.3,48.222321428571426,55.128571428571426,3942.9,48.222321428571426,55.128571428571426,4062.5,48.222321428571426,55.128571428571426,4193.9,48.222321428571426,55.128571428571426,4303.4,48.222321428571426,55.128571428571426,4421.4,48.222321428571426,55.128571428571426,4559.6,48.222321428571426,55.128571428571426,4663.7,48.222321428571426,55.128571428571426,4801.1,48.222321428571426,55.128571428571426,4903.6]","[2027,2027,1000,0,1027,""oops"",""up"",""left"",""good_move"",8854.4,6824.1,1734,2030.3,5090.1,""smooth"",""up"",""up"",""good_move"",17316.1,8459.4,2280.5,8856.8,6178.8,""smooth"",""left"",""left"",""good_move"",24724,7405,2756.6,17319,4648.4,""smooth"",""up"",""up"",""good_move""]"
"2369","","<div style=""width:500px;"">
  <p>What determined the result of this run?</p>
  </div>","50","html-slider-response","69","1510334","0.0-7.0-1.11","30","1","2025-07-30 08:40:58","36c45c0696341be0efffe67d72a12abb","41.150.248.188","Mozilla/5.0 (Windows NT 10.0; Win64; x64) AppleWebKit/537.36 (KHTML, like Gecko) Chrome/138.0.0.0 Safari/537.36","WebKit","Chrome","138.0.0.0","Windows","10.0","https://app.prolific.com/","en-US,en;q=0.9","60f6acaed2336346c8997195","687a19d2168e237449fb8af4","6889d9e5e515273ca651609c","0","60f6acaed2336346c8997195","0","2025-07-30T09:06:18.950Z","","","","AttribQ","","","","","","","","","","","50","","","","","","","","","","","","","","","","","","","","","","","","","","",""
"1730","","<div style=""width:500px;"">
  <p>How much control did you have over the ball?</p>
  </div>","17","html-slider-response","70","1512069","0.0-7.0-2.11","30","1","2025-07-30 08:40:58","36c45c0696341be0efffe67d72a12abb","41.150.248.188","Mozilla/5.0 (Windows NT 10.0; Win64; x64) AppleWebKit/537.36 (KHTML, like Gecko) Chrome/138.0.0.0 Safari/537.36","WebKit","Chrome","138.0.0.0","Windows","10.0","https://app.prolific.com/","en-US,en;q=0.9","60f6acaed2336346c8997195","687a19d2168e237449fb8af4","6889d9e5e515273ca651609c","0","60f6acaed2336346c8997195","0","2025-07-30T09:06:20.686Z","","","","ControlQ","","","","","","","","","","","50","","","","","","","","","","","","","","","","","","","","","","","","","","",""
"2565","","<div style=""width:500px;"">
  <p>How would you describe your current emotional state?</p>
  </div>","92","html-slider-response","71","1514639","0.0-7.0-3.11","30","1","2025-07-30 08:40:58","36c45c0696341be0efffe67d72a12abb","41.150.248.188","Mozilla/5.0 (Windows NT 10.0; Win64; x64) AppleWebKit/537.36 (KHTML, like Gecko) Chrome/138.0.0.0 Safari/537.36","WebKit","Chrome","138.0.0.0","Windows","10.0","https://app.prolific.com/","en-US,en;q=0.9","60f6acaed2336346c8997195","687a19d2168e237449fb8af4","6889d9e5e515273ca651609c","0","60f6acaed2336346c8997195","0","2025-07-30T09:06:23.255Z","","","","StressQ","","","","","","","","","","","50","","","","","","","","","","","","","","","","","","","","","","","","","","",""
"2166","","<div style=""width:500px;"">
  <p>What best describes how you currently feel?</p>
  </div>","50","html-slider-response","72","1516812","0.0-7.0-4.11","30","1","2025-07-30 08:40:58","36c45c0696341be0efffe67d72a12abb","41.150.248.188","Mozilla/5.0 (Windows NT 10.0; Win64; x64) AppleWebKit/537.36 (KHTML, like Gecko) Chrome/138.0.0.0 Safari/537.36","WebKit","Chrome","138.0.0.0","Windows","10.0","https://app.prolific.com/","en-US,en;q=0.9","60f6acaed2336346c8997195","687a19d2168e237449fb8af4","6889d9e5e515273ca651609c","0","60f6acaed2336346c8997195","0","2025-07-30T09:06:25.431Z","","","","MotivationQ","","","","","","","","","","","50","","","","","","","","","","","","","","","","","","","","","","","","","","",""
"","","","","ctl-task-cpt","73","1565892","0.0-7.0-0.12","30","1","2025-07-30 08:40:58","36c45c0696341be0efffe67d72a12abb","41.150.248.188","Mozilla/5.0 (Windows NT 10.0; Win64; x64) AppleWebKit/537.36 (KHTML, like Gecko) Chrome/138.0.0.0 Safari/537.36","WebKit","Chrome","138.0.0.0","Windows","10.0","https://app.prolific.com/","en-US,en;q=0.9","60f6acaed2336346c8997195","687a19d2168e237449fb8af4","6889d9e5e515273ca651609c","0","60f6acaed2336346c8997195","0","2025-07-30T09:07:14.508Z","","","","","","","","","","","","","","","","win-only","3","g1:SW,g2:NE","0.8","13","0","1530868.8","1330.8","6351.3","46027.9","1","4","8","6","2","8","8","29","21","0.2196969696969697","2042.6","3000","2040","[""up"",""right""]","{""num_key_presses"":6,""num_perfect"":5,""num_errors"":0,""num_randdir"":1,""num_randdir_good_moves"":1,""num_whilered"":0,""num_whileblue"":0,""num_blue"":1,""num_good_moves"":6}","[297.22232142857143,298.12857142857143,21.2,297.22232142857143,298.12857142857143,117.4,297.22232142857143,298.12857142857143,241.6,297.22232142857143,298.12857142857143,353.8,297.22232142857143,298.12857142857143,477.9,420.22232142857143,236.12857142857143,614.4,525.2223214285714,195.12857142857143,729.4,525.2223214285714,195.12857142857143,829.9,519.2223214285714,142.12857142857143,967.9,534.2223214285714,69.12857142857143,1089.3,520.2223214285714,79.12857142857143,1205.5,371.22232142857143,242.12857142857143,1338.6,184.22232142857143,397.12857142857143,1468.3,466.22232142857143,70.12857142857143,1670.8,486.22232142857143,67.12857142857143,1811.6,496.22232142857143,65.12857142857143,1917.2,511.22232142857143,68.12857142857143,2071,511.22232142857143,68.12857142857143,2180.6,511.22232142857143,68.12857142857143,2315.5,511.22232142857143,68.12857142857143,2460.9,512.2223214285714,68.12857142857143,2618.7,512.2223214285714,68.12857142857143,2728.2,512.2223214285714,68.12857142857143,2839.5,512.2223214285714,68.12857142857143,2978,512.2223214285714,68.12857142857143,3107,512.2223214285714,68.12857142857143,3229,512.2223214285714,68.12857142857143,3332.4,512.2223214285714,68.12857142857143,3446.3,512.2223214285714,68.12857142857143,3552.7,512.2223214285714,68.12857142857143,3689.6,512.2223214285714,68.12857142857143,3795.8,512.2223214285714,68.12857142857143,3906,512.2223214285714,68.12857142857143,4011.6,512.2223214285714,68.12857142857143,4136.4,512.2223214285714,68.12857142857143,4247.1,512.2223214285714,68.12857142857143,4365.6,512.2223214285714,68.12857142857143,4478.8,512.2223214285714,68.12857142857143,4608.8,512.2223214285714,68.12857142857143,4711,512.2223214285714,68.12857142857143,4830.8,512.2223214285714,68.12857142857143,4947.8]","[5449.1,5449.1,3057.4,2022.3,369.5,""smooth"",""up"",""up"",""good_move"",13592.4,8141.5,3313.4,5450.9,4828.1,""smooth"",""up"",""up"",""good_move"",22792.5,9197.3,2240.1,13595.2,6957.2,""oops"",""up"",""right"",""good_move"",26746.7,3950.7,2762,22796,1188.7,""smooth"",""up"",""up"",""good_move"",35203.3,8431.7,2128.6,26772.2,6303.1,""smooth"",""right"",""right"",""good_move"",39128.1,3921.9,1614.2,35206.4,2307.6,""smooth"",""right"",""right"",""good_move""]"
"7034","","<div style=""width:500px;"">
  <p>What determined the result of this run?</p>
  </div>","47","html-slider-response","74","1572938","0.0-7.0-1.12","30","1","2025-07-30 08:40:58","36c45c0696341be0efffe67d72a12abb","41.150.248.188","Mozilla/5.0 (Windows NT 10.0; Win64; x64) AppleWebKit/537.36 (KHTML, like Gecko) Chrome/138.0.0.0 Safari/537.36","WebKit","Chrome","138.0.0.0","Windows","10.0","https://app.prolific.com/","en-US,en;q=0.9","60f6acaed2336346c8997195","687a19d2168e237449fb8af4","6889d9e5e515273ca651609c","0","60f6acaed2336346c8997195","0","2025-07-30T09:07:21.556Z","","","","AttribQ","","","","","","","","","","","50","","","","","","","","","","","","","","","","","","","","","","","","","","",""
"2110","","<div style=""width:500px;"">
  <p>How much control did you have over the ball?</p>
  </div>","35","html-slider-response","75","1575057","0.0-7.0-2.12","30","1","2025-07-30 08:40:58","36c45c0696341be0efffe67d72a12abb","41.150.248.188","Mozilla/5.0 (Windows NT 10.0; Win64; x64) AppleWebKit/537.36 (KHTML, like Gecko) Chrome/138.0.0.0 Safari/537.36","WebKit","Chrome","138.0.0.0","Windows","10.0","https://app.prolific.com/","en-US,en;q=0.9","60f6acaed2336346c8997195","687a19d2168e237449fb8af4","6889d9e5e515273ca651609c","0","60f6acaed2336346c8997195","0","2025-07-30T09:07:23.674Z","","","","ControlQ","","","","","","","","","","","50","","","","","","","","","","","","","","","","","","","","","","","","","","",""
"2704","","<div style=""width:500px;"">
  <p>How would you describe your current emotional state?</p>
  </div>","75","html-slider-response","76","1577767","0.0-7.0-3.12","30","1","2025-07-30 08:40:58","36c45c0696341be0efffe67d72a12abb","41.150.248.188","Mozilla/5.0 (Windows NT 10.0; Win64; x64) AppleWebKit/537.36 (KHTML, like Gecko) Chrome/138.0.0.0 Safari/537.36","WebKit","Chrome","138.0.0.0","Windows","10.0","https://app.prolific.com/","en-US,en;q=0.9","60f6acaed2336346c8997195","687a19d2168e237449fb8af4","6889d9e5e515273ca651609c","0","60f6acaed2336346c8997195","0","2025-07-30T09:07:26.383Z","","","","StressQ","","","","","","","","","","","50","","","","","","","","","","","","","","","","","","","","","","","","","","",""
"1846","","<div style=""width:500px;"">
  <p>What best describes how you currently feel?</p>
  </div>","57","html-slider-response","77","1579623","0.0-7.0-4.12","30","1","2025-07-30 08:40:58","36c45c0696341be0efffe67d72a12abb","41.150.248.188","Mozilla/5.0 (Windows NT 10.0; Win64; x64) AppleWebKit/537.36 (KHTML, like Gecko) Chrome/138.0.0.0 Safari/537.36","WebKit","Chrome","138.0.0.0","Windows","10.0","https://app.prolific.com/","en-US,en;q=0.9","60f6acaed2336346c8997195","687a19d2168e237449fb8af4","6889d9e5e515273ca651609c","0","60f6acaed2336346c8997195","0","2025-07-30T09:07:28.239Z","","","","MotivationQ","","","","","","","","","","","50","","","","","","","","","","","","","","","","","","","","","","","","","","",""
