"rt","response_timestamp","stimulus","response","trial_type","trial_index","time_elapsed","internal_node_id","run_id","condition","recorded_at","source_code_version","ip","user_agent","device","browser","browser_version","platform","platform_version","referer","accept_language","PROLIFIC_PID","STUDY_ID","SESSION_ID","BATCH","prolific_id","batch","realtime","success","question_order","question_id","eventType","responses","item_order","radio_event_ids","radio_event_times","key_event_times","mouse_event_times","straightlining","zigzagging","honeypot","view_history","slider_start","which_type","canvas_config","goals_layout","control_level","trial_number","tutorial_trial_number","trial_start_time","phase1_start_time","phase2_start_time","phase3_start_time","goal_1_value","goal_1_distance","goal_2_value","goal_2_distance","goal_selected","outcome","outcome_total","participant_final_score","participant_initial_score","participant_final_score_prop","goal_choice_rt","allocated_time","allocated_time_remaining","goal_direction","counts","mouse_movements","key_presses"
"1233","1754470458656","<p style='font-size:40px;line-height:1.25'><strong>Welcome to the experiment!</strong></p><p style='font-size:1.1em;line-height:1.25'>Thank you for participanting in our experiment again! You will be asked to play the Dysfunctional Ball Game again. We will briefly recap the rules before we start.</p><p style='font-size:1.1em;line-height:1.25'>Press <strong>Next</strong> to continue.</p>","0","custom-html-button-response","0","1236","0.0-0.0","145","1","2025-08-06 08:55:28","36c45c0696341be0efffe67d72a12abb","213.161.20.6","Mozilla/5.0 (Windows NT 10.0; Win64; x64) AppleWebKit/537.36 (KHTML, like Gecko) Chrome/138.0.0.0 Safari/537.36","WebKit","Chrome","138.0.0.0","Windows","10.0","https://app.prolific.com/","en-SI,en;q=0.9,sl-SI;q=0.8,sl;q=0.7,en-GB;q=0.6,en-US;q=0.5","60fd34d68de7efbcd7de57a0","687a1a965b9f5b85a264363e","68931808ca54650b35618777","1","60fd34d68de7efbcd7de57a0","1","2025-08-06T08:54:18.657Z","","","","","","","","","","","","","","","","","","","","","","","","","","","","","","","","","","","","","","","","","",""
"8285","","","","fullscreen","1","10539","0.0-1.0","145","1","2025-08-06 08:55:28","36c45c0696341be0efffe67d72a12abb","213.161.20.6","Mozilla/5.0 (Windows NT 10.0; Win64; x64) AppleWebKit/537.36 (KHTML, like Gecko) Chrome/138.0.0.0 Safari/537.36","WebKit","Chrome","138.0.0.0","Windows","10.0","https://app.prolific.com/","en-SI,en;q=0.9,sl-SI;q=0.8,sl;q=0.7,en-GB;q=0.6,en-US;q=0.5","60fd34d68de7efbcd7de57a0","687a1a965b9f5b85a264363e","68931808ca54650b35618777","1","60fd34d68de7efbcd7de57a0","1","","true","","","","","","","","","","","","","","","","","","","","","","","","","","","","","","","","","","","","","","","","",""
"1879","1754470469839"," <p style='font-size:1.1em;line-height:1.25'>Thank you for closing all other tabs.</p><p style='font-size:1.1em;line-height:1.25'>We will now invite you to fill in some questionnaires, before starting the game.<br>This will take about 5 minutes.<br></p><p style='font-size:1.1em;line-height:1.25'>Press the <strong>Next</strong> button to continue.</p>","0","custom-html-button-response","2","12419","0.0-2.0","145","1","2025-08-06 08:55:28","36c45c0696341be0efffe67d72a12abb","213.161.20.6","Mozilla/5.0 (Windows NT 10.0; Win64; x64) AppleWebKit/537.36 (KHTML, like Gecko) Chrome/138.0.0.0 Safari/537.36","WebKit","Chrome","138.0.0.0","Windows","10.0","https://app.prolific.com/","en-SI,en;q=0.9,sl-SI;q=0.8,sl;q=0.7,en-GB;q=0.6,en-US;q=0.5","60fd34d68de7efbcd7de57a0","687a1a965b9f5b85a264363e","68931808ca54650b35618777","1","60fd34d68de7efbcd7de57a0","1","2025-08-06T08:54:29.840Z","","","","","","","","","","","","","","","","","","","","","","","","","","","","","","","","","","","","","","","","","",""
"1512","","","{""assigned_sex"":""female""}","survey-multi-choice","3","13933","0.0-3.0-0.0","145","1","2025-08-06 08:55:28","36c45c0696341be0efffe67d72a12abb","213.161.20.6","Mozilla/5.0 (Windows NT 10.0; Win64; x64) AppleWebKit/537.36 (KHTML, like Gecko) Chrome/138.0.0.0 Safari/537.36","WebKit","Chrome","138.0.0.0","Windows","10.0","https://app.prolific.com/","en-SI,en;q=0.9,sl-SI;q=0.8,sl;q=0.7,en-GB;q=0.6,en-US;q=0.5","60fd34d68de7efbcd7de57a0","687a1a965b9f5b85a264363e","68931808ca54650b35618777","1","60fd34d68de7efbcd7de57a0","1","","","[0]","0","demographics","","","","","","","","","","","","","","","","","","","","","","","","","","","","","","","","","","","","","",""
"1661","1754470473015","<p style='font-size:1.1em;line-height:1.25'>In the following, we will perform a baseline assessment. This means that we will ask you a few questions relating to your experiences over the past month.<br></p><p style='font-size:1.1em;line-height:1.25'>Press the <strong>Next</strong> button to continue.</p>","0","custom-html-button-response","4","15595","0.0-4.0-0.0","145","1","2025-08-06 08:55:28","36c45c0696341be0efffe67d72a12abb","213.161.20.6","Mozilla/5.0 (Windows NT 10.0; Win64; x64) AppleWebKit/537.36 (KHTML, like Gecko) Chrome/138.0.0.0 Safari/537.36","WebKit","Chrome","138.0.0.0","Windows","10.0","https://app.prolific.com/","en-SI,en;q=0.9,sl-SI;q=0.8,sl;q=0.7,en-GB;q=0.6,en-US;q=0.5","60fd34d68de7efbcd7de57a0","687a1a965b9f5b85a264363e","68931808ca54650b35618777","1","60fd34d68de7efbcd7de57a0","1","2025-08-06T08:54:33.016Z","","","","","","","","","","","","","","","","","","","","","","","","","","","","","","","","","","","","","","","","","",""
"20425.400000095367","","","","survey-template","5","36024","0.0-4.0-1.0","145","1","2025-08-06 08:55:28","36c45c0696341be0efffe67d72a12abb","213.161.20.6","Mozilla/5.0 (Windows NT 10.0; Win64; x64) AppleWebKit/537.36 (KHTML, like Gecko) Chrome/138.0.0.0 Safari/537.36","WebKit","Chrome","138.0.0.0","Windows","10.0","https://app.prolific.com/","en-SI,en;q=0.9,sl-SI;q=0.8,sl;q=0.7,en-GB;q=0.6,en-US;q=0.5","60fd34d68de7efbcd7de57a0","687a1a965b9f5b85a264363e","68931808ca54650b35618777","1","60fd34d68de7efbcd7de57a0","1","2025-08-06T08:54:53.445Z","","","","pss","{""Q01"":""1"",""Q02"":""2"",""Q03"":""2"",""Q04"":""2"",""Q05"":""2"",""Q06"":""2"",""Q07"":""2"",""Q08"":""3"",""Q09"":""2"",""Q10"":""3""}","[0,1,2,3,4,5,6,7,8,9]","[""Q01"",""Q01"",""Q02"",""Q03"",""Q04"",""Q05"",""Q06"",""Q07"",""Q07"",""Q07"",""Q08"",""Q08"",""Q08"",""Q09"",""Q10""]","[4550.300000071526,4709.5,5445.600000023842,5909.700000047684,8981.900000095367,9478.5,10158.800000071526,11205.700000047684,12829.600000023842,13301.900000095367,14133.700000047684,17093.600000023842,17349.600000023842,17933.600000023842,19605.400000095367]","[]","[0.10000002384185791,1837.6000000238419,2565.5,3157.600000023842,3822.8000000715256,4550.300000071526,4709.5,5445.600000023842,5909.700000047684,6317.800000071526,6494.700000047684,6726.600000023842,7269.600000023842,7454.600000023842,7693.600000023842,8015,8525.400000095367,8981.900000095367,9478.5,10158.800000071526,10429.700000047684,11205.700000047684,11503.300000071526,12222.100000023842,12829.600000023842,13301.900000095367,13717.5,14133.700000047684,14413.800000071526,14701.5,15981.5,16542.600000023842,17093.600000023842,17349.600000023842,17933.600000023842,18349.600000023842,18989.5,19373.5,19605.400000095367,20421.700000047684]","0.7","0.4444444444444444","0","","","","","","","","","","","","","","","","","","","","","","","","","","","","",""
"1633","1754470495079","<p style='font-size:1.1em;line-height:1.25'>Thank you for your answers! Now we will ask you a few more questions relating to your feelings in the last 24 hours.<br></p><p style='font-size:1.1em;line-height:1.25'>Press the <strong>Next</strong> button to continue.</p>","0","custom-html-button-response","6","37659","0.0-4.0-2.0","145","1","2025-08-06 08:55:28","36c45c0696341be0efffe67d72a12abb","213.161.20.6","Mozilla/5.0 (Windows NT 10.0; Win64; x64) AppleWebKit/537.36 (KHTML, like Gecko) Chrome/138.0.0.0 Safari/537.36","WebKit","Chrome","138.0.0.0","Windows","10.0","https://app.prolific.com/","en-SI,en;q=0.9,sl-SI;q=0.8,sl;q=0.7,en-GB;q=0.6,en-US;q=0.5","60fd34d68de7efbcd7de57a0","687a1a965b9f5b85a264363e","68931808ca54650b35618777","1","60fd34d68de7efbcd7de57a0","1","2025-08-06T08:54:55.080Z","","","","","","","","","","","","","","","","","","","","","","","","","","","","","","","","","","","","","","","","","",""
"44146.89999997616","","","","survey-template","7","81810","0.0-4.0-3.0","145","1","2025-08-06 08:55:28","36c45c0696341be0efffe67d72a12abb","213.161.20.6","Mozilla/5.0 (Windows NT 10.0; Win64; x64) AppleWebKit/537.36 (KHTML, like Gecko) Chrome/138.0.0.0 Safari/537.36","WebKit","Chrome","138.0.0.0","Windows","10.0","https://app.prolific.com/","en-SI,en;q=0.9,sl-SI;q=0.8,sl;q=0.7,en-GB;q=0.6,en-US;q=0.5","60fd34d68de7efbcd7de57a0","687a1a965b9f5b85a264363e","68931808ca54650b35618777","1","60fd34d68de7efbcd7de57a0","1","2025-08-06T08:55:39.231Z","","","","drsp","{""Q01"":""2"",""Q02"":""3"",""Q03"":""1"",""Q04"":""4"",""Q05"":""1"",""Q06"":""2"",""Q07"":""3"",""Q08"":""2"",""Q09"":""3"",""Q10"":""3"",""Q11"":""3"",""Q12"":""2"",""Q13"":""5"",""Q14"":""2"",""Q15"":""3"",""Q16"":""2"",""Q17"":""3"",""Q18"":""2"",""Q19"":""3"",""Q20"":""3"",""Q21"":""3"",""Q22"":""3""}","[0,1,2,3,4,5,6,7,8,9,10,11,12,13,14,15,16,17,18,19,20,21]","[""Q01"",""Q01"",""Q02"",""Q03"",""Q04"",""Q06"",""Q07"",""Q08"",""Q09"",""Q09"",""Q08"",""Q08"",""Q09"",""Q11"",""Q11"",""Q11"",""Q10"",""Q10"",""Q13"",""Q12"",""Q14"",""Q15"",""Q16"",""Q17"",""Q18"",""Q18"",""Q19"",""Q20"",""Q21"",""Q22"",""Q05"",""Q05""]","[2709.600000023842,2885.7999999523163,3895.399999976158,4829.799999952316,6317.600000023842,12733.600000023842,14725.5,16573.600000023842,17221.299999952316,17405.700000047684,18069.200000047684,18253.700000047684,19197.399999976158,20421.5,20622.5,21493.200000047684,21981.299999952316,22125.200000047684,25325.399999976158,26023,26685.100000023842,28181.5,29453.299999952316,30741.200000047684,31581.399999976158,31709.200000047684,32757.200000047684,33341.299999952316,34333.200000047684,35574.299999952316,39245.39999997616,40165.39999997616]","[]","[0,2373.2999999523163,2709.600000023842,2885.7999999523163,3605.5,3895.399999976158,4398.799999952316,4829.799999952316,5214.399999976158,6317.600000023842,11589.600000023842,11885.299999952316,12341.899999976158,12733.600000023842,12887.100000023842,13077.100000023842,13245.299999952316,13630.399999976158,13797.700000047684,14550.799999952316,14725.5,16573.600000023842,16949.299999952316,17221.299999952316,17405.700000047684,17829.700000047684,18069.200000047684,18253.700000047684,19197.399999976158,19525.600000023842,19693.600000023842,20286.700000047684,20421.5,20622.5,21254.399999976158,21493.200000047684,21981.299999952316,22125.200000047684,23429.100000023842,23981.5,24885.200000047684,25325.399999976158,26023,26429.200000047684,26685.100000023842,27181.700000047684,27525.100000023842,27653.299999952316,28181.5,29453.299999952316,29741.100000023842,29981.200000047684,30165.299999952316,30525.299999952316,30741.200000047684,31077.5,31408.399999976158,31581.399999976158,31709.200000047684,32053.200000047684,32293.200000047684,32469.200000047684,32757.200000047684,33341.299999952316,34101.39999997616,34333.200000047684,34773,35285.10000002384,35574.299999952316,36429.89999997616,39245.39999997616,39997.89999997616,40165.39999997616,44141.39999997616]","0.5","0.5238095238095238","0","","","","","","","","","","","","","","","","","","","","","","","","","","","","",""
"12599.899999976158","","","","survey-template","8","94412","0.0-4.0-4.0","145","1","2025-08-06 08:55:28","36c45c0696341be0efffe67d72a12abb","213.161.20.6","Mozilla/5.0 (Windows NT 10.0; Win64; x64) AppleWebKit/537.36 (KHTML, like Gecko) Chrome/138.0.0.0 Safari/537.36","WebKit","Chrome","138.0.0.0","Windows","10.0","https://app.prolific.com/","en-SI,en;q=0.9,sl-SI;q=0.8,sl;q=0.7,en-GB;q=0.6,en-US;q=0.5","60fd34d68de7efbcd7de57a0","687a1a965b9f5b85a264363e","68931808ca54650b35618777","1","60fd34d68de7efbcd7de57a0","1","2025-08-06T08:55:51.833Z","","","","stress","{""Q01"":""3"",""Q02"":""4"",""Q03"":""2""}","[0,1,2]","[""Q01"",""Q02"",""Q03""]","[8270.399999976158,10238.399999976158,11702.399999976158]","[]","[8270.399999976158,9407.699999928474,9855,10238.399999976158,11294.5,11702.399999976158,12598.5]","0.3333333333333333","0.5","0","","","","","","","","","","","","","","","","","","","","","","","","","","","","",""
"56373","","","","instructions","9","150786","0.0-5.0-0.0","145","1","2025-08-06 08:55:28","36c45c0696341be0efffe67d72a12abb","213.161.20.6","Mozilla/5.0 (Windows NT 10.0; Win64; x64) AppleWebKit/537.36 (KHTML, like Gecko) Chrome/138.0.0.0 Safari/537.36","WebKit","Chrome","138.0.0.0","Windows","10.0","https://app.prolific.com/","en-SI,en;q=0.9,sl-SI;q=0.8,sl;q=0.7,en-GB;q=0.6,en-US;q=0.5","60fd34d68de7efbcd7de57a0","687a1a965b9f5b85a264363e","68931808ca54650b35618777","1","60fd34d68de7efbcd7de57a0","1","","","","","","","","","","","","","","","[{""page_index"":0,""viewing_time"":56373}]","","","","","","","","","","","","","","","","","","","","","","","","","","","",""
"2510","","<p>Before you start with this game please answer the following three questions yourself. </p>
  <p>Through this game, we measure several aspects of your cognitive performance, such as reaction times, multi-tasking capabilities </p>
  <p>and the ability to assess the situation you are in.</p>
  <p></p>
  <p><b>How good do you usually are in such tasks?</b></p>","45","html-slider-response","10","153298","0.0-6.0-0.0","145","1","2025-08-06 08:55:28","36c45c0696341be0efffe67d72a12abb","213.161.20.6","Mozilla/5.0 (Windows NT 10.0; Win64; x64) AppleWebKit/537.36 (KHTML, like Gecko) Chrome/138.0.0.0 Safari/537.36","WebKit","Chrome","138.0.0.0","Windows","10.0","https://app.prolific.com/","en-SI,en;q=0.9,sl-SI;q=0.8,sl;q=0.7,en-GB;q=0.6,en-US;q=0.5","60fd34d68de7efbcd7de57a0","687a1a965b9f5b85a264363e","68931808ca54650b35618777","1","60fd34d68de7efbcd7de57a0","1","2025-08-06T08:56:50.719Z","","","","PreSkillQ","","","","","","","","","","","50","","","","","","","","","","","","","","","","","","","","","","","","","","",""
"10847","","<div style=""width:500px;"">
  <p>How well do you think you will perform in this task compared to other participants?</p>
  </div>","52","html-slider-response","11","164146","0.0-6.0-1.0","145","1","2025-08-06 08:55:28","36c45c0696341be0efffe67d72a12abb","213.161.20.6","Mozilla/5.0 (Windows NT 10.0; Win64; x64) AppleWebKit/537.36 (KHTML, like Gecko) Chrome/138.0.0.0 Safari/537.36","WebKit","Chrome","138.0.0.0","Windows","10.0","https://app.prolific.com/","en-SI,en;q=0.9,sl-SI;q=0.8,sl;q=0.7,en-GB;q=0.6,en-US;q=0.5","60fd34d68de7efbcd7de57a0","687a1a965b9f5b85a264363e","68931808ca54650b35618777","1","60fd34d68de7efbcd7de57a0","1","2025-08-06T08:57:01.567Z","","","","PrePerfQ","","","","","","","","","","","50","","","","","","","","","","","","","","","","","","","","","","","","","","",""
"5207","","<div style=""width:500px;"">
  <p>What best describes how you currently feel?</p>
  </div>","38","html-slider-response","12","169354","0.0-6.0-2.0","145","1","2025-08-06 08:55:28","36c45c0696341be0efffe67d72a12abb","213.161.20.6","Mozilla/5.0 (Windows NT 10.0; Win64; x64) AppleWebKit/537.36 (KHTML, like Gecko) Chrome/138.0.0.0 Safari/537.36","WebKit","Chrome","138.0.0.0","Windows","10.0","https://app.prolific.com/","en-SI,en;q=0.9,sl-SI;q=0.8,sl;q=0.7,en-GB;q=0.6,en-US;q=0.5","60fd34d68de7efbcd7de57a0","687a1a965b9f5b85a264363e","68931808ca54650b35618777","1","60fd34d68de7efbcd7de57a0","1","2025-08-06T08:57:06.775Z","","","","PreMotivationQ","","","","","","","","","","","50","","","","","","","","","","","","","","","","","","","","","","","","","","",""
"","","","","ctl-task-cpt","13","193648","0.0-7.0-0.0","145","1","2025-08-06 08:55:28","36c45c0696341be0efffe67d72a12abb","213.161.20.6","Mozilla/5.0 (Windows NT 10.0; Win64; x64) AppleWebKit/537.36 (KHTML, like Gecko) Chrome/138.0.0.0 Safari/537.36","WebKit","Chrome","138.0.0.0","Windows","10.0","https://app.prolific.com/","en-SI,en;q=0.9,sl-SI;q=0.8,sl;q=0.7,en-GB;q=0.6,en-US;q=0.5","60fd34d68de7efbcd7de57a0","687a1a965b9f5b85a264363e","68931808ca54650b35618777","1","60fd34d68de7efbcd7de57a0","1","2025-08-06T08:57:31.069Z","","","","","","","","","","","","","","","","win-only","1","g1:NE,g2:SW","1","1","0","171286.6","2286","7286.5","21288.7","1","4","8","6","1","1","-2","0","0","0","2568.9","3000","2275","[""up"",""right""]","{""num_key_presses"":5,""num_perfect"":2,""num_errors"":3,""num_randdir"":0,""num_randdir_good_moves"":0,""num_whilered"":0,""num_whileblue"":2,""num_blue"":2,""num_good_moves"":4}","[416.5714133126395,416.57142761775424,0.2,416.5714133126395,416.57142761775424,105.7,416.5714133126395,416.57142761775424,211.8,416.5714133126395,416.57142761775424,314.5,416.5714133126395,416.57142761775424,415.6,416.5714133126395,416.57142761775424,524.3,416.5714133126395,416.57142761775424,627.9,416.5714133126395,416.57142761775424,729.2,415.3214133126395,414.07142761775424,829.6,454.0714133126395,369.07142761775424,934.5,479.0714133126395,332.82142761775424,1035.9,491.5714133126395,312.82142761775424,1146.9,495.3214133126395,307.82142761775424,1247.5,495.3214133126395,307.82142761775424,1350.4,495.3214133126395,307.82142761775424,1455.8,486.5714133126395,311.57142761775424,1561.1,481.5714133126395,326.57142761775424,1661.9,161.5714133126395,659.0714276177542,1765.5,4.071413312639507,779.0714276177542,1865.8,-4.678586687360493,790.3214276177542,1965.9,146.5714133126395,655.3214276177542,2070.2,835.3214133126395,216.57142761775424,2171.9,861.5714133126395,177.82142761775424,2277.9,836.5714133126395,131.57142761775424,2380.2,816.5714133126395,112.82142761775425,2480.3,812.8214133126395,106.57142761775425,2580.6,812.8214133126395,106.57142761775425,2681.4,811.5714133126395,105.32142761775425,2784.7,811.5714133126395,105.32142761775425,2885.9,811.5714133126395,105.32142761775425,2989.6,811.5714133126395,105.32142761775425,3093.3,811.5714133126395,105.32142761775425,3196.1,810.3214133126395,106.57142761775425,3300.3,810.3214133126395,106.57142761775425,3400.4,810.3214133126395,106.57142761775425,3500.5,809.0714133126395,106.57142761775425,3610.1,809.0714133126395,106.57142761775425,3711,809.0714133126395,106.57142761775425,3825.8,809.0714133126395,106.57142761775425,3925.9,809.0714133126395,106.57142761775425,4031.2,809.0714133126395,106.57142761775425,4136,776.5714133126395,174.07142761775424,4243.2,681.5714133126395,335.32142761775424,4345.6,666.5714133126395,367.82142761775424,4445.8,666.5714133126395,367.82142761775424,4549.9,666.5714133126395,367.82142761775424,4659.4,666.5714133126395,367.82142761775424,4759.4,666.5714133126395,367.82142761775424,4861.5,666.5714133126395,367.82142761775424,4965.6]","[1505.2,1505.2,1009.2,0,496,""while_blue"",""right"",""right"",""good_move"",4710.8,3205.1,2539.4,1505.8,665.6,""while_blue"",""right"",""up"",""good_move"",6346.6,1635.4,2472.5,4711.2,-837.1,""error"",""-"",""-"",""no_move"",10772.2,4425.4,3072,7349.5,350.7,""smooth"",""right"",""right"",""good_move"",13898.7,3126.2,2729.3,10772.5,396.9,""smooth"",""up"",""up"",""good_move""]"
"4001","","<div style=""width:500px;"">
  <p>What determined the result of this run?</p>
  </div>","55","html-slider-response","14","197650","0.0-7.0-1.0","145","1","2025-08-06 08:55:28","36c45c0696341be0efffe67d72a12abb","213.161.20.6","Mozilla/5.0 (Windows NT 10.0; Win64; x64) AppleWebKit/537.36 (KHTML, like Gecko) Chrome/138.0.0.0 Safari/537.36","WebKit","Chrome","138.0.0.0","Windows","10.0","https://app.prolific.com/","en-SI,en;q=0.9,sl-SI;q=0.8,sl;q=0.7,en-GB;q=0.6,en-US;q=0.5","60fd34d68de7efbcd7de57a0","687a1a965b9f5b85a264363e","68931808ca54650b35618777","1","60fd34d68de7efbcd7de57a0","1","2025-08-06T08:57:35.071Z","","","","AttribQ","","","","","","","","","","","50","","","","","","","","","","","","","","","","","","","","","","","","","","",""
"2271","","<div style=""width:500px;"">
  <p>How much control did you have over the ball?</p>
  </div>","46","html-slider-response","15","199922","0.0-7.0-2.0","145","1","2025-08-06 08:55:28","36c45c0696341be0efffe67d72a12abb","213.161.20.6","Mozilla/5.0 (Windows NT 10.0; Win64; x64) AppleWebKit/537.36 (KHTML, like Gecko) Chrome/138.0.0.0 Safari/537.36","WebKit","Chrome","138.0.0.0","Windows","10.0","https://app.prolific.com/","en-SI,en;q=0.9,sl-SI;q=0.8,sl;q=0.7,en-GB;q=0.6,en-US;q=0.5","60fd34d68de7efbcd7de57a0","687a1a965b9f5b85a264363e","68931808ca54650b35618777","1","60fd34d68de7efbcd7de57a0","1","2025-08-06T08:57:37.343Z","","","","ControlQ","","","","","","","","","","","50","","","","","","","","","","","","","","","","","","","","","","","","","","",""
"2367","","<div style=""width:500px;"">
  <p>How would you describe your current emotional state?</p>
  </div>","43","html-slider-response","16","202290","0.0-7.0-3.0","145","1","2025-08-06 08:55:28","36c45c0696341be0efffe67d72a12abb","213.161.20.6","Mozilla/5.0 (Windows NT 10.0; Win64; x64) AppleWebKit/537.36 (KHTML, like Gecko) Chrome/138.0.0.0 Safari/537.36","WebKit","Chrome","138.0.0.0","Windows","10.0","https://app.prolific.com/","en-SI,en;q=0.9,sl-SI;q=0.8,sl;q=0.7,en-GB;q=0.6,en-US;q=0.5","60fd34d68de7efbcd7de57a0","687a1a965b9f5b85a264363e","68931808ca54650b35618777","1","60fd34d68de7efbcd7de57a0","1","2025-08-06T08:57:39.711Z","","","","StressQ","","","","","","","","","","","50","","","","","","","","","","","","","","","","","","","","","","","","","","",""
"1863","","<div style=""width:500px;"">
  <p>What best describes how you currently feel?</p>
  </div>","43","html-slider-response","17","204154","0.0-7.0-4.0","145","1","2025-08-06 08:55:28","36c45c0696341be0efffe67d72a12abb","213.161.20.6","Mozilla/5.0 (Windows NT 10.0; Win64; x64) AppleWebKit/537.36 (KHTML, like Gecko) Chrome/138.0.0.0 Safari/537.36","WebKit","Chrome","138.0.0.0","Windows","10.0","https://app.prolific.com/","en-SI,en;q=0.9,sl-SI;q=0.8,sl;q=0.7,en-GB;q=0.6,en-US;q=0.5","60fd34d68de7efbcd7de57a0","687a1a965b9f5b85a264363e","68931808ca54650b35618777","1","60fd34d68de7efbcd7de57a0","1","2025-08-06T08:57:41.576Z","","","","MotivationQ","","","","","","","","","","","50","","","","","","","","","","","","","","","","","","","","","","","","","","",""
"","","","","ctl-task-cpt","18","225821","0.0-7.0-0.1","145","1","2025-08-06 08:55:28","36c45c0696341be0efffe67d72a12abb","213.161.20.6","Mozilla/5.0 (Windows NT 10.0; Win64; x64) AppleWebKit/537.36 (KHTML, like Gecko) Chrome/138.0.0.0 Safari/537.36","WebKit","Chrome","138.0.0.0","Windows","10.0","https://app.prolific.com/","en-SI,en;q=0.9,sl-SI;q=0.8,sl;q=0.7,en-GB;q=0.6,en-US;q=0.5","60fd34d68de7efbcd7de57a0","687a1a965b9f5b85a264363e","68931808ca54650b35618777","1","60fd34d68de7efbcd7de57a0","1","2025-08-06T08:58:03.242Z","","","","","","","","","","","","","","","","win-only","2","g1:SE,g2:NW","0.9","2","0","206086.1","870.7","5872.2","18615.9","1","4","4","6","1","-1","-2","0","0","0","3018.1","3000","-2940","[""down"",""right""]","{""num_key_presses"":4,""num_perfect"":3,""num_errors"":1,""num_randdir"":0,""num_randdir_good_moves"":0,""num_whilered"":0,""num_whileblue"":1,""num_blue"":1,""num_good_moves"":3}","[415.3214133126395,425.32142761775424,0.2,415.3214133126395,425.32142761775424,100.1,415.3214133126395,425.32142761775424,205.2,415.3214133126395,425.32142761775424,305.4,420.3214133126395,425.32142761775424,429.2,420.3214133126395,425.32142761775424,531.7,420.3214133126395,425.32142761775424,632.1,420.3214133126395,425.32142761775424,735.5,420.3214133126395,425.32142761775424,836.4,420.3214133126395,425.32142761775424,939.8,420.3214133126395,425.32142761775424,1040.3,420.3214133126395,425.32142761775424,1148,420.3214133126395,425.32142761775424,1257.2,420.3214133126395,425.32142761775424,1362.2,420.3214133126395,425.32142761775424,1463.2,420.3214133126395,425.32142761775424,1564.8,420.3214133126395,425.32142761775424,1664.8,420.3214133126395,425.32142761775424,1770.4,420.3214133126395,425.32142761775424,1871.1,457.8214133126395,436.57142761775424,1971.3,457.8214133126395,436.57142761775424,2074.8,459.0714133126395,435.32142761775424,2178.8,459.0714133126395,434.07142761775424,2280.7,459.0714133126395,434.07142761775424,2385.4,472.8214133126395,447.82142761775424,2485.9,511.5714133126395,500.32142761775424,2586.4,677.8214133126395,661.5714276177542,2690.3,711.5714133126395,700.3214276177542,2796.9,711.5714133126395,701.5714276177542,2901.5,730.3214133126395,714.0714276177542,3005.1,730.3214133126395,714.0714276177542,3109.9,730.3214133126395,714.0714276177542,3213.7,730.3214133126395,714.0714276177542,3313.8,732.8214133126395,714.0714276177542,3415.8,736.5714133126395,699.0714276177542,3521.3,736.5714133126395,692.8214276177542,3621.6,735.3214133126395,691.5714276177542,3727.5,735.3214133126395,691.5714276177542,3830.5,735.3214133126395,691.5714276177542,3935,735.3214133126395,691.5714276177542,4036.8,735.3214133126395,691.5714276177542,4143.7,735.3214133126395,691.5714276177542,4244.8,735.3214133126395,691.5714276177542,4351.3,735.3214133126395,691.5714276177542,4455,735.3214133126395,691.5714276177542,4560.2,735.3214133126395,691.5714276177542,4660.5,735.3214133126395,691.5714276177542,4765.2,735.3214133126395,691.5714276177542,4865.6,735.3214133126395,691.5714276177542,4971.1]","[1641.7,1641.7,1000,0.1,641.6,""smooth"",""down"",""down"",""good_move"",5272.1,3629.9,1155.4,1642.2,2474.5,""smooth"",""down"",""down"",""good_move"",7633.3,2361,2004.9,5272.3,356.1,""smooth"",""right"",""right"",""good_move"",9810.6,2177.1,1896.3,7633.5,280.8,""while_blue"",""right"",""up"",""bad_move""]"
"4820","","<div style=""width:500px;"">
  <p>What determined the result of this run?</p>
  </div>","54","html-slider-response","19","230642","0.0-7.0-1.1","145","1","2025-08-06 08:55:28","36c45c0696341be0efffe67d72a12abb","213.161.20.6","Mozilla/5.0 (Windows NT 10.0; Win64; x64) AppleWebKit/537.36 (KHTML, like Gecko) Chrome/138.0.0.0 Safari/537.36","WebKit","Chrome","138.0.0.0","Windows","10.0","https://app.prolific.com/","en-SI,en;q=0.9,sl-SI;q=0.8,sl;q=0.7,en-GB;q=0.6,en-US;q=0.5","60fd34d68de7efbcd7de57a0","687a1a965b9f5b85a264363e","68931808ca54650b35618777","1","60fd34d68de7efbcd7de57a0","1","2025-08-06T08:58:08.064Z","","","","AttribQ","","","","","","","","","","","50","","","","","","","","","","","","","","","","","","","","","","","","","","",""
"2230","","<div style=""width:500px;"">
  <p>How much control did you have over the ball?</p>
  </div>","43","html-slider-response","20","232874","0.0-7.0-2.1","145","1","2025-08-06 08:55:28","36c45c0696341be0efffe67d72a12abb","213.161.20.6","Mozilla/5.0 (Windows NT 10.0; Win64; x64) AppleWebKit/537.36 (KHTML, like Gecko) Chrome/138.0.0.0 Safari/537.36","WebKit","Chrome","138.0.0.0","Windows","10.0","https://app.prolific.com/","en-SI,en;q=0.9,sl-SI;q=0.8,sl;q=0.7,en-GB;q=0.6,en-US;q=0.5","60fd34d68de7efbcd7de57a0","687a1a965b9f5b85a264363e","68931808ca54650b35618777","1","60fd34d68de7efbcd7de57a0","1","2025-08-06T08:58:10.295Z","","","","ControlQ","","","","","","","","","","","50","","","","","","","","","","","","","","","","","","","","","","","","","","",""
"1848","","<div style=""width:500px;"">
  <p>How would you describe your current emotional state?</p>
  </div>","54","html-slider-response","21","234723","0.0-7.0-3.1","145","1","2025-08-06 08:55:28","36c45c0696341be0efffe67d72a12abb","213.161.20.6","Mozilla/5.0 (Windows NT 10.0; Win64; x64) AppleWebKit/537.36 (KHTML, like Gecko) Chrome/138.0.0.0 Safari/537.36","WebKit","Chrome","138.0.0.0","Windows","10.0","https://app.prolific.com/","en-SI,en;q=0.9,sl-SI;q=0.8,sl;q=0.7,en-GB;q=0.6,en-US;q=0.5","60fd34d68de7efbcd7de57a0","687a1a965b9f5b85a264363e","68931808ca54650b35618777","1","60fd34d68de7efbcd7de57a0","1","2025-08-06T08:58:12.144Z","","","","StressQ","","","","","","","","","","","50","","","","","","","","","","","","","","","","","","","","","","","","","","",""
"2102","","<div style=""width:500px;"">
  <p>What best describes how you currently feel?</p>
  </div>","40","html-slider-response","22","236826","0.0-7.0-4.1","145","1","2025-08-06 08:55:28","36c45c0696341be0efffe67d72a12abb","213.161.20.6","Mozilla/5.0 (Windows NT 10.0; Win64; x64) AppleWebKit/537.36 (KHTML, like Gecko) Chrome/138.0.0.0 Safari/537.36","WebKit","Chrome","138.0.0.0","Windows","10.0","https://app.prolific.com/","en-SI,en;q=0.9,sl-SI;q=0.8,sl;q=0.7,en-GB;q=0.6,en-US;q=0.5","60fd34d68de7efbcd7de57a0","687a1a965b9f5b85a264363e","68931808ca54650b35618777","1","60fd34d68de7efbcd7de57a0","1","2025-08-06T08:58:14.247Z","","","","MotivationQ","","","","","","","","","","","50","","","","","","","","","","","","","","","","","","","","","","","","","","",""
"","","","","ctl-task-cpt","23","260431","0.0-7.0-0.2","145","1","2025-08-06 08:55:28","36c45c0696341be0efffe67d72a12abb","213.161.20.6","Mozilla/5.0 (Windows NT 10.0; Win64; x64) AppleWebKit/537.36 (KHTML, like Gecko) Chrome/138.0.0.0 Safari/537.36","WebKit","Chrome","138.0.0.0","Windows","10.0","https://app.prolific.com/","en-SI,en;q=0.9,sl-SI;q=0.8,sl;q=0.7,en-GB;q=0.6,en-US;q=0.5","60fd34d68de7efbcd7de57a0","687a1a965b9f5b85a264363e","68931808ca54650b35618777","1","60fd34d68de7efbcd7de57a0","1","2025-08-06T08:58:37.852Z","","","","","","","","","","","","","","","","win-only","2","g1:SE,g2:NW","0.8","3","0","238758.1","925.8","5928.7","20597.6","1","4","8","6","1","-1","-1","0","0","0","1021.5","3000","-2630","[""down"",""right""]","{""num_key_presses"":3,""num_perfect"":2,""num_errors"":0,""num_randdir"":1,""num_randdir_good_moves"":0,""num_whilered"":0,""num_whileblue"":0,""num_blue"":1,""num_good_moves"":2}","[346.9642857142857,350.96428666796004,0.2,346.9642857142857,350.96428666796004,100.9,346.9642857142857,350.96428666796004,207.5,346.9642857142857,350.96428666796004,309.9,346.9642857142857,350.96428666796004,411.2,383.2142857142857,409.71428666796004,515.5,501.9642857142857,604.71428666796,621,534.4642857142857,607.21428666796,724.6,569.4642857142857,609.71428666796,824.9,601.9642857142857,610.96428666796,926.2,634.4642857142857,618.46428666796,1030.6,633.2142857142857,619.71428666796,1135.7,631.9642857142857,619.71428666796,1236,629.4642857142857,620.96428666796,1338.4,626.9642857142857,620.96428666796,1454.3,626.9642857142857,620.96428666796,1555.9,626.9642857142857,620.96428666796,1661.4,626.9642857142857,620.96428666796,1770.4,626.9642857142857,620.96428666796,1874.8,626.9642857142857,620.96428666796,1974.8,626.9642857142857,620.96428666796,2075,626.9642857142857,620.96428666796,2179.9,626.9642857142857,620.96428666796,2280.3,626.9642857142857,620.96428666796,2380.7,626.9642857142857,620.96428666796,2488.6,626.9642857142857,620.96428666796,2589.6,626.9642857142857,620.96428666796,2690.9,626.9642857142857,620.96428666796,2794.7,626.9642857142857,620.96428666796,2895.6,626.9642857142857,620.96428666796,3004,626.9642857142857,620.96428666796,3105.2,626.9642857142857,620.96428666796,3205.7,626.9642857142857,620.96428666796,3311.6,626.9642857142857,620.96428666796,3419.6,626.9642857142857,620.96428666796,3522.1,626.9642857142857,620.96428666796,3625.2,551.9642857142857,593.46428666796,3737.1,498.2142857142857,565.96428666796,3840.1,453.2142857142857,533.46428666796,3940.3,436.9642857142857,515.96428666796,4041.2,436.9642857142857,515.96428666796,4145.2,436.9642857142857,515.96428666796,4254.3,436.9642857142857,515.96428666796,4354.7,436.9642857142857,515.96428666796,4455.5,436.9642857142857,515.96428666796,4555.6,436.9642857142857,515.96428666796,4663.2,436.9642857142857,515.96428666796,4769.2,436.9642857142857,515.96428666796,4871.4,436.9642857142857,515.96428666796,4975.5]","[6429.1,6429.1,2404.7,2001.9,2022.5,""oops"",""down"",""up"",""bad_move"",9268.8,2839.1,2385.4,6429.7,453.7,""smooth"",""right"",""right"",""good_move"",12811.5,3542.3,2764.6,9269.2,777.7,""smooth"",""down"",""down"",""good_move""]"
"2041","","<div style=""width:500px;"">
  <p>What determined the result of this run?</p>
  </div>","41","html-slider-response","24","262474","0.0-7.0-1.2","145","1","2025-08-06 08:55:28","36c45c0696341be0efffe67d72a12abb","213.161.20.6","Mozilla/5.0 (Windows NT 10.0; Win64; x64) AppleWebKit/537.36 (KHTML, like Gecko) Chrome/138.0.0.0 Safari/537.36","WebKit","Chrome","138.0.0.0","Windows","10.0","https://app.prolific.com/","en-SI,en;q=0.9,sl-SI;q=0.8,sl;q=0.7,en-GB;q=0.6,en-US;q=0.5","60fd34d68de7efbcd7de57a0","687a1a965b9f5b85a264363e","68931808ca54650b35618777","1","60fd34d68de7efbcd7de57a0","1","2025-08-06T08:58:39.895Z","","","","AttribQ","","","","","","","","","","","50","","","","","","","","","","","","","","","","","","","","","","","","","","",""
"1823","","<div style=""width:500px;"">
  <p>How much control did you have over the ball?</p>
  </div>","43","html-slider-response","25","264298","0.0-7.0-2.2","145","1","2025-08-06 08:55:28","36c45c0696341be0efffe67d72a12abb","213.161.20.6","Mozilla/5.0 (Windows NT 10.0; Win64; x64) AppleWebKit/537.36 (KHTML, like Gecko) Chrome/138.0.0.0 Safari/537.36","WebKit","Chrome","138.0.0.0","Windows","10.0","https://app.prolific.com/","en-SI,en;q=0.9,sl-SI;q=0.8,sl;q=0.7,en-GB;q=0.6,en-US;q=0.5","60fd34d68de7efbcd7de57a0","687a1a965b9f5b85a264363e","68931808ca54650b35618777","1","60fd34d68de7efbcd7de57a0","1","2025-08-06T08:58:41.719Z","","","","ControlQ","","","","","","","","","","","50","","","","","","","","","","","","","","","","","","","","","","","","","","",""
"1887","","<div style=""width:500px;"">
  <p>How would you describe your current emotional state?</p>
  </div>","60","html-slider-response","26","266186","0.0-7.0-3.2","145","1","2025-08-06 08:55:28","36c45c0696341be0efffe67d72a12abb","213.161.20.6","Mozilla/5.0 (Windows NT 10.0; Win64; x64) AppleWebKit/537.36 (KHTML, like Gecko) Chrome/138.0.0.0 Safari/537.36","WebKit","Chrome","138.0.0.0","Windows","10.0","https://app.prolific.com/","en-SI,en;q=0.9,sl-SI;q=0.8,sl;q=0.7,en-GB;q=0.6,en-US;q=0.5","60fd34d68de7efbcd7de57a0","687a1a965b9f5b85a264363e","68931808ca54650b35618777","1","60fd34d68de7efbcd7de57a0","1","2025-08-06T08:58:43.607Z","","","","StressQ","","","","","","","","","","","50","","","","","","","","","","","","","","","","","","","","","","","","","","",""
"1615","","<div style=""width:500px;"">
  <p>What best describes how you currently feel?</p>
  </div>","39","html-slider-response","27","267802","0.0-7.0-4.2","145","1","2025-08-06 08:55:28","36c45c0696341be0efffe67d72a12abb","213.161.20.6","Mozilla/5.0 (Windows NT 10.0; Win64; x64) AppleWebKit/537.36 (KHTML, like Gecko) Chrome/138.0.0.0 Safari/537.36","WebKit","Chrome","138.0.0.0","Windows","10.0","https://app.prolific.com/","en-SI,en;q=0.9,sl-SI;q=0.8,sl;q=0.7,en-GB;q=0.6,en-US;q=0.5","60fd34d68de7efbcd7de57a0","687a1a965b9f5b85a264363e","68931808ca54650b35618777","1","60fd34d68de7efbcd7de57a0","1","2025-08-06T08:58:45.223Z","","","","MotivationQ","","","","","","","","","","","50","","","","","","","","","","","","","","","","","","","","","","","","","","",""
"","","","","ctl-task-cpt","28","284488","0.0-7.0-0.3","145","1","2025-08-06 08:55:28","36c45c0696341be0efffe67d72a12abb","213.161.20.6","Mozilla/5.0 (Windows NT 10.0; Win64; x64) AppleWebKit/537.36 (KHTML, like Gecko) Chrome/138.0.0.0 Safari/537.36","WebKit","Chrome","138.0.0.0","Windows","10.0","https://app.prolific.com/","en-SI,en;q=0.9,sl-SI;q=0.8,sl;q=0.7,en-GB;q=0.6,en-US;q=0.5","60fd34d68de7efbcd7de57a0","687a1a965b9f5b85a264363e","68931808ca54650b35618777","1","60fd34d68de7efbcd7de57a0","1","2025-08-06T08:59:01.909Z","","","","","","","","","","","","","","","","win-only","2","g1:SE,g2:NW","0.7","4","0","269734.5","926.5","5931","13667.5","1","4","4","6","1","-1","-1","0","0","0","4487.5","3000","-2610","[""down"",""right""]","{""num_key_presses"":1,""num_perfect"":1,""num_errors"":0,""num_randdir"":0,""num_randdir_good_moves"":0,""num_whilered"":0,""num_whileblue"":0,""num_blue"":0,""num_good_moves"":1}","[353.2142857142857,357.21428666796004,0.3,353.2142857142857,357.21428666796004,105.7,353.2142857142857,357.21428666796004,210,353.2142857142857,357.21428666796004,315.6,353.2142857142857,357.21428666796004,423.4,353.2142857142857,357.21428666796004,524.9,353.2142857142857,357.21428666796004,630.5,353.2142857142857,357.21428666796004,734.1,353.2142857142857,357.21428666796004,834.8,353.2142857142857,357.21428666796004,934.8,353.2142857142857,357.21428666796004,1038.9,353.2142857142857,357.21428666796004,1139.1,353.2142857142857,357.21428666796004,1244.8,353.2142857142857,357.21428666796004,1347.2,353.2142857142857,357.21428666796004,1450.2,353.2142857142857,357.21428666796004,1554.7,353.2142857142857,357.21428666796004,1661.1,353.2142857142857,357.21428666796004,1765,354.4642857142857,357.21428666796004,1870.2,360.7142857142857,357.21428666796004,1970.3,363.2142857142857,359.71428666796004,2075.8,391.9642857142857,364.71428666796004,2175.8,416.9642857142857,364.71428666796004,2280.1,429.4642857142857,362.21428666796004,2384.7,826.9642857142857,362.21428666796004,2489.8,848.2142857142857,362.21428666796004,2594.4,848.2142857142857,362.21428666796004,2696.4,759.4642857142857,405.96428666796004,2799.1,488.2142857142857,464.71428666796004,2904,499.4642857142857,558.46428666796,3010.7,521.9642857142857,595.96428666796,3112.5,523.2142857142857,595.96428666796,3214.9,526.9642857142857,573.46428666796,3315.7,514.4642857142857,533.46428666796,3419,461.9642857142857,517.21428666796,3524.2,428.2142857142857,472.21428666796004,3625.8,425.7142857142857,445.96428666796004,3730.6,424.4642857142857,432.21428666796004,3833.8,421.9642857142857,427.21428666796004,3934.5,445.7142857142857,442.21428666796004,4039.1,661.9642857142857,712.21428666796,4139.2,711.9642857142857,718.46428666796,4244,690.7142857142857,695.96428666796,4344.2,675.7142857142857,680.96428666796,4446.9,675.7142857142857,678.46428666796,4549.2,675.7142857142857,678.46428666796,4649.2,675.7142857142857,678.46428666796,4750.1,675.7142857142857,678.46428666796,4855.1,625.7142857142857,627.21428666796,4960.2]","[3903.1,3903.2,1000,0,2903.2,""smooth"",""down"",""down"",""good_move""]"
"2321","","<div style=""width:500px;"">
  <p>What determined the result of this run?</p>
  </div>","55","html-slider-response","29","286810","0.0-7.0-1.3","145","1","2025-08-06 08:55:28","36c45c0696341be0efffe67d72a12abb","213.161.20.6","Mozilla/5.0 (Windows NT 10.0; Win64; x64) AppleWebKit/537.36 (KHTML, like Gecko) Chrome/138.0.0.0 Safari/537.36","WebKit","Chrome","138.0.0.0","Windows","10.0","https://app.prolific.com/","en-SI,en;q=0.9,sl-SI;q=0.8,sl;q=0.7,en-GB;q=0.6,en-US;q=0.5","60fd34d68de7efbcd7de57a0","687a1a965b9f5b85a264363e","68931808ca54650b35618777","1","60fd34d68de7efbcd7de57a0","1","2025-08-06T08:59:04.231Z","","","","AttribQ","","","","","","","","","","","50","","","","","","","","","","","","","","","","","","","","","","","","","","",""
"2175","","<div style=""width:500px;"">
  <p>How much control did you have over the ball?</p>
  </div>","43","html-slider-response","30","288986","0.0-7.0-2.3","145","1","2025-08-06 08:55:28","36c45c0696341be0efffe67d72a12abb","213.161.20.6","Mozilla/5.0 (Windows NT 10.0; Win64; x64) AppleWebKit/537.36 (KHTML, like Gecko) Chrome/138.0.0.0 Safari/537.36","WebKit","Chrome","138.0.0.0","Windows","10.0","https://app.prolific.com/","en-SI,en;q=0.9,sl-SI;q=0.8,sl;q=0.7,en-GB;q=0.6,en-US;q=0.5","60fd34d68de7efbcd7de57a0","687a1a965b9f5b85a264363e","68931808ca54650b35618777","1","60fd34d68de7efbcd7de57a0","1","2025-08-06T08:59:06.407Z","","","","ControlQ","","","","","","","","","","","50","","","","","","","","","","","","","","","","","","","","","","","","","","",""
"1599","","<div style=""width:500px;"">
  <p>How would you describe your current emotional state?</p>
  </div>","54","html-slider-response","31","290586","0.0-7.0-3.3","145","1","2025-08-06 08:55:28","36c45c0696341be0efffe67d72a12abb","213.161.20.6","Mozilla/5.0 (Windows NT 10.0; Win64; x64) AppleWebKit/537.36 (KHTML, like Gecko) Chrome/138.0.0.0 Safari/537.36","WebKit","Chrome","138.0.0.0","Windows","10.0","https://app.prolific.com/","en-SI,en;q=0.9,sl-SI;q=0.8,sl;q=0.7,en-GB;q=0.6,en-US;q=0.5","60fd34d68de7efbcd7de57a0","687a1a965b9f5b85a264363e","68931808ca54650b35618777","1","60fd34d68de7efbcd7de57a0","1","2025-08-06T08:59:08.007Z","","","","StressQ","","","","","","","","","","","50","","","","","","","","","","","","","","","","","","","","","","","","","","",""
"1455","","<div style=""width:500px;"">
  <p>What best describes how you currently feel?</p>
  </div>","40","html-slider-response","32","292042","0.0-7.0-4.3","145","1","2025-08-06 08:55:28","36c45c0696341be0efffe67d72a12abb","213.161.20.6","Mozilla/5.0 (Windows NT 10.0; Win64; x64) AppleWebKit/537.36 (KHTML, like Gecko) Chrome/138.0.0.0 Safari/537.36","WebKit","Chrome","138.0.0.0","Windows","10.0","https://app.prolific.com/","en-SI,en;q=0.9,sl-SI;q=0.8,sl;q=0.7,en-GB;q=0.6,en-US;q=0.5","60fd34d68de7efbcd7de57a0","687a1a965b9f5b85a264363e","68931808ca54650b35618777","1","60fd34d68de7efbcd7de57a0","1","2025-08-06T08:59:09.463Z","","","","MotivationQ","","","","","","","","","","","50","","","","","","","","","","","","","","","","","","","","","","","","","","",""
"","","","","ctl-task-cpt","33","308512","0.0-7.0-0.4","145","1","2025-08-06 08:55:28","36c45c0696341be0efffe67d72a12abb","213.161.20.6","Mozilla/5.0 (Windows NT 10.0; Win64; x64) AppleWebKit/537.36 (KHTML, like Gecko) Chrome/138.0.0.0 Safari/537.36","WebKit","Chrome","138.0.0.0","Windows","10.0","https://app.prolific.com/","en-SI,en;q=0.9,sl-SI;q=0.8,sl;q=0.7,en-GB;q=0.6,en-US;q=0.5","60fd34d68de7efbcd7de57a0","687a1a965b9f5b85a264363e","68931808ca54650b35618777","1","60fd34d68de7efbcd7de57a0","1","2025-08-06T08:59:25.933Z","","","","","","","","","","","","","","","","win-only","1","g1:NE,g2:SW","0.6","5","0","293974.4","1645.9","6647","13460.7","1","4","8","6","1","-1","-1","0","0","0","957.5","3000","-2635","[""up"",""right""]","{""num_key_presses"":1,""num_perfect"":0,""num_errors"":0,""num_randdir"":1,""num_randdir_good_moves"":0,""num_whilered"":0,""num_whileblue"":0,""num_blue"":0,""num_good_moves"":0}","[351.9642857142857,353.46428666796004,0.2,353.2142857142857,353.46428666796004,100.7,353.2142857142857,353.46428666796004,207.6,353.2142857142857,353.46428666796004,313.1,358.2142857142857,353.46428666796004,415.6,426.9642857142857,373.46428666796004,516.1,451.9642857142857,363.46428666796004,620.8,611.9642857142857,103.46428666796004,724.8,611.9642857142857,89.71428666796004,824.9,628.2142857142857,57.21428666796003,929.9,628.2142857142857,57.21428666796003,1031.2,628.2142857142857,57.21428666796003,1135.1,628.2142857142857,57.21428666796003,1236,628.2142857142857,57.21428666796003,1380.6,628.2142857142857,57.21428666796003,1485.1,628.2142857142857,57.21428666796003,1585.6,628.2142857142857,57.21428666796003,1695.3,628.2142857142857,57.21428666796003,1795.9,628.2142857142857,57.21428666796003,1900.6,628.2142857142857,57.21428666796003,2010.3,628.2142857142857,57.21428666796003,2110.8,628.2142857142857,57.21428666796003,2214.4,628.2142857142857,57.21428666796003,2314.9,628.2142857142857,57.21428666796003,2416.5,628.2142857142857,57.21428666796003,2520,628.2142857142857,57.21428666796003,2621,628.2142857142857,57.21428666796003,2728.4,628.2142857142857,57.21428666796003,2829.4,628.2142857142857,57.21428666796003,2931.1,628.2142857142857,57.21428666796003,3034.7,628.2142857142857,57.21428666796003,3135.1,628.2142857142857,57.21428666796003,3243.4,628.2142857142857,57.21428666796003,3345,628.2142857142857,57.21428666796003,3457.4,593.2142857142857,552.21428666796,3577.7,904.4642857142857,304.71428666796004,3680.4,929.4642857142857,282.21428666796004,3780.5,930.7142857142857,280.96428666796004,3885.9,930.7142857142857,280.96428666796004,3994.4,930.7142857142857,280.96428666796004,4095.9,930.7142857142857,280.96428666796004,4201,930.7142857142857,280.96428666796004,4305.2,930.7142857142857,280.96428666796004,4407.9,918.2142857142857,280.96428666796004,4508.4,916.9642857142857,280.96428666796004,4608.9,913.2142857142857,282.21428666796004,4711.3,913.2142857142857,282.21428666796004,4812.4,913.2142857142857,282.21428666796004,4915.3]","[1345.9,1345.9,1000,0,345.9,""oops"",""right"",""left"",""bad_move""]"
"4368","","<div style=""width:500px;"">
  <p>What determined the result of this run?</p>
  </div>","41","html-slider-response","34","312882","0.0-7.0-1.4","145","1","2025-08-06 08:55:28","36c45c0696341be0efffe67d72a12abb","213.161.20.6","Mozilla/5.0 (Windows NT 10.0; Win64; x64) AppleWebKit/537.36 (KHTML, like Gecko) Chrome/138.0.0.0 Safari/537.36","WebKit","Chrome","138.0.0.0","Windows","10.0","https://app.prolific.com/","en-SI,en;q=0.9,sl-SI;q=0.8,sl;q=0.7,en-GB;q=0.6,en-US;q=0.5","60fd34d68de7efbcd7de57a0","687a1a965b9f5b85a264363e","68931808ca54650b35618777","1","60fd34d68de7efbcd7de57a0","1","2025-08-06T08:59:30.303Z","","","","AttribQ","","","","","","","","","","","50","","","","","","","","","","","","","","","","","","","","","","","","","","",""
"1456","","<div style=""width:500px;"">
  <p>How much control did you have over the ball?</p>
  </div>","39","html-slider-response","35","314339","0.0-7.0-2.4","145","1","2025-08-06 08:55:28","36c45c0696341be0efffe67d72a12abb","213.161.20.6","Mozilla/5.0 (Windows NT 10.0; Win64; x64) AppleWebKit/537.36 (KHTML, like Gecko) Chrome/138.0.0.0 Safari/537.36","WebKit","Chrome","138.0.0.0","Windows","10.0","https://app.prolific.com/","en-SI,en;q=0.9,sl-SI;q=0.8,sl;q=0.7,en-GB;q=0.6,en-US;q=0.5","60fd34d68de7efbcd7de57a0","687a1a965b9f5b85a264363e","68931808ca54650b35618777","1","60fd34d68de7efbcd7de57a0","1","2025-08-06T08:59:31.760Z","","","","ControlQ","","","","","","","","","","","50","","","","","","","","","","","","","","","","","","","","","","","","","","",""
"1494","","<div style=""width:500px;"">
  <p>How would you describe your current emotional state?</p>
  </div>","56","html-slider-response","36","315834","0.0-7.0-3.4","145","1","2025-08-06 08:55:28","36c45c0696341be0efffe67d72a12abb","213.161.20.6","Mozilla/5.0 (Windows NT 10.0; Win64; x64) AppleWebKit/537.36 (KHTML, like Gecko) Chrome/138.0.0.0 Safari/537.36","WebKit","Chrome","138.0.0.0","Windows","10.0","https://app.prolific.com/","en-SI,en;q=0.9,sl-SI;q=0.8,sl;q=0.7,en-GB;q=0.6,en-US;q=0.5","60fd34d68de7efbcd7de57a0","687a1a965b9f5b85a264363e","68931808ca54650b35618777","1","60fd34d68de7efbcd7de57a0","1","2025-08-06T08:59:33.255Z","","","","StressQ","","","","","","","","","","","50","","","","","","","","","","","","","","","","","","","","","","","","","","",""
"1942","","<div style=""width:500px;"">
  <p>What best describes how you currently feel?</p>
  </div>","38","html-slider-response","37","317777","0.0-7.0-4.4","145","1","2025-08-06 08:55:28","36c45c0696341be0efffe67d72a12abb","213.161.20.6","Mozilla/5.0 (Windows NT 10.0; Win64; x64) AppleWebKit/537.36 (KHTML, like Gecko) Chrome/138.0.0.0 Safari/537.36","WebKit","Chrome","138.0.0.0","Windows","10.0","https://app.prolific.com/","en-SI,en;q=0.9,sl-SI;q=0.8,sl;q=0.7,en-GB;q=0.6,en-US;q=0.5","60fd34d68de7efbcd7de57a0","687a1a965b9f5b85a264363e","68931808ca54650b35618777","1","60fd34d68de7efbcd7de57a0","1","2025-08-06T08:59:35.199Z","","","","MotivationQ","","","","","","","","","","","50","","","","","","","","","","","","","","","","","","","","","","","","","","",""
"","","","","ctl-task-cpt","38","337248","0.0-7.0-0.5","145","1","2025-08-06 08:55:28","36c45c0696341be0efffe67d72a12abb","213.161.20.6","Mozilla/5.0 (Windows NT 10.0; Win64; x64) AppleWebKit/537.36 (KHTML, like Gecko) Chrome/138.0.0.0 Safari/537.36","WebKit","Chrome","138.0.0.0","Windows","10.0","https://app.prolific.com/","en-SI,en;q=0.9,sl-SI;q=0.8,sl;q=0.7,en-GB;q=0.6,en-US;q=0.5","60fd34d68de7efbcd7de57a0","687a1a965b9f5b85a264363e","68931808ca54650b35618777","1","60fd34d68de7efbcd7de57a0","1","2025-08-06T08:59:54.669Z","","","","","","","","","","","","","","","","win-only","2","g1:SE,g2:NW","0.5","6","0","319709.8","894.3","5895.8","16455.1","1","4","4","6","1","-1","-2","0","0","0","3456.8","3000","-2640","[""down"",""right""]","{""num_key_presses"":3,""num_perfect"":1,""num_errors"":1,""num_randdir"":1,""num_randdir_good_moves"":1,""num_whilered"":0,""num_whileblue"":0,""num_blue"":0,""num_good_moves"":2}","[351.9642857142857,354.71428666796004,0.1,350.7142857142857,355.96428666796004,101.3,350.7142857142857,357.21428666796004,202.4,350.7142857142857,357.21428666796004,303.6,350.7142857142857,357.21428666796004,408.2,350.7142857142857,357.21428666796004,508.6,376.9642857142857,382.21428666796004,614.5,386.9642857142857,384.71428666796004,717.7,416.9642857142857,394.71428666796004,819.6,419.4642857142857,395.96428666796004,921.5,419.4642857142857,395.96428666796004,1022.3,419.4642857142857,395.96428666796004,1126.2,421.9642857142857,397.21428666796004,1228.9,421.9642857142857,398.46428666796004,1336.9,421.9642857142857,399.71428666796004,1441.8,421.9642857142857,399.71428666796004,1550,418.2142857142857,409.71428666796004,1651.6,416.9642857142857,412.21428666796004,1752.2,416.9642857142857,412.21428666796004,1852.8,416.9642857142857,412.21428666796004,1956,416.9642857142857,412.21428666796004,2057.9,416.9642857142857,412.21428666796004,2163.3,416.9642857142857,412.21428666796004,2265.5,416.9642857142857,412.21428666796004,2366.4,416.9642857142857,412.21428666796004,2467.4,416.9642857142857,412.21428666796004,2572.9,416.9642857142857,412.21428666796004,2676.9,416.9642857142857,412.21428666796004,2777,416.9642857142857,412.21428666796004,2879.6,416.9642857142857,412.21428666796004,2981.3,471.9642857142857,509.71428666796004,3088.4,589.4642857142857,579.71428666796,3195.4,634.4642857142857,617.21428666796,3299.5,636.9642857142857,617.21428666796,3402.4,641.9642857142857,620.96428666796,3507.3,641.9642857142857,620.96428666796,3607.6,641.9642857142857,620.96428666796,3708.4,641.9642857142857,620.96428666796,3811.7,641.9642857142857,620.96428666796,3912.7,641.9642857142857,620.96428666796,4013,641.9642857142857,620.96428666796,4116.5,641.9642857142857,620.96428666796,4221,631.9642857142857,619.71428666796,4323.4,613.2142857142857,615.96428666796,4430,613.2142857142857,615.96428666796,4530.3,613.2142857142857,615.96428666796,4632.2,613.2142857142857,615.96428666796,4732.4,613.2142857142857,615.96428666796,4836.6,613.2142857142857,615.96428666796,4937.3]","[3663.2,3663.2,1000,0,2663.2,""smooth"",""down"",""down"",""good_move"",4269.7,605.9,2139,3663.8,-1533.1,""error"",""-"",""-"",""no_move"",7991.5,3721.6,2347.1,5270.5,373.9,""oops"",""down"",""down"",""good_move""]"
"2368","","<div style=""width:500px;"">
  <p>What determined the result of this run?</p>
  </div>","35","html-slider-response","39","339617","0.0-7.0-1.5","145","1","2025-08-06 08:55:28","36c45c0696341be0efffe67d72a12abb","213.161.20.6","Mozilla/5.0 (Windows NT 10.0; Win64; x64) AppleWebKit/537.36 (KHTML, like Gecko) Chrome/138.0.0.0 Safari/537.36","WebKit","Chrome","138.0.0.0","Windows","10.0","https://app.prolific.com/","en-SI,en;q=0.9,sl-SI;q=0.8,sl;q=0.7,en-GB;q=0.6,en-US;q=0.5","60fd34d68de7efbcd7de57a0","687a1a965b9f5b85a264363e","68931808ca54650b35618777","1","60fd34d68de7efbcd7de57a0","1","2025-08-06T08:59:57.039Z","","","","AttribQ","","","","","","","","","","","50","","","","","","","","","","","","","","","","","","","","","","","","","","",""
"5023","","<div style=""width:500px;"">
  <p>How much control did you have over the ball?</p>
  </div>","40","html-slider-response","40","344641","0.0-7.0-2.5","145","1","2025-08-06 08:55:28","36c45c0696341be0efffe67d72a12abb","213.161.20.6","Mozilla/5.0 (Windows NT 10.0; Win64; x64) AppleWebKit/537.36 (KHTML, like Gecko) Chrome/138.0.0.0 Safari/537.36","WebKit","Chrome","138.0.0.0","Windows","10.0","https://app.prolific.com/","en-SI,en;q=0.9,sl-SI;q=0.8,sl;q=0.7,en-GB;q=0.6,en-US;q=0.5","60fd34d68de7efbcd7de57a0","687a1a965b9f5b85a264363e","68931808ca54650b35618777","1","60fd34d68de7efbcd7de57a0","1","2025-08-06T09:00:02.063Z","","","","ControlQ","","","","","","","","","","","50","","","","","","","","","","","","","","","","","","","","","","","","","","",""
"1639","","<div style=""width:500px;"">
  <p>How would you describe your current emotional state?</p>
  </div>","59","html-slider-response","41","346281","0.0-7.0-3.5","145","1","2025-08-06 08:55:28","36c45c0696341be0efffe67d72a12abb","213.161.20.6","Mozilla/5.0 (Windows NT 10.0; Win64; x64) AppleWebKit/537.36 (KHTML, like Gecko) Chrome/138.0.0.0 Safari/537.36","WebKit","Chrome","138.0.0.0","Windows","10.0","https://app.prolific.com/","en-SI,en;q=0.9,sl-SI;q=0.8,sl;q=0.7,en-GB;q=0.6,en-US;q=0.5","60fd34d68de7efbcd7de57a0","687a1a965b9f5b85a264363e","68931808ca54650b35618777","1","60fd34d68de7efbcd7de57a0","1","2025-08-06T09:00:03.702Z","","","","StressQ","","","","","","","","","","","50","","","","","","","","","","","","","","","","","","","","","","","","","","",""
"1511","","<div style=""width:500px;"">
  <p>What best describes how you currently feel?</p>
  </div>","37","html-slider-response","42","347793","0.0-7.0-4.5","145","1","2025-08-06 08:55:28","36c45c0696341be0efffe67d72a12abb","213.161.20.6","Mozilla/5.0 (Windows NT 10.0; Win64; x64) AppleWebKit/537.36 (KHTML, like Gecko) Chrome/138.0.0.0 Safari/537.36","WebKit","Chrome","138.0.0.0","Windows","10.0","https://app.prolific.com/","en-SI,en;q=0.9,sl-SI;q=0.8,sl;q=0.7,en-GB;q=0.6,en-US;q=0.5","60fd34d68de7efbcd7de57a0","687a1a965b9f5b85a264363e","68931808ca54650b35618777","1","60fd34d68de7efbcd7de57a0","1","2025-08-06T09:00:05.214Z","","","","MotivationQ","","","","","","","","","","","50","","","","","","","","","","","","","","","","","","","","","","","","","","",""
"","","","","ctl-task-cpt","43","380063","0.0-7.0-0.6","145","1","2025-08-06 08:55:28","36c45c0696341be0efffe67d72a12abb","213.161.20.6","Mozilla/5.0 (Windows NT 10.0; Win64; x64) AppleWebKit/537.36 (KHTML, like Gecko) Chrome/138.0.0.0 Safari/537.36","WebKit","Chrome","138.0.0.0","Windows","10.0","https://app.prolific.com/","en-SI,en;q=0.9,sl-SI;q=0.8,sl;q=0.7,en-GB;q=0.6,en-US;q=0.5","60fd34d68de7efbcd7de57a0","687a1a965b9f5b85a264363e","68931808ca54650b35618777","1","60fd34d68de7efbcd7de57a0","1","2025-08-06T09:00:37.484Z","","","","","","","","","","","","","","","","win-only","1","g1:NE,g2:SW","0.4","7","0","349726.2","647.1","5651.1","29240.6","1","4","4","6","1","1","0","0","0","0","2382.7","3000","575","[""up"",""right""]","{""num_key_presses"":8,""num_perfect"":3,""num_errors"":1,""num_randdir"":4,""num_randdir_good_moves"":2,""num_whilered"":0,""num_whileblue"":1,""num_blue"":1,""num_good_moves"":6}","[354.4642857142857,342.21428666796004,0.1,356.9642857142857,354.71428666796004,104,356.9642857142857,362.21428666796004,208.7,356.9642857142857,365.96428666796004,309.2,356.9642857142857,369.71428666796004,417.6,356.9642857142857,369.71428666796004,519.4,356.9642857142857,369.71428666796004,624.3,355.7142857142857,374.71428666796004,736.5,351.9642857142857,378.46428666796004,838.9,351.9642857142857,378.46428666796004,940.2,351.9642857142857,378.46428666796004,1044.4,351.9642857142857,378.46428666796004,1150.5,351.9642857142857,378.46428666796004,1254.5,476.9642857142857,152.21428666796004,1358.9,563.2142857142857,78.46428666796004,1460.2,576.9642857142857,68.46428666796004,1566.6,619.4642857142857,54.71428666796003,1667.7,628.2142857142857,54.71428666796003,1768.1,585.7142857142857,120.96428666796004,1868.7,216.96428571428572,527.21428666796,1968.9,570.7142857142857,198.46428666796004,2069.6,626.9642857142857,97.21428666796004,2175,636.9642857142857,72.21428666796004,2279.4,648.2142857142857,53.46428666796003,2397.3,648.2142857142857,53.46428666796003,2498.3,641.9642857142857,212.21428666796004,2601.4,583.2142857142857,419.71428666796004,2702.1,593.2142857142857,397.21428666796004,2804,593.2142857142857,382.21428666796004,2904.4,593.2142857142857,372.21428666796004,3004.6,614.4642857142857,343.46428666796004,3110.7,616.9642857142857,339.71428666796004,3218.7,631.9642857142857,322.21428666796004,3319.1,694.4642857142857,298.46428666796004,3419.5,786.9642857142857,269.71428666796004,3523.5,794.4642857142857,267.21428666796004,3624.4,794.4642857142857,267.21428666796004,3724.4,786.9642857142857,269.71428666796004,3835,729.4642857142857,274.71428666796004,3938.5,694.4642857142857,274.71428666796004,4039.7,688.2142857142857,274.71428666796004,4151.1,686.9642857142857,274.71428666796004,4253.6,681.9642857142857,275.96428666796004,4354.6,681.9642857142857,275.96428666796004,4459.1,681.9642857142857,275.96428666796004,4560.5,681.9642857142857,275.96428666796004,4667.2,681.9642857142857,275.96428666796004,4768.3,681.9642857142857,275.96428666796004,4869,681.9642857142857,275.96428666796004,4969.4]","[1387.2,1387.2,1000,0,387.2,""smooth"",""right"",""right"",""good_move"",4545.8,3158,2718.4,1387.8,439.6,""oops"",""right"",""up"",""good_move"",7821.1,3274.8,2948.4,4546.3,326.4,""oops"",""right"",""left"",""bad_move"",11352.6,3531,3202.1,7821.7,328.8,""while_blue"",""up"",""right"",""good_move"",13595,2241.9,1876.3,11353.1,365.6,""smooth"",""up"",""up"",""good_move"",16785.6,3190.3,2529.1,13595.3,661.2,""oops"",""right"",""left"",""bad_move"",19802.1,3016.3,2654.2,16785.9,362,""oops"",""right"",""right"",""good_move"",23482.2,3679.8,3348.3,19802.4,331.5,""smooth"",""right"",""right"",""good_move""]"
"2729","","<div style=""width:500px;"">
  <p>What determined the result of this run?</p>
  </div>","67","html-slider-response","44","382793","0.0-7.0-1.6","145","1","2025-08-06 08:55:28","36c45c0696341be0efffe67d72a12abb","213.161.20.6","Mozilla/5.0 (Windows NT 10.0; Win64; x64) AppleWebKit/537.36 (KHTML, like Gecko) Chrome/138.0.0.0 Safari/537.36","WebKit","Chrome","138.0.0.0","Windows","10.0","https://app.prolific.com/","en-SI,en;q=0.9,sl-SI;q=0.8,sl;q=0.7,en-GB;q=0.6,en-US;q=0.5","60fd34d68de7efbcd7de57a0","687a1a965b9f5b85a264363e","68931808ca54650b35618777","1","60fd34d68de7efbcd7de57a0","1","2025-08-06T09:00:40.214Z","","","","AttribQ","","","","","","","","","","","50","","","","","","","","","","","","","","","","","","","","","","","","","","",""
"2495","","<div style=""width:500px;"">
  <p>How much control did you have over the ball?</p>
  </div>","52","html-slider-response","45","385289","0.0-7.0-2.6","145","1","2025-08-06 08:55:28","36c45c0696341be0efffe67d72a12abb","213.161.20.6","Mozilla/5.0 (Windows NT 10.0; Win64; x64) AppleWebKit/537.36 (KHTML, like Gecko) Chrome/138.0.0.0 Safari/537.36","WebKit","Chrome","138.0.0.0","Windows","10.0","https://app.prolific.com/","en-SI,en;q=0.9,sl-SI;q=0.8,sl;q=0.7,en-GB;q=0.6,en-US;q=0.5","60fd34d68de7efbcd7de57a0","687a1a965b9f5b85a264363e","68931808ca54650b35618777","1","60fd34d68de7efbcd7de57a0","1","2025-08-06T09:00:42.710Z","","","","ControlQ","","","","","","","","","","","50","","","","","","","","","","","","","","","","","","","","","","","","","","",""
"1423","","<div style=""width:500px;"">
  <p>How would you describe your current emotional state?</p>
  </div>","53","html-slider-response","46","386713","0.0-7.0-3.6","145","1","2025-08-06 08:55:28","36c45c0696341be0efffe67d72a12abb","213.161.20.6","Mozilla/5.0 (Windows NT 10.0; Win64; x64) AppleWebKit/537.36 (KHTML, like Gecko) Chrome/138.0.0.0 Safari/537.36","WebKit","Chrome","138.0.0.0","Windows","10.0","https://app.prolific.com/","en-SI,en;q=0.9,sl-SI;q=0.8,sl;q=0.7,en-GB;q=0.6,en-US;q=0.5","60fd34d68de7efbcd7de57a0","687a1a965b9f5b85a264363e","68931808ca54650b35618777","1","60fd34d68de7efbcd7de57a0","1","2025-08-06T09:00:44.134Z","","","","StressQ","","","","","","","","","","","50","","","","","","","","","","","","","","","","","","","","","","","","","","",""
"951","","<div style=""width:500px;"">
  <p>What best describes how you currently feel?</p>
  </div>","40","html-slider-response","47","387665","0.0-7.0-4.6","145","1","2025-08-06 08:55:28","36c45c0696341be0efffe67d72a12abb","213.161.20.6","Mozilla/5.0 (Windows NT 10.0; Win64; x64) AppleWebKit/537.36 (KHTML, like Gecko) Chrome/138.0.0.0 Safari/537.36","WebKit","Chrome","138.0.0.0","Windows","10.0","https://app.prolific.com/","en-SI,en;q=0.9,sl-SI;q=0.8,sl;q=0.7,en-GB;q=0.6,en-US;q=0.5","60fd34d68de7efbcd7de57a0","687a1a965b9f5b85a264363e","68931808ca54650b35618777","1","60fd34d68de7efbcd7de57a0","1","2025-08-06T09:00:45.086Z","","","","MotivationQ","","","","","","","","","","","50","","","","","","","","","","","","","","","","","","","","","","","","","","",""
"","","","","ctl-task-cpt","48","446548","0.0-7.0-0.7","145","1","2025-08-06 08:55:28","36c45c0696341be0efffe67d72a12abb","213.161.20.6","Mozilla/5.0 (Windows NT 10.0; Win64; x64) AppleWebKit/537.36 (KHTML, like Gecko) Chrome/138.0.0.0 Safari/537.36","WebKit","Chrome","138.0.0.0","Windows","10.0","https://app.prolific.com/","en-SI,en;q=0.9,sl-SI;q=0.8,sl;q=0.7,en-GB;q=0.6,en-US;q=0.5","60fd34d68de7efbcd7de57a0","687a1a965b9f5b85a264363e","68931808ca54650b35618777","1","60fd34d68de7efbcd7de57a0","1","2025-08-06T09:01:43.969Z","","","","","","","","","","","","","","","","win-only","0","g1:NW,g2:SE","0.3","8","0","389598.2","1342","6347.3","55865.9","1","4","8","6","2","-8","-8","0","0","0","1087.5","3000","-2615","[""down"",""right""]","{""num_key_presses"":5,""num_perfect"":3,""num_errors"":0,""num_randdir"":2,""num_randdir_good_moves"":0,""num_whilered"":0,""num_whileblue"":0,""num_blue"":9,""num_good_moves"":3}","[348.2142857142857,357.21428666796004,0.3,350.7142857142857,357.21428666796004,103.5,351.9642857142857,364.71428666796004,203.7,351.9642857142857,372.21428666796004,304.4,366.9642857142857,412.21428666796004,405.6,368.2142857142857,389.71428666796004,511.2,369.4642857142857,323.46428666796004,614.1,375.7142857142857,305.96428666796004,715.6,579.4642857142857,488.46428666796004,819.1,668.2142857142857,579.71428666796,920.1,668.2142857142857,625.96428666796,1025.6,668.2142857142857,625.96428666796,1141.9,666.9642857142857,632.21428666796,1252.4,664.4642857142857,605.96428666796,1354.6,616.9642857142857,487.21428666796004,1464.5,606.9642857142857,490.96428666796004,1568.6,606.9642857142857,490.96428666796004,1670,606.9642857142857,490.96428666796004,1787.6,606.9642857142857,490.96428666796004,1888.9,606.9642857142857,490.96428666796004,1989,606.9642857142857,490.96428666796004,2089.3,606.9642857142857,490.96428666796004,2190,606.9642857142857,490.96428666796004,2293.8,606.9642857142857,490.96428666796004,2399.3,606.9642857142857,490.96428666796004,2500.3,606.9642857142857,490.96428666796004,2603.8,606.9642857142857,490.96428666796004,2703.9,606.9642857142857,490.96428666796004,2813.2,606.9642857142857,490.96428666796004,2916.4,606.9642857142857,490.96428666796004,3020.4,606.9642857142857,490.96428666796004,3125.6,606.9642857142857,490.96428666796004,3229.2,606.9642857142857,490.96428666796004,3329.2,606.9642857142857,490.96428666796004,3430,606.9642857142857,490.96428666796004,3532.1,606.9642857142857,490.96428666796004,3633.9,606.9642857142857,490.96428666796004,3734,606.9642857142857,490.96428666796004,3835.4,606.9642857142857,490.96428666796004,3935.6,606.9642857142857,490.96428666796004,4039.1,606.9642857142857,490.96428666796004,4139.2,606.9642857142857,490.96428666796004,4239.2,606.9642857142857,490.96428666796004,4345.5,606.9642857142857,490.96428666796004,4449,606.9642857142857,490.96428666796004,4555.3,606.9642857142857,490.96428666796004,4664,606.9642857142857,490.96428666796004,4768.6,606.9642857142857,490.96428666796004,4869.6,606.9642857142857,490.96428666796004,4970.4]","[12101.7,12101.7,2992.7,8673.3,435.7,""smooth"",""down"",""down"",""good_move"",15244.8,3142.5,2752.4,12102.3,390.1,""oops"",""down"",""left"",""bad_move"",17583.5,2338.3,1926.5,15245.2,411.8,""smooth"",""down"",""down"",""good_move"",35587.1,18003.4,3019.7,32127.9,439.5,""smooth"",""down"",""down"",""good_move"",45561.6,9973.8,2848.9,42278.9,433.8,""oops"",""right"",""up"",""bad_move""]"
"1572","","<div style=""width:500px;"">
  <p>What determined the result of this run?</p>
  </div>","30","html-slider-response","49","448121","0.0-7.0-1.7","145","1","2025-08-06 08:55:28","36c45c0696341be0efffe67d72a12abb","213.161.20.6","Mozilla/5.0 (Windows NT 10.0; Win64; x64) AppleWebKit/537.36 (KHTML, like Gecko) Chrome/138.0.0.0 Safari/537.36","WebKit","Chrome","138.0.0.0","Windows","10.0","https://app.prolific.com/","en-SI,en;q=0.9,sl-SI;q=0.8,sl;q=0.7,en-GB;q=0.6,en-US;q=0.5","60fd34d68de7efbcd7de57a0","687a1a965b9f5b85a264363e","68931808ca54650b35618777","1","60fd34d68de7efbcd7de57a0","1","2025-08-06T09:01:45.542Z","","","","AttribQ","","","","","","","","","","","50","","","","","","","","","","","","","","","","","","","","","","","","","","",""
"1895","","<div style=""width:500px;"">
  <p>How much control did you have over the ball?</p>
  </div>","37","html-slider-response","50","450017","0.0-7.0-2.7","145","1","2025-08-06 08:55:28","36c45c0696341be0efffe67d72a12abb","213.161.20.6","Mozilla/5.0 (Windows NT 10.0; Win64; x64) AppleWebKit/537.36 (KHTML, like Gecko) Chrome/138.0.0.0 Safari/537.36","WebKit","Chrome","138.0.0.0","Windows","10.0","https://app.prolific.com/","en-SI,en;q=0.9,sl-SI;q=0.8,sl;q=0.7,en-GB;q=0.6,en-US;q=0.5","60fd34d68de7efbcd7de57a0","687a1a965b9f5b85a264363e","68931808ca54650b35618777","1","60fd34d68de7efbcd7de57a0","1","2025-08-06T09:01:47.438Z","","","","ControlQ","","","","","","","","","","","50","","","","","","","","","","","","","","","","","","","","","","","","","","",""
"61480","","<div style=""width:500px;"">
  <p>How would you describe your current emotional state?</p>
  </div>","63","html-slider-response","51","511498","0.0-7.0-3.7","145","1","2025-08-06 08:55:28","36c45c0696341be0efffe67d72a12abb","213.161.20.6","Mozilla/5.0 (Windows NT 10.0; Win64; x64) AppleWebKit/537.36 (KHTML, like Gecko) Chrome/138.0.0.0 Safari/537.36","WebKit","Chrome","138.0.0.0","Windows","10.0","https://app.prolific.com/","en-SI,en;q=0.9,sl-SI;q=0.8,sl;q=0.7,en-GB;q=0.6,en-US;q=0.5","60fd34d68de7efbcd7de57a0","687a1a965b9f5b85a264363e","68931808ca54650b35618777","1","60fd34d68de7efbcd7de57a0","1","2025-08-06T09:02:48.919Z","","","","StressQ","","","","","","","","","","","50","","","","","","","","","","","","","","","","","","","","","","","","","","",""
"66461","","<div style=""width:500px;"">
  <p>What best describes how you currently feel?</p>
  </div>","37","html-slider-response","52","577961","0.0-7.0-4.7","145","1","2025-08-06 08:55:28","36c45c0696341be0efffe67d72a12abb","213.161.20.6","Mozilla/5.0 (Windows NT 10.0; Win64; x64) AppleWebKit/537.36 (KHTML, like Gecko) Chrome/138.0.0.0 Safari/537.36","WebKit","Chrome","138.0.0.0","Windows","10.0","https://app.prolific.com/","en-SI,en;q=0.9,sl-SI;q=0.8,sl;q=0.7,en-GB;q=0.6,en-US;q=0.5","60fd34d68de7efbcd7de57a0","687a1a965b9f5b85a264363e","68931808ca54650b35618777","1","60fd34d68de7efbcd7de57a0","1","2025-08-06T09:03:55.382Z","","","","MotivationQ","","","","","","","","","","","50","","","","","","","","","","","","","","","","","","","","","","","","","","",""
"","","","","ctl-task-cpt","53","613057","0.0-7.0-0.8","145","1","2025-08-06 08:55:28","36c45c0696341be0efffe67d72a12abb","213.161.20.6","Mozilla/5.0 (Windows NT 10.0; Win64; x64) AppleWebKit/537.36 (KHTML, like Gecko) Chrome/138.0.0.0 Safari/537.36","WebKit","Chrome","138.0.0.0","Windows","10.0","https://app.prolific.com/","en-SI,en;q=0.9,sl-SI;q=0.8,sl;q=0.7,en-GB;q=0.6,en-US;q=0.5","60fd34d68de7efbcd7de57a0","687a1a965b9f5b85a264363e","68931808ca54650b35618777","1","60fd34d68de7efbcd7de57a0","1","2025-08-06T09:04:30.478Z","","","","","","","","","","","","","","","","win-only","3","g1:SW,g2:NE","0.4","9","0","579893.3","829.7","5830.9","32071","1","4","4","6","1","-1","-1","0","0","0","3800","3000","-2435","[""down"",""left""]","{""num_key_presses"":8,""num_perfect"":3,""num_errors"":0,""num_randdir"":5,""num_randdir_good_moves"":1,""num_whilered"":0,""num_whileblue"":0,""num_blue"":1,""num_good_moves"":4}","[351.9642857142857,342.21428666796004,0.2,351.9642857142857,342.21428666796004,110.9,351.9642857142857,343.46428666796004,212.6,360.7142857142857,328.46428666796004,329.9,405.7142857142857,287.21428666796004,432.4,388.2142857142857,322.21428666796004,536.1,363.2142857142857,380.96428666796004,637,638.2142857142857,103.46428666796004,742.4,654.4642857142857,93.46428666796004,847.5,686.9642857142857,64.71428666796004,951.4,689.4642857142857,62.21428666796003,1058.4,689.4642857142857,62.21428666796003,1161.7,689.4642857142857,62.21428666796003,1266.2,689.4642857142857,62.21428666796003,1366.6,689.4642857142857,62.21428666796003,1471.1,-608.0357142857143,505.96428666796004,1571.9,-339.2857142857143,475.96428666796004,1672.3,-339.2857142857143,475.96428666796004,1772.8,-339.2857142857143,475.96428666796004,1876.3,-339.2857142857143,475.96428666796004,1977.2,-339.2857142857143,475.96428666796004,2079.1,-339.2857142857143,475.96428666796004,2180.7,-339.2857142857143,475.96428666796004,2292.2,1218.2142857142858,-60.28571333203997,2397,1206.9642857142858,-47.78571333203997,2501.6,1206.9642857142858,-47.78571333203997,2606,1206.9642857142858,-47.78571333203997,2708.2,1206.9642857142858,-47.78571333203997,2833.2,1198.2142857142858,-22.78571333203997,2936.5,1198.2142857142858,-22.78571333203997,3043.1,958.2142857142857,140.96428666796004,3147.8,66.96428571428572,592.21428666796,3251,24.464285714285715,694.71428666796,3351.5,6.964285714285715,705.96428666796,3457.5,-38.035714285714285,745.96428666796,3568.9,5.714285714285715,725.96428666796,3671.1,58.214285714285715,665.96428666796,3780.1,58.214285714285715,665.96428666796,3882.8,58.214285714285715,665.96428666796,3986.3,58.214285714285715,665.96428666796,4087,83.21428571428572,678.46428666796,4191,231.96428571428572,722.21428666796,4296.8,314.4642857142857,720.96428666796,4396.9,318.2142857142857,703.46428666796,4497.7,318.2142857142857,693.46428666796,4601.1,309.4642857142857,653.46428666796,4701.3,305.7142857142857,642.21428666796,4801.9,305.7142857142857,642.21428666796,4906.5]","[1674.9,1674.9,1000,0,674.9,""smooth"",""down"",""down"",""good_move"",4229.8,2554.5,1998.6,1675.3,555.9,""oops"",""down"",""right"",""bad_move"",6955.7,2725,2381,4230.7,344,""smooth"",""down"",""down"",""good_move"",9280.9,2325,1869.2,6955.9,455.8,""oops"",""left"",""left"",""good_move"",11806,2524.7,2172.4,9281.3,352.3,""oops"",""left"",""right"",""bad_move"",17295,5488.6,2099.1,14845.2,350.7,""oops"",""left"",""right"",""bad_move"",20093.9,2798.8,2471.7,17295.1,327.1,""smooth"",""left"",""left"",""good_move"",23301.8,3207.5,2860.2,20094.3,347.3,""oops"",""left"",""right"",""bad_move""]"
"3398","","<div style=""width:500px;"">
  <p>What determined the result of this run?</p>
  </div>","11","html-slider-response","54","616456","0.0-7.0-1.8","145","1","2025-08-06 08:55:28","36c45c0696341be0efffe67d72a12abb","213.161.20.6","Mozilla/5.0 (Windows NT 10.0; Win64; x64) AppleWebKit/537.36 (KHTML, like Gecko) Chrome/138.0.0.0 Safari/537.36","WebKit","Chrome","138.0.0.0","Windows","10.0","https://app.prolific.com/","en-SI,en;q=0.9,sl-SI;q=0.8,sl;q=0.7,en-GB;q=0.6,en-US;q=0.5","60fd34d68de7efbcd7de57a0","687a1a965b9f5b85a264363e","68931808ca54650b35618777","1","60fd34d68de7efbcd7de57a0","1","2025-08-06T09:04:33.877Z","","","","AttribQ","","","","","","","","","","","50","","","","","","","","","","","","","","","","","","","","","","","","","","",""
"1447","","<div style=""width:500px;"">
  <p>How much control did you have over the ball?</p>
  </div>","22","html-slider-response","55","617904","0.0-7.0-2.8","145","1","2025-08-06 08:55:28","36c45c0696341be0efffe67d72a12abb","213.161.20.6","Mozilla/5.0 (Windows NT 10.0; Win64; x64) AppleWebKit/537.36 (KHTML, like Gecko) Chrome/138.0.0.0 Safari/537.36","WebKit","Chrome","138.0.0.0","Windows","10.0","https://app.prolific.com/","en-SI,en;q=0.9,sl-SI;q=0.8,sl;q=0.7,en-GB;q=0.6,en-US;q=0.5","60fd34d68de7efbcd7de57a0","687a1a965b9f5b85a264363e","68931808ca54650b35618777","1","60fd34d68de7efbcd7de57a0","1","2025-08-06T09:04:35.325Z","","","","ControlQ","","","","","","","","","","","50","","","","","","","","","","","","","","","","","","","","","","","","","","",""
"1815","","<div style=""width:500px;"">
  <p>How would you describe your current emotional state?</p>
  </div>","74","html-slider-response","56","619720","0.0-7.0-3.8","145","1","2025-08-06 08:55:28","36c45c0696341be0efffe67d72a12abb","213.161.20.6","Mozilla/5.0 (Windows NT 10.0; Win64; x64) AppleWebKit/537.36 (KHTML, like Gecko) Chrome/138.0.0.0 Safari/537.36","WebKit","Chrome","138.0.0.0","Windows","10.0","https://app.prolific.com/","en-SI,en;q=0.9,sl-SI;q=0.8,sl;q=0.7,en-GB;q=0.6,en-US;q=0.5","60fd34d68de7efbcd7de57a0","687a1a965b9f5b85a264363e","68931808ca54650b35618777","1","60fd34d68de7efbcd7de57a0","1","2025-08-06T09:04:37.141Z","","","","StressQ","","","","","","","","","","","50","","","","","","","","","","","","","","","","","","","","","","","","","","",""
"2239","","<div style=""width:500px;"">
  <p>What best describes how you currently feel?</p>
  </div>","25","html-slider-response","57","621960","0.0-7.0-4.8","145","1","2025-08-06 08:55:28","36c45c0696341be0efffe67d72a12abb","213.161.20.6","Mozilla/5.0 (Windows NT 10.0; Win64; x64) AppleWebKit/537.36 (KHTML, like Gecko) Chrome/138.0.0.0 Safari/537.36","WebKit","Chrome","138.0.0.0","Windows","10.0","https://app.prolific.com/","en-SI,en;q=0.9,sl-SI;q=0.8,sl;q=0.7,en-GB;q=0.6,en-US;q=0.5","60fd34d68de7efbcd7de57a0","687a1a965b9f5b85a264363e","68931808ca54650b35618777","1","60fd34d68de7efbcd7de57a0","1","2025-08-06T09:04:39.381Z","","","","MotivationQ","","","","","","","","","","","50","","","","","","","","","","","","","","","","","","","","","","","","","","",""
"","","","","ctl-task-cpt","58","651576","0.0-7.0-0.9","145","1","2025-08-06 08:55:28","36c45c0696341be0efffe67d72a12abb","213.161.20.6","Mozilla/5.0 (Windows NT 10.0; Win64; x64) AppleWebKit/537.36 (KHTML, like Gecko) Chrome/138.0.0.0 Safari/537.36","WebKit","Chrome","138.0.0.0","Windows","10.0","https://app.prolific.com/","en-SI,en;q=0.9,sl-SI;q=0.8,sl;q=0.7,en-GB;q=0.6,en-US;q=0.5","60fd34d68de7efbcd7de57a0","687a1a965b9f5b85a264363e","68931808ca54650b35618777","1","60fd34d68de7efbcd7de57a0","1","2025-08-06T09:05:08.997Z","","","","","","","","","","","","","","","","win-only","1","g1:NE,g2:SW","0.5","10","0","623892.4","1240.9","6241.3","26601.8","1","4","8","6","2","8","8","8","0","0.06060606060606061","887.1","3000","830","[""down"",""left""]","{""num_key_presses"":6,""num_perfect"":4,""num_errors"":0,""num_randdir"":2,""num_randdir_good_moves"":2,""num_whilered"":0,""num_whileblue"":0,""num_blue"":1,""num_good_moves"":6}","[409.0714133126395,417.82142761775424,0.3,409.0714133126395,417.82142761775424,100.2,409.0714133126395,417.82142761775424,204.4,409.0714133126395,417.82142761775424,306,407.8214133126395,417.82142761775424,418.9,406.5714133126395,429.07142761775424,518.9,164.0714133126395,637.8214276177542,620.2,100.3214133126395,687.8214276177542,725.1,86.5714133126395,729.0714276177542,826.2,86.5714133126395,754.0714276177542,935.9,86.5714133126395,754.0714276177542,1037,132.8214133126395,721.5714276177542,1140.4,101.5714133126395,576.5714276177542,1251.6,-13.428586687360493,449.07142761775424,1355.1,-19.678586687360493,421.57142761775424,1455.4,-8.428586687360493,425.32142761775424,1567.9,-8.428586687360493,425.32142761775424,1670.1,-8.428586687360493,425.32142761775424,1771.3,-8.428586687360493,425.32142761775424,1884.7,-8.428586687360493,425.32142761775424,1987.5,-8.428586687360493,425.32142761775424,2089.4,-8.428586687360493,425.32142761775424,2190.4,-8.428586687360493,425.32142761775424,2290.5,-8.428586687360493,425.32142761775424,2395.2,-8.428586687360493,425.32142761775424,2500.2,-8.428586687360493,425.32142761775424,2604.7,-8.428586687360493,425.32142761775424,2705.4,-8.428586687360493,425.32142761775424,2810.5,-8.428586687360493,425.32142761775424,2915.2,-8.428586687360493,425.32142761775424,3015.2,-8.428586687360493,425.32142761775424,3117.6,-8.428586687360493,425.32142761775424,3219.6,-8.428586687360493,425.32142761775424,3320.8,-8.428586687360493,425.32142761775424,3433.4,-8.428586687360493,425.32142761775424,3534.4,-8.428586687360493,425.32142761775424,3636.2,-8.428586687360493,425.32142761775424,3739.7,-8.428586687360493,425.32142761775424,3840.5,-8.428586687360493,425.32142761775424,3941.5,-8.428586687360493,425.32142761775424,4051,-8.428586687360493,425.32142761775424,4155.4,-8.428586687360493,425.32142761775424,4260.5,-8.428586687360493,425.32142761775424,4364.5,-8.428586687360493,425.32142761775424,4464.6,-8.428586687360493,425.32142761775424,4564.9,-8.428586687360493,425.32142761775424,4669.7,-8.428586687360493,425.32142761775424,4770.5,-8.428586687360493,425.32142761775424,4870.5,-8.428586687360493,425.32142761775424,4982.7]","[1395.9,1395.9,1000,0,395.9,""oops"",""down"",""left"",""good_move"",4472.6,3076.1,2675.6,1396.5,400.5,""smooth"",""down"",""down"",""good_move"",11219.3,6746.3,2243.6,8579.6,396.1,""smooth"",""down"",""down"",""good_move"",14332.4,3112.9,2613.6,11219.5,499.3,""smooth"",""left"",""left"",""good_move"",17432.3,3099.6,2720.7,14332.7,378.9,""oops"",""down"",""down"",""good_move"",20236.2,2803.5,2358.9,17432.7,444.6,""smooth"",""left"",""left"",""good_move""]"
"2431","","<div style=""width:500px;"">
  <p>What determined the result of this run?</p>
  </div>","43","html-slider-response","59","654008","0.0-7.0-1.9","145","1","2025-08-06 08:55:28","36c45c0696341be0efffe67d72a12abb","213.161.20.6","Mozilla/5.0 (Windows NT 10.0; Win64; x64) AppleWebKit/537.36 (KHTML, like Gecko) Chrome/138.0.0.0 Safari/537.36","WebKit","Chrome","138.0.0.0","Windows","10.0","https://app.prolific.com/","en-SI,en;q=0.9,sl-SI;q=0.8,sl;q=0.7,en-GB;q=0.6,en-US;q=0.5","60fd34d68de7efbcd7de57a0","687a1a965b9f5b85a264363e","68931808ca54650b35618777","1","60fd34d68de7efbcd7de57a0","1","2025-08-06T09:05:11.429Z","","","","AttribQ","","","","","","","","","","","50","","","","","","","","","","","","","","","","","","","","","","","","","","",""
"1655","","<div style=""width:500px;"">
  <p>How much control did you have over the ball?</p>
  </div>","56","html-slider-response","60","655664","0.0-7.0-2.9","145","1","2025-08-06 08:55:28","36c45c0696341be0efffe67d72a12abb","213.161.20.6","Mozilla/5.0 (Windows NT 10.0; Win64; x64) AppleWebKit/537.36 (KHTML, like Gecko) Chrome/138.0.0.0 Safari/537.36","WebKit","Chrome","138.0.0.0","Windows","10.0","https://app.prolific.com/","en-SI,en;q=0.9,sl-SI;q=0.8,sl;q=0.7,en-GB;q=0.6,en-US;q=0.5","60fd34d68de7efbcd7de57a0","687a1a965b9f5b85a264363e","68931808ca54650b35618777","1","60fd34d68de7efbcd7de57a0","1","2025-08-06T09:05:13.085Z","","","","ControlQ","","","","","","","","","","","50","","","","","","","","","","","","","","","","","","","","","","","","","","",""
"2143","","<div style=""width:500px;"">
  <p>How would you describe your current emotional state?</p>
  </div>","57","html-slider-response","61","657808","0.0-7.0-3.9","145","1","2025-08-06 08:55:28","36c45c0696341be0efffe67d72a12abb","213.161.20.6","Mozilla/5.0 (Windows NT 10.0; Win64; x64) AppleWebKit/537.36 (KHTML, like Gecko) Chrome/138.0.0.0 Safari/537.36","WebKit","Chrome","138.0.0.0","Windows","10.0","https://app.prolific.com/","en-SI,en;q=0.9,sl-SI;q=0.8,sl;q=0.7,en-GB;q=0.6,en-US;q=0.5","60fd34d68de7efbcd7de57a0","687a1a965b9f5b85a264363e","68931808ca54650b35618777","1","60fd34d68de7efbcd7de57a0","1","2025-08-06T09:05:15.229Z","","","","StressQ","","","","","","","","","","","50","","","","","","","","","","","","","","","","","","","","","","","","","","",""
"1728","","<div style=""width:500px;"">
  <p>What best describes how you currently feel?</p>
  </div>","37","html-slider-response","62","659537","0.0-7.0-4.9","145","1","2025-08-06 08:55:28","36c45c0696341be0efffe67d72a12abb","213.161.20.6","Mozilla/5.0 (Windows NT 10.0; Win64; x64) AppleWebKit/537.36 (KHTML, like Gecko) Chrome/138.0.0.0 Safari/537.36","WebKit","Chrome","138.0.0.0","Windows","10.0","https://app.prolific.com/","en-SI,en;q=0.9,sl-SI;q=0.8,sl;q=0.7,en-GB;q=0.6,en-US;q=0.5","60fd34d68de7efbcd7de57a0","687a1a965b9f5b85a264363e","68931808ca54650b35618777","1","60fd34d68de7efbcd7de57a0","1","2025-08-06T09:05:16.959Z","","","","MotivationQ","","","","","","","","","","","50","","","","","","","","","","","","","","","","","","","","","","","","","","",""
"","","","","ctl-task-cpt","63","688417","0.0-7.0-0.10","145","1","2025-08-06 08:55:28","36c45c0696341be0efffe67d72a12abb","213.161.20.6","Mozilla/5.0 (Windows NT 10.0; Win64; x64) AppleWebKit/537.36 (KHTML, like Gecko) Chrome/138.0.0.0 Safari/537.36","WebKit","Chrome","138.0.0.0","Windows","10.0","https://app.prolific.com/","en-SI,en;q=0.9,sl-SI;q=0.8,sl;q=0.7,en-GB;q=0.6,en-US;q=0.5","60fd34d68de7efbcd7de57a0","687a1a965b9f5b85a264363e","68931808ca54650b35618777","1","60fd34d68de7efbcd7de57a0","1","2025-08-06T09:05:45.838Z","","","","","","","","","","","","","","","","win-only","2","g1:SE,g2:NW","0.6","11","0","661469.6","1575","6575.8","25860.7","1","4","8","6","2","8","8","16","8","0.12121212121212122","958.5","3000","1135","[""left"",""up""]","{""num_key_presses"":6,""num_perfect"":3,""num_errors"":0,""num_randdir"":3,""num_randdir_good_moves"":3,""num_whilered"":0,""num_whileblue"":0,""num_blue"":1,""num_good_moves"":6}","[414.0714133126395,411.57142761775424,0.6,414.0714133126395,411.57142761775424,100.8,414.0714133126395,411.57142761775424,211.3,414.0714133126395,411.57142761775424,321,404.0714133126395,491.57142761775424,425.5,401.5714133126395,495.32142761775424,527.4,217.8214133126395,276.57142761775424,631.9,110.3214133126395,114.07142761775425,732.1,111.5714133126395,110.32142761775425,834.5,85.3214133126395,81.57142761775425,935.6,85.3214133126395,81.57142761775425,1036.8,85.3214133126395,81.57142761775425,1137,181.5714133126395,21.571427617754253,1237.6,292.8214133126395,-28.428572382245747,1341.6,340.3214133126395,-18.428572382245747,1449.3,340.3214133126395,-18.428572382245747,1552.4,340.3214133126395,-18.428572382245747,1653.1,340.3214133126395,-18.428572382245747,1756.9,340.3214133126395,-18.428572382245747,1860.7,340.3214133126395,-18.428572382245747,1970.3,340.3214133126395,-18.428572382245747,2071.1,340.3214133126395,-18.428572382245747,2175.8,340.3214133126395,-18.428572382245747,2275.9,340.3214133126395,-18.428572382245747,2376.8,340.3214133126395,-18.428572382245747,2481.9,340.3214133126395,-18.428572382245747,2582.5,340.3214133126395,-18.428572382245747,2691,340.3214133126395,-18.428572382245747,2799,340.3214133126395,-18.428572382245747,2899.4,340.3214133126395,-18.428572382245747,3006.8,340.3214133126395,-18.428572382245747,3111.4,340.3214133126395,-18.428572382245747,3216.4,340.3214133126395,-18.428572382245747,3320.6,340.3214133126395,-18.428572382245747,3420.8,340.3214133126395,-18.428572382245747,3523.2,340.3214133126395,-18.428572382245747,3625.2,340.3214133126395,-18.428572382245747,3727.7,340.3214133126395,-18.428572382245747,3835.4,340.3214133126395,-18.428572382245747,3936,340.3214133126395,-18.428572382245747,4037.7,340.3214133126395,-18.428572382245747,4140.7,340.3214133126395,-18.428572382245747,4241.3,340.3214133126395,-18.428572382245747,4349.1,340.3214133126395,-18.428572382245747,4457.4,340.3214133126395,-18.428572382245747,4560.3,340.3214133126395,-18.428572382245747,4661.1,340.3214133126395,-18.428572382245747,4761.3,340.3214133126395,-18.428572382245747,4861.3,340.3214133126395,-18.428572382245747,4961.3]","[1373.6,1373.6,1000,0,373.6,""smooth"",""up"",""up"",""good_move"",4564.6,3190.6,2880.4,1374,310.2,""oops"",""up"",""left"",""good_move"",7916.5,3351.7,3016.5,4564.8,335.2,""smooth"",""up"",""up"",""good_move"",13601.9,5685,1681.2,11530.9,389.8,""oops"",""left"",""left"",""good_move"",16592.5,2990.3,2647.7,13602.2,342.6,""oops"",""up"",""up"",""good_move"",19184.5,2591.7,2271.5,16592.8,320.2,""smooth"",""left"",""left"",""good_move""]"
"2190","","<div style=""width:500px;"">
  <p>What determined the result of this run?</p>
  </div>","43","html-slider-response","64","690608","0.0-7.0-1.10","145","1","2025-08-06 08:55:28","36c45c0696341be0efffe67d72a12abb","213.161.20.6","Mozilla/5.0 (Windows NT 10.0; Win64; x64) AppleWebKit/537.36 (KHTML, like Gecko) Chrome/138.0.0.0 Safari/537.36","WebKit","Chrome","138.0.0.0","Windows","10.0","https://app.prolific.com/","en-SI,en;q=0.9,sl-SI;q=0.8,sl;q=0.7,en-GB;q=0.6,en-US;q=0.5","60fd34d68de7efbcd7de57a0","687a1a965b9f5b85a264363e","68931808ca54650b35618777","1","60fd34d68de7efbcd7de57a0","1","2025-08-06T09:05:48.029Z","","","","AttribQ","","","","","","","","","","","50","","","","","","","","","","","","","","","","","","","","","","","","","","",""
"2167","","<div style=""width:500px;"">
  <p>How much control did you have over the ball?</p>
  </div>","44","html-slider-response","65","692776","0.0-7.0-2.10","145","1","2025-08-06 08:55:28","36c45c0696341be0efffe67d72a12abb","213.161.20.6","Mozilla/5.0 (Windows NT 10.0; Win64; x64) AppleWebKit/537.36 (KHTML, like Gecko) Chrome/138.0.0.0 Safari/537.36","WebKit","Chrome","138.0.0.0","Windows","10.0","https://app.prolific.com/","en-SI,en;q=0.9,sl-SI;q=0.8,sl;q=0.7,en-GB;q=0.6,en-US;q=0.5","60fd34d68de7efbcd7de57a0","687a1a965b9f5b85a264363e","68931808ca54650b35618777","1","60fd34d68de7efbcd7de57a0","1","2025-08-06T09:05:50.197Z","","","","ControlQ","","","","","","","","","","","50","","","","","","","","","","","","","","","","","","","","","","","","","","",""
"1823","","<div style=""width:500px;"">
  <p>How would you describe your current emotional state?</p>
  </div>","58","html-slider-response","66","694600","0.0-7.0-3.10","145","1","2025-08-06 08:55:28","36c45c0696341be0efffe67d72a12abb","213.161.20.6","Mozilla/5.0 (Windows NT 10.0; Win64; x64) AppleWebKit/537.36 (KHTML, like Gecko) Chrome/138.0.0.0 Safari/537.36","WebKit","Chrome","138.0.0.0","Windows","10.0","https://app.prolific.com/","en-SI,en;q=0.9,sl-SI;q=0.8,sl;q=0.7,en-GB;q=0.6,en-US;q=0.5","60fd34d68de7efbcd7de57a0","687a1a965b9f5b85a264363e","68931808ca54650b35618777","1","60fd34d68de7efbcd7de57a0","1","2025-08-06T09:05:52.021Z","","","","StressQ","","","","","","","","","","","50","","","","","","","","","","","","","","","","","","","","","","","","","","",""
"1231","","<div style=""width:500px;"">
  <p>What best describes how you currently feel?</p>
  </div>","42","html-slider-response","67","695832","0.0-7.0-4.10","145","1","2025-08-06 08:55:28","36c45c0696341be0efffe67d72a12abb","213.161.20.6","Mozilla/5.0 (Windows NT 10.0; Win64; x64) AppleWebKit/537.36 (KHTML, like Gecko) Chrome/138.0.0.0 Safari/537.36","WebKit","Chrome","138.0.0.0","Windows","10.0","https://app.prolific.com/","en-SI,en;q=0.9,sl-SI;q=0.8,sl;q=0.7,en-GB;q=0.6,en-US;q=0.5","60fd34d68de7efbcd7de57a0","687a1a965b9f5b85a264363e","68931808ca54650b35618777","1","60fd34d68de7efbcd7de57a0","1","2025-08-06T09:05:53.253Z","","","","MotivationQ","","","","","","","","","","","50","","","","","","","","","","","","","","","","","","","","","","","","","","",""
"","","","","ctl-task-cpt","68","729427","0.0-7.0-0.11","145","1","2025-08-06 08:55:28","36c45c0696341be0efffe67d72a12abb","213.161.20.6","Mozilla/5.0 (Windows NT 10.0; Win64; x64) AppleWebKit/537.36 (KHTML, like Gecko) Chrome/138.0.0.0 Safari/537.36","WebKit","Chrome","138.0.0.0","Windows","10.0","https://app.prolific.com/","en-SI,en;q=0.9,sl-SI;q=0.8,sl;q=0.7,en-GB;q=0.6,en-US;q=0.5","60fd34d68de7efbcd7de57a0","687a1a965b9f5b85a264363e","68931808ca54650b35618777","1","60fd34d68de7efbcd7de57a0","1","2025-08-06T09:06:26.848Z","","","","","","","","","","","","","","","","win-only","2","g1:SE,g2:NW","0.7","12","0","697764.4","998.6","6001.3","30566.3","1","4","4","6","1","1","1","17","16","0.12878787878787878","1567.8","3000","280","[""down"",""right""]","{""num_key_presses"":8,""num_perfect"":5,""num_errors"":0,""num_randdir"":3,""num_randdir_good_moves"":1,""num_whilered"":0,""num_whileblue"":0,""num_blue"":1,""num_good_moves"":6}","[419.0714133126395,427.82142761775424,0.3,419.0714133126395,427.82142761775424,104.7,419.0714133126395,427.82142761775424,207.3,419.0714133126395,427.82142761775424,309,419.0714133126395,427.82142761775424,412.8,419.0714133126395,427.82142761775424,512.8,262.8214133126395,191.57142761775424,617.8,129.0714133126395,19.071427617754253,721.2,129.0714133126395,19.071427617754253,822.6,139.0714133126395,49.07142761775425,923.4,427.8214133126395,399.07142761775424,1024.7,600.3214133126395,635.3214276177542,1125.3,636.5714133126395,725.3214276177542,1228.1,696.5714133126395,786.5714276177542,1328.8,736.5714133126395,789.0714276177542,1430.5,746.5714133126395,786.5714276177542,1532.2,746.5714133126395,786.5714276177542,1633.3,746.5714133126395,786.5714276177542,1738.2,786.5714133126395,717.8214276177542,1842.8,1062.8214133126396,526.5714276177542,1943.1,1064.0714133126396,519.0714276177542,2043.5,1064.0714133126396,519.0714276177542,2147,1064.0714133126396,519.0714276177542,2255.7,1064.0714133126396,519.0714276177542,2355.7,1064.0714133126396,519.0714276177542,2456.9,1064.0714133126396,519.0714276177542,2557.6,1064.0714133126396,519.0714276177542,2657.8,1064.0714133126396,519.0714276177542,2762,1064.0714133126396,519.0714276177542,2862.5,1064.0714133126396,519.0714276177542,2963.8,1064.0714133126396,519.0714276177542,3073.5,1064.0714133126396,519.0714276177542,3178.5,1064.0714133126396,519.0714276177542,3278.5,1064.0714133126396,519.0714276177542,3382.1,1064.0714133126396,519.0714276177542,3483.1,1064.0714133126396,519.0714276177542,3583.1,1064.0714133126396,519.0714276177542,3687,1064.0714133126396,519.0714276177542,3792.5,1064.0714133126396,519.0714276177542,3898.2,1064.0714133126396,519.0714276177542,4000.5,1064.0714133126396,519.0714276177542,4102.5,1064.0714133126396,519.0714276177542,4208.2,1064.0714133126396,519.0714276177542,4308.8,1064.0714133126396,519.0714276177542,4412.9,1064.0714133126396,519.0714276177542,4521.3,1064.0714133126396,519.0714276177542,4621.8,1064.0714133126396,519.0714276177542,4723,1064.0714133126396,519.0714276177542,4828.7,1064.0714133126396,519.0714276177542,4935]","[1539.7,1539.7,1000,0,539.7,""smooth"",""right"",""right"",""good_move"",4272.2,2731.4,2312.8,1540.8,418.6,""oops"",""down"",""up"",""bad_move"",6568.3,2295.8,1972.3,4272.5,323.5,""oops"",""right"",""up"",""bad_move"",9092.2,2523.5,2204.1,6568.7,319.4,""smooth"",""right"",""right"",""good_move"",16178,7085.5,3021,12794.7,362.3,""smooth"",""down"",""down"",""good_move"",19259.7,3081.3,2725.3,16178.4,356,""smooth"",""down"",""down"",""good_move"",22104.1,2844.3,2429.4,19259.8,414.9,""oops"",""down"",""down"",""good_move"",24464,2359.6,1989.4,22104.4,370.2,""smooth"",""down"",""down"",""good_move""]"
"2011","","<div style=""width:500px;"">
  <p>What determined the result of this run?</p>
  </div>","42","html-slider-response","69","731440","0.0-7.0-1.11","145","1","2025-08-06 08:55:28","36c45c0696341be0efffe67d72a12abb","213.161.20.6","Mozilla/5.0 (Windows NT 10.0; Win64; x64) AppleWebKit/537.36 (KHTML, like Gecko) Chrome/138.0.0.0 Safari/537.36","WebKit","Chrome","138.0.0.0","Windows","10.0","https://app.prolific.com/","en-SI,en;q=0.9,sl-SI;q=0.8,sl;q=0.7,en-GB;q=0.6,en-US;q=0.5","60fd34d68de7efbcd7de57a0","687a1a965b9f5b85a264363e","68931808ca54650b35618777","1","60fd34d68de7efbcd7de57a0","1","2025-08-06T09:06:28.861Z","","","","AttribQ","","","","","","","","","","","50","","","","","","","","","","","","","","","","","","","","","","","","","","",""
"1967","","<div style=""width:500px;"">
  <p>How much control did you have over the ball?</p>
  </div>","44","html-slider-response","70","733408","0.0-7.0-2.11","145","1","2025-08-06 08:55:28","36c45c0696341be0efffe67d72a12abb","213.161.20.6","Mozilla/5.0 (Windows NT 10.0; Win64; x64) AppleWebKit/537.36 (KHTML, like Gecko) Chrome/138.0.0.0 Safari/537.36","WebKit","Chrome","138.0.0.0","Windows","10.0","https://app.prolific.com/","en-SI,en;q=0.9,sl-SI;q=0.8,sl;q=0.7,en-GB;q=0.6,en-US;q=0.5","60fd34d68de7efbcd7de57a0","687a1a965b9f5b85a264363e","68931808ca54650b35618777","1","60fd34d68de7efbcd7de57a0","1","2025-08-06T09:06:30.829Z","","","","ControlQ","","","","","","","","","","","50","","","","","","","","","","","","","","","","","","","","","","","","","","",""
"1335","","<div style=""width:500px;"">
  <p>How would you describe your current emotional state?</p>
  </div>","53","html-slider-response","71","734744","0.0-7.0-3.11","145","1","2025-08-06 08:55:28","36c45c0696341be0efffe67d72a12abb","213.161.20.6","Mozilla/5.0 (Windows NT 10.0; Win64; x64) AppleWebKit/537.36 (KHTML, like Gecko) Chrome/138.0.0.0 Safari/537.36","WebKit","Chrome","138.0.0.0","Windows","10.0","https://app.prolific.com/","en-SI,en;q=0.9,sl-SI;q=0.8,sl;q=0.7,en-GB;q=0.6,en-US;q=0.5","60fd34d68de7efbcd7de57a0","687a1a965b9f5b85a264363e","68931808ca54650b35618777","1","60fd34d68de7efbcd7de57a0","1","2025-08-06T09:06:32.165Z","","","","StressQ","","","","","","","","","","","50","","","","","","","","","","","","","","","","","","","","","","","","","","",""
"1463","","<div style=""width:500px;"">
  <p>What best describes how you currently feel?</p>
  </div>","47","html-slider-response","72","736208","0.0-7.0-4.11","145","1","2025-08-06 08:55:28","36c45c0696341be0efffe67d72a12abb","213.161.20.6","Mozilla/5.0 (Windows NT 10.0; Win64; x64) AppleWebKit/537.36 (KHTML, like Gecko) Chrome/138.0.0.0 Safari/537.36","WebKit","Chrome","138.0.0.0","Windows","10.0","https://app.prolific.com/","en-SI,en;q=0.9,sl-SI;q=0.8,sl;q=0.7,en-GB;q=0.6,en-US;q=0.5","60fd34d68de7efbcd7de57a0","687a1a965b9f5b85a264363e","68931808ca54650b35618777","1","60fd34d68de7efbcd7de57a0","1","2025-08-06T09:06:33.629Z","","","","MotivationQ","","","","","","","","","","","50","","","","","","","","","","","","","","","","","","","","","","","","","","",""
"","","","","ctl-task-cpt","73","765843","0.0-7.0-0.12","145","1","2025-08-06 08:55:28","36c45c0696341be0efffe67d72a12abb","213.161.20.6","Mozilla/5.0 (Windows NT 10.0; Win64; x64) AppleWebKit/537.36 (KHTML, like Gecko) Chrome/138.0.0.0 Safari/537.36","WebKit","Chrome","138.0.0.0","Windows","10.0","https://app.prolific.com/","en-SI,en;q=0.9,sl-SI;q=0.8,sl;q=0.7,en-GB;q=0.6,en-US;q=0.5","60fd34d68de7efbcd7de57a0","687a1a965b9f5b85a264363e","68931808ca54650b35618777","1","60fd34d68de7efbcd7de57a0","1","2025-08-06T09:07:03.264Z","","","","","","","","","","","","","","","","win-only","0","g1:NW,g2:SE","0.8","13","0","738140.3","870.4","5871.2","26616.3","1","4","8","6","2","8","8","25","17","0.1893939393939394","1194","3000","690","[""down"",""right""]","{""num_key_presses"":8,""num_perfect"":6,""num_errors"":0,""num_randdir"":2,""num_randdir_good_moves"":1,""num_whilered"":0,""num_whileblue"":0,""num_blue"":0,""num_good_moves"":7}","[406.5714133126395,421.57142761775424,0.4,406.5714133126395,422.82142761775424,106,406.5714133126395,422.82142761775424,211.1,406.5714133126395,422.82142761775424,315.8,406.5714133126395,422.82142761775424,421.4,406.5714133126395,422.82142761775424,525.9,406.5714133126395,422.82142761775424,632.7,405.3214133126395,422.82142761775424,741.7,419.0714133126395,465.32142761775424,845.5,692.8214133126395,692.8214276177542,945.5,694.0714133126395,699.0714276177542,1047.1,724.0714133126395,736.5714276177542,1150.2,730.3214133126395,746.5714276177542,1251.8,730.3214133126395,746.5714276177542,1355.3,730.3214133126395,746.5714276177542,1460.1,730.3214133126395,701.5714276177542,1560.9,695.3214133126395,636.5714276177542,1661,702.8214133126395,631.5714276177542,1763.2,702.8214133126395,631.5714276177542,1866.8,702.8214133126395,631.5714276177542,1971.1,702.8214133126395,631.5714276177542,2075.2,702.8214133126395,631.5714276177542,2175.6,702.8214133126395,631.5714276177542,2281.9,702.8214133126395,631.5714276177542,2382.9,702.8214133126395,631.5714276177542,2491,702.8214133126395,631.5714276177542,2592.5,702.8214133126395,631.5714276177542,2696.2,702.8214133126395,631.5714276177542,2796.4,702.8214133126395,631.5714276177542,2904.2,702.8214133126395,631.5714276177542,3005.6,702.8214133126395,631.5714276177542,3106.3,702.8214133126395,631.5714276177542,3211,702.8214133126395,631.5714276177542,3316.1,702.8214133126395,631.5714276177542,3421.1,702.8214133126395,631.5714276177542,3522.7,702.8214133126395,631.5714276177542,3626.4,702.8214133126395,631.5714276177542,3732.7,702.8214133126395,631.5714276177542,3835.6,702.8214133126395,631.5714276177542,3936,702.8214133126395,631.5714276177542,4036.7,702.8214133126395,631.5714276177542,4140.3,702.8214133126395,631.5714276177542,4242.9,702.8214133126395,631.5714276177542,4345.5,702.8214133126395,631.5714276177542,4455.9,702.8214133126395,631.5714276177542,4560.4,702.8214133126395,631.5714276177542,4660.4,702.8214133126395,631.5714276177542,4761.6,702.8214133126395,631.5714276177542,4861.8,702.8214133126395,631.5714276177542,4966.7]","[1351.6,1351.6,1000,0,351.7,""smooth"",""down"",""down"",""good_move"",4206.1,2853.9,2546,1352.2,307.9,""oops"",""down"",""left"",""bad_move"",6511.4,2304.8,1915.4,4206.6,389.4,""smooth"",""down"",""down"",""good_move"",9110.7,2599,2239.7,6511.7,359.3,""smooth"",""down"",""down"",""good_move"",11967.5,2856.6,2531.9,9111,324.6,""smooth"",""right"",""right"",""good_move"",14826.5,2858.6,2487.4,11967.9,371.2,""oops"",""right"",""right"",""good_move"",17458.4,2631.6,2310.1,14826.8,321.5,""smooth"",""right"",""right"",""good_move"",20636.3,3177.6,2822,17458.7,355.7,""smooth"",""right"",""right"",""good_move""]"
"1436","","<div style=""width:500px;"">
  <p>What determined the result of this run?</p>
  </div>","46","html-slider-response","74","767280","0.0-7.0-1.12","145","1","2025-08-06 08:55:28","36c45c0696341be0efffe67d72a12abb","213.161.20.6","Mozilla/5.0 (Windows NT 10.0; Win64; x64) AppleWebKit/537.36 (KHTML, like Gecko) Chrome/138.0.0.0 Safari/537.36","WebKit","Chrome","138.0.0.0","Windows","10.0","https://app.prolific.com/","en-SI,en;q=0.9,sl-SI;q=0.8,sl;q=0.7,en-GB;q=0.6,en-US;q=0.5","60fd34d68de7efbcd7de57a0","687a1a965b9f5b85a264363e","68931808ca54650b35618777","1","60fd34d68de7efbcd7de57a0","1","2025-08-06T09:07:04.701Z","","","","AttribQ","","","","","","","","","","","50","","","","","","","","","","","","","","","","","","","","","","","","","","",""
"1951","","<div style=""width:500px;"">
  <p>How much control did you have over the ball?</p>
  </div>","53","html-slider-response","75","769232","0.0-7.0-2.12","145","1","2025-08-06 08:55:28","36c45c0696341be0efffe67d72a12abb","213.161.20.6","Mozilla/5.0 (Windows NT 10.0; Win64; x64) AppleWebKit/537.36 (KHTML, like Gecko) Chrome/138.0.0.0 Safari/537.36","WebKit","Chrome","138.0.0.0","Windows","10.0","https://app.prolific.com/","en-SI,en;q=0.9,sl-SI;q=0.8,sl;q=0.7,en-GB;q=0.6,en-US;q=0.5","60fd34d68de7efbcd7de57a0","687a1a965b9f5b85a264363e","68931808ca54650b35618777","1","60fd34d68de7efbcd7de57a0","1","2025-08-06T09:07:06.653Z","","","","ControlQ","","","","","","","","","","","50","","","","","","","","","","","","","","","","","","","","","","","","","","",""
"2407","","<div style=""width:500px;"">
  <p>How would you describe your current emotional state?</p>
  </div>","52","html-slider-response","76","771640","0.0-7.0-3.12","145","1","2025-08-06 08:55:28","36c45c0696341be0efffe67d72a12abb","213.161.20.6","Mozilla/5.0 (Windows NT 10.0; Win64; x64) AppleWebKit/537.36 (KHTML, like Gecko) Chrome/138.0.0.0 Safari/537.36","WebKit","Chrome","138.0.0.0","Windows","10.0","https://app.prolific.com/","en-SI,en;q=0.9,sl-SI;q=0.8,sl;q=0.7,en-GB;q=0.6,en-US;q=0.5","60fd34d68de7efbcd7de57a0","687a1a965b9f5b85a264363e","68931808ca54650b35618777","1","60fd34d68de7efbcd7de57a0","1","2025-08-06T09:07:09.061Z","","","","StressQ","","","","","","","","","","","50","","","","","","","","","","","","","","","","","","","","","","","","","","",""
"1999","","<div style=""width:500px;"">
  <p>What best describes how you currently feel?</p>
