"rt","response_timestamp","stimulus","response","trial_type","trial_index","time_elapsed","internal_node_id","run_id","condition","recorded_at","source_code_version","ip","user_agent","device","browser","browser_version","platform","platform_version","referer","accept_language","PROLIFIC_PID","STUDY_ID","SESSION_ID","BATCH","prolific_id","batch","realtime","success","question_order","question_id","eventType","responses","item_order","radio_event_ids","radio_event_times","key_event_times","mouse_event_times","straightlining","zigzagging","honeypot","view_history","slider_start","which_type","canvas_config","goals_layout","control_level","trial_number","tutorial_trial_number","trial_start_time","phase1_start_time","phase2_start_time","phase3_start_time","goal_1_value","goal_1_distance","goal_2_value","goal_2_distance","goal_selected","outcome","outcome_total","participant_final_score","participant_initial_score","participant_final_score_prop","goal_choice_rt","allocated_time","allocated_time_remaining","goal_direction","counts","mouse_movements","key_presses"
"22643","1753881035430","<p style='font-size:40px;line-height:1.25'><strong>Welcome to the experiment!</strong></p><p style='font-size:1.1em;line-height:1.25'>Thank you for participanting in our experiment again! You will be asked to play the Dysfunctional Ball Game again. We will briefly recap the rules before we start.</p><p style='font-size:1.1em;line-height:1.25'>Press <strong>Next</strong> to continue.</p>","0","custom-html-button-response","0","22654","0.0-0.0","100","1","2025-07-30 13:10:09","36c45c0696341be0efffe67d72a12abb","196.22.249.82","Mozilla/5.0 (Windows NT 10.0; Win64; x64) AppleWebKit/537.36 (KHTML, like Gecko) Chrome/138.0.0.0 Safari/537.36 Edg/138.0.0.0","WebKit","Edge","138.0.0.0","Windows","10.0","https://app.prolific.com/","en-US,en;q=0.9,en-ZA;q=0.8","6106be7d513dcab805d524b8","687a360dabe5252b5ada7185","688a19752d0a36a44a418cbe","0","6106be7d513dcab805d524b8","0","2025-07-30T13:10:35.437Z","","","","","","","","","","","","","","","","","","","","","","","","","","","","","","","","","","","","","","","","","",""
"13093","","","","fullscreen","1","36811","0.0-1.0","100","1","2025-07-30 13:10:09","36c45c0696341be0efffe67d72a12abb","196.22.249.82","Mozilla/5.0 (Windows NT 10.0; Win64; x64) AppleWebKit/537.36 (KHTML, like Gecko) Chrome/138.0.0.0 Safari/537.36 Edg/138.0.0.0","WebKit","Edge","138.0.0.0","Windows","10.0","https://app.prolific.com/","en-US,en;q=0.9,en-ZA;q=0.8","6106be7d513dcab805d524b8","687a360dabe5252b5ada7185","688a19752d0a36a44a418cbe","0","6106be7d513dcab805d524b8","0","","true","","","","","","","","","","","","","","","","","","","","","","","","","","","","","","","","","","","","","","","","",""
"12748","1753881062345"," <p style='font-size:1.1em;line-height:1.25'>Thank you for closing all other tabs.</p><p style='font-size:1.1em;line-height:1.25'>We will now invite you to fill in some questionnaires, before starting the game.<br>This will take about 5 minutes.<br></p><p style='font-size:1.1em;line-height:1.25'>Press the <strong>Next</strong> button to continue.</p>","0","custom-html-button-response","2","49564","0.0-2.0","100","1","2025-07-30 13:10:09","36c45c0696341be0efffe67d72a12abb","196.22.249.82","Mozilla/5.0 (Windows NT 10.0; Win64; x64) AppleWebKit/537.36 (KHTML, like Gecko) Chrome/138.0.0.0 Safari/537.36 Edg/138.0.0.0","WebKit","Edge","138.0.0.0","Windows","10.0","https://app.prolific.com/","en-US,en;q=0.9,en-ZA;q=0.8","6106be7d513dcab805d524b8","687a360dabe5252b5ada7185","688a19752d0a36a44a418cbe","0","6106be7d513dcab805d524b8","0","2025-07-30T13:11:02.346Z","","","","","","","","","","","","","","","","","","","","","","","","","","","","","","","","","","","","","","","","","",""
"4878","","","{""assigned_sex"":""female""}","survey-multi-choice","3","54454","0.0-3.0-0.0","100","1","2025-07-30 13:10:09","36c45c0696341be0efffe67d72a12abb","196.22.249.82","Mozilla/5.0 (Windows NT 10.0; Win64; x64) AppleWebKit/537.36 (KHTML, like Gecko) Chrome/138.0.0.0 Safari/537.36 Edg/138.0.0.0","WebKit","Edge","138.0.0.0","Windows","10.0","https://app.prolific.com/","en-US,en;q=0.9,en-ZA;q=0.8","6106be7d513dcab805d524b8","687a360dabe5252b5ada7185","688a19752d0a36a44a418cbe","0","6106be7d513dcab805d524b8","0","","","[0]","0","demographics","","","","","","","","","","","","","","","","","","","","","","","","","","","","","","","","","","","","","",""
"5533","1753881072772","<p style='font-size:1.1em;line-height:1.25'>In the following, we will perform a baseline assessment. This means that we will ask you a few questions relating to your experiences over the past month.<br></p><p style='font-size:1.1em;line-height:1.25'>Press the <strong>Next</strong> button to continue.</p>","0","custom-html-button-response","4","59991","0.0-4.0-0.0","100","1","2025-07-30 13:10:09","36c45c0696341be0efffe67d72a12abb","196.22.249.82","Mozilla/5.0 (Windows NT 10.0; Win64; x64) AppleWebKit/537.36 (KHTML, like Gecko) Chrome/138.0.0.0 Safari/537.36 Edg/138.0.0.0","WebKit","Edge","138.0.0.0","Windows","10.0","https://app.prolific.com/","en-US,en;q=0.9,en-ZA;q=0.8","6106be7d513dcab805d524b8","687a360dabe5252b5ada7185","688a19752d0a36a44a418cbe","0","6106be7d513dcab805d524b8","0","2025-07-30T13:11:12.774Z","","","","","","","","","","","","","","","","","","","","","","","","","","","","","","","","","","","","","","","","","",""
"64551.39999999851","","","","survey-template","5","124557","0.0-4.0-1.0","100","1","2025-07-30 13:10:09","36c45c0696341be0efffe67d72a12abb","196.22.249.82","Mozilla/5.0 (Windows NT 10.0; Win64; x64) AppleWebKit/537.36 (KHTML, like Gecko) Chrome/138.0.0.0 Safari/537.36 Edg/138.0.0.0","WebKit","Edge","138.0.0.0","Windows","10.0","https://app.prolific.com/","en-US,en;q=0.9,en-ZA;q=0.8","6106be7d513dcab805d524b8","687a360dabe5252b5ada7185","688a19752d0a36a44a418cbe","0","6106be7d513dcab805d524b8","0","2025-07-30T13:12:17.339Z","","","","pss","{""Q01"":""1"",""Q02"":""2"",""Q03"":""2"",""Q04"":""1"",""Q05"":""2"",""Q06"":""1"",""Q07"":""2"",""Q08"":""1"",""Q09"":""0"",""Q10"":""0""}","[0,1,2,3,4,5,6,7,8,9]","[""Q01"",""Q02"",""Q03"",""Q04"",""Q05"",""Q06"",""Q07"",""Q08"",""Q09"",""Q10""]","[9643.199999999255,21657.099999997765,23677.199999999255,27486,30521.199999999255,33671.800000000745,41348.89999999851,48415.599999997765,58765.5,61490.89999999851]","[]","[0.3999999985098839,9643.199999999255,21657.099999997765,23677.199999999255,27486,30521.199999999255,33671.800000000745,41348.89999999851,46682,48415.599999997765,58765.5,61490.89999999851,64547]","0.4","0.6666666666666666","0","","","","","","","","","","","","","","","","","","","","","","","","","","","","",""
"4831","1753881142173","<p style='font-size:1.1em;line-height:1.25'>Thank you for your answers! Now we will ask you a few more questions relating to your feelings in the last 24 hours.<br></p><p style='font-size:1.1em;line-height:1.25'>Press the <strong>Next</strong> button to continue.</p>","0","custom-html-button-response","6","129392","0.0-4.0-2.0","100","1","2025-07-30 13:10:09","36c45c0696341be0efffe67d72a12abb","196.22.249.82","Mozilla/5.0 (Windows NT 10.0; Win64; x64) AppleWebKit/537.36 (KHTML, like Gecko) Chrome/138.0.0.0 Safari/537.36 Edg/138.0.0.0","WebKit","Edge","138.0.0.0","Windows","10.0","https://app.prolific.com/","en-US,en;q=0.9,en-ZA;q=0.8","6106be7d513dcab805d524b8","687a360dabe5252b5ada7185","688a19752d0a36a44a418cbe","0","6106be7d513dcab805d524b8","0","2025-07-30T13:12:22.175Z","","","","","","","","","","","","","","","","","","","","","","","","","","","","","","","","","","","","","","","","","",""
"104874.79999999702","","","","survey-template","7","234282","0.0-4.0-3.0","100","1","2025-07-30 13:10:09","36c45c0696341be0efffe67d72a12abb","196.22.249.82","Mozilla/5.0 (Windows NT 10.0; Win64; x64) AppleWebKit/537.36 (KHTML, like Gecko) Chrome/138.0.0.0 Safari/537.36 Edg/138.0.0.0","WebKit","Edge","138.0.0.0","Windows","10.0","https://app.prolific.com/","en-US,en;q=0.9,en-ZA;q=0.8","6106be7d513dcab805d524b8","687a360dabe5252b5ada7185","688a19752d0a36a44a418cbe","0","6106be7d513dcab805d524b8","0","2025-07-30T13:14:07.064Z","","","","drsp","{""Q01"":""0"",""Q02"":""0"",""Q03"":""0"",""Q04"":""2"",""Q05"":""0"",""Q06"":""0"",""Q07"":""1"",""Q08"":""0"",""Q09"":""0"",""Q10"":""1"",""Q11"":""2"",""Q12"":""3"",""Q13"":""5"",""Q14"":""2"",""Q15"":""4"",""Q16"":""4"",""Q17"":""1"",""Q18"":""1"",""Q19"":""2"",""Q20"":""0"",""Q21"":""0"",""Q22"":""0""}","[0,1,2,3,4,5,6,7,8,9,10,11,12,13,14,15,16,17,18,19,20,21]","[""Q01"",""Q02"",""Q03"",""Q04"",""Q05"",""Q05"",""Q05"",""Q06"",""Q07"",""Q08"",""Q09"",""Q10"",""Q11"",""Q12"",""Q13"",""Q13"",""Q14"",""Q15"",""Q16"",""Q17"",""Q18"",""Q19"",""Q20"",""Q19"",""Q21"",""Q22""]","[7072.89999999851,8535.79999999702,11174.79999999702,13094.199999999255,16260.599999997765,20200,31647.79999999702,33079,35393.29999999702,37003.099999997765,42328.099999997765,44641.89999999851,46894.79999999702,51097.199999999255,53302.89999999851,53566.199999999255,55973.79999999702,58782.29999999702,62032.39999999851,64980.699999999255,66645.39999999851,71451.19999999925,81692.29999999702,87881.29999999702,92207.79999999702,96581]","[]","[0.5,7072.89999999851,8535.79999999702,11174.79999999702,13094.199999999255,16260.599999997765,20200,31647.79999999702,33079,35393.29999999702,37003.099999997765,42328.099999997765,44641.89999999851,46894.79999999702,51097.199999999255,53302.89999999851,53566.199999999255,55973.79999999702,58782.29999999702,62032.39999999851,64980.699999999255,66645.39999999851,71451.19999999925,81692.29999999702,87881.29999999702,92207.79999999702,96581,104862.5]","0.45454545454545453","0.2857142857142857","0","","","","","","","","","","","","","","","","","","","","","","","","","","","","",""
"20124","","","","survey-template","8","254414","0.0-4.0-4.0","100","1","2025-07-30 13:10:09","36c45c0696341be0efffe67d72a12abb","196.22.249.82","Mozilla/5.0 (Windows NT 10.0; Win64; x64) AppleWebKit/537.36 (KHTML, like Gecko) Chrome/138.0.0.0 Safari/537.36 Edg/138.0.0.0","WebKit","Edge","138.0.0.0","Windows","10.0","https://app.prolific.com/","en-US,en;q=0.9,en-ZA;q=0.8","6106be7d513dcab805d524b8","687a360dabe5252b5ada7185","688a19752d0a36a44a418cbe","0","6106be7d513dcab805d524b8","0","2025-07-30T13:14:27.196Z","","","","stress","{""Q01"":""2"",""Q02"":""2"",""Q03"":""0""}","[0,1,2]","[""Q01"",""Q02"",""Q03""]","[7089.699999999255,14386.199999999255,16824.10000000149]","[]","[7089.699999999255,14386.199999999255,16824.10000000149,20120.699999999255]","0.3333333333333333","0.5","0","","","","","","","","","","","","","","","","","","","","","","","","","","","","",""
"29416","","","","instructions","9","283833","0.0-5.0-0.0","100","1","2025-07-30 13:10:09","36c45c0696341be0efffe67d72a12abb","196.22.249.82","Mozilla/5.0 (Windows NT 10.0; Win64; x64) AppleWebKit/537.36 (KHTML, like Gecko) Chrome/138.0.0.0 Safari/537.36 Edg/138.0.0.0","WebKit","Edge","138.0.0.0","Windows","10.0","https://app.prolific.com/","en-US,en;q=0.9,en-ZA;q=0.8","6106be7d513dcab805d524b8","687a360dabe5252b5ada7185","688a19752d0a36a44a418cbe","0","6106be7d513dcab805d524b8","0","","","","","","","","","","","","","","","[{""page_index"":0,""viewing_time"":29415}]","","","","","","","","","","","","","","","","","","","","","","","","","","","",""
"8561","","<p>Before you start with this game please answer the following three questions yourself. </p>
  <p>Through this game, we measure several aspects of your cognitive performance, such as reaction times, multi-tasking capabilities </p>
  <p>and the ability to assess the situation you are in.</p>
  <p></p>
  <p><b>How good do you usually are in such tasks?</b></p>","92","html-slider-response","10","292400","0.0-6.0-0.0","100","1","2025-07-30 13:10:09","36c45c0696341be0efffe67d72a12abb","196.22.249.82","Mozilla/5.0 (Windows NT 10.0; Win64; x64) AppleWebKit/537.36 (KHTML, like Gecko) Chrome/138.0.0.0 Safari/537.36 Edg/138.0.0.0","WebKit","Edge","138.0.0.0","Windows","10.0","https://app.prolific.com/","en-US,en;q=0.9,en-ZA;q=0.8","6106be7d513dcab805d524b8","687a360dabe5252b5ada7185","688a19752d0a36a44a418cbe","0","6106be7d513dcab805d524b8","0","2025-07-30T13:15:05.182Z","","","","PreSkillQ","","","","","","","","","","","50","","","","","","","","","","","","","","","","","","","","","","","","","","",""
"6310","","<div style=""width:500px;"">
  <p>How well do you think you will perform in this task compared to other participants?</p>
  </div>","87","html-slider-response","11","298715","0.0-6.0-1.0","100","1","2025-07-30 13:10:09","36c45c0696341be0efffe67d72a12abb","196.22.249.82","Mozilla/5.0 (Windows NT 10.0; Win64; x64) AppleWebKit/537.36 (KHTML, like Gecko) Chrome/138.0.0.0 Safari/537.36 Edg/138.0.0.0","WebKit","Edge","138.0.0.0","Windows","10.0","https://app.prolific.com/","en-US,en;q=0.9,en-ZA;q=0.8","6106be7d513dcab805d524b8","687a360dabe5252b5ada7185","688a19752d0a36a44a418cbe","0","6106be7d513dcab805d524b8","0","2025-07-30T13:15:11.497Z","","","","PrePerfQ","","","","","","","","","","","50","","","","","","","","","","","","","","","","","","","","","","","","","","",""
"5513","","<div style=""width:500px;"">
  <p>What best describes how you currently feel?</p>
  </div>","75","html-slider-response","12","304231","0.0-6.0-2.0","100","1","2025-07-30 13:10:09","36c45c0696341be0efffe67d72a12abb","196.22.249.82","Mozilla/5.0 (Windows NT 10.0; Win64; x64) AppleWebKit/537.36 (KHTML, like Gecko) Chrome/138.0.0.0 Safari/537.36 Edg/138.0.0.0","WebKit","Edge","138.0.0.0","Windows","10.0","https://app.prolific.com/","en-US,en;q=0.9,en-ZA;q=0.8","6106be7d513dcab805d524b8","687a360dabe5252b5ada7185","688a19752d0a36a44a418cbe","0","6106be7d513dcab805d524b8","0","2025-07-30T13:15:17.014Z","","","","PreMotivationQ","","","","","","","","","","","50","","","","","","","","","","","","","","","","","","","","","","","","","","",""
"","","","","ctl-task-cpt","13","345338","0.0-7.0-0.0","100","1","2025-07-30 13:10:09","36c45c0696341be0efffe67d72a12abb","196.22.249.82","Mozilla/5.0 (Windows NT 10.0; Win64; x64) AppleWebKit/537.36 (KHTML, like Gecko) Chrome/138.0.0.0 Safari/537.36 Edg/138.0.0.0","WebKit","Edge","138.0.0.0","Windows","10.0","https://app.prolific.com/","en-US,en;q=0.9,en-ZA;q=0.8","6106be7d513dcab805d524b8","687a360dabe5252b5ada7185","688a19752d0a36a44a418cbe","0","6106be7d513dcab805d524b8","0","2025-07-30T13:15:58.121Z","","","","","","","","","","","","","","","","win-only","1","g1:NE,g2:SW","1","1","0","309930.2","2855.9","7865.3","38094.7","1","4","8","6","2","8","8","8","0","0.06060606060606061","1994.5","3000","750","[""down"",""left""]","{""num_key_presses"":6,""num_perfect"":6,""num_errors"":0,""num_randdir"":0,""num_randdir_good_moves"":0,""num_whilered"":0,""num_whileblue"":0,""num_blue"":4,""num_good_moves"":6}","[294.22232142857143,301.12857142857143,2.6,294.22232142857143,301.12857142857143,102.4,294.22232142857143,301.12857142857143,207.1,294.22232142857143,301.12857142857143,308.5,294.22232142857143,301.12857142857143,412,294.22232142857143,301.12857142857143,519,294.22232142857143,301.12857142857143,622.5,294.22232142857143,301.12857142857143,725.9,294.22232142857143,301.12857142857143,833.2,294.22232142857143,301.12857142857143,941.5,294.22232142857143,301.12857142857143,1043.5,294.22232142857143,301.12857142857143,1144.4,215.22232142857143,383.12857142857143,1246.4,135.22232142857143,446.12857142857143,1353.2,104.22232142857143,470.12857142857143,1454.8,86.22232142857143,490.12857142857143,1566.3,73.22232142857143,513.1285714285714,1673.1,68.22232142857143,521.1285714285714,1784,68.22232142857143,521.1285714285714,1885.4,68.22232142857143,521.1285714285714,2004.1,68.22232142857143,521.1285714285714,2111.1,68.22232142857143,521.1285714285714,2211.4,68.22232142857143,521.1285714285714,2312.2,68.22232142857143,521.1285714285714,2419.4,68.22232142857143,521.1285714285714,2528.1,68.22232142857143,521.1285714285714,2630.2,68.22232142857143,521.1285714285714,2738.9,68.22232142857143,521.1285714285714,2839.2,68.22232142857143,521.1285714285714,2943.4,68.22232142857143,521.1285714285714,3045.1,68.22232142857143,521.1285714285714,3146.9,68.22232142857143,521.1285714285714,3250.3,68.22232142857143,521.1285714285714,3357.6,68.22232142857143,521.1285714285714,3460.4,68.22232142857143,521.1285714285714,3561.7,68.22232142857143,521.1285714285714,3661.9,68.22232142857143,521.1285714285714,3762.3,68.22232142857143,521.1285714285714,3862.4,68.22232142857143,521.1285714285714,3966.7,68.22232142857143,521.1285714285714,4067.7,68.22232142857143,521.1285714285714,4169.1,68.22232142857143,521.1285714285714,4272.8,68.22232142857143,521.1285714285714,4374.1,68.22232142857143,521.1285714285714,4476.4,68.22232142857143,521.1285714285714,4576.5,68.22232142857143,521.1285714285714,4676.9,68.22232142857143,521.1285714285714,4783.1,68.22232142857143,521.1285714285714,4887.5,68.22232142857143,521.1285714285714,4987.6]","[1616.2,1616.1,1000,0.1,616.1,""smooth"",""down"",""down"",""good_move"",8017.3,6398.1,2882.5,4720.3,414.5,""smooth"",""left"",""left"",""good_move"",17980.9,9960.8,2826.8,14730.6,423.8,""smooth"",""down"",""down"",""good_move"",21536.4,3552.7,2991.1,17983.7,561.6,""smooth"",""left"",""left"",""good_move"",27617,6067.9,2328.6,24866,422.5,""smooth"",""down"",""down"",""good_move"",30108.8,2490.2,2023.9,27618.7,466.2,""smooth"",""left"",""left"",""good_move""]"
"4135","","<div style=""width:500px;"">
  <p>What determined the result of this run?</p>
  </div>","100","html-slider-response","14","349480","0.0-7.0-1.0","100","1","2025-07-30 13:10:09","36c45c0696341be0efffe67d72a12abb","196.22.249.82","Mozilla/5.0 (Windows NT 10.0; Win64; x64) AppleWebKit/537.36 (KHTML, like Gecko) Chrome/138.0.0.0 Safari/537.36 Edg/138.0.0.0","WebKit","Edge","138.0.0.0","Windows","10.0","https://app.prolific.com/","en-US,en;q=0.9,en-ZA;q=0.8","6106be7d513dcab805d524b8","687a360dabe5252b5ada7185","688a19752d0a36a44a418cbe","0","6106be7d513dcab805d524b8","0","2025-07-30T13:16:02.262Z","","","","AttribQ","","","","","","","","","","","50","","","","","","","","","","","","","","","","","","","","","","","","","","",""
"2953","","<div style=""width:500px;"">
  <p>How much control did you have over the ball?</p>
  </div>","100","html-slider-response","15","352441","0.0-7.0-2.0","100","1","2025-07-30 13:10:09","36c45c0696341be0efffe67d72a12abb","196.22.249.82","Mozilla/5.0 (Windows NT 10.0; Win64; x64) AppleWebKit/537.36 (KHTML, like Gecko) Chrome/138.0.0.0 Safari/537.36 Edg/138.0.0.0","WebKit","Edge","138.0.0.0","Windows","10.0","https://app.prolific.com/","en-US,en;q=0.9,en-ZA;q=0.8","6106be7d513dcab805d524b8","687a360dabe5252b5ada7185","688a19752d0a36a44a418cbe","0","6106be7d513dcab805d524b8","0","2025-07-30T13:16:05.223Z","","","","ControlQ","","","","","","","","","","","50","","","","","","","","","","","","","","","","","","","","","","","","","","",""
"4137","","<div style=""width:500px;"">
  <p>How would you describe your current emotional state?</p>
  </div>","0","html-slider-response","16","356582","0.0-7.0-3.0","100","1","2025-07-30 13:10:09","36c45c0696341be0efffe67d72a12abb","196.22.249.82","Mozilla/5.0 (Windows NT 10.0; Win64; x64) AppleWebKit/537.36 (KHTML, like Gecko) Chrome/138.0.0.0 Safari/537.36 Edg/138.0.0.0","WebKit","Edge","138.0.0.0","Windows","10.0","https://app.prolific.com/","en-US,en;q=0.9,en-ZA;q=0.8","6106be7d513dcab805d524b8","687a360dabe5252b5ada7185","688a19752d0a36a44a418cbe","0","6106be7d513dcab805d524b8","0","2025-07-30T13:16:09.365Z","","","","StressQ","","","","","","","","","","","50","","","","","","","","","","","","","","","","","","","","","","","","","","",""
"5776","","<div style=""width:500px;"">
  <p>What best describes how you currently feel?</p>
  </div>","66","html-slider-response","17","362364","0.0-7.0-4.0","100","1","2025-07-30 13:10:09","36c45c0696341be0efffe67d72a12abb","196.22.249.82","Mozilla/5.0 (Windows NT 10.0; Win64; x64) AppleWebKit/537.36 (KHTML, like Gecko) Chrome/138.0.0.0 Safari/537.36 Edg/138.0.0.0","WebKit","Edge","138.0.0.0","Windows","10.0","https://app.prolific.com/","en-US,en;q=0.9,en-ZA;q=0.8","6106be7d513dcab805d524b8","687a360dabe5252b5ada7185","688a19752d0a36a44a418cbe","0","6106be7d513dcab805d524b8","0","2025-07-30T13:16:15.147Z","","","","MotivationQ","","","","","","","","","","","50","","","","","","","","","","","","","","","","","","","","","","","","","","",""
"","","","","ctl-task-cpt","18","397530","0.0-7.0-0.1","100","1","2025-07-30 13:10:09","36c45c0696341be0efffe67d72a12abb","196.22.249.82","Mozilla/5.0 (Windows NT 10.0; Win64; x64) AppleWebKit/537.36 (KHTML, like Gecko) Chrome/138.0.0.0 Safari/537.36 Edg/138.0.0.0","WebKit","Edge","138.0.0.0","Windows","10.0","https://app.prolific.com/","en-US,en;q=0.9,en-ZA;q=0.8","6106be7d513dcab805d524b8","687a360dabe5252b5ada7185","688a19752d0a36a44a418cbe","0","6106be7d513dcab805d524b8","0","2025-07-30T13:16:50.314Z","","","","","","","","","","","","","","","","win-only","3","g1:SW,g2:NE","0.9","2","0","368058.8","1612.7","6622.8","32148.7","1","4","4","6","2","4","4","12","8","0.09090909090909091","2570.1","3000","685","[""up"",""right""]","{""num_key_presses"":8,""num_perfect"":7,""num_errors"":0,""num_randdir"":1,""num_randdir_good_moves"":0,""num_whilered"":0,""num_whileblue"":0,""num_blue"":1,""num_good_moves"":7}","[296.22232142857143,293.12857142857143,1.1,296.22232142857143,293.12857142857143,107.6,296.22232142857143,293.12857142857143,209.8,296.22232142857143,293.12857142857143,322.8,296.22232142857143,293.12857142857143,432.5,296.22232142857143,293.12857142857143,535.5,296.22232142857143,293.12857142857143,639.7,296.22232142857143,293.12857142857143,739.9,296.22232142857143,293.12857142857143,840.5,296.22232142857143,293.12857142857143,944.6,296.22232142857143,293.12857142857143,1051.6,296.22232142857143,293.12857142857143,1157.9,296.22232142857143,293.12857142857143,1263.3,296.22232142857143,293.12857142857143,1373.8,296.22232142857143,293.12857142857143,1480.2,296.22232142857143,293.12857142857143,1586.4,296.22232142857143,293.12857142857143,1692.9,296.22232142857143,293.12857142857143,1794,417.22232142857143,169.12857142857143,1894.1,514.2223214285714,99.12857142857143,1996.2,518.2223214285714,99.12857142857143,2098.7,524.2223214285714,98.12857142857143,2206.5,543.2223214285714,86.12857142857143,2311.4,543.2223214285714,85.12857142857143,2412.8,543.2223214285714,85.12857142857143,2523.9,543.2223214285714,85.12857142857143,2627.3,543.2223214285714,85.12857142857143,2727.9,543.2223214285714,85.12857142857143,2829.7,543.2223214285714,85.12857142857143,2933.7,543.2223214285714,85.12857142857143,3056.8,543.2223214285714,85.12857142857143,3157.8,543.2223214285714,85.12857142857143,3266.7,543.2223214285714,85.12857142857143,3368.8,543.2223214285714,85.12857142857143,3474.2,543.2223214285714,85.12857142857143,3574.4,543.2223214285714,85.12857142857143,3679.4,543.2223214285714,85.12857142857143,3783.7,543.2223214285714,85.12857142857143,3890.5,543.2223214285714,85.12857142857143,3992,543.2223214285714,85.12857142857143,4099.4,543.2223214285714,85.12857142857143,4205.8,543.2223214285714,85.12857142857143,4307,543.2223214285714,85.12857142857143,4409,543.2223214285714,85.12857142857143,4510.1,543.2223214285714,85.12857142857143,4623.3,543.2223214285714,85.12857142857143,4726.5,543.2223214285714,85.12857142857143,4828.9,543.2223214285714,85.12857142857143,4933]","[1437.4,1437.5,1000,0,437.5,""smooth"",""up"",""up"",""good_move"",4590.5,3150.6,2778.8,1439.9,371.8,""smooth"",""right"",""right"",""good_move"",8349.6,3756.4,3405.4,4593.2,351,""smooth"",""up"",""up"",""good_move"",11113.3,2761.8,2354.7,8351.5,407.2,""smooth"",""right"",""right"",""good_move"",13571.2,2455.6,2094.5,11115.7,361,""oops"",""right"",""down"",""bad_move"",16044.6,2468.2,2108.4,13576.5,359.7,""smooth"",""up"",""up"",""good_move"",22416.9,6368.3,2610.3,19440.6,366.1,""smooth"",""up"",""up"",""good_move"",25360,2941.8,2486.4,22418.2,455.4,""smooth"",""right"",""right"",""good_move""]"
"10315","","<div style=""width:500px;"">
  <p>What determined the result of this run?</p>
  </div>","81","html-slider-response","19","407850","0.0-7.0-1.1","100","1","2025-07-30 13:10:09","36c45c0696341be0efffe67d72a12abb","196.22.249.82","Mozilla/5.0 (Windows NT 10.0; Win64; x64) AppleWebKit/537.36 (KHTML, like Gecko) Chrome/138.0.0.0 Safari/537.36 Edg/138.0.0.0","WebKit","Edge","138.0.0.0","Windows","10.0","https://app.prolific.com/","en-US,en;q=0.9,en-ZA;q=0.8","6106be7d513dcab805d524b8","687a360dabe5252b5ada7185","688a19752d0a36a44a418cbe","0","6106be7d513dcab805d524b8","0","2025-07-30T13:17:00.633Z","","","","AttribQ","","","","","","","","","","","50","","","","","","","","","","","","","","","","","","","","","","","","","","",""
"3408","","<div style=""width:500px;"">
  <p>How much control did you have over the ball?</p>
  </div>","84","html-slider-response","20","411263","0.0-7.0-2.1","100","1","2025-07-30 13:10:09","36c45c0696341be0efffe67d72a12abb","196.22.249.82","Mozilla/5.0 (Windows NT 10.0; Win64; x64) AppleWebKit/537.36 (KHTML, like Gecko) Chrome/138.0.0.0 Safari/537.36 Edg/138.0.0.0","WebKit","Edge","138.0.0.0","Windows","10.0","https://app.prolific.com/","en-US,en;q=0.9,en-ZA;q=0.8","6106be7d513dcab805d524b8","687a360dabe5252b5ada7185","688a19752d0a36a44a418cbe","0","6106be7d513dcab805d524b8","0","2025-07-30T13:17:04.047Z","","","","ControlQ","","","","","","","","","","","50","","","","","","","","","","","","","","","","","","","","","","","","","","",""
"5985","","<div style=""width:500px;"">
  <p>How would you describe your current emotional state?</p>
  </div>","22","html-slider-response","21","417256","0.0-7.0-3.1","100","1","2025-07-30 13:10:09","36c45c0696341be0efffe67d72a12abb","196.22.249.82","Mozilla/5.0 (Windows NT 10.0; Win64; x64) AppleWebKit/537.36 (KHTML, like Gecko) Chrome/138.0.0.0 Safari/537.36 Edg/138.0.0.0","WebKit","Edge","138.0.0.0","Windows","10.0","https://app.prolific.com/","en-US,en;q=0.9,en-ZA;q=0.8","6106be7d513dcab805d524b8","687a360dabe5252b5ada7185","688a19752d0a36a44a418cbe","0","6106be7d513dcab805d524b8","0","2025-07-30T13:17:10.039Z","","","","StressQ","","","","","","","","","","","50","","","","","","","","","","","","","","","","","","","","","","","","","","",""
"3146","","<div style=""width:500px;"">
  <p>What best describes how you currently feel?</p>
  </div>","75","html-slider-response","22","420411","0.0-7.0-4.1","100","1","2025-07-30 13:10:09","36c45c0696341be0efffe67d72a12abb","196.22.249.82","Mozilla/5.0 (Windows NT 10.0; Win64; x64) AppleWebKit/537.36 (KHTML, like Gecko) Chrome/138.0.0.0 Safari/537.36 Edg/138.0.0.0","WebKit","Edge","138.0.0.0","Windows","10.0","https://app.prolific.com/","en-US,en;q=0.9,en-ZA;q=0.8","6106be7d513dcab805d524b8","687a360dabe5252b5ada7185","688a19752d0a36a44a418cbe","0","6106be7d513dcab805d524b8","0","2025-07-30T13:17:13.193Z","","","","MotivationQ","","","","","","","","","","","50","","","","","","","","","","","","","","","","","","","","","","","","","","",""
"","","","","ctl-task-cpt","23","452222","0.0-7.0-0.2","100","1","2025-07-30 13:10:09","36c45c0696341be0efffe67d72a12abb","196.22.249.82","Mozilla/5.0 (Windows NT 10.0; Win64; x64) AppleWebKit/537.36 (KHTML, like Gecko) Chrome/138.0.0.0 Safari/537.36 Edg/138.0.0.0","WebKit","Edge","138.0.0.0","Windows","10.0","https://app.prolific.com/","en-US,en;q=0.9,en-ZA;q=0.8","6106be7d513dcab805d524b8","687a360dabe5252b5ada7185","688a19752d0a36a44a418cbe","0","6106be7d513dcab805d524b8","0","2025-07-30T13:17:45.004Z","","","","","","","","","","","","","","","","win-only","0","g1:NW,g2:SE","0.8","3","0","426110.4","1480.1","6490.8","28776.4","1","4","4","6","2","4","4","16","12","0.12121212121212122","2126.7","3000","1320","[""down"",""right""]","{""num_key_presses"":8,""num_perfect"":6,""num_errors"":0,""num_randdir"":2,""num_randdir_good_moves"":1,""num_whilered"":0,""num_whileblue"":0,""num_blue"":0,""num_good_moves"":7}","[297.22232142857143,300.12857142857143,1,297.22232142857143,300.12857142857143,100,297.22232142857143,300.12857142857143,200.2,297.22232142857143,300.12857142857143,303.8,297.22232142857143,300.12857142857143,412.9,297.22232142857143,300.12857142857143,519.2,297.22232142857143,300.12857142857143,619.7,297.22232142857143,300.12857142857143,726.3,297.22232142857143,300.12857142857143,826.9,297.22232142857143,300.12857142857143,927.6,297.22232142857143,300.12857142857143,1038.8,302.22232142857143,305.12857142857143,1139,403.22232142857143,405.12857142857143,1239.3,511.22232142857143,466.12857142857143,1342,525.2223214285714,470.12857142857143,1442.4,525.2223214285714,470.12857142857143,1546.8,527.2223214285714,479.12857142857143,1652.4,545.2223214285714,539.1285714285714,1758.6,546.2223214285714,541.1285714285714,1862.8,546.2223214285714,541.1285714285714,1971.3,546.2223214285714,541.1285714285714,2085,546.2223214285714,541.1285714285714,2190.4,546.2223214285714,541.1285714285714,2300.1,652.2223214285714,490.12857142857143,2403.2,897.2223214285714,349.12857142857143,2508.4,897.2223214285714,349.12857142857143,2619.2,897.2223214285714,349.12857142857143,2732.9,897.2223214285714,349.12857142857143,2842,897.2223214285714,349.12857142857143,2944.3,897.2223214285714,349.12857142857143,3044.8,897.2223214285714,349.12857142857143,3146.3,897.2223214285714,349.12857142857143,3252.4,897.2223214285714,349.12857142857143,3359.5,897.2223214285714,349.12857142857143,3461.1,897.2223214285714,349.12857142857143,3567.3,897.2223214285714,349.12857142857143,3674.7,897.2223214285714,349.12857142857143,3777.9,897.2223214285714,349.12857142857143,3879.2,897.2223214285714,349.12857142857143,3985.5,897.2223214285714,349.12857142857143,4089.6,897.2223214285714,349.12857142857143,4195.3,897.2223214285714,349.12857142857143,4299.3,897.2223214285714,349.12857142857143,4400.3,897.2223214285714,349.12857142857143,4506.7,897.2223214285714,349.12857142857143,4619.5,897.2223214285714,349.12857142857143,4719.6,897.2223214285714,349.12857142857143,4827.7,897.2223214285714,349.12857142857143,4931.3]","[1390.6,1390.6,1000,0,390.6,""smooth"",""down"",""down"",""good_move"",4362,2969.7,2568.1,1392.3,401.6,""smooth"",""down"",""down"",""good_move"",7566.9,3202.7,2811.1,4364.2,391.6,""oops"",""right"",""up"",""bad_move"",10858.5,3283.8,2891.4,7574.7,392.4,""oops"",""right"",""right"",""good_move"",13599.4,2736.2,2350.3,10863.2,385.9,""smooth"",""down"",""down"",""good_move"",15905.4,2304.1,1897.5,13601.5,406.5,""smooth"",""down"",""down"",""good_move"",18829.7,2921.7,2515.8,15908.1,405.9,""smooth"",""right"",""right"",""good_move"",22103.8,3272.2,2887.7,18831.7,384.4,""smooth"",""right"",""right"",""good_move""]"
"4312","","<div style=""width:500px;"">
  <p>What determined the result of this run?</p>
  </div>","100","html-slider-response","24","456539","0.0-7.0-1.2","100","1","2025-07-30 13:10:09","36c45c0696341be0efffe67d72a12abb","196.22.249.82","Mozilla/5.0 (Windows NT 10.0; Win64; x64) AppleWebKit/537.36 (KHTML, like Gecko) Chrome/138.0.0.0 Safari/537.36 Edg/138.0.0.0","WebKit","Edge","138.0.0.0","Windows","10.0","https://app.prolific.com/","en-US,en;q=0.9,en-ZA;q=0.8","6106be7d513dcab805d524b8","687a360dabe5252b5ada7185","688a19752d0a36a44a418cbe","0","6106be7d513dcab805d524b8","0","2025-07-30T13:17:49.322Z","","","","AttribQ","","","","","","","","","","","50","","","","","","","","","","","","","","","","","","","","","","","","","","",""
"3773","","<div style=""width:500px;"">
  <p>How much control did you have over the ball?</p>
  </div>","78","html-slider-response","25","460321","0.0-7.0-2.2","100","1","2025-07-30 13:10:09","36c45c0696341be0efffe67d72a12abb","196.22.249.82","Mozilla/5.0 (Windows NT 10.0; Win64; x64) AppleWebKit/537.36 (KHTML, like Gecko) Chrome/138.0.0.0 Safari/537.36 Edg/138.0.0.0","WebKit","Edge","138.0.0.0","Windows","10.0","https://app.prolific.com/","en-US,en;q=0.9,en-ZA;q=0.8","6106be7d513dcab805d524b8","687a360dabe5252b5ada7185","688a19752d0a36a44a418cbe","0","6106be7d513dcab805d524b8","0","2025-07-30T13:17:53.104Z","","","","ControlQ","","","","","","","","","","","50","","","","","","","","","","","","","","","","","","","","","","","","","","",""
"3075","","<div style=""width:500px;"">
  <p>How would you describe your current emotional state?</p>
  </div>","14","html-slider-response","26","463401","0.0-7.0-3.2","100","1","2025-07-30 13:10:09","36c45c0696341be0efffe67d72a12abb","196.22.249.82","Mozilla/5.0 (Windows NT 10.0; Win64; x64) AppleWebKit/537.36 (KHTML, like Gecko) Chrome/138.0.0.0 Safari/537.36 Edg/138.0.0.0","WebKit","Edge","138.0.0.0","Windows","10.0","https://app.prolific.com/","en-US,en;q=0.9,en-ZA;q=0.8","6106be7d513dcab805d524b8","687a360dabe5252b5ada7185","688a19752d0a36a44a418cbe","0","6106be7d513dcab805d524b8","0","2025-07-30T13:17:56.183Z","","","","StressQ","","","","","","","","","","","50","","","","","","","","","","","","","","","","","","","","","","","","","","",""
"3084","","<div style=""width:500px;"">
  <p>What best describes how you currently feel?</p>
  </div>","76","html-slider-response","27","466489","0.0-7.0-4.2","100","1","2025-07-30 13:10:09","36c45c0696341be0efffe67d72a12abb","196.22.249.82","Mozilla/5.0 (Windows NT 10.0; Win64; x64) AppleWebKit/537.36 (KHTML, like Gecko) Chrome/138.0.0.0 Safari/537.36 Edg/138.0.0.0","WebKit","Edge","138.0.0.0","Windows","10.0","https://app.prolific.com/","en-US,en;q=0.9,en-ZA;q=0.8","6106be7d513dcab805d524b8","687a360dabe5252b5ada7185","688a19752d0a36a44a418cbe","0","6106be7d513dcab805d524b8","0","2025-07-30T13:17:59.271Z","","","","MotivationQ","","","","","","","","","","","50","","","","","","","","","","","","","","","","","","","","","","","","","","",""
"","","","","ctl-task-cpt","28","500516","0.0-7.0-0.3","100","1","2025-07-30 13:10:09","36c45c0696341be0efffe67d72a12abb","196.22.249.82","Mozilla/5.0 (Windows NT 10.0; Win64; x64) AppleWebKit/537.36 (KHTML, like Gecko) Chrome/138.0.0.0 Safari/537.36 Edg/138.0.0.0","WebKit","Edge","138.0.0.0","Windows","10.0","https://app.prolific.com/","en-US,en;q=0.9,en-ZA;q=0.8","6106be7d513dcab805d524b8","687a360dabe5252b5ada7185","688a19752d0a36a44a418cbe","0","6106be7d513dcab805d524b8","0","2025-07-30T13:18:33.298Z","","","","","","","","","","","","","","","","win-only","2","g1:SE,g2:NW","0.7","4","0","472187.6","1387.8","6400.5","31002.5","1","4","8","6","2","8","8","24","16","0.18181818181818182","2022.7","3000","1405","[""left"",""up""]","{""num_key_presses"":8,""num_perfect"":5,""num_errors"":0,""num_randdir"":3,""num_randdir_good_moves"":2,""num_whilered"":0,""num_whileblue"":0,""num_blue"":1,""num_good_moves"":7}","[294.22232142857143,304.12857142857143,4.3,294.22232142857143,304.12857142857143,105.7,294.22232142857143,304.12857142857143,213.5,294.22232142857143,304.12857142857143,317.3,294.22232142857143,304.12857142857143,426.4,294.22232142857143,304.12857142857143,527,335.22232142857143,336.12857142857143,635.1,361.22232142857143,361.12857142857143,739.4,371.22232142857143,372.12857142857143,844.3,336.22232142857143,305.12857142857143,945.9,274.22232142857143,192.12857142857143,1052.6,274.22232142857143,192.12857142857143,1153.6,274.22232142857143,192.12857142857143,1255,224.22232142857143,147.12857142857143,1366.9,126.22232142857143,85.12857142857143,1475.5,93.22232142857143,68.12857142857143,1591,80.22232142857143,59.128571428571426,1703.6,79.22232142857143,58.128571428571426,1813.7,79.22232142857143,58.128571428571426,1920.5,79.22232142857143,58.128571428571426,2038.7,79.22232142857143,58.128571428571426,2145,79.22232142857143,58.128571428571426,2249.6,-57.777678571428574,89.12857142857143,2352.9,-129.77767857142857,101.12857142857143,2461.1,-129.77767857142857,101.12857142857143,2570.7,-129.77767857142857,101.12857142857143,2672.7,-129.77767857142857,101.12857142857143,2785.4,-129.77767857142857,101.12857142857143,2887.6,-129.77767857142857,101.12857142857143,2995.5,-129.77767857142857,101.12857142857143,3095.8,-129.77767857142857,101.12857142857143,3200.2,-129.77767857142857,101.12857142857143,3303.3,-129.77767857142857,101.12857142857143,3405.6,-129.77767857142857,101.12857142857143,3510.2,-129.77767857142857,101.12857142857143,3612.2,-129.77767857142857,101.12857142857143,3727.1,-129.77767857142857,101.12857142857143,3834.5,-129.77767857142857,101.12857142857143,3939.5,-129.77767857142857,101.12857142857143,4049.5,-129.77767857142857,101.12857142857143,4156.3,-129.77767857142857,101.12857142857143,4260.5,-129.77767857142857,101.12857142857143,4372.5,-129.77767857142857,101.12857142857143,4475.3,-129.77767857142857,101.12857142857143,4584.9,-129.77767857142857,101.12857142857143,4686,-129.77767857142857,101.12857142857143,4790.2,-129.77767857142857,101.12857142857143,4893.4,-129.77767857142857,101.12857142857143,4995.5]","[1567.1,1567.1,1000,0,567.1,""smooth"",""left"",""left"",""good_move"",4308.2,2737.6,2346.7,1570.6,390.9,""oops"",""up"",""right"",""bad_move"",10096.5,5786.1,2264.6,7417.4,414.5,""smooth"",""left"",""left"",""good_move"",13028.3,2930.2,2545.7,10098.1,384.5,""smooth"",""left"",""left"",""good_move"",15541.6,2511,2116,13030.6,395,""oops"",""up"",""left"",""good_move"",18596.2,3050.3,2693.9,15545.9,356.5,""smooth"",""up"",""up"",""good_move"",21305.9,2707.6,2334.1,18598.3,373.5,""oops"",""up"",""up"",""good_move"",24391.1,3081.5,2716.5,21309.6,365,""smooth"",""up"",""up"",""good_move""]"
"5397","","<div style=""width:500px;"">
  <p>What determined the result of this run?</p>
  </div>","59","html-slider-response","29","505922","0.0-7.0-1.3","100","1","2025-07-30 13:10:09","36c45c0696341be0efffe67d72a12abb","196.22.249.82","Mozilla/5.0 (Windows NT 10.0; Win64; x64) AppleWebKit/537.36 (KHTML, like Gecko) Chrome/138.0.0.0 Safari/537.36 Edg/138.0.0.0","WebKit","Edge","138.0.0.0","Windows","10.0","https://app.prolific.com/","en-US,en;q=0.9,en-ZA;q=0.8","6106be7d513dcab805d524b8","687a360dabe5252b5ada7185","688a19752d0a36a44a418cbe","0","6106be7d513dcab805d524b8","0","2025-07-30T13:18:38.704Z","","","","AttribQ","","","","","","","","","","","50","","","","","","","","","","","","","","","","","","","","","","","","","","",""
"3909","","<div style=""width:500px;"">
  <p>How much control did you have over the ball?</p>
  </div>","70","html-slider-response","30","509841","0.0-7.0-2.3","100","1","2025-07-30 13:10:09","36c45c0696341be0efffe67d72a12abb","196.22.249.82","Mozilla/5.0 (Windows NT 10.0; Win64; x64) AppleWebKit/537.36 (KHTML, like Gecko) Chrome/138.0.0.0 Safari/537.36 Edg/138.0.0.0","WebKit","Edge","138.0.0.0","Windows","10.0","https://app.prolific.com/","en-US,en;q=0.9,en-ZA;q=0.8","6106be7d513dcab805d524b8","687a360dabe5252b5ada7185","688a19752d0a36a44a418cbe","0","6106be7d513dcab805d524b8","0","2025-07-30T13:18:42.623Z","","","","ControlQ","","","","","","","","","","","50","","","","","","","","","","","","","","","","","","","","","","","","","","",""
"3856","","<div style=""width:500px;"">
  <p>How would you describe your current emotional state?</p>
  </div>","16","html-slider-response","31","513703","0.0-7.0-3.3","100","1","2025-07-30 13:10:09","36c45c0696341be0efffe67d72a12abb","196.22.249.82","Mozilla/5.0 (Windows NT 10.0; Win64; x64) AppleWebKit/537.36 (KHTML, like Gecko) Chrome/138.0.0.0 Safari/537.36 Edg/138.0.0.0","WebKit","Edge","138.0.0.0","Windows","10.0","https://app.prolific.com/","en-US,en;q=0.9,en-ZA;q=0.8","6106be7d513dcab805d524b8","687a360dabe5252b5ada7185","688a19752d0a36a44a418cbe","0","6106be7d513dcab805d524b8","0","2025-07-30T13:18:46.486Z","","","","StressQ","","","","","","","","","","","50","","","","","","","","","","","","","","","","","","","","","","","","","","",""
"2942","","<div style=""width:500px;"">
  <p>What best describes how you currently feel?</p>
  </div>","78","html-slider-response","32","516649","0.0-7.0-4.3","100","1","2025-07-30 13:10:09","36c45c0696341be0efffe67d72a12abb","196.22.249.82","Mozilla/5.0 (Windows NT 10.0; Win64; x64) AppleWebKit/537.36 (KHTML, like Gecko) Chrome/138.0.0.0 Safari/537.36 Edg/138.0.0.0","WebKit","Edge","138.0.0.0","Windows","10.0","https://app.prolific.com/","en-US,en;q=0.9,en-ZA;q=0.8","6106be7d513dcab805d524b8","687a360dabe5252b5ada7185","688a19752d0a36a44a418cbe","0","6106be7d513dcab805d524b8","0","2025-07-30T13:18:49.431Z","","","","MotivationQ","","","","","","","","","","","50","","","","","","","","","","","","","","","","","","","","","","","","","","",""
"","","","","ctl-task-cpt","33","565499","0.0-7.0-0.4","100","1","2025-07-30 13:10:09","36c45c0696341be0efffe67d72a12abb","196.22.249.82","Mozilla/5.0 (Windows NT 10.0; Win64; x64) AppleWebKit/537.36 (KHTML, like Gecko) Chrome/138.0.0.0 Safari/537.36 Edg/138.0.0.0","WebKit","Edge","138.0.0.0","Windows","10.0","https://app.prolific.com/","en-US,en;q=0.9,en-ZA;q=0.8","6106be7d513dcab805d524b8","687a360dabe5252b5ada7185","688a19752d0a36a44a418cbe","0","6106be7d513dcab805d524b8","0","2025-07-30T13:19:38.281Z","","","","","","","","","","","","","","","","win-only","3","g1:SW,g2:NE","0.6","5","0","522347.6","1903.2","6917.5","45824.1","1","4","8","6","2","8","8","32","24","0.24242424242424243","1477.3","3000","1610","[""up"",""right""]","{""num_key_presses"":10,""num_perfect"":6,""num_errors"":0,""num_randdir"":4,""num_randdir_good_moves"":2,""num_whilered"":0,""num_whileblue"":0,""num_blue"":3,""num_good_moves"":8}","[301.22232142857143,300.12857142857143,0.5,301.22232142857143,300.12857142857143,104.4,301.22232142857143,300.12857142857143,211.9,301.22232142857143,300.12857142857143,316.9,301.22232142857143,300.12857142857143,423.2,301.22232142857143,300.12857142857143,526.2,301.22232142857143,300.12857142857143,641.6,415.22232142857143,169.12857142857143,756.3,483.22232142857143,101.12857142857143,873.1,510.22232142857143,82.12857142857143,977.1,517.2223214285714,77.12857142857143,1085.9,521.2223214285714,74.12857142857143,1186.9,521.2223214285714,74.12857142857143,1307.9,521.2223214285714,74.12857142857143,1421.9,521.2223214285714,74.12857142857143,1521.9,521.2223214285714,74.12857142857143,1622.9,521.2223214285714,74.12857142857143,1727.7,717.2223214285714,119.12857142857143,1833.4,809.2223214285714,160.12857142857143,1935.6,809.2223214285714,160.12857142857143,2039.3,809.2223214285714,160.12857142857143,2149.2,809.2223214285714,160.12857142857143,2254.9,809.2223214285714,160.12857142857143,2363.5,809.2223214285714,160.12857142857143,2472.1,809.2223214285714,160.12857142857143,2577.4,809.2223214285714,160.12857142857143,2679.8,809.2223214285714,160.12857142857143,2779.9,809.2223214285714,160.12857142857143,2887.6,809.2223214285714,160.12857142857143,2998,809.2223214285714,160.12857142857143,3104,809.2223214285714,160.12857142857143,3208.3,809.2223214285714,160.12857142857143,3312.1,809.2223214285714,160.12857142857143,3418.8,809.2223214285714,160.12857142857143,3520.7,809.2223214285714,160.12857142857143,3622.8,809.2223214285714,160.12857142857143,3732.6,809.2223214285714,160.12857142857143,3837,809.2223214285714,160.12857142857143,3948.3,809.2223214285714,160.12857142857143,4056.1,809.2223214285714,160.12857142857143,4158.2,809.2223214285714,160.12857142857143,4260.5,809.2223214285714,160.12857142857143,4362.9,809.2223214285714,160.12857142857143,4468.1,809.2223214285714,160.12857142857143,4583.2,809.2223214285714,160.12857142857143,4694.1,809.2223214285714,160.12857142857143,4795,809.2223214285714,160.12857142857143,4905.9]","[1439.3,1439.3,1000,0,439.3,""oops"",""right"",""right"",""good_move"",4781.8,3339.8,2979.4,1442,360.4,""oops"",""up"",""left"",""bad_move"",7463.8,2679.6,2136,4784.2,543.6,""smooth"",""up"",""up"",""good_move"",10196.3,2729.8,2358.3,7466.5,371.5,""smooth"",""up"",""up"",""good_move"",13237.1,3033.6,2668.9,10203.6,364.7,""oops"",""right"",""down"",""bad_move"",16167.9,2928.7,2564.2,13239.2,364.5,""smooth"",""right"",""right"",""good_move"",22250.1,6080.1,2345,19459.7,445.4,""smooth"",""right"",""right"",""good_move"",25584.6,3333.2,2889,22251.4,444.2,""smooth"",""up"",""up"",""good_move"",28917.9,3331,2875.6,25587,455.4,""oops"",""right"",""right"",""good_move"",38518.9,9599.3,2649.3,35458.8,410.9,""smooth"",""up"",""up"",""good_move""]"
"11360","","<div style=""width:500px;"">
  <p>What determined the result of this run?</p>
  </div>","61","html-slider-response","34","576868","0.0-7.0-1.4","100","1","2025-07-30 13:10:09","36c45c0696341be0efffe67d72a12abb","196.22.249.82","Mozilla/5.0 (Windows NT 10.0; Win64; x64) AppleWebKit/537.36 (KHTML, like Gecko) Chrome/138.0.0.0 Safari/537.36 Edg/138.0.0.0","WebKit","Edge","138.0.0.0","Windows","10.0","https://app.prolific.com/","en-US,en;q=0.9,en-ZA;q=0.8","6106be7d513dcab805d524b8","687a360dabe5252b5ada7185","688a19752d0a36a44a418cbe","0","6106be7d513dcab805d524b8","0","2025-07-30T13:19:49.651Z","","","","AttribQ","","","","","","","","","","","50","","","","","","","","","","","","","","","","","","","","","","","","","","",""
"10142","","<div style=""width:500px;"">
  <p>How much control did you have over the ball?</p>
  </div>","70","html-slider-response","35","587017","0.0-7.0-2.4","100","1","2025-07-30 13:10:09","36c45c0696341be0efffe67d72a12abb","196.22.249.82","Mozilla/5.0 (Windows NT 10.0; Win64; x64) AppleWebKit/537.36 (KHTML, like Gecko) Chrome/138.0.0.0 Safari/537.36 Edg/138.0.0.0","WebKit","Edge","138.0.0.0","Windows","10.0","https://app.prolific.com/","en-US,en;q=0.9,en-ZA;q=0.8","6106be7d513dcab805d524b8","687a360dabe5252b5ada7185","688a19752d0a36a44a418cbe","0","6106be7d513dcab805d524b8","0","2025-07-30T13:19:59.800Z","","","","ControlQ","","","","","","","","","","","50","","","","","","","","","","","","","","","","","","","","","","","","","","",""
"3146","","<div style=""width:500px;"">
  <p>How would you describe your current emotional state?</p>
  </div>","17","html-slider-response","36","590172","0.0-7.0-3.4","100","1","2025-07-30 13:10:09","36c45c0696341be0efffe67d72a12abb","196.22.249.82","Mozilla/5.0 (Windows NT 10.0; Win64; x64) AppleWebKit/537.36 (KHTML, like Gecko) Chrome/138.0.0.0 Safari/537.36 Edg/138.0.0.0","WebKit","Edge","138.0.0.0","Windows","10.0","https://app.prolific.com/","en-US,en;q=0.9,en-ZA;q=0.8","6106be7d513dcab805d524b8","687a360dabe5252b5ada7185","688a19752d0a36a44a418cbe","0","6106be7d513dcab805d524b8","0","2025-07-30T13:20:02.955Z","","","","StressQ","","","","","","","","","","","50","","","","","","","","","","","","","","","","","","","","","","","","","","",""
"2986","","<div style=""width:500px;"">
  <p>What best describes how you currently feel?</p>
  </div>","78","html-slider-response","37","593164","0.0-7.0-4.4","100","1","2025-07-30 13:10:09","36c45c0696341be0efffe67d72a12abb","196.22.249.82","Mozilla/5.0 (Windows NT 10.0; Win64; x64) AppleWebKit/537.36 (KHTML, like Gecko) Chrome/138.0.0.0 Safari/537.36 Edg/138.0.0.0","WebKit","Edge","138.0.0.0","Windows","10.0","https://app.prolific.com/","en-US,en;q=0.9,en-ZA;q=0.8","6106be7d513dcab805d524b8","687a360dabe5252b5ada7185","688a19752d0a36a44a418cbe","0","6106be7d513dcab805d524b8","0","2025-07-30T13:20:05.947Z","","","","MotivationQ","","","","","","","","","","","50","","","","","","","","","","","","","","","","","","","","","","","","","","",""
"","","","","ctl-task-cpt","38","696553","0.0-7.0-0.5","100","1","2025-07-30 13:10:09","36c45c0696341be0efffe67d72a12abb","196.22.249.82","Mozilla/5.0 (Windows NT 10.0; Win64; x64) AppleWebKit/537.36 (KHTML, like Gecko) Chrome/138.0.0.0 Safari/537.36 Edg/138.0.0.0","WebKit","Edge","138.0.0.0","Windows","10.0","https://app.prolific.com/","en-US,en;q=0.9,en-ZA;q=0.8","6106be7d513dcab805d524b8","687a360dabe5252b5ada7185","688a19752d0a36a44a418cbe","0","6106be7d513dcab805d524b8","0","2025-07-30T13:21:49.335Z","","","","","","","","","","","","","","","","win-only","2","g1:SE,g2:NW","0.5","6","0","598864","1390.9","6401.2","100357.9","1","4","4","6","2","4","3","35","32","0.26515151515151514","1694.1","3000","150","[""left"",""up""]","{""num_key_presses"":24,""num_perfect"":12,""num_errors"":1,""num_randdir"":11,""num_randdir_good_moves"":3,""num_whilered"":0,""num_whileblue"":1,""num_blue"":4,""num_good_moves"":15}","[291.22232142857143,293.12857142857143,1.1,291.22232142857143,293.12857142857143,121.6,291.22232142857143,293.12857142857143,240.8,291.22232142857143,293.12857142857143,362.6,291.22232142857143,293.12857142857143,496,291.22232142857143,293.12857142857143,616.2,291.22232142857143,293.12857142857143,719.7,291.22232142857143,293.12857142857143,842.2,291.22232142857143,293.12857142857143,945.1,225.22232142857143,223.12857142857143,1070.8,102.22232142857143,106.12857142857143,1179.8,77.22232142857143,82.12857142857143,1292.8,65.22232142857143,73.12857142857143,1407.1,65.22232142857143,73.12857142857143,1516,65.22232142857143,73.12857142857143,1636.5,65.22232142857143,73.12857142857143,1762.4,60.222321428571426,75.12857142857143,1897.7,-99.77767857142857,143.12857142857143,2012.5,-123.77767857142857,149.12857142857143,2113.7,-123.77767857142857,149.12857142857143,2217.2,-123.77767857142857,149.12857142857143,2341.9,-123.77767857142857,149.12857142857143,2442.6,-123.77767857142857,149.12857142857143,2547.3,-123.77767857142857,149.12857142857143,2651,-123.77767857142857,149.12857142857143,2774,-123.77767857142857,149.12857142857143,2888.6,-123.77767857142857,149.12857142857143,3003.2,-123.77767857142857,149.12857142857143,3108.7,-123.77767857142857,149.12857142857143,3229.2,-123.77767857142857,149.12857142857143,3338.7,-123.77767857142857,149.12857142857143,3458.4,-123.77767857142857,149.12857142857143,3578.1,-123.77767857142857,149.12857142857143,3705.3,-123.77767857142857,149.12857142857143,3826.3,-123.77767857142857,149.12857142857143,3941.6,-123.77767857142857,149.12857142857143,4058.9,-123.77767857142857,149.12857142857143,4168.2,-123.77767857142857,149.12857142857143,4283.3,-123.77767857142857,149.12857142857143,4400.2,-123.77767857142857,149.12857142857143,4513.1,-123.77767857142857,149.12857142857143,4630,-123.77767857142857,149.12857142857143,4745.5,-123.77767857142857,149.12857142857143,4861.5,-123.77767857142857,149.12857142857143,4978.8]","[1556,1556,1000,0,556,""smooth"",""left"",""left"",""good_move"",6372.9,4814.4,2638.7,1558.5,2175.7,""oops"",""up"",""up"",""good_move"",11670.6,5295.6,1605.8,6375.2,3689.7,""oops"",""left"",""down"",""bad_move"",14886.8,3214.3,2761.1,11672.6,453.2,""smooth"",""up"",""up"",""good_move"",21172.3,6278.7,2841.5,14893.7,3437.2,""oops"",""up"",""down"",""bad_move"",24500.3,3326.6,2888.5,21173.7,438.1,""smooth"",""left"",""left"",""good_move"",36210.4,11708,3195.2,32517.8,497.5,""smooth"",""up"",""up"",""good_move"",39457.7,3236.3,2355.6,36221.5,880.7,""smooth"",""up"",""up"",""good_move"",42943.1,3482.5,2785.5,39460.6,697,""oops"",""left"",""right"",""bad_move"",45552.2,2607.2,1965.7,42945.1,641.5,""oops"",""left"",""down"",""bad_move"",47460.5,1906.1,1454.8,45554.4,451.3,""smooth"",""left"",""left"",""good_move"",51308.5,3845.2,2566.9,47463.3,1278.3,""oops"",""up"",""right"",""bad_move"",53867.3,2557.2,1981.5,51310.1,575.7,""smooth"",""left"",""left"",""good_move"",57506.8,3637.7,3250.2,53869.1,387.5,""while_blue"",""up"",""right"",""bad_move"",59991.5,2482.8,2014,57508.7,468.8,""oops"",""up"",""right"",""bad_move"",66862.3,6868.8,2561.9,63929.3,371.1,""smooth"",""up"",""up"",""good_move"",69592.2,2728.8,2185.8,66863.6,542.8,""smooth"",""left"",""left"",""good_move"",72626.8,3032.9,2635.1,69594,397.8,""smooth"",""up"",""up"",""good_move"",75947.1,3317.6,1987.2,72629.6,1330.3,""oops"",""left"",""right"",""bad_move"",78842.9,2892,2550.1,75950.9,341.9,""oops"",""left"",""left"",""good_move"",82604.8,3760.3,2476.9,78844.8,1283.3,""oops"",""left"",""left"",""good_move"",86528,3918.2,2447.2,82609.9,1470.9,""oops"",""left"",""right"",""bad_move"",89379.7,2849.5,2488.7,86530.3,360.7,""smooth"",""left"",""left"",""good_move"",93723.7,4339.2,2431.5,89384.6,1907.6,""smooth"",""left"",""left"",""good_move""]"
"11232","","<div style=""width:500px;"">
  <p>What determined the result of this run?</p>
  </div>","28","html-slider-response","39","707789","0.0-7.0-1.5","100","1","2025-07-30 13:10:09","36c45c0696341be0efffe67d72a12abb","196.22.249.82","Mozilla/5.0 (Windows NT 10.0; Win64; x64) AppleWebKit/537.36 (KHTML, like Gecko) Chrome/138.0.0.0 Safari/537.36 Edg/138.0.0.0","WebKit","Edge","138.0.0.0","Windows","10.0","https://app.prolific.com/","en-US,en;q=0.9,en-ZA;q=0.8","6106be7d513dcab805d524b8","687a360dabe5252b5ada7185","688a19752d0a36a44a418cbe","0","6106be7d513dcab805d524b8","0","2025-07-30T13:22:00.572Z","","","","AttribQ","","","","","","","","","","","50","","","","","","","","","","","","","","","","","","","","","","","","","","",""
"7155","","<div style=""width:500px;"">
  <p>How much control did you have over the ball?</p>
  </div>","17","html-slider-response","40","714954","0.0-7.0-2.5","100","1","2025-07-30 13:10:09","36c45c0696341be0efffe67d72a12abb","196.22.249.82","Mozilla/5.0 (Windows NT 10.0; Win64; x64) AppleWebKit/537.36 (KHTML, like Gecko) Chrome/138.0.0.0 Safari/537.36 Edg/138.0.0.0","WebKit","Edge","138.0.0.0","Windows","10.0","https://app.prolific.com/","en-US,en;q=0.9,en-ZA;q=0.8","6106be7d513dcab805d524b8","687a360dabe5252b5ada7185","688a19752d0a36a44a418cbe","0","6106be7d513dcab805d524b8","0","2025-07-30T13:22:07.736Z","","","","ControlQ","","","","","","","","","","","50","","","","","","","","","","","","","","","","","","","","","","","","","","",""
"4109","","<div style=""width:500px;"">
  <p>How would you describe your current emotional state?</p>
  </div>","22","html-slider-response","41","719071","0.0-7.0-3.5","100","1","2025-07-30 13:10:09","36c45c0696341be0efffe67d72a12abb","196.22.249.82","Mozilla/5.0 (Windows NT 10.0; Win64; x64) AppleWebKit/537.36 (KHTML, like Gecko) Chrome/138.0.0.0 Safari/537.36 Edg/138.0.0.0","WebKit","Edge","138.0.0.0","Windows","10.0","https://app.prolific.com/","en-US,en;q=0.9,en-ZA;q=0.8","6106be7d513dcab805d524b8","687a360dabe5252b5ada7185","688a19752d0a36a44a418cbe","0","6106be7d513dcab805d524b8","0","2025-07-30T13:22:11.853Z","","","","StressQ","","","","","","","","","","","50","","","","","","","","","","","","","","","","","","","","","","","","","","",""
"4356","","<div style=""width:500px;"">
  <p>What best describes how you currently feel?</p>
  </div>","78","html-slider-response","42","723433","0.0-7.0-4.5","100","1","2025-07-30 13:10:09","36c45c0696341be0efffe67d72a12abb","196.22.249.82","Mozilla/5.0 (Windows NT 10.0; Win64; x64) AppleWebKit/537.36 (KHTML, like Gecko) Chrome/138.0.0.0 Safari/537.36 Edg/138.0.0.0","WebKit","Edge","138.0.0.0","Windows","10.0","https://app.prolific.com/","en-US,en;q=0.9,en-ZA;q=0.8","6106be7d513dcab805d524b8","687a360dabe5252b5ada7185","688a19752d0a36a44a418cbe","0","6106be7d513dcab805d524b8","0","2025-07-30T13:22:16.216Z","","","","MotivationQ","","","","","","","","","","","50","","","","","","","","","","","","","","","","","","","","","","","","","","",""
"","","","","ctl-task-cpt","43","846589","0.0-7.0-0.6","100","1","2025-07-30 13:10:09","36c45c0696341be0efffe67d72a12abb","196.22.249.82","Mozilla/5.0 (Windows NT 10.0; Win64; x64) AppleWebKit/537.36 (KHTML, like Gecko) Chrome/138.0.0.0 Safari/537.36 Edg/138.0.0.0","WebKit","Edge","138.0.0.0","Windows","10.0","https://app.prolific.com/","en-US,en;q=0.9,en-ZA;q=0.8","6106be7d513dcab805d524b8","687a360dabe5252b5ada7185","688a19752d0a36a44a418cbe","0","6106be7d513dcab805d524b8","0","2025-07-30T13:24:19.371Z","","","","","","","","","","","","","","","","win-only","1","g1:NE,g2:SW","0.4","7","0","729135","2142.7","7155.9","120113.4","1","4","4","6","2","4","3","38","35","0.2878787878787879","1781.1","3000","225","[""down"",""left""]","{""num_key_presses"":28,""num_perfect"":11,""num_errors"":1,""num_randdir"":16,""num_randdir_good_moves"":6,""num_whilered"":0,""num_whileblue"":1,""num_blue"":7,""num_good_moves"":17}","[302.22232142857143,300.12857142857143,2.9,302.22232142857143,300.12857142857143,110.5,302.22232142857143,300.12857142857143,217.2,302.22232142857143,300.12857142857143,330.6,302.22232142857143,300.12857142857143,436.3,302.22232142857143,300.12857142857143,549.8,302.22232142857143,300.12857142857143,662,249.22232142857143,365.12857142857143,782.2,139.22232142857143,474.12857142857143,903.7,139.22232142857143,475.12857142857143,1014,136.22232142857143,478.12857142857143,1126.3,100.22232142857143,508.12857142857143,1232.8,69.22232142857143,533.1285714285714,1344.2,69.22232142857143,533.1285714285714,1463.2,69.22232142857143,533.1285714285714,1575.1,69.22232142857143,533.1285714285714,1694.2,69.22232142857143,533.1285714285714,1814.5,69.22232142857143,533.1285714285714,1918.1,69.22232142857143,533.1285714285714,2029.9,69.22232142857143,533.1285714285714,2144.3,69.22232142857143,533.1285714285714,2260.3,69.22232142857143,533.1285714285714,2365.7,69.22232142857143,533.1285714285714,2468,69.22232142857143,533.1285714285714,2574.3,69.22232142857143,533.1285714285714,2683.6,69.22232142857143,533.1285714285714,2787,69.22232142857143,533.1285714285714,2894.5,69.22232142857143,533.1285714285714,2994.5,69.22232142857143,533.1285714285714,3103.4,69.22232142857143,533.1285714285714,3210.5,69.22232142857143,533.1285714285714,3320,69.22232142857143,533.1285714285714,3434,69.22232142857143,533.1285714285714,3543.7,69.22232142857143,533.1285714285714,3647.4,69.22232142857143,533.1285714285714,3763.9,69.22232142857143,533.1285714285714,3865.3,69.22232142857143,533.1285714285714,3968.4,55.222321428571426,532.1285714285714,4109.3,-352.77767857142857,332.12857142857143,4231.8,-352.77767857142857,319.12857142857143,4335.2,-352.77767857142857,319.12857142857143,4450.6,-352.77767857142857,319.12857142857143,4557.5,-352.77767857142857,319.12857142857143,4658.4,-352.77767857142857,319.12857142857143,4774.9,-352.77767857142857,319.12857142857143,4890.2]","[12507.9,12507.8,2691.8,9436.4,379.7,""smooth"",""down"",""down"",""good_move"",21666.6,9155.6,2970.7,18283.5,412.4,""oops"",""left"",""up"",""bad_move"",26281.1,4613.1,1871.1,21668.1,2742,""smooth"",""left"",""left"",""good_move"",30503,4219.7,2353.4,26283.3,1866.3,""smooth"",""down"",""down"",""good_move"",36591.1,6086.4,2403.1,33790.2,397.8,""oops"",""down"",""up"",""bad_move"",40119.1,3524.8,2554.3,36594.3,970.5,""smooth"",""left"",""left"",""good_move"",43842.6,3721.3,3362.3,40121.3,359,""oops"",""down"",""right"",""bad_move"",47213.4,3365.8,2991.8,43847.6,374,""oops"",""down"",""right"",""bad_move"",50229.5,3013.6,2586.7,47215.9,426.9,""oops"",""down"",""right"",""bad_move"",52939.4,2707.7,2301.3,50231.7,406.4,""oops"",""down"",""right"",""bad_move"",56033.8,3086.5,2737.2,52947.5,349.2,""smooth"",""down"",""down"",""good_move"",58904.5,2867.2,2497.7,56037.3,369.5,""oops"",""down"",""left"",""good_move"",63550.9,4644.2,4211.7,58906.7,432.5,""while_blue"",""down"",""right"",""bad_move"",66206,2653.2,2104.5,63552.8,548.7,""oops"",""down"",""up"",""bad_move"",69731.6,3514.5,2208.9,66217.2,1305.5,""oops"",""left"",""up"",""bad_move"",73001.9,3268.4,2539.3,69733.5,729.1,""smooth"",""left"",""left"",""good_move"",76568.3,3558.8,2578.2,73009.6,980.5,""smooth"",""left"",""left"",""good_move"",79781.4,3210.9,2282.1,76570.5,928.8,""oops"",""left"",""left"",""good_move"",83664.2,3881,3477.6,79783.4,403.2,""oops"",""left"",""right"",""bad_move"",86188.5,2521.9,2075.1,83666.6,446.8,""smooth"",""down"",""down"",""good_move"",88904.6,2714.4,2336.5,86190.3,377.8,""oops"",""down"",""left"",""good_move"",92609,3699.1,2657.1,88909.9,1042,""smooth"",""down"",""down"",""good_move"",95137.7,2526.6,2063.5,92611.1,463.1,""smooth"",""left"",""left"",""good_move"",99470.1,4330.6,2367.5,95139.6,1963.1,""oops"",""down"",""down"",""good_move"",102522.9,3050.6,2637.4,99472.3,413.2,""smooth"",""left"",""left"",""good_move"",107057.1,4532.2,2950.9,102524.9,1581.3,""oops"",""down"",""up"",""bad_move"",109979.8,2920.6,2584.4,107059.2,336.2,""oops"",""down"",""down"",""good_move"",112557.1,2575,2151.5,109982.2,423.5,""oops"",""down"",""down"",""good_move""]"
"6124","","<div style=""width:500px;"">
  <p>What determined the result of this run?</p>
  </div>","60","html-slider-response","44","852716","0.0-7.0-1.6","100","1","2025-07-30 13:10:09","36c45c0696341be0efffe67d72a12abb","196.22.249.82","Mozilla/5.0 (Windows NT 10.0; Win64; x64) AppleWebKit/537.36 (KHTML, like Gecko) Chrome/138.0.0.0 Safari/537.36 Edg/138.0.0.0","WebKit","Edge","138.0.0.0","Windows","10.0","https://app.prolific.com/","en-US,en;q=0.9,en-ZA;q=0.8","6106be7d513dcab805d524b8","687a360dabe5252b5ada7185","688a19752d0a36a44a418cbe","0","6106be7d513dcab805d524b8","0","2025-07-30T13:24:25.498Z","","","","AttribQ","","","","","","","","","","","50","","","","","","","","","","","","","","","","","","","","","","","","","","",""
"4040","","<div style=""width:500px;"">
  <p>How much control did you have over the ball?</p>
  </div>","8","html-slider-response","45","856762","0.0-7.0-2.6","100","1","2025-07-30 13:10:09","36c45c0696341be0efffe67d72a12abb","196.22.249.82","Mozilla/5.0 (Windows NT 10.0; Win64; x64) AppleWebKit/537.36 (KHTML, like Gecko) Chrome/138.0.0.0 Safari/537.36 Edg/138.0.0.0","WebKit","Edge","138.0.0.0","Windows","10.0","https://app.prolific.com/","en-US,en;q=0.9,en-ZA;q=0.8","6106be7d513dcab805d524b8","687a360dabe5252b5ada7185","688a19752d0a36a44a418cbe","0","6106be7d513dcab805d524b8","0","2025-07-30T13:24:29.544Z","","","","ControlQ","","","","","","","","","","","50","","","","","","","","","","","","","","","","","","","","","","","","","","",""
"5208","","<div style=""width:500px;"">
  <p>How would you describe your current emotional state?</p>
  </div>","20","html-slider-response","46","861977","0.0-7.0-3.6","100","1","2025-07-30 13:10:09","36c45c0696341be0efffe67d72a12abb","196.22.249.82","Mozilla/5.0 (Windows NT 10.0; Win64; x64) AppleWebKit/537.36 (KHTML, like Gecko) Chrome/138.0.0.0 Safari/537.36 Edg/138.0.0.0","WebKit","Edge","138.0.0.0","Windows","10.0","https://app.prolific.com/","en-US,en;q=0.9,en-ZA;q=0.8","6106be7d513dcab805d524b8","687a360dabe5252b5ada7185","688a19752d0a36a44a418cbe","0","6106be7d513dcab805d524b8","0","2025-07-30T13:24:34.759Z","","","","StressQ","","","","","","","","","","","50","","","","","","","","","","","","","","","","","","","","","","","","","","",""
"3387","","<div style=""width:500px;"">
  <p>What best describes how you currently feel?</p>
  </div>","79","html-slider-response","47","865371","0.0-7.0-4.6","100","1","2025-07-30 13:10:09","36c45c0696341be0efffe67d72a12abb","196.22.249.82","Mozilla/5.0 (Windows NT 10.0; Win64; x64) AppleWebKit/537.36 (KHTML, like Gecko) Chrome/138.0.0.0 Safari/537.36 Edg/138.0.0.0","WebKit","Edge","138.0.0.0","Windows","10.0","https://app.prolific.com/","en-US,en;q=0.9,en-ZA;q=0.8","6106be7d513dcab805d524b8","687a360dabe5252b5ada7185","688a19752d0a36a44a418cbe","0","6106be7d513dcab805d524b8","0","2025-07-30T13:24:38.154Z","","","","MotivationQ","","","","","","","","","","","50","","","","","","","","","","","","","","","","","","","","","","","","","","",""
"","","","","ctl-task-cpt","48","975459","0.0-7.0-0.7","100","1","2025-07-30 13:10:09","36c45c0696341be0efffe67d72a12abb","196.22.249.82","Mozilla/5.0 (Windows NT 10.0; Win64; x64) AppleWebKit/537.36 (KHTML, like Gecko) Chrome/138.0.0.0 Safari/537.36 Edg/138.0.0.0","WebKit","Edge","138.0.0.0","Windows","10.0","https://app.prolific.com/","en-US,en;q=0.9,en-ZA;q=0.8","6106be7d513dcab805d524b8","687a360dabe5252b5ada7185","688a19752d0a36a44a418cbe","0","6106be7d513dcab805d524b8","0","2025-07-30T13:26:28.241Z","","","","","","","","","","","","","","","","win-only","0","g1:NW,g2:SE","0.3","8","0","871072.3","6421.8","11428.4","107041.7","1","4","8","6","2","8","7","45","38","0.3409090909090909","2580.5","3000","790","[""down"",""right""]","{""num_key_presses"":20,""num_perfect"":6,""num_errors"":1,""num_randdir"":13,""num_randdir_good_moves"":6,""num_whilered"":0,""num_whileblue"":1,""num_blue"":9,""num_good_moves"":13}","[296.22232142857143,295.12857142857143,12,296.22232142857143,295.12857142857143,119.2,296.22232142857143,295.12857142857143,224.9,296.22232142857143,295.12857142857143,325.2,296.22232142857143,295.12857142857143,436.9,296.22232142857143,295.12857142857143,554.3,296.22232142857143,295.12857142857143,667.8,296.22232142857143,295.12857142857143,781.9,262.22232142857143,270.12857142857143,892.2,268.22232142857143,281.12857142857143,1007.7,350.22232142857143,387.12857142857143,1115.2,350.22232142857143,387.12857142857143,1234.5,350.22232142857143,387.12857142857143,1334.7,358.22232142857143,392.12857142857143,1465.1,481.22232142857143,503.12857142857143,1591,506.22232142857143,532.1285714285714,1699.6,506.22232142857143,532.1285714285714,1820.8,506.22232142857143,532.1285714285714,1921.8,507.22232142857143,532.1285714285714,2041.5,521.2223214285714,532.1285714285714,2162,527.2223214285714,532.1285714285714,2264.9,528.2223214285714,532.1285714285714,2380,528.2223214285714,532.1285714285714,2481.7,528.2223214285714,532.1285714285714,2585.8,528.2223214285714,532.1285714285714,2696.5,528.2223214285714,532.1285714285714,2817.4,528.2223214285714,532.1285714285714,2932.5,528.2223214285714,532.1285714285714,3042.5,343.22232142857143,350.12857142857143,3146,282.22232142857143,289.12857142857143,3265.3,282.22232142857143,289.12857142857143,3379.9,282.22232142857143,289.12857142857143,3489.9,282.22232142857143,289.12857142857143,3591.7,282.22232142857143,289.12857142857143,3713.2,250.22232142857143,282.12857142857143,3817,62.222321428571426,267.12857142857143,3947.5,47.222321428571426,265.12857142857143,4085.9,47.222321428571426,265.12857142857143,4189.7,-16.777678571428574,269.12857142857143,4321.1,-151.77767857142857,269.12857142857143,4447.6,-152.77767857142857,269.12857142857143,4548.5,-152.77767857142857,269.12857142857143,4650.3,-152.77767857142857,269.12857142857143,4761.4,-152.77767857142857,269.12857142857143,4888.7]","[1774.1,1774.2,1000,0,774.2,""smooth"",""down"",""down"",""good_move"",4778.8,3002.8,2528.8,1776,474,""oops"",""right"",""up"",""bad_move"",8376.8,3593.5,2792.3,4783.3,801.2,""oops"",""down"",""down"",""good_move"",11518.5,3139.8,2690.6,8378.8,449.1,""smooth"",""right"",""right"",""good_move"",14857,3333.2,2893.5,11523.8,439.7,""oops"",""down"",""left"",""bad_move"",22691.3,7832.6,2355.6,19701.9,633.9,""smooth"",""down"",""down"",""good_move"",25495,2801.8,1806.2,22693.2,995.6,""oops"",""right"",""right"",""good_move"",28453.8,2956.9,2410.3,25496.9,546.6,""oops"",""down"",""up"",""bad_move"",40169.1,11710.9,2119.6,37075.6,974,""oops"",""right"",""left"",""bad_move"",43912.7,3742.3,3284.4,40170.4,457.9,""oops"",""down"",""up"",""bad_move"",47396.3,3480.4,2348.2,43916,1132.1,""smooth"",""right"",""right"",""good_move"",50331.6,2932.8,2475.6,47398.8,457.2,""oops"",""right"",""up"",""bad_move"",54374.1,4038.7,3674.4,50335.5,364.2,""oops"",""down"",""down"",""good_move"",57036.8,2660.9,2232.7,54376.1,428,""oops"",""down"",""left"",""bad_move"",61968.9,4923.4,2480.5,57045.6,2442.9,""oops"",""down"",""right"",""good_move"",64691.9,2720.7,2209.1,61971.2,511.6,""smooth"",""down"",""down"",""good_move"",75217.3,10523.8,2021,72767.1,429.8,""oops"",""down"",""down"",""good_move"",78351,3131.7,2638.7,75219.3,493,""smooth"",""right"",""right"",""good_move"",81585.9,3232.9,2866.9,78353,366,""while_blue"",""down"",""down"",""good_move"",95094.9,13499.4,2183.3,92312,599.6,""oops"",""right"",""right"",""good_move""]"
"10423","","<div style=""width:500px;"">
  <p>What determined the result of this run?</p>
  </div>","77","html-slider-response","49","985887","0.0-7.0-1.7","100","1","2025-07-30 13:10:09","36c45c0696341be0efffe67d72a12abb","196.22.249.82","Mozilla/5.0 (Windows NT 10.0; Win64; x64) AppleWebKit/537.36 (KHTML, like Gecko) Chrome/138.0.0.0 Safari/537.36 Edg/138.0.0.0","WebKit","Edge","138.0.0.0","Windows","10.0","https://app.prolific.com/","en-US,en;q=0.9,en-ZA;q=0.8","6106be7d513dcab805d524b8","687a360dabe5252b5ada7185","688a19752d0a36a44a418cbe","0","6106be7d513dcab805d524b8","0","2025-07-30T13:26:38.670Z","","","","AttribQ","","","","","","","","","","","50","","","","","","","","","","","","","","","","","","","","","","","","","","",""
"4572","","<div style=""width:500px;"">
  <p>How much control did you have over the ball?</p>
  </div>","55","html-slider-response","50","990464","0.0-7.0-2.7","100","1","2025-07-30 13:10:09","36c45c0696341be0efffe67d72a12abb","196.22.249.82","Mozilla/5.0 (Windows NT 10.0; Win64; x64) AppleWebKit/537.36 (KHTML, like Gecko) Chrome/138.0.0.0 Safari/537.36 Edg/138.0.0.0","WebKit","Edge","138.0.0.0","Windows","10.0","https://app.prolific.com/","en-US,en;q=0.9,en-ZA;q=0.8","6106be7d513dcab805d524b8","687a360dabe5252b5ada7185","688a19752d0a36a44a418cbe","0","6106be7d513dcab805d524b8","0","2025-07-30T13:26:43.246Z","","","","ControlQ","","","","","","","","","","","50","","","","","","","","","","","","","","","","","","","","","","","","","","",""
"6061","","<div style=""width:500px;"">
  <p>How would you describe your current emotional state?</p>
  </div>","19","html-slider-response","51","996528","0.0-7.0-3.7","100","1","2025-07-30 13:10:09","36c45c0696341be0efffe67d72a12abb","196.22.249.82","Mozilla/5.0 (Windows NT 10.0; Win64; x64) AppleWebKit/537.36 (KHTML, like Gecko) Chrome/138.0.0.0 Safari/537.36 Edg/138.0.0.0","WebKit","Edge","138.0.0.0","Windows","10.0","https://app.prolific.com/","en-US,en;q=0.9,en-ZA;q=0.8","6106be7d513dcab805d524b8","687a360dabe5252b5ada7185","688a19752d0a36a44a418cbe","0","6106be7d513dcab805d524b8","0","2025-07-30T13:26:49.310Z","","","","StressQ","","","","","","","","","","","50","","","","","","","","","","","","","","","","","","","","","","","","","","",""
"6311","","<div style=""width:500px;"">
  <p>What best describes how you currently feel?</p>
  </div>","74","html-slider-response","52","1002845","0.0-7.0-4.7","100","1","2025-07-30 13:10:09","36c45c0696341be0efffe67d72a12abb","196.22.249.82","Mozilla/5.0 (Windows NT 10.0; Win64; x64) AppleWebKit/537.36 (KHTML, like Gecko) Chrome/138.0.0.0 Safari/537.36 Edg/138.0.0.0","WebKit","Edge","138.0.0.0","Windows","10.0","https://app.prolific.com/","en-US,en;q=0.9,en-ZA;q=0.8","6106be7d513dcab805d524b8","687a360dabe5252b5ada7185","688a19752d0a36a44a418cbe","0","6106be7d513dcab805d524b8","0","2025-07-30T13:26:55.627Z","","","","MotivationQ","","","","","","","","","","","50","","","","","","","","","","","","","","","","","","","","","","","","","","",""
"","","","","ctl-task-cpt","53","1030682","0.0-7.0-0.8","100","1","2025-07-30 13:10:09","36c45c0696341be0efffe67d72a12abb","196.22.249.82","Mozilla/5.0 (Windows NT 10.0; Win64; x64) AppleWebKit/537.36 (KHTML, like Gecko) Chrome/138.0.0.0 Safari/537.36 Edg/138.0.0.0","WebKit","Edge","138.0.0.0","Windows","10.0","https://app.prolific.com/","en-US,en;q=0.9,en-ZA;q=0.8","6106be7d513dcab805d524b8","687a360dabe5252b5ada7185","688a19752d0a36a44a418cbe","0","6106be7d513dcab805d524b8","0","2025-07-30T13:27:23.465Z","","","","","","","","","","","","","","","","win-only","0","g1:NW,g2:SE","0.4","9","0","1008543.5","1874.2","6889.9","24793.1","1","4","4","6","2","4","4","49","45","0.3712121212121212","1894.3","3000","2450","[""down"",""right""]","{""num_key_presses"":6,""num_perfect"":3,""num_errors"":0,""num_randdir"":3,""num_randdir_good_moves"":3,""num_whilered"":0,""num_whileblue"":0,""num_blue"":0,""num_good_moves"":6}","[293.22232142857143,291.12857142857143,1,293.22232142857143,291.12857142857143,106.2,293.22232142857143,291.12857142857143,214.8,293.22232142857143,291.12857142857143,347.6,293.22232142857143,291.12857142857143,461.6,293.22232142857143,291.12857142857143,570.6,293.22232142857143,291.12857142857143,694.3,290.22232142857143,291.12857142857143,805.4,281.22232142857143,288.12857142857143,927.4,449.22232142857143,512.1285714285714,1028.2,461.22232142857143,529.1285714285714,1132.2,461.22232142857143,529.1285714285714,1272.1,477.22232142857143,532.1285714285714,1398.7,512.2223214285714,539.1285714285714,1545.4,512.2223214285714,539.1285714285714,1680.8,512.2223214285714,539.1285714285714,1786,512.2223214285714,539.1285714285714,1915.8,512.2223214285714,539.1285714285714,2033.4,512.2223214285714,539.1285714285714,2143.2,657.2223214285714,482.12857142857143,2281.5,731.2223214285714,452.12857142857143,2415,731.2223214285714,452.12857142857143,2515.8,731.2223214285714,452.12857142857143,2633.8,731.2223214285714,452.12857142857143,2736.5,731.2223214285714,452.12857142857143,2838.8,731.2223214285714,452.12857142857143,2950.5,731.2223214285714,452.12857142857143,3058.4,731.2223214285714,452.12857142857143,3170.4,731.2223214285714,452.12857142857143,3303.4,731.2223214285714,452.12857142857143,3429.7,731.2223214285714,452.12857142857143,3555.6,731.2223214285714,452.12857142857143,3686.1,731.2223214285714,452.12857142857143,3810.3,731.2223214285714,452.12857142857143,3931.2,731.2223214285714,452.12857142857143,4050.3,731.2223214285714,452.12857142857143,4158.3,731.2223214285714,452.12857142857143,4294.4,731.2223214285714,452.12857142857143,4418.7,731.2223214285714,452.12857142857143,4519.4,731.2223214285714,452.12857142857143,4646.9,731.2223214285714,452.12857142857143,4748.2,731.2223214285714,452.12857142857143,4879.4]","[1539.1,1539.1,1000,0,539.1,""oops"",""right"",""right"",""good_move"",4979.1,3438.2,2987.4,1540.9,450.8,""smooth"",""down"",""down"",""good_move"",7749,2767.5,2243,4981.5,524.5,""smooth"",""right"",""right"",""good_move"",10391.6,2636.1,2198.7,7755.5,437.4,""smooth"",""down"",""down"",""good_move"",13963.7,3566.2,3155.1,10397.5,411.1,""oops"",""right"",""down"",""good_move"",17299.7,3334.1,2852.7,13965.7,481.4,""oops"",""right"",""right"",""good_move""]"
"12684","","<div style=""width:500px;"">
  <p>What determined the result of this run?</p>
  </div>","68","html-slider-response","54","1043373","0.0-7.0-1.8","100","1","2025-07-30 13:10:09","36c45c0696341be0efffe67d72a12abb","196.22.249.82","Mozilla/5.0 (Windows NT 10.0; Win64; x64) AppleWebKit/537.36 (KHTML, like Gecko) Chrome/138.0.0.0 Safari/537.36 Edg/138.0.0.0","WebKit","Edge","138.0.0.0","Windows","10.0","https://app.prolific.com/","en-US,en;q=0.9,en-ZA;q=0.8","6106be7d513dcab805d524b8","687a360dabe5252b5ada7185","688a19752d0a36a44a418cbe","0","6106be7d513dcab805d524b8","0","2025-07-30T13:27:36.155Z","","","","AttribQ","","","","","","","","","","","50","","","","","","","","","","","","","","","","","","","","","","","","","","",""
"5913","","<div style=""width:500px;"">
  <p>How much control did you have over the ball?</p>
  </div>","60","html-slider-response","55","1049291","0.0-7.0-2.8","100","1","2025-07-30 13:10:09","36c45c0696341be0efffe67d72a12abb","196.22.249.82","Mozilla/5.0 (Windows NT 10.0; Win64; x64) AppleWebKit/537.36 (KHTML, like Gecko) Chrome/138.0.0.0 Safari/537.36 Edg/138.0.0.0","WebKit","Edge","138.0.0.0","Windows","10.0","https://app.prolific.com/","en-US,en;q=0.9,en-ZA;q=0.8","6106be7d513dcab805d524b8","687a360dabe5252b5ada7185","688a19752d0a36a44a418cbe","0","6106be7d513dcab805d524b8","0","2025-07-30T13:27:42.074Z","","","","ControlQ","","","","","","","","","","","50","","","","","","","","","","","","","","","","","","","","","","","","","","",""
"4818","","<div style=""width:500px;"">
  <p>How would you describe your current emotional state?</p>
  </div>","20","html-slider-response","56","1054114","0.0-7.0-3.8","100","1","2025-07-30 13:10:09","36c45c0696341be0efffe67d72a12abb","196.22.249.82","Mozilla/5.0 (Windows NT 10.0; Win64; x64) AppleWebKit/537.36 (KHTML, like Gecko) Chrome/138.0.0.0 Safari/537.36 Edg/138.0.0.0","WebKit","Edge","138.0.0.0","Windows","10.0","https://app.prolific.com/","en-US,en;q=0.9,en-ZA;q=0.8","6106be7d513dcab805d524b8","687a360dabe5252b5ada7185","688a19752d0a36a44a418cbe","0","6106be7d513dcab805d524b8","0","2025-07-30T13:27:46.896Z","","","","StressQ","","","","","","","","","","","50","","","","","","","","","","","","","","","","","","","","","","","","","","",""
"4171","","<div style=""width:500px;"">
  <p>What best describes how you currently feel?</p>
  </div>","24","html-slider-response","57","1058292","0.0-7.0-4.8","100","1","2025-07-30 13:10:09","36c45c0696341be0efffe67d72a12abb","196.22.249.82","Mozilla/5.0 (Windows NT 10.0; Win64; x64) AppleWebKit/537.36 (KHTML, like Gecko) Chrome/138.0.0.0 Safari/537.36 Edg/138.0.0.0","WebKit","Edge","138.0.0.0","Windows","10.0","https://app.prolific.com/","en-US,en;q=0.9,en-ZA;q=0.8","6106be7d513dcab805d524b8","687a360dabe5252b5ada7185","688a19752d0a36a44a418cbe","0","6106be7d513dcab805d524b8","0","2025-07-30T13:27:51.075Z","","","","MotivationQ","","","","","","","","","","","50","","","","","","","","","","","","","","","","","","","","","","","","","","",""
"","","","","ctl-task-cpt","58","1136104","0.0-7.0-0.9","100","1","2025-07-30 13:10:09","36c45c0696341be0efffe67d72a12abb","196.22.249.82","Mozilla/5.0 (Windows NT 10.0; Win64; x64) AppleWebKit/537.36 (KHTML, like Gecko) Chrome/138.0.0.0 Safari/537.36 Edg/138.0.0.0","WebKit","Edge","138.0.0.0","Windows","10.0","https://app.prolific.com/","en-US,en;q=0.9,en-ZA;q=0.8","6106be7d513dcab805d524b8","687a360dabe5252b5ada7185","688a19752d0a36a44a418cbe","0","6106be7d513dcab805d524b8","0","2025-07-30T13:29:08.886Z","","","","","","","","","","","","","","","","win-only","3","g1:SW,g2:NE","0.5","10","0","1063989.6","4163.6","9175.5","74782.4","1","4","8","6","2","8","8","57","49","0.4318181818181818","1920.8","3000","1440","[""up"",""right""]","{""num_key_presses"":14,""num_perfect"":8,""num_errors"":0,""num_randdir"":6,""num_randdir_good_moves"":2,""num_whilered"":0,""num_whileblue"":0,""num_blue"":3,""num_good_moves"":10}","[294.22232142857143,300.12857142857143,1.9,294.22232142857143,300.12857142857143,109.3,294.22232142857143,300.12857142857143,228.8,294.22232142857143,300.12857142857143,344.4,294.22232142857143,300.12857142857143,448.9,294.22232142857143,300.12857142857143,579.6,247.22232142857143,376.12857142857143,697.4,250.22232142857143,354.12857142857143,803.1,406.22232142857143,110.12857142857143,921.1,406.22232142857143,110.12857142857143,1023.3,408.22232142857143,108.12857142857143,1132.4,509.22232142857143,72.12857142857143,1260,526.2223214285714,70.12857142857143,1368.3,528.2223214285714,70.12857142857143,1493.4,529.2223214285714,70.12857142857143,1602,529.2223214285714,70.12857142857143,1716.6,529.2223214285714,70.12857142857143,1831.1,529.2223214285714,70.12857142857143,1965.6,529.2223214285714,70.12857142857143,2083,529.2223214285714,70.12857142857143,2200.9,520.2223214285714,87.12857142857143,2337,479.22232142857143,357.12857142857143,2454.3,485.22232142857143,400.12857142857143,2606,485.22232142857143,400.12857142857143,2750.9,926.2223214285714,372.12857142857143,2881.9,973.2223214285714,359.12857142857143,3017.8,973.2223214285714,359.12857142857143,3126.7,973.2223214285714,359.12857142857143,3231,973.2223214285714,359.12857142857143,3365.5,973.2223214285714,359.12857142857143,3488,973.2223214285714,359.12857142857143,3597.1,973.2223214285714,359.12857142857143,3715.7,973.2223214285714,359.12857142857143,3818.6,973.2223214285714,359.12857142857143,3932.8,973.2223214285714,359.12857142857143,4063.2,973.2223214285714,359.12857142857143,4177.5,973.2223214285714,359.12857142857143,4298.6,973.2223214285714,359.12857142857143,4399.3,973.2223214285714,359.12857142857143,4519.7,973.2223214285714,359.12857142857143,4621.8,973.2223214285714,359.12857142857143,4739.9,973.2223214285714,359.12857142857143,4867.4,973.2223214285714,359.12857142857143,4969.1]","[2116.3,2116.3,1000,0,1116.3,""smooth"",""right"",""right"",""good_move"",5698.3,3576.9,3117.5,2121.4,459.4,""oops"",""up"",""left"",""bad_move"",14555.3,8855.2,2740.3,11149.9,665.1,""smooth"",""right"",""right"",""good_move"",17870.5,3311.3,2601,14559.4,710.1,""smooth"",""up"",""up"",""good_move"",24421.6,6533,2003.5,17888.6,4529.5,""smooth"",""right"",""right"",""good_move"",27667.4,3237.9,2802.3,24429.5,435.6,""oops"",""up"",""down"",""bad_move"",30315.7,2645.9,2099.1,27669.8,546.8,""smooth"",""right"",""right"",""good_move"",34229,3902,3414.7,30327.2,487.2,""oops"",""up"",""down"",""bad_move"",36737.5,2503.2,2088.4,34234.3,414.8,""oops"",""up"",""up"",""good_move"",40678.9,3924.3,2551.9,36754.6,1372.4,""oops"",""up"",""left"",""bad_move"",49477.9,8795.9,2552.1,46034.9,891,""oops"",""right"",""right"",""good_move"",55227.4,5747.7,2196.1,52511.4,519.9,""smooth"",""up"",""up"",""good_move"",60750.4,5521.5,2746.6,55228.9,2774.9,""smooth"",""up"",""up"",""good_move"",65147.6,4395.9,2915.4,60751.8,1480.4,""smooth"",""up"",""up"",""good_move""]"
"24510","","<div style=""width:500px;"">
  <p>What determined the result of this run?</p>
  </div>","75","html-slider-response","59","1160627","0.0-7.0-1.9","100","1","2025-07-30 13:10:09","36c45c0696341be0efffe67d72a12abb","196.22.249.82","Mozilla/5.0 (Windows NT 10.0; Win64; x64) AppleWebKit/537.36 (KHTML, like Gecko) Chrome/138.0.0.0 Safari/537.36 Edg/138.0.0.0","WebKit","Edge","138.0.0.0","Windows","10.0","https://app.prolific.com/","en-US,en;q=0.9,en-ZA;q=0.8","6106be7d513dcab805d524b8","687a360dabe5252b5ada7185","688a19752d0a36a44a418cbe","0","6106be7d513dcab805d524b8","0","2025-07-30T13:29:33.409Z","","","","AttribQ","","","","","","","","","","","50","","","","","","","","","","","","","","","","","","","","","","","","","","",""
"3793","","<div style=""width:500px;"">
  <p>How much control did you have over the ball?</p>
  </div>","65","html-slider-response","60","1164427","0.0-7.0-2.9","100","1","2025-07-30 13:10:09","36c45c0696341be0efffe67d72a12abb","196.22.249.82","Mozilla/5.0 (Windows NT 10.0; Win64; x64) AppleWebKit/537.36 (KHTML, like Gecko) Chrome/138.0.0.0 Safari/537.36 Edg/138.0.0.0","WebKit","Edge","138.0.0.0","Windows","10.0","https://app.prolific.com/","en-US,en;q=0.9,en-ZA;q=0.8","6106be7d513dcab805d524b8","687a360dabe5252b5ada7185","688a19752d0a36a44a418cbe","0","6106be7d513dcab805d524b8","0","2025-07-30T13:29:37.209Z","","","","ControlQ","","","","","","","","","","","50","","","","","","","","","","","","","","","","","","","","","","","","","","",""
"3401","","<div style=""width:500px;"">
  <p>How would you describe your current emotional state?</p>
  </div>","21","html-slider-response","61","1167832","0.0-7.0-3.9","100","1","2025-07-30 13:10:09","36c45c0696341be0efffe67d72a12abb","196.22.249.82","Mozilla/5.0 (Windows NT 10.0; Win64; x64) AppleWebKit/537.36 (KHTML, like Gecko) Chrome/138.0.0.0 Safari/537.36 Edg/138.0.0.0","WebKit","Edge","138.0.0.0","Windows","10.0","https://app.prolific.com/","en-US,en;q=0.9,en-ZA;q=0.8","6106be7d513dcab805d524b8","687a360dabe5252b5ada7185","688a19752d0a36a44a418cbe","0","6106be7d513dcab805d524b8","0","2025-07-30T13:29:40.614Z","","","","StressQ","","","","","","","","","","","50","","","","","","","","","","","","","","","","","","","","","","","","","","",""
"3740","","<div style=""width:500px;"">
  <p>What best describes how you currently feel?</p>
  </div>","58","html-slider-response","62","1171576","0.0-7.0-4.9","100","1","2025-07-30 13:10:09","36c45c0696341be0efffe67d72a12abb","196.22.249.82","Mozilla/5.0 (Windows NT 10.0; Win64; x64) AppleWebKit/537.36 (KHTML, like Gecko) Chrome/138.0.0.0 Safari/537.36 Edg/138.0.0.0","WebKit","Edge","138.0.0.0","Windows","10.0","https://app.prolific.com/","en-US,en;q=0.9,en-ZA;q=0.8","6106be7d513dcab805d524b8","687a360dabe5252b5ada7185","688a19752d0a36a44a418cbe","0","6106be7d513dcab805d524b8","0","2025-07-30T13:29:44.358Z","","","","MotivationQ","","","","","","","","","","","50","","","","","","","","","","","","","","","","","","","","","","","","","","",""
"","","","","ctl-task-cpt","63","1210408","0.0-7.0-0.10","100","1","2025-07-30 13:10:09","36c45c0696341be0efffe67d72a12abb","196.22.249.82","Mozilla/5.0 (Windows NT 10.0; Win64; x64) AppleWebKit/537.36 (KHTML, like Gecko) Chrome/138.0.0.0 Safari/537.36 Edg/138.0.0.0","WebKit","Edge","138.0.0.0","Windows","10.0","https://app.prolific.com/","en-US,en;q=0.9,en-ZA;q=0.8","6106be7d513dcab805d524b8","687a360dabe5252b5ada7185","688a19752d0a36a44a418cbe","0","6106be7d513dcab805d524b8","0","2025-07-30T13:30:23.190Z","","","","","","","","","","","","","","","","win-only","1","g1:NE,g2:SW","0.6","11","0","1177272.8","4178.8","9196.8","35788.6","1","4","4","6","2","4","4","61","57","0.4621212121212121","1775.3","3000","2510","[""down"",""left""]","{""num_key_presses"":6,""num_perfect"":4,""num_errors"":0,""num_randdir"":2,""num_randdir_good_moves"":2,""num_whilered"":0,""num_whileblue"":0,""num_blue"":1,""num_good_moves"":6}","[302.22232142857143,294.12857142857143,1.4,302.22232142857143,294.12857142857143,101.7,302.22232142857143,294.12857142857143,231.3,302.22232142857143,294.12857142857143,352.3,302.22232142857143,294.12857142857143,509.8,302.22232142857143,294.12857142857143,628.2,302.22232142857143,294.12857142857143,733.4,302.22232142857143,294.12857142857143,843.3,185.22232142857143,444.12857142857143,955.3,121.22232142857143,538.1285714285714,1073.9,121.22232142857143,538.1285714285714,1187.7,109.22232142857143,541.1285714285714,1327.8,84.22232142857143,545.1285714285714,1464.7,84.22232142857143,545.1285714285714,1591.2,84.22232142857143,545.1285714285714,1711.6,84.22232142857143,545.1285714285714,1824.3,84.22232142857143,545.1285714285714,1955.2,84.22232142857143,545.1285714285714,2078.4,84.22232142857143,545.1285714285714,2207,84.22232142857143,545.1285714285714,2319,76.22232142857143,530.1285714285714,2461,-47.777678571428574,357.12857142857143,2578.6,-54.777678571428574,352.12857142857143,2692,-54.777678571428574,352.12857142857143,2809.8,-54.777678571428574,352.12857142857143,2936.2,-72.77767857142857,357.12857142857143,3038.1,-326.77767857142857,392.12857142857143,3152.8,-326.77767857142857,392.12857142857143,3269.6,-326.77767857142857,392.12857142857143,3390.7,-326.77767857142857,392.12857142857143,3517.8,-326.77767857142857,392.12857142857143,3640.7,-326.77767857142857,392.12857142857143,3765.6,-326.77767857142857,392.12857142857143,3872.9,-326.77767857142857,392.12857142857143,3975.2,-326.77767857142857,392.12857142857143,4087.9,-326.77767857142857,392.12857142857143,4211.8,-326.77767857142857,392.12857142857143,4332.1,-326.77767857142857,392.12857142857143,4445.2,-326.77767857142857,392.12857142857143,4553.2,-326.77767857142857,392.12857142857143,4666.9,-326.77767857142857,392.12857142857143,4778.8,-326.77767857142857,392.12857142857143,4886.3]","[1536.8,1536.9,1000,0,536.9,""smooth"",""down"",""down"",""good_move"",3901.3,2361.8,1882,1539.6,479.7,""smooth"",""left"",""left"",""good_move"",9418,5514.5,2458.1,3903.5,3056.5,""oops"",""down"",""left"",""good_move"",14489.5,5069.7,2169.3,9419.8,2900.4,""oops"",""down"",""left"",""good_move"",22896.8,8403.9,3005.3,19439.6,451.9,""smooth"",""down"",""down"",""good_move"",25815.1,2916,2303.5,22899.1,612.5,""smooth"",""down"",""down"",""good_move""]"
"52394","","<div style=""width:500px;"">
  <p>What determined the result of this run?</p>
  </div>","72","html-slider-response","64","1262810","0.0-7.0-1.10","100","1","2025-07-30 13:10:09","36c45c0696341be0efffe67d72a12abb","196.22.249.82","Mozilla/5.0 (Windows NT 10.0; Win64; x64) AppleWebKit/537.36 (KHTML, like Gecko) Chrome/138.0.0.0 Safari/537.36 Edg/138.0.0.0","WebKit","Edge","138.0.0.0","Windows","10.0","https://app.prolific.com/","en-US,en;q=0.9,en-ZA;q=0.8","6106be7d513dcab805d524b8","687a360dabe5252b5ada7185","688a19752d0a36a44a418cbe","0","6106be7d513dcab805d524b8","0","2025-07-30T13:31:15.592Z","","","","AttribQ","","","","","","","","","","","50","","","","","","","","","","","","","","","","","","","","","","","","","","",""
"5497","","<div style=""width:500px;"">
  <p>How much control did you have over the ball?</p>
  </div>","62","html-slider-response","65","1268320","0.0-7.0-2.10","100","1","2025-07-30 13:10:09","36c45c0696341be0efffe67d72a12abb","196.22.249.82","Mozilla/5.0 (Windows NT 10.0; Win64; x64) AppleWebKit/537.36 (KHTML, like Gecko) Chrome/138.0.0.0 Safari/537.36 Edg/138.0.0.0","WebKit","Edge","138.0.0.0","Windows","10.0","https://app.prolific.com/","en-US,en;q=0.9,en-ZA;q=0.8","6106be7d513dcab805d524b8","687a360dabe5252b5ada7185","688a19752d0a36a44a418cbe","0","6106be7d513dcab805d524b8","0","2025-07-30T13:31:21.103Z","","","","ControlQ","","","","","","","","","","","50","","","","","","","","","","","","","","","","","","","","","","","","","","",""
"3807","","<div style=""width:500px;"">
  <p>How would you describe your current emotional state?</p>
  </div>","24","html-slider-response","66","1272133","0.0-7.0-3.10","100","1","2025-07-30 13:10:09","36c45c0696341be0efffe67d72a12abb","196.22.249.82","Mozilla/5.0 (Windows NT 10.0; Win64; x64) AppleWebKit/537.36 (KHTML, like Gecko) Chrome/138.0.0.0 Safari/537.36 Edg/138.0.0.0","WebKit","Edge","138.0.0.0","Windows","10.0","https://app.prolific.com/","en-US,en;q=0.9,en-ZA;q=0.8","6106be7d513dcab805d524b8","687a360dabe5252b5ada7185","688a19752d0a36a44a418cbe","0","6106be7d513dcab805d524b8","0","2025-07-30T13:31:24.915Z","","","","StressQ","","","","","","","","","","","50","","","","","","","","","","","","","","","","","","","","","","","","","","",""
"4134","","<div style=""width:500px;"">
  <p>What best describes how you currently feel?</p>
  </div>","64","html-slider-response","67","1276272","0.0-7.0-4.10","100","1","2025-07-30 13:10:09","36c45c0696341be0efffe67d72a12abb","196.22.249.82","Mozilla/5.0 (Windows NT 10.0; Win64; x64) AppleWebKit/537.36 (KHTML, like Gecko) Chrome/138.0.0.0 Safari/537.36 Edg/138.0.0.0","WebKit","Edge","138.0.0.0","Windows","10.0","https://app.prolific.com/","en-US,en;q=0.9,en-ZA;q=0.8","6106be7d513dcab805d524b8","687a360dabe5252b5ada7185","688a19752d0a36a44a418cbe","0","6106be7d513dcab805d524b8","0","2025-07-30T13:31:29.054Z","","","","MotivationQ","","","","","","","","","","","50","","","","","","","","","","","","","","","","","","","","","","","","","","",""
"","","","","ctl-task-cpt","68","1352282","0.0-7.0-0.11","100","1","2025-07-30 13:10:09","36c45c0696341be0efffe67d72a12abb","196.22.249.82","Mozilla/5.0 (Windows NT 10.0; Win64; x64) AppleWebKit/537.36 (KHTML, like Gecko) Chrome/138.0.0.0 Safari/537.36 Edg/138.0.0.0","WebKit","Edge","138.0.0.0","Windows","10.0","https://app.prolific.com/","en-US,en;q=0.9,en-ZA;q=0.8","6106be7d513dcab805d524b8","687a360dabe5252b5ada7185","688a19752d0a36a44a418cbe","0","6106be7d513dcab805d524b8","0","2025-07-30T13:32:45.065Z","","","","","","","","","","","","","","","","win-only","1","g1:NE,g2:SW","0.7","12","0","1281977.4","2663.2","7667.7","72945.2","1","4","8","6","2","8","8","69","61","0.5227272727272727","1582.5","3000","1830","[""down"",""left""]","{""num_key_presses"":14,""num_perfect"":9,""num_errors"":0,""num_randdir"":5,""num_randdir_good_moves"":1,""num_whilered"":0,""num_whileblue"":0,""num_blue"":1,""num_good_moves"":10}","[302.22232142857143,290.12857142857143,1.7,302.22232142857143,290.12857142857143,120.5,302.22232142857143,290.12857142857143,226.7,459.22232142857143,245.12857142857143,353.7,826.2223214285714,148.12857142857143,504.6,548.2223214285714,253.12857142857143,609.8,316.22232142857143,393.12857142857143,723.6,264.22232142857143,450.12857142857143,831.4,264.22232142857143,450.12857142857143,934.2,179.22232142857143,473.12857142857143,1034.8,68.22232142857143,503.12857142857143,1168.5,63.222321428571426,507.12857142857143,1283.1,63.222321428571426,507.12857142857143,1415.4,63.222321428571426,507.12857142857143,1532.8,63.222321428571426,507.12857142857143,1649.5,57.222321428571426,508.12857142857143,1797.5,-207.77767857142857,528.1285714285714,1931.9,-215.77767857142857,528.1285714285714,2038.5,-215.77767857142857,528.1285714285714,2147,-215.77767857142857,528.1285714285714,2260,-215.77767857142857,528.1285714285714,2368.9,-215.77767857142857,528.1285714285714,2470.3,-215.77767857142857,528.1285714285714,2586.1,-215.77767857142857,528.1285714285714,2691.9,-215.77767857142857,528.1285714285714,2799.4,-215.77767857142857,528.1285714285714,2914.9,-215.77767857142857,528.1285714285714,3028.5,-215.77767857142857,528.1285714285714,3140.4,-215.77767857142857,528.1285714285714,3246.8,-215.77767857142857,528.1285714285714,3358.4,-215.77767857142857,528.1285714285714,3470.7,-215.77767857142857,528.1285714285714,3574.4,-215.77767857142857,528.1285714285714,3695.8,-215.77767857142857,528.1285714285714,3800.3,-215.77767857142857,528.1285714285714,3902.6,-215.77767857142857,528.1285714285714,4003,-215.77767857142857,528.1285714285714,4133.2,-215.77767857142857,528.1285714285714,4239.7,-215.77767857142857,528.1285714285714,4341.3,-215.77767857142857,528.1285714285714,4470.4,-215.77767857142857,528.1285714285714,4579.3,-215.77767857142857,528.1285714285714,4685.3,-215.77767857142857,528.1285714285714,4791.7,-215.77767857142857,528.1285714285714,4898]","[1464.4,1464.4,1000,0,464.4,""smooth"",""down"",""down"",""good_move"",3814.9,2348.5,1924.3,1466.4,424.2,""smooth"",""left"",""left"",""good_move"",10362.3,6544.3,2692.9,3818,3851.4,""oops"",""down"",""right"",""bad_move"",13287.4,2923.3,2010.1,10364.1,913.2,""smooth"",""left"",""left"",""good_move"",20035.1,6744.8,2584.8,13292.3,4158,""smooth"",""left"",""left"",""good_move"",25295.1,5255.1,1953.4,20040.1,3301.7,""smooth"",""left"",""left"",""good_move"",30535.5,5239,2389.1,25296.6,2849.8,""oops"",""down"",""right"",""bad_move"",33218.3,2681.4,2169.3,30536.9,512.1,""smooth"",""left"",""left"",""good_move"",43308,10087.4,2939,39877.5,491.5,""smooth"",""down"",""down"",""good_move"",46518.4,3204.2,2685,43314.3,519.1,""oops"",""down"",""up"",""bad_move"",52502.1,5980.1,2961.4,46522,3018.8,""smooth"",""left"",""down"",""good_move"",55584.1,3068.6,2415.9,52515.5,652.7,""oops"",""down"",""right"",""bad_move"",58051,2459.8,1948.8,55591.4,510.8,""smooth"",""left"",""left"",""good_move"",64404.2,6351.5,1855.3,58052.8,4496.1,""oops"",""down"",""down"",""good_move""]"
"5269","","<div style=""width:500px;"">
  <p>What determined the result of this run?</p>
  </div>","57","html-slider-response","69","1357557","0.0-7.0-1.11","100","1","2025-07-30 13:10:09","36c45c0696341be0efffe67d72a12abb","196.22.249.82","Mozilla/5.0 (Windows NT 10.0; Win64; x64) AppleWebKit/537.36 (KHTML, like Gecko) Chrome/138.0.0.0 Safari/537.36 Edg/138.0.0.0","WebKit","Edge","138.0.0.0","Windows","10.0","https://app.prolific.com/","en-US,en;q=0.9,en-ZA;q=0.8","6106be7d513dcab805d524b8","687a360dabe5252b5ada7185","688a19752d0a36a44a418cbe","0","6106be7d513dcab805d524b8","0","2025-07-30T13:32:50.339Z","","","","AttribQ","","","","","","","","","","","50","","","","","","","","","","","","","","","","","","","","","","","","","","",""
"5510","","<div style=""width:500px;"">
  <p>How much control did you have over the ball?</p>
  </div>","61","html-slider-response","70","1363071","0.0-7.0-2.11","100","1","2025-07-30 13:10:09","36c45c0696341be0efffe67d72a12abb","196.22.249.82","Mozilla/5.0 (Windows NT 10.0; Win64; x64) AppleWebKit/537.36 (KHTML, like Gecko) Chrome/138.0.0.0 Safari/537.36 Edg/138.0.0.0","WebKit","Edge","138.0.0.0","Windows","10.0","https://app.prolific.com/","en-US,en;q=0.9,en-ZA;q=0.8","6106be7d513dcab805d524b8","687a360dabe5252b5ada7185","688a19752d0a36a44a418cbe","0","6106be7d513dcab805d524b8","0","2025-07-30T13:32:55.853Z","","","","ControlQ","","","","","","","","","","","50","","","","","","","","","","","","","","","","","","","","","","","","","","",""
"3143","","<div style=""width:500px;"">
  <p>How would you describe your current emotional state?</p>
  </div>","22","html-slider-response","71","1366221","0.0-7.0-3.11","100","1","2025-07-30 13:10:09","36c45c0696341be0efffe67d72a12abb","196.22.249.82","Mozilla/5.0 (Windows NT 10.0; Win64; x64) AppleWebKit/537.36 (KHTML, like Gecko) Chrome/138.0.0.0 Safari/537.36 Edg/138.0.0.0","WebKit","Edge","138.0.0.0","Windows","10.0","https://app.prolific.com/","en-US,en;q=0.9,en-ZA;q=0.8","6106be7d513dcab805d524b8","687a360dabe5252b5ada7185","688a19752d0a36a44a418cbe","0","6106be7d513dcab805d524b8","0","2025-07-30T13:32:59.004Z","","","","StressQ","","","","","","","","","","","50","","","","","","","","","","","","","","","","","","","","","","","","","","",""
"4212","","<div style=""width:500px;"">
  <p>What best describes how you currently feel?</p>
  </div>","66","html-slider-response","72","1370441","0.0-7.0-4.11","100","1","2025-07-30 13:10:09","36c45c0696341be0efffe67d72a12abb","196.22.249.82","Mozilla/5.0 (Windows NT 10.0; Win64; x64) AppleWebKit/537.36 (KHTML, like Gecko) Chrome/138.0.0.0 Safari/537.36 Edg/138.0.0.0","WebKit","Edge","138.0.0.0","Windows","10.0","https://app.prolific.com/","en-US,en;q=0.9,en-ZA;q=0.8","6106be7d513dcab805d524b8","687a360dabe5252b5ada7185","688a19752d0a36a44a418cbe","0","6106be7d513dcab805d524b8","0","2025-07-30T13:33:03.223Z","","","","MotivationQ","","","","","","","","","","","50","","","","","","","","","","","","","","","","","","","","","","","","","","",""
"","","","","ctl-task-cpt","73","1397990","0.0-7.0-0.12","100","1","2025-07-30 13:10:09","36c45c0696341be0efffe67d72a12abb","196.22.249.82","Mozilla/5.0 (Windows NT 10.0; Win64; x64) AppleWebKit/537.36 (KHTML, like Gecko) Chrome/138.0.0.0 Safari/537.36 Edg/138.0.0.0","WebKit","Edge","138.0.0.0","Windows","10.0","https://app.prolific.com/","en-US,en;q=0.9,en-ZA;q=0.8","6106be7d513dcab805d524b8","687a360dabe5252b5ada7185","688a19752d0a36a44a418cbe","0","6106be7d513dcab805d524b8","0","2025-07-30T13:33:30.773Z","","","","","","","","","","","","","","","","win-only","0","g1:NW,g2:SE","0.8","13","0","1376140.5","2479.3","7503.9","24502.7","1","4","4","6","2","4","4","73","69","0.553030303030303","1798.6","3000","2640","[""down"",""right""]","{""num_key_presses"":6,""num_perfect"":6,""num_errors"":0,""num_randdir"":0,""num_randdir_good_moves"":0,""num_whilered"":0,""num_whileblue"":0,""num_blue"":0,""num_good_moves"":6}","[294.22232142857143,297.12857142857143,1.4,294.22232142857143,297.12857142857143,113.5,294.22232142857143,297.12857142857143,221.1,294.22232142857143,297.12857142857143,355,294.22232142857143,297.12857142857143,478.9,294.22232142857143,297.12857142857143,580,294.22232142857143,297.12857142857143,700,320.22232142857143,305.12857142857143,849.1,478.22232142857143,441.12857142857143,959.6,480.22232142857143,444.12857142857143,1080.1,480.22232142857143,444.12857142857143,1182.5,494.22232142857143,475.12857142857143,1307.1,514.2223214285714,513.1285714285714,1439.5,514.2223214285714,513.1285714285714,1556,514.2223214285714,513.1285714285714,1674.5,514.2223214285714,513.1285714285714,1820.4,514.2223214285714,513.1285714285714,1946.7,514.2223214285714,513.1285714285714,2061,716.2223214285714,371.12857142857143,2210.5,820.2223214285714,304.12857142857143,2326,863.2223214285714,282.12857142857143,2457.6,863.2223214285714,282.12857142857143,2580.7,863.2223214285714,282.12857142857143,2691.1,881.2223214285714,271.12857142857143,2825.5,881.2223214285714,271.12857142857143,2955.6,872.2223214285714,278.12857142857143,3079.5,872.2223214285714,278.12857142857143,3210.4,872.2223214285714,278.12857142857143,3331.2,872.2223214285714,278.12857142857143,3448.1,872.2223214285714,278.12857142857143,3581.2,872.2223214285714,278.12857142857143,3695.1,872.2223214285714,278.12857142857143,3806,872.2223214285714,278.12857142857143,3915.8,872.2223214285714,278.12857142857143,4016.8,872.2223214285714,278.12857142857143,4130,872.2223214285714,278.12857142857143,4250.7,872.2223214285714,278.12857142857143,4389.3,872.2223214285714,278.12857142857143,4495.9,872.2223214285714,278.12857142857143,4632.5,872.2223214285714,278.12857142857143,4735.1,872.2223214285714,278.12857142857143,4847.7,872.2223214285714,278.12857142857143,4958.5]","[1564.1,1564.1,1000,0,564.1,""smooth"",""down"",""down"",""good_move"",4398,2831.7,2299.8,1566.3,531.9,""smooth"",""down"",""down"",""good_move"",6786.2,2386.4,1851.1,4399.8,535.3,""smooth"",""right"",""right"",""good_move"",10193.4,3404.5,2833.4,6789,571,""smooth"",""right"",""right"",""good_move"",13657.5,3459.3,2918.8,10198.2,540.5,""smooth"",""down"",""down"",""good_move"",16300.9,2641,2219.4,13659.9,421.6,""smooth"",""right"",""right"",""good_move""]"
