"rt","response_timestamp","stimulus","response","trial_type","trial_index","time_elapsed","internal_node_id","run_id","condition","recorded_at","source_code_version","ip","user_agent","device","browser","browser_version","platform","platform_version","referer","accept_language","PROLIFIC_PID","STUDY_ID","SESSION_ID","BATCH","prolific_id","batch","realtime","success","question_order","question_id","eventType","responses","item_order","radio_event_ids","radio_event_times","key_event_times","mouse_event_times","straightlining","zigzagging","honeypot","view_history","slider_start","which_type","canvas_config","goals_layout","control_level","trial_number","tutorial_trial_number","trial_start_time","phase1_start_time","phase2_start_time","phase3_start_time","goal_1_value","goal_1_distance","goal_2_value","goal_2_distance","goal_selected","outcome","outcome_total","participant_final_score","participant_initial_score","participant_final_score_prop","goal_choice_rt","allocated_time","allocated_time_remaining","goal_direction","counts","mouse_movements","key_presses"
"12130","1753864884431","<p style='font-size:40px;line-height:1.25'><strong>Welcome to the experiment!</strong></p><p style='font-size:1.1em;line-height:1.25'>Thank you for participanting in our experiment again! You will be asked to play the Dysfunctional Ball Game again. We will briefly recap the rules before we start.</p><p style='font-size:1.1em;line-height:1.25'>Press <strong>Next</strong> to continue.</p>","0","custom-html-button-response","0","12136","0.0-0.0","31","1","2025-07-30 08:41:09","36c45c0696341be0efffe67d72a12abb","41.145.209.180","Mozilla/5.0 (Windows NT 10.0; Win64; x64) AppleWebKit/537.36 (KHTML, like Gecko) Chrome/138.0.0.0 Safari/537.36","WebKit","Chrome","138.0.0.0","Windows","10.0","https://app.prolific.com/","en-US,en;q=0.9","611cd5bfd7197f8a2a3682d1","687a19d2168e237449fb8af4","6889da0310e8941bd2d79ab2","0","611cd5bfd7197f8a2a3682d1","0","2025-07-30T08:41:24.432Z","","","","","","","","","","","","","","","","","","","","","","","","","","","","","","","","","","","","","","","","","",""
"14803","","","","fullscreen","1","27956","0.0-1.0","31","1","2025-07-30 08:41:09","36c45c0696341be0efffe67d72a12abb","41.145.209.180","Mozilla/5.0 (Windows NT 10.0; Win64; x64) AppleWebKit/537.36 (KHTML, like Gecko) Chrome/138.0.0.0 Safari/537.36","WebKit","Chrome","138.0.0.0","Windows","10.0","https://app.prolific.com/","en-US,en;q=0.9","611cd5bfd7197f8a2a3682d1","687a19d2168e237449fb8af4","6889da0310e8941bd2d79ab2","0","611cd5bfd7197f8a2a3682d1","0","","true","","","","","","","","","","","","","","","","","","","","","","","","","","","","","","","","","","","","","","","","",""
"7513","1753864907766"," <p style='font-size:1.1em;line-height:1.25'>Thank you for closing all other tabs.</p><p style='font-size:1.1em;line-height:1.25'>We will now invite you to fill in some questionnaires, before starting the game.<br>This will take about 5 minutes.<br></p><p style='font-size:1.1em;line-height:1.25'>Press the <strong>Next</strong> button to continue.</p>","0","custom-html-button-response","2","35471","0.0-2.0","31","1","2025-07-30 08:41:09","36c45c0696341be0efffe67d72a12abb","41.145.209.180","Mozilla/5.0 (Windows NT 10.0; Win64; x64) AppleWebKit/537.36 (KHTML, like Gecko) Chrome/138.0.0.0 Safari/537.36","WebKit","Chrome","138.0.0.0","Windows","10.0","https://app.prolific.com/","en-US,en;q=0.9","611cd5bfd7197f8a2a3682d1","687a19d2168e237449fb8af4","6889da0310e8941bd2d79ab2","0","611cd5bfd7197f8a2a3682d1","0","2025-07-30T08:41:47.767Z","","","","","","","","","","","","","","","","","","","","","","","","","","","","","","","","","","","","","","","","","",""
"4065","","","{""assigned_sex"":""male""}","survey-multi-choice","3","39537","0.0-3.0-0.0","31","1","2025-07-30 08:41:09","36c45c0696341be0efffe67d72a12abb","41.145.209.180","Mozilla/5.0 (Windows NT 10.0; Win64; x64) AppleWebKit/537.36 (KHTML, like Gecko) Chrome/138.0.0.0 Safari/537.36","WebKit","Chrome","138.0.0.0","Windows","10.0","https://app.prolific.com/","en-US,en;q=0.9","611cd5bfd7197f8a2a3682d1","687a19d2168e237449fb8af4","6889da0310e8941bd2d79ab2","0","611cd5bfd7197f8a2a3682d1","0","","","[0]","0","demographics","","","","","","","","","","","","","","","","","","","","","","","","","","","","","","","","","","","","","",""
"3597","1753864915431","<p style='font-size:1.1em;line-height:1.25'>In the following, we will perform a baseline assessment. This means that we will ask you a few questions relating to your experiences over the past month.<br></p><p style='font-size:1.1em;line-height:1.25'>Press the <strong>Next</strong> button to continue.</p>","0","custom-html-button-response","4","43135","0.0-4.0-0.0","31","1","2025-07-30 08:41:09","36c45c0696341be0efffe67d72a12abb","41.145.209.180","Mozilla/5.0 (Windows NT 10.0; Win64; x64) AppleWebKit/537.36 (KHTML, like Gecko) Chrome/138.0.0.0 Safari/537.36","WebKit","Chrome","138.0.0.0","Windows","10.0","https://app.prolific.com/","en-US,en;q=0.9","611cd5bfd7197f8a2a3682d1","687a19d2168e237449fb8af4","6889da0310e8941bd2d79ab2","0","611cd5bfd7197f8a2a3682d1","0","2025-07-30T08:41:55.431Z","","","","","","","","","","","","","","","","","","","","","","","","","","","","","","","","","","","","","","","","","",""
"70064.70000000298","","","","survey-template","5","113203","0.0-4.0-1.0","31","1","2025-07-30 08:41:09","36c45c0696341be0efffe67d72a12abb","41.145.209.180","Mozilla/5.0 (Windows NT 10.0; Win64; x64) AppleWebKit/537.36 (KHTML, like Gecko) Chrome/138.0.0.0 Safari/537.36","WebKit","Chrome","138.0.0.0","Windows","10.0","https://app.prolific.com/","en-US,en;q=0.9","611cd5bfd7197f8a2a3682d1","687a19d2168e237449fb8af4","6889da0310e8941bd2d79ab2","0","611cd5bfd7197f8a2a3682d1","0","2025-07-30T08:43:05.499Z","","","","pss","{""Q01"":""2"",""Q02"":""2"",""Q03"":""2"",""Q04"":""1"",""Q05"":""2"",""Q06"":""2"",""Q07"":""3"",""Q08"":""2"",""Q09"":""3"",""Q10"":""3""}","[0,1,2,3,4,5,6,7,8,9]","[""Q01"",""Q02"",""Q03"",""Q04"",""Q05"",""Q06"",""Q07"",""Q08"",""Q09"",""Q10""]","[6948.5,13258.5,17394.5,23257.20000000298,29065.5,38542.10000000894,48321.30000001192,55595.60000000894,62046.40000000596,69117]","[]","[22.100000008940697,6948.5,13258.5,17394.5,22302.20000000298,23257.20000000298,29065.5,36144.60000000894,38542.10000000894,48321.30000001192,54803.5,55595.60000000894,61162.80000001192,62046.40000000596,69117,70062.10000000894]","0.6","0.5555555555555556","0","","","","","","","","","","","","","","","","","","","","","","","","","","","","",""
"4898","1753864990398","<p style='font-size:1.1em;line-height:1.25'>Thank you for your answers! Now we will ask you a few more questions relating to your feelings in the last 24 hours.<br></p><p style='font-size:1.1em;line-height:1.25'>Press the <strong>Next</strong> button to continue.</p>","0","custom-html-button-response","6","118102","0.0-4.0-2.0","31","1","2025-07-30 08:41:09","36c45c0696341be0efffe67d72a12abb","41.145.209.180","Mozilla/5.0 (Windows NT 10.0; Win64; x64) AppleWebKit/537.36 (KHTML, like Gecko) Chrome/138.0.0.0 Safari/537.36","WebKit","Chrome","138.0.0.0","Windows","10.0","https://app.prolific.com/","en-US,en;q=0.9","611cd5bfd7197f8a2a3682d1","687a19d2168e237449fb8af4","6889da0310e8941bd2d79ab2","0","611cd5bfd7197f8a2a3682d1","0","2025-07-30T08:43:10.398Z","","","","","","","","","","","","","","","","","","","","","","","","","","","","","","","","","","","","","","","","","",""
"107276.79999999702","","","","survey-template","7","225382","0.0-4.0-3.0","31","1","2025-07-30 08:41:09","36c45c0696341be0efffe67d72a12abb","41.145.209.180","Mozilla/5.0 (Windows NT 10.0; Win64; x64) AppleWebKit/537.36 (KHTML, like Gecko) Chrome/138.0.0.0 Safari/537.36","WebKit","Chrome","138.0.0.0","Windows","10.0","https://app.prolific.com/","en-US,en;q=0.9","611cd5bfd7197f8a2a3682d1","687a19d2168e237449fb8af4","6889da0310e8941bd2d79ab2","0","611cd5bfd7197f8a2a3682d1","0","2025-07-30T08:44:57.678Z","","","","drsp","{""Q01"":""1"",""Q02"":""1"",""Q03"":""0"",""Q04"":""1"",""Q05"":""0"",""Q06"":""0"",""Q07"":""0"",""Q08"":""0"",""Q09"":""1"",""Q10"":""0"",""Q11"":""0"",""Q12"":""0"",""Q13"":""5"",""Q14"":""3"",""Q15"":""4"",""Q16"":""1"",""Q17"":""1"",""Q18"":""0"",""Q19"":""0"",""Q20"":""1"",""Q21"":""1"",""Q22"":""1""}","[0,1,2,3,4,5,6,7,8,9,10,11,12,13,14,15,16,17,18,19,20,21]","[""Q01"",""Q02"",""Q03"",""Q03"",""Q04"",""Q05"",""Q06"",""Q07"",""Q08"",""Q09"",""Q10"",""Q10"",""Q11"",""Q12"",""Q13"",""Q14"",""Q15"",""Q16"",""Q17"",""Q17"",""Q17"",""Q18"",""Q19"",""Q20"",""Q21"",""Q22""]","[9002.29999999702,10079,12161.29999999702,17066.90000000596,21271.90000000596,23282.90000000596,27284.79999999702,29337.10000000894,30280.90000000596,35697.70000000298,37251.79999999702,39242.20000000298,43375.79999999702,50332.70000000298,52901.79999999702,57238.20000000298,64069.20000000298,69592.29999999702,71734.90000000596,73227.90000000596,77746.70000000298,78934.79999999702,81453.10000000894,94632.40000000596,99798,106074.5]","[]","[20.100000008940697,7021.100000008941,8037,9002.29999999702,10079,12161.29999999702,17066.90000000596,20246.10000000894,21271.90000000596,22338.79999999702,23282.90000000596,26330.10000000894,27284.79999999702,28148.10000000894,29337.10000000894,30280.90000000596,35697.70000000298,37251.79999999702,39242.20000000298,41995,43375.79999999702,49266.29999999702,50332.70000000298,52901.79999999702,57238.20000000298,64069.20000000298,69592.29999999702,71734.90000000596,73227.90000000596,76376.20000000298,77746.70000000298,78934.79999999702,81453.10000000894,94632.40000000596,99798,103414.40000000596,105332.90000000596,106074.5,107272.79999999702]","0.45454545454545453","0.42857142857142855","0","","","","","","","","","","","","","","","","","","","","","","","","","","","","",""
"19915.60000000894","","","","survey-template","8","245299","0.0-4.0-4.0","31","1","2025-07-30 08:41:09","36c45c0696341be0efffe67d72a12abb","41.145.209.180","Mozilla/5.0 (Windows NT 10.0; Win64; x64) AppleWebKit/537.36 (KHTML, like Gecko) Chrome/138.0.0.0 Safari/537.36","WebKit","Chrome","138.0.0.0","Windows","10.0","https://app.prolific.com/","en-US,en;q=0.9","611cd5bfd7197f8a2a3682d1","687a19d2168e237449fb8af4","6889da0310e8941bd2d79ab2","0","611cd5bfd7197f8a2a3682d1","0","2025-07-30T08:45:17.596Z","","","","stress","{""Q01"":""1"",""Q02"":""2"",""Q03"":""3""}","[0,1,2]","[""Q01"",""Q02"",""Q03"",""Q03""]","[2846.5,10476,17812.80000001192,19213.70000000298]","[]","[2846.5,10476,17812.80000001192,19213.70000000298,19914.70000000298]","0.6666666666666666","0","0","","","","","","","","","","","","","","","","","","","","","","","","","","","","",""
"46752","","","","instructions","9","292053","0.0-5.0-0.0","31","1","2025-07-30 08:41:09","36c45c0696341be0efffe67d72a12abb","41.145.209.180","Mozilla/5.0 (Windows NT 10.0; Win64; x64) AppleWebKit/537.36 (KHTML, like Gecko) Chrome/138.0.0.0 Safari/537.36","WebKit","Chrome","138.0.0.0","Windows","10.0","https://app.prolific.com/","en-US,en;q=0.9","611cd5bfd7197f8a2a3682d1","687a19d2168e237449fb8af4","6889da0310e8941bd2d79ab2","0","611cd5bfd7197f8a2a3682d1","0","","","","","","","","","","","","","","","[{""page_index"":0,""viewing_time"":46752}]","","","","","","","","","","","","","","","","","","","","","","","","","","","",""
"21977","","<p>Before you start with this game please answer the following three questions yourself. </p>
  <p>Through this game, we measure several aspects of your cognitive performance, such as reaction times, multi-tasking capabilities </p>
  <p>and the ability to assess the situation you are in.</p>
  <p></p>
  <p><b>How good do you usually are in such tasks?</b></p>","70","html-slider-response","10","314032","0.0-6.0-0.0","31","1","2025-07-30 08:41:09","36c45c0696341be0efffe67d72a12abb","41.145.209.180","Mozilla/5.0 (Windows NT 10.0; Win64; x64) AppleWebKit/537.36 (KHTML, like Gecko) Chrome/138.0.0.0 Safari/537.36","WebKit","Chrome","138.0.0.0","Windows","10.0","https://app.prolific.com/","en-US,en;q=0.9","611cd5bfd7197f8a2a3682d1","687a19d2168e237449fb8af4","6889da0310e8941bd2d79ab2","0","611cd5bfd7197f8a2a3682d1","0","2025-07-30T08:46:26.328Z","","","","PreSkillQ","","","","","","","","","","","50","","","","","","","","","","","","","","","","","","","","","","","","","","",""
"5065","","<div style=""width:500px;"">
  <p>How well do you think you will perform in this task compared to other participants?</p>
  </div>","75","html-slider-response","11","319098","0.0-6.0-1.0","31","1","2025-07-30 08:41:09","36c45c0696341be0efffe67d72a12abb","41.145.209.180","Mozilla/5.0 (Windows NT 10.0; Win64; x64) AppleWebKit/537.36 (KHTML, like Gecko) Chrome/138.0.0.0 Safari/537.36","WebKit","Chrome","138.0.0.0","Windows","10.0","https://app.prolific.com/","en-US,en;q=0.9","611cd5bfd7197f8a2a3682d1","687a19d2168e237449fb8af4","6889da0310e8941bd2d79ab2","0","611cd5bfd7197f8a2a3682d1","0","2025-07-30T08:46:31.394Z","","","","PrePerfQ","","","","","","","","","","","50","","","","","","","","","","","","","","","","","","","","","","","","","","",""
"5756","","<div style=""width:500px;"">
  <p>What best describes how you currently feel?</p>
  </div>","71","html-slider-response","12","324855","0.0-6.0-2.0","31","1","2025-07-30 08:41:09","36c45c0696341be0efffe67d72a12abb","41.145.209.180","Mozilla/5.0 (Windows NT 10.0; Win64; x64) AppleWebKit/537.36 (KHTML, like Gecko) Chrome/138.0.0.0 Safari/537.36","WebKit","Chrome","138.0.0.0","Windows","10.0","https://app.prolific.com/","en-US,en;q=0.9","611cd5bfd7197f8a2a3682d1","687a19d2168e237449fb8af4","6889da0310e8941bd2d79ab2","0","611cd5bfd7197f8a2a3682d1","0","2025-07-30T08:46:37.151Z","","","","PreMotivationQ","","","","","","","","","","","50","","","","","","","","","","","","","","","","","","","","","","","","","","",""
"","","","","ctl-task-cpt","13","363921","0.0-7.0-0.0","31","1","2025-07-30 08:41:09","36c45c0696341be0efffe67d72a12abb","41.145.209.180","Mozilla/5.0 (Windows NT 10.0; Win64; x64) AppleWebKit/537.36 (KHTML, like Gecko) Chrome/138.0.0.0 Safari/537.36","WebKit","Chrome","138.0.0.0","Windows","10.0","https://app.prolific.com/","en-US,en;q=0.9","611cd5bfd7197f8a2a3682d1","687a19d2168e237449fb8af4","6889da0310e8941bd2d79ab2","0","611cd5bfd7197f8a2a3682d1","0","2025-07-30T08:47:16.217Z","","","","","","","","","","","","","","","","win-only","1","g1:NE,g2:SW","1","1","0","328214.8","9613.8","14617.2","36054.1","1","4","8","6","1","-1","-3","0","0","0","5003.4","3000","-2700","[""up"",""right""]","{""num_key_presses"":6,""num_perfect"":4,""num_errors"":2,""num_randdir"":0,""num_randdir_good_moves"":0,""num_whilered"":0,""num_whileblue"":1,""num_blue"":1,""num_good_moves"":4}","[413.57142857142856,422.47767857142856,0.3,413.57142857142856,422.47767857142856,101.8,413.57142857142856,422.47767857142856,202.8,413.57142857142856,422.47767857142856,308,413.57142857142856,422.47767857142856,408,413.57142857142856,422.47767857142856,508.5,413.57142857142856,422.47767857142856,611.6,413.57142857142856,422.47767857142856,712.5,413.57142857142856,422.47767857142856,817.3,413.57142857142856,422.47767857142856,923.6,413.57142857142856,422.47767857142856,1027.1,413.57142857142856,422.47767857142856,1128.1,413.57142857142856,422.47767857142856,1232.2,413.57142857142856,422.47767857142856,1340.2,413.57142857142856,422.47767857142856,1440.2,413.57142857142856,422.47767857142856,1540.2,413.57142857142856,422.47767857142856,1640.3,413.57142857142856,422.47767857142856,1741.7,413.57142857142856,422.47767857142856,1842.5,413.57142857142856,422.47767857142856,1947.1,413.57142857142856,422.47767857142856,2047.6,413.57142857142856,422.47767857142856,2148.2,413.57142857142856,422.47767857142856,2256.3,413.57142857142856,422.47767857142856,2356.8,413.57142857142856,422.47767857142856,2457.3,413.57142857142856,422.47767857142856,2562.3,413.57142857142856,422.47767857142856,2672.6,413.57142857142856,422.47767857142856,2777.1,413.57142857142856,422.47767857142856,2877.1,413.57142857142856,422.47767857142856,2977.1,413.57142857142856,422.47767857142856,3082.4,413.57142857142856,422.47767857142856,3188.7,413.57142857142856,422.47767857142856,3292.4,413.57142857142856,422.47767857142856,3392.6,413.57142857142856,422.47767857142856,3496.8,413.57142857142856,422.47767857142856,3604.5,413.57142857142856,422.47767857142856,3704.5,413.57142857142856,422.47767857142856,3807.5,413.57142857142856,422.47767857142856,3907.7,413.57142857142856,422.47767857142856,4008.2,413.57142857142856,422.47767857142856,4113.2,413.57142857142856,422.47767857142856,4221.1,413.57142857142856,422.47767857142856,4321.1,413.57142857142856,422.47767857142856,4421.7,413.57142857142856,422.47767857142856,4526.7,413.57142857142856,422.47767857142856,4637.5,413.57142857142856,422.47767857142856,4737.5,413.57142857142856,422.47767857142856,4842,413.57142857142856,422.47767857142856,4942]","[936.7,936.7,1000,0,-63.3,""error"",""-"",""-"",""no_move"",5378.9,4441.9,3022.6,1938.8,417.5,""smooth"",""right"",""right"",""good_move"",7510.5,2131.2,1727.7,5379.3,403.5,""smooth"",""up"",""up"",""good_move"",10247.4,2736.6,2423.3,7510.8,313.3,""while_blue"",""up"",""left"",""bad_move"",14211.1,3963.5,2747.5,10247.6,1216,""smooth"",""up"",""up"",""good_move"",18543.1,4331.8,3535.7,14211.3,796.1,""smooth"",""right"",""right"",""good_move""]"
"16743","","<div style=""width:500px;"">
  <p>What determined the result of this run?</p>
  </div>","100","html-slider-response","14","380664","0.0-7.0-1.0","31","1","2025-07-30 08:41:09","36c45c0696341be0efffe67d72a12abb","41.145.209.180","Mozilla/5.0 (Windows NT 10.0; Win64; x64) AppleWebKit/537.36 (KHTML, like Gecko) Chrome/138.0.0.0 Safari/537.36","WebKit","Chrome","138.0.0.0","Windows","10.0","https://app.prolific.com/","en-US,en;q=0.9","611cd5bfd7197f8a2a3682d1","687a19d2168e237449fb8af4","6889da0310e8941bd2d79ab2","0","611cd5bfd7197f8a2a3682d1","0","2025-07-30T08:47:32.960Z","","","","AttribQ","","","","","","","","","","","50","","","","","","","","","","","","","","","","","","","","","","","","","","",""
"6239","","<div style=""width:500px;"">
  <p>How much control did you have over the ball?</p>
  </div>","100","html-slider-response","15","386905","0.0-7.0-2.0","31","1","2025-07-30 08:41:09","36c45c0696341be0efffe67d72a12abb","41.145.209.180","Mozilla/5.0 (Windows NT 10.0; Win64; x64) AppleWebKit/537.36 (KHTML, like Gecko) Chrome/138.0.0.0 Safari/537.36","WebKit","Chrome","138.0.0.0","Windows","10.0","https://app.prolific.com/","en-US,en;q=0.9","611cd5bfd7197f8a2a3682d1","687a19d2168e237449fb8af4","6889da0310e8941bd2d79ab2","0","611cd5bfd7197f8a2a3682d1","0","2025-07-30T08:47:39.201Z","","","","ControlQ","","","","","","","","","","","50","","","","","","","","","","","","","","","","","","","","","","","","","","",""
"7408","","<div style=""width:500px;"">
  <p>How would you describe your current emotional state?</p>
  </div>","13","html-slider-response","16","394314","0.0-7.0-3.0","31","1","2025-07-30 08:41:09","36c45c0696341be0efffe67d72a12abb","41.145.209.180","Mozilla/5.0 (Windows NT 10.0; Win64; x64) AppleWebKit/537.36 (KHTML, like Gecko) Chrome/138.0.0.0 Safari/537.36","WebKit","Chrome","138.0.0.0","Windows","10.0","https://app.prolific.com/","en-US,en;q=0.9","611cd5bfd7197f8a2a3682d1","687a19d2168e237449fb8af4","6889da0310e8941bd2d79ab2","0","611cd5bfd7197f8a2a3682d1","0","2025-07-30T08:47:46.610Z","","","","StressQ","","","","","","","","","","","50","","","","","","","","","","","","","","","","","","","","","","","","","","",""
"9490","","<div style=""width:500px;"">
  <p>What best describes how you currently feel?</p>
  </div>","79","html-slider-response","17","403804","0.0-7.0-4.0","31","1","2025-07-30 08:41:09","36c45c0696341be0efffe67d72a12abb","41.145.209.180","Mozilla/5.0 (Windows NT 10.0; Win64; x64) AppleWebKit/537.36 (KHTML, like Gecko) Chrome/138.0.0.0 Safari/537.36","WebKit","Chrome","138.0.0.0","Windows","10.0","https://app.prolific.com/","en-US,en;q=0.9","611cd5bfd7197f8a2a3682d1","687a19d2168e237449fb8af4","6889da0310e8941bd2d79ab2","0","611cd5bfd7197f8a2a3682d1","0","2025-07-30T08:47:56.100Z","","","","MotivationQ","","","","","","","","","","","50","","","","","","","","","","","","","","","","","","","","","","","","","","",""
"","","","","ctl-task-cpt","18","438942","0.0-7.0-0.1","31","1","2025-07-30 08:41:09","36c45c0696341be0efffe67d72a12abb","41.145.209.180","Mozilla/5.0 (Windows NT 10.0; Win64; x64) AppleWebKit/537.36 (KHTML, like Gecko) Chrome/138.0.0.0 Safari/537.36","WebKit","Chrome","138.0.0.0","Windows","10.0","https://app.prolific.com/","en-US,en;q=0.9","611cd5bfd7197f8a2a3682d1","687a19d2168e237449fb8af4","6889da0310e8941bd2d79ab2","0","611cd5bfd7197f8a2a3682d1","0","2025-07-30T08:48:31.238Z","","","","","","","","","","","","","","","","win-only","3","g1:SW,g2:NE","0.9","2","0","407163.7","3827.2","8831.4","32120.1","1","4","4","6","2","-4","-4","0","0","0","5004.2","3000","-2580","[""up"",""right""]","{""num_key_presses"":6,""num_perfect"":5,""num_errors"":0,""num_randdir"":1,""num_randdir_good_moves"":0,""num_whilered"":0,""num_whileblue"":0,""num_blue"":1,""num_good_moves"":5}","[422.57142857142856,420.47767857142856,0.7,422.57142857142856,420.47767857142856,101.5,422.57142857142856,420.47767857142856,201.8,422.57142857142856,420.47767857142856,303.4,422.57142857142856,420.47767857142856,408.2,422.57142857142856,420.47767857142856,508.4,422.57142857142856,420.47767857142856,608.5,422.57142857142856,420.47767857142856,716.7,422.57142857142856,420.47767857142856,818.9,422.57142857142856,420.47767857142856,919.1,422.57142857142856,420.47767857142856,1023.9,422.57142857142856,420.47767857142856,1132.5,422.57142857142856,420.47767857142856,1232.6,422.57142857142856,420.47767857142856,1332.8,422.57142857142856,420.47767857142856,1434.6,422.57142857142856,420.47767857142856,1538.7,422.57142857142856,420.47767857142856,1649.5,422.57142857142856,420.47767857142856,1753.1,422.57142857142856,420.47767857142856,1854.3,422.57142857142856,420.47767857142856,1958.5,422.57142857142856,420.47767857142856,2068.2,422.57142857142856,420.47767857142856,2168.4,422.57142857142856,420.47767857142856,2273.6,422.57142857142856,420.47767857142856,2373.6,422.57142857142856,420.47767857142856,2473.7,422.57142857142856,420.47767857142856,2581.9,422.57142857142856,420.47767857142856,2683.9,422.57142857142856,420.47767857142856,2788.3,422.57142857142856,420.47767857142856,2888.9,422.57142857142856,420.47767857142856,2998,422.57142857142856,420.47767857142856,3098.1,422.57142857142856,420.47767857142856,3203.9,422.57142857142856,420.47767857142856,3314.4,422.57142857142856,420.47767857142856,3415.5,422.57142857142856,420.47767857142856,3518.8,422.57142857142856,420.47767857142856,3623.7,422.57142857142856,420.47767857142856,3731.3,422.57142857142856,420.47767857142856,3831.4,422.57142857142856,420.47767857142856,3934.6,422.57142857142856,420.47767857142856,4038.4,422.57142857142856,420.47767857142856,4139,422.57142857142856,420.47767857142856,4246.6,422.57142857142856,420.47767857142856,4347.1,422.57142857142856,420.47767857142856,4448.1,422.57142857142856,420.47767857142856,4548.5,422.57142857142856,420.47767857142856,4648.8,422.57142857142856,420.47767857142856,4753.5,422.57142857142856,420.47767857142856,4863.6,422.57142857142856,420.47767857142856,4968.8]","[1691,1691,1000,0,691,""smooth"",""up"",""up"",""good_move"",5121.7,3430.2,2703.6,1691.5,726.6,""smooth"",""up"",""up"",""good_move"",8616.8,3494.9,3056.1,5121.9,438.8,""oops"",""up"",""left"",""bad_move"",11365.1,2748,2136.6,8617.1,611.4,""smooth"",""up"",""up"",""good_move"",17260.2,5895.1,2324.6,14462.6,473,""smooth"",""right"",""right"",""good_move"",20424.2,3163.8,2815,17260.5,348.7,""smooth"",""right"",""right"",""good_move""]"
"7266","","<div style=""width:500px;"">
  <p>What determined the result of this run?</p>
  </div>","50","html-slider-response","19","446209","0.0-7.0-1.1","31","1","2025-07-30 08:41:09","36c45c0696341be0efffe67d72a12abb","41.145.209.180","Mozilla/5.0 (Windows NT 10.0; Win64; x64) AppleWebKit/537.36 (KHTML, like Gecko) Chrome/138.0.0.0 Safari/537.36","WebKit","Chrome","138.0.0.0","Windows","10.0","https://app.prolific.com/","en-US,en;q=0.9","611cd5bfd7197f8a2a3682d1","687a19d2168e237449fb8af4","6889da0310e8941bd2d79ab2","0","611cd5bfd7197f8a2a3682d1","0","2025-07-30T08:48:38.505Z","","","","AttribQ","","","","","","","","","","","50","","","","","","","","","","","","","","","","","","","","","","","","","","",""
"7169","","<div style=""width:500px;"">
  <p>How much control did you have over the ball?</p>
  </div>","59","html-slider-response","20","453379","0.0-7.0-2.1","31","1","2025-07-30 08:41:09","36c45c0696341be0efffe67d72a12abb","41.145.209.180","Mozilla/5.0 (Windows NT 10.0; Win64; x64) AppleWebKit/537.36 (KHTML, like Gecko) Chrome/138.0.0.0 Safari/537.36","WebKit","Chrome","138.0.0.0","Windows","10.0","https://app.prolific.com/","en-US,en;q=0.9","611cd5bfd7197f8a2a3682d1","687a19d2168e237449fb8af4","6889da0310e8941bd2d79ab2","0","611cd5bfd7197f8a2a3682d1","0","2025-07-30T08:48:45.676Z","","","","ControlQ","","","","","","","","","","","50","","","","","","","","","","","","","","","","","","","","","","","","","","",""
"6107","","<div style=""width:500px;"">
  <p>How would you describe your current emotional state?</p>
  </div>","15","html-slider-response","21","459487","0.0-7.0-3.1","31","1","2025-07-30 08:41:09","36c45c0696341be0efffe67d72a12abb","41.145.209.180","Mozilla/5.0 (Windows NT 10.0; Win64; x64) AppleWebKit/537.36 (KHTML, like Gecko) Chrome/138.0.0.0 Safari/537.36","WebKit","Chrome","138.0.0.0","Windows","10.0","https://app.prolific.com/","en-US,en;q=0.9","611cd5bfd7197f8a2a3682d1","687a19d2168e237449fb8af4","6889da0310e8941bd2d79ab2","0","611cd5bfd7197f8a2a3682d1","0","2025-07-30T08:48:51.783Z","","","","StressQ","","","","","","","","","","","50","","","","","","","","","","","","","","","","","","","","","","","","","","",""
"3614","","<div style=""width:500px;"">
  <p>What best describes how you currently feel?</p>
  </div>","80","html-slider-response","22","463102","0.0-7.0-4.1","31","1","2025-07-30 08:41:09","36c45c0696341be0efffe67d72a12abb","41.145.209.180","Mozilla/5.0 (Windows NT 10.0; Win64; x64) AppleWebKit/537.36 (KHTML, like Gecko) Chrome/138.0.0.0 Safari/537.36","WebKit","Chrome","138.0.0.0","Windows","10.0","https://app.prolific.com/","en-US,en;q=0.9","611cd5bfd7197f8a2a3682d1","687a19d2168e237449fb8af4","6889da0310e8941bd2d79ab2","0","611cd5bfd7197f8a2a3682d1","0","2025-07-30T08:48:55.398Z","","","","MotivationQ","","","","","","","","","","","50","","","","","","","","","","","","","","","","","","","","","","","","","","",""
"","","","","ctl-task-cpt","23","486536","0.0-7.0-0.2","31","1","2025-07-30 08:41:09","36c45c0696341be0efffe67d72a12abb","41.145.209.180","Mozilla/5.0 (Windows NT 10.0; Win64; x64) AppleWebKit/537.36 (KHTML, like Gecko) Chrome/138.0.0.0 Safari/537.36","WebKit","Chrome","138.0.0.0","Windows","10.0","https://app.prolific.com/","en-US,en;q=0.9","611cd5bfd7197f8a2a3682d1","687a19d2168e237449fb8af4","6889da0310e8941bd2d79ab2","0","611cd5bfd7197f8a2a3682d1","0","2025-07-30T08:49:18.832Z","","","","","","","","","","","","","","","","win-only","3","g1:SW,g2:NE","0.8","3","0","466461.7","4513.7","9516.3","20399","1","4","4","6","1","1","1","1","0","0.007575757575757576","5002.6","3000","1095","[""down"",""left""]","{""num_key_presses"":4,""num_perfect"":3,""num_errors"":0,""num_randdir"":1,""num_randdir_good_moves"":1,""num_whilered"":0,""num_whileblue"":0,""num_blue"":0,""num_good_moves"":4}","[417.57142857142856,424.47767857142856,0.1,417.57142857142856,424.47767857142856,102.4,417.57142857142856,424.47767857142856,217.5,417.57142857142856,424.47767857142856,322.2,417.57142857142856,424.47767857142856,434.9,417.57142857142856,424.47767857142856,537.1,417.57142857142856,424.47767857142856,637.5,417.57142857142856,424.47767857142856,748.8,417.57142857142856,424.47767857142856,850.4,417.57142857142856,424.47767857142856,951.7,417.57142857142856,424.47767857142856,1057.3,417.57142857142856,424.47767857142856,1166.6,417.57142857142856,424.47767857142856,1266.6,417.57142857142856,424.47767857142856,1366.7,417.57142857142856,424.47767857142856,1467.1,417.57142857142856,424.47767857142856,1567.5,417.57142857142856,424.47767857142856,1672,417.57142857142856,424.47767857142856,1772.3,417.57142857142856,424.47767857142856,1872.4,417.57142857142856,424.47767857142856,1973.2,417.57142857142856,424.47767857142856,2080.7,417.57142857142856,424.47767857142856,2182.3,417.57142857142856,424.47767857142856,2288,417.57142857142856,424.47767857142856,2391.9,417.57142857142856,424.47767857142856,2496.2,417.57142857142856,424.47767857142856,2597.2,417.57142857142856,424.47767857142856,2697.6,417.57142857142856,424.47767857142856,2798.2,417.57142857142856,424.47767857142856,2903,417.57142857142856,424.47767857142856,3013.6,417.57142857142856,424.47767857142856,3114.1,417.57142857142856,424.47767857142856,3217.2,417.57142857142856,424.47767857142856,3331.5,417.57142857142856,424.47767857142856,3431.5,417.57142857142856,424.47767857142856,3531.6,417.57142857142856,424.47767857142856,3631.9,417.57142857142856,424.47767857142856,3733.4,417.57142857142856,424.47767857142856,3836.6,417.57142857142856,424.47767857142856,3947.8,417.57142857142856,424.47767857142856,4052,417.57142857142856,424.47767857142856,4152.5,417.57142857142856,424.47767857142856,4265.2,417.57142857142856,424.47767857142856,4367.3,417.57142857142856,424.47767857142856,4472.1,417.57142857142856,424.47767857142856,4581.8,417.57142857142856,424.47767857142856,4682.1,417.57142857142856,424.47767857142856,4783.4,417.57142857142856,424.47767857142856,4887.9,417.57142857142856,424.47767857142856,4997.4]","[1857.8,1857.8,1000,0,857.8,""smooth"",""left"",""left"",""good_move"",5069.9,3211.6,2740.4,1858.3,471.2,""smooth"",""left"",""left"",""good_move"",7909.4,2839.3,2373.9,5070.1,465.4,""oops"",""down"",""down"",""good_move"",10783.1,2873.4,2253.4,7909.7,620,""smooth"",""down"",""down"",""good_move""]"
"5181","","<div style=""width:500px;"">
  <p>What determined the result of this run?</p>
  </div>","100","html-slider-response","24","491718","0.0-7.0-1.2","31","1","2025-07-30 08:41:09","36c45c0696341be0efffe67d72a12abb","41.145.209.180","Mozilla/5.0 (Windows NT 10.0; Win64; x64) AppleWebKit/537.36 (KHTML, like Gecko) Chrome/138.0.0.0 Safari/537.36","WebKit","Chrome","138.0.0.0","Windows","10.0","https://app.prolific.com/","en-US,en;q=0.9","611cd5bfd7197f8a2a3682d1","687a19d2168e237449fb8af4","6889da0310e8941bd2d79ab2","0","611cd5bfd7197f8a2a3682d1","0","2025-07-30T08:49:24.014Z","","","","AttribQ","","","","","","","","","","","50","","","","","","","","","","","","","","","","","","","","","","","","","","",""
"4630","","<div style=""width:500px;"">
  <p>How much control did you have over the ball?</p>
  </div>","100","html-slider-response","25","496349","0.0-7.0-2.2","31","1","2025-07-30 08:41:09","36c45c0696341be0efffe67d72a12abb","41.145.209.180","Mozilla/5.0 (Windows NT 10.0; Win64; x64) AppleWebKit/537.36 (KHTML, like Gecko) Chrome/138.0.0.0 Safari/537.36","WebKit","Chrome","138.0.0.0","Windows","10.0","https://app.prolific.com/","en-US,en;q=0.9","611cd5bfd7197f8a2a3682d1","687a19d2168e237449fb8af4","6889da0310e8941bd2d79ab2","0","611cd5bfd7197f8a2a3682d1","0","2025-07-30T08:49:28.645Z","","","","ControlQ","","","","","","","","","","","50","","","","","","","","","","","","","","","","","","","","","","","","","","",""
"6485","","<div style=""width:500px;"">
  <p>How would you describe your current emotional state?</p>
  </div>","7","html-slider-response","26","502835","0.0-7.0-3.2","31","1","2025-07-30 08:41:09","36c45c0696341be0efffe67d72a12abb","41.145.209.180","Mozilla/5.0 (Windows NT 10.0; Win64; x64) AppleWebKit/537.36 (KHTML, like Gecko) Chrome/138.0.0.0 Safari/537.36","WebKit","Chrome","138.0.0.0","Windows","10.0","https://app.prolific.com/","en-US,en;q=0.9","611cd5bfd7197f8a2a3682d1","687a19d2168e237449fb8af4","6889da0310e8941bd2d79ab2","0","611cd5bfd7197f8a2a3682d1","0","2025-07-30T08:49:35.131Z","","","","StressQ","","","","","","","","","","","50","","","","","","","","","","","","","","","","","","","","","","","","","","",""
"3756","","<div style=""width:500px;"">
  <p>What best describes how you currently feel?</p>
  </div>","92","html-slider-response","27","506592","0.0-7.0-4.2","31","1","2025-07-30 08:41:09","36c45c0696341be0efffe67d72a12abb","41.145.209.180","Mozilla/5.0 (Windows NT 10.0; Win64; x64) AppleWebKit/537.36 (KHTML, like Gecko) Chrome/138.0.0.0 Safari/537.36","WebKit","Chrome","138.0.0.0","Windows","10.0","https://app.prolific.com/","en-US,en;q=0.9","611cd5bfd7197f8a2a3682d1","687a19d2168e237449fb8af4","6889da0310e8941bd2d79ab2","0","611cd5bfd7197f8a2a3682d1","0","2025-07-30T08:49:38.888Z","","","","MotivationQ","","","","","","","","","","","50","","","","","","","","","","","","","","","","","","","","","","","","","","",""
"","","","","ctl-task-cpt","28","535780","0.0-7.0-0.3","31","1","2025-07-30 08:41:09","36c45c0696341be0efffe67d72a12abb","41.145.209.180","Mozilla/5.0 (Windows NT 10.0; Win64; x64) AppleWebKit/537.36 (KHTML, like Gecko) Chrome/138.0.0.0 Safari/537.36","WebKit","Chrome","138.0.0.0","Windows","10.0","https://app.prolific.com/","en-US,en;q=0.9","611cd5bfd7197f8a2a3682d1","687a19d2168e237449fb8af4","6889da0310e8941bd2d79ab2","0","611cd5bfd7197f8a2a3682d1","0","2025-07-30T08:50:08.076Z","","","","","","","","","","","","","","","","win-only","1","g1:NE,g2:SW","0.7","4","0","509951","5452","10456.1","26176.2","1","4","8","6","2","8","7","8","1","0.06060606060606061","5004.1","3000","1365","[""down"",""left""]","{""num_key_presses"":6,""num_perfect"":5,""num_errors"":1,""num_randdir"":0,""num_randdir_good_moves"":0,""num_whilered"":0,""num_whileblue"":1,""num_blue"":1,""num_good_moves"":6}","[423.57142857142856,413.47767857142856,0.3,423.57142857142856,413.47767857142856,103.9,423.57142857142856,413.47767857142856,204.1,423.57142857142856,413.47767857142856,308.8,423.57142857142856,413.47767857142856,420.1,423.57142857142856,413.47767857142856,520.4,423.57142857142856,413.47767857142856,620.6,423.57142857142856,413.47767857142856,724.2,423.57142857142856,413.47767857142856,828.9,423.57142857142856,413.47767857142856,928.9,423.57142857142856,413.47767857142856,1033.5,423.57142857142856,413.47767857142856,1139.2,423.57142857142856,413.47767857142856,1244.3,423.57142857142856,413.47767857142856,1348.2,423.57142857142856,413.47767857142856,1454.5,423.57142857142856,413.47767857142856,1558.8,423.57142857142856,413.47767857142856,1658.8,423.57142857142856,413.47767857142856,1763.5,423.57142857142856,413.47767857142856,1863.9,423.57142857142856,413.47767857142856,1963.9,423.57142857142856,413.47767857142856,2069.1,423.57142857142856,413.47767857142856,2185,423.57142857142856,413.47767857142856,2285.2,423.57142857142856,413.47767857142856,2388.4,423.57142857142856,413.47767857142856,2488.9,423.57142857142856,413.47767857142856,2588.9,423.57142857142856,413.47767857142856,2693.6,423.57142857142856,413.47767857142856,2798.8,423.57142857142856,413.47767857142856,2899.1,423.57142857142856,413.47767857142856,3004.1,423.57142857142856,413.47767857142856,3119.7,423.57142857142856,413.47767857142856,3223.5,423.57142857142856,413.47767857142856,3324,423.57142857142856,413.47767857142856,3428.4,423.57142857142856,413.47767857142856,3529.2,423.57142857142856,413.47767857142856,3633.4,423.57142857142856,413.47767857142856,3734.6,423.57142857142856,413.47767857142856,3835.9,423.57142857142856,413.47767857142856,3938.5,423.57142857142856,413.47767857142856,4038.7,423.57142857142856,413.47767857142856,4138.9,423.57142857142856,413.47767857142856,4243.7,423.57142857142856,413.47767857142856,4351.9,423.57142857142856,413.47767857142856,4455,423.57142857142856,413.47767857142856,4566.7,423.57142857142856,413.47767857142856,4668.5,423.57142857142856,413.47767857142856,4769.1,423.57142857142856,413.47767857142856,4879.3,423.57142857142856,413.47767857142856,4983.4]","[1350,1350,1000,0,350,""smooth"",""left"",""left"",""good_move"",3572.8,2222.4,1789.5,1350.4,432.9,""smooth"",""left"",""left"",""good_move"",6754,3180.9,2861.7,3573.1,319.2,""while_blue"",""left"",""down"",""good_move"",9751.8,2997.5,2440.6,6754.3,556.9,""smooth"",""left"",""left"",""good_move"",12833.7,3081.7,2580.4,9752,501.3,""smooth"",""down"",""down"",""good_move"",15604.2,2770.3,2323.9,12833.9,446.4,""smooth"",""down"",""down"",""good_move""]"
"4837","","<div style=""width:500px;"">
  <p>What determined the result of this run?</p>
  </div>","100","html-slider-response","29","540618","0.0-7.0-1.3","31","1","2025-07-30 08:41:09","36c45c0696341be0efffe67d72a12abb","41.145.209.180","Mozilla/5.0 (Windows NT 10.0; Win64; x64) AppleWebKit/537.36 (KHTML, like Gecko) Chrome/138.0.0.0 Safari/537.36","WebKit","Chrome","138.0.0.0","Windows","10.0","https://app.prolific.com/","en-US,en;q=0.9","611cd5bfd7197f8a2a3682d1","687a19d2168e237449fb8af4","6889da0310e8941bd2d79ab2","0","611cd5bfd7197f8a2a3682d1","0","2025-07-30T08:50:12.914Z","","","","AttribQ","","","","","","","","","","","50","","","","","","","","","","","","","","","","","","","","","","","","","","",""
"2670","","<div style=""width:500px;"">
  <p>How much control did you have over the ball?</p>
  </div>","100","html-slider-response","30","543289","0.0-7.0-2.3","31","1","2025-07-30 08:41:09","36c45c0696341be0efffe67d72a12abb","41.145.209.180","Mozilla/5.0 (Windows NT 10.0; Win64; x64) AppleWebKit/537.36 (KHTML, like Gecko) Chrome/138.0.0.0 Safari/537.36","WebKit","Chrome","138.0.0.0","Windows","10.0","https://app.prolific.com/","en-US,en;q=0.9","611cd5bfd7197f8a2a3682d1","687a19d2168e237449fb8af4","6889da0310e8941bd2d79ab2","0","611cd5bfd7197f8a2a3682d1","0","2025-07-30T08:50:15.585Z","","","","ControlQ","","","","","","","","","","","50","","","","","","","","","","","","","","","","","","","","","","","","","","",""
"4742","","<div style=""width:500px;"">
  <p>How would you describe your current emotional state?</p>
  </div>","4","html-slider-response","31","548032","0.0-7.0-3.3","31","1","2025-07-30 08:41:09","36c45c0696341be0efffe67d72a12abb","41.145.209.180","Mozilla/5.0 (Windows NT 10.0; Win64; x64) AppleWebKit/537.36 (KHTML, like Gecko) Chrome/138.0.0.0 Safari/537.36","WebKit","Chrome","138.0.0.0","Windows","10.0","https://app.prolific.com/","en-US,en;q=0.9","611cd5bfd7197f8a2a3682d1","687a19d2168e237449fb8af4","6889da0310e8941bd2d79ab2","0","611cd5bfd7197f8a2a3682d1","0","2025-07-30T08:50:20.328Z","","","","StressQ","","","","","","","","","","","50","","","","","","","","","","","","","","","","","","","","","","","","","","",""
"6409","","<div style=""width:500px;"">
  <p>What best describes how you currently feel?</p>
  </div>","93","html-slider-response","32","554443","0.0-7.0-4.3","31","1","2025-07-30 08:41:09","36c45c0696341be0efffe67d72a12abb","41.145.209.180","Mozilla/5.0 (Windows NT 10.0; Win64; x64) AppleWebKit/537.36 (KHTML, like Gecko) Chrome/138.0.0.0 Safari/537.36","WebKit","Chrome","138.0.0.0","Windows","10.0","https://app.prolific.com/","en-US,en;q=0.9","611cd5bfd7197f8a2a3682d1","687a19d2168e237449fb8af4","6889da0310e8941bd2d79ab2","0","611cd5bfd7197f8a2a3682d1","0","2025-07-30T08:50:26.739Z","","","","MotivationQ","","","","","","","","","","","50","","","","","","","","","","","","","","","","","","","","","","","","","","",""
"","","","","ctl-task-cpt","33","579419","0.0-7.0-0.4","31","1","2025-07-30 08:41:09","36c45c0696341be0efffe67d72a12abb","41.145.209.180","Mozilla/5.0 (Windows NT 10.0; Win64; x64) AppleWebKit/537.36 (KHTML, like Gecko) Chrome/138.0.0.0 Safari/537.36","WebKit","Chrome","138.0.0.0","Windows","10.0","https://app.prolific.com/","en-US,en;q=0.9","611cd5bfd7197f8a2a3682d1","687a19d2168e237449fb8af4","6889da0310e8941bd2d79ab2","0","611cd5bfd7197f8a2a3682d1","0","2025-07-30T08:50:51.715Z","","","","","","","","","","","","","","","","win-only","1","g1:NE,g2:SW","0.6","5","0","557802.4","2070.9","7071.7","21955.8","1","4","8","6","1","1","1","9","8","0.06818181818181818","5000.8","3000","695","[""up"",""right""]","{""num_key_presses"":4,""num_perfect"":3,""num_errors"":0,""num_randdir"":1,""num_randdir_good_moves"":1,""num_whilered"":0,""num_whileblue"":0,""num_blue"":1,""num_good_moves"":4}","[413.57142857142856,423.47767857142856,0.2,413.57142857142856,423.47767857142856,100,413.57142857142856,423.47767857142856,204.7,413.57142857142856,423.47767857142856,310.7,413.57142857142856,423.47767857142856,411,413.57142857142856,423.47767857142856,511.1,413.57142857142856,423.47767857142856,611.8,413.57142857142856,423.47767857142856,714.5,413.57142857142856,423.47767857142856,814.6,413.57142857142856,423.47767857142856,915.8,413.57142857142856,423.47767857142856,1017.3,413.57142857142856,423.47767857142856,1133.6,413.57142857142856,423.47767857142856,1235,413.57142857142856,423.47767857142856,1339.8,413.57142857142856,423.47767857142856,1441.2,413.57142857142856,423.47767857142856,1545.3,413.57142857142856,423.47767857142856,1663.3,413.57142857142856,423.47767857142856,1763.8,413.57142857142856,423.47767857142856,1864.4,413.57142857142856,423.47767857142856,1965.6,413.57142857142856,423.47767857142856,2082.4,413.57142857142856,423.47767857142856,2197.9,413.57142857142856,423.47767857142856,2300.3,413.57142857142856,423.47767857142856,2404.5,413.57142857142856,423.47767857142856,2504.9,413.57142857142856,423.47767857142856,2607,413.57142857142856,423.47767857142856,2710.3,413.57142857142856,423.47767857142856,2814.4,413.57142857142856,423.47767857142856,2930.5,413.57142857142856,423.47767857142856,3034.9,413.57142857142856,423.47767857142856,3134.9,413.57142857142856,423.47767857142856,3249.1,413.57142857142856,423.47767857142856,3364.2,413.57142857142856,423.47767857142856,3465,413.57142857142856,423.47767857142856,3577.8,413.57142857142856,423.47767857142856,3678.6,413.57142857142856,423.47767857142856,3779.4,413.57142857142856,423.47767857142856,3879.4,413.57142857142856,423.47767857142856,3985.4,413.57142857142856,423.47767857142856,4085.4,413.57142857142856,423.47767857142856,4193.7,413.57142857142856,423.47767857142856,4294.9,413.57142857142856,423.47767857142856,4395.8,413.57142857142856,423.47767857142856,4513.2,413.57142857142856,423.47767857142856,4629.8,413.57142857142856,423.47767857142856,4735,413.57142857142856,423.47767857142856,4842.5,413.57142857142856,423.47767857142856,4949.2]","[2688.2,2688.2,1000,0,1688.2,""oops"",""right"",""up"",""good_move"",5385.9,2697.2,2311.8,2688.7,385.4,""smooth"",""right"",""right"",""good_move"",11481,6094.8,1763.9,9233.9,483.2,""smooth"",""right"",""right"",""good_move"",14784.9,3303.7,2851.2,11481.2,452.5,""smooth"",""up"",""up"",""good_move""]"
"4727","","<div style=""width:500px;"">
  <p>What determined the result of this run?</p>
  </div>","96","html-slider-response","34","584148","0.0-7.0-1.4","31","1","2025-07-30 08:41:09","36c45c0696341be0efffe67d72a12abb","41.145.209.180","Mozilla/5.0 (Windows NT 10.0; Win64; x64) AppleWebKit/537.36 (KHTML, like Gecko) Chrome/138.0.0.0 Safari/537.36","WebKit","Chrome","138.0.0.0","Windows","10.0","https://app.prolific.com/","en-US,en;q=0.9","611cd5bfd7197f8a2a3682d1","687a19d2168e237449fb8af4","6889da0310e8941bd2d79ab2","0","611cd5bfd7197f8a2a3682d1","0","2025-07-30T08:50:56.444Z","","","","AttribQ","","","","","","","","","","","50","","","","","","","","","","","","","","","","","","","","","","","","","","",""
"10565","","<div style=""width:500px;"">
  <p>How much control did you have over the ball?</p>
  </div>","93","html-slider-response","35","594714","0.0-7.0-2.4","31","1","2025-07-30 08:41:09","36c45c0696341be0efffe67d72a12abb","41.145.209.180","Mozilla/5.0 (Windows NT 10.0; Win64; x64) AppleWebKit/537.36 (KHTML, like Gecko) Chrome/138.0.0.0 Safari/537.36","WebKit","Chrome","138.0.0.0","Windows","10.0","https://app.prolific.com/","en-US,en;q=0.9","611cd5bfd7197f8a2a3682d1","687a19d2168e237449fb8af4","6889da0310e8941bd2d79ab2","0","611cd5bfd7197f8a2a3682d1","0","2025-07-30T08:51:07.010Z","","","","ControlQ","","","","","","","","","","","50","","","","","","","","","","","","","","","","","","","","","","","","","","",""
"3716","","<div style=""width:500px;"">
  <p>How would you describe your current emotional state?</p>
  </div>","4","html-slider-response","36","598430","0.0-7.0-3.4","31","1","2025-07-30 08:41:09","36c45c0696341be0efffe67d72a12abb","41.145.209.180","Mozilla/5.0 (Windows NT 10.0; Win64; x64) AppleWebKit/537.36 (KHTML, like Gecko) Chrome/138.0.0.0 Safari/537.36","WebKit","Chrome","138.0.0.0","Windows","10.0","https://app.prolific.com/","en-US,en;q=0.9","611cd5bfd7197f8a2a3682d1","687a19d2168e237449fb8af4","6889da0310e8941bd2d79ab2","0","611cd5bfd7197f8a2a3682d1","0","2025-07-30T08:51:10.727Z","","","","StressQ","","","","","","","","","","","50","","","","","","","","","","","","","","","","","","","","","","","","","","",""
"4772","","<div style=""width:500px;"">
  <p>What best describes how you currently feel?</p>
  </div>","98","html-slider-response","37","603204","0.0-7.0-4.4","31","1","2025-07-30 08:41:09","36c45c0696341be0efffe67d72a12abb","41.145.209.180","Mozilla/5.0 (Windows NT 10.0; Win64; x64) AppleWebKit/537.36 (KHTML, like Gecko) Chrome/138.0.0.0 Safari/537.36","WebKit","Chrome","138.0.0.0","Windows","10.0","https://app.prolific.com/","en-US,en;q=0.9","611cd5bfd7197f8a2a3682d1","687a19d2168e237449fb8af4","6889da0310e8941bd2d79ab2","0","611cd5bfd7197f8a2a3682d1","0","2025-07-30T08:51:15.500Z","","","","MotivationQ","","","","","","","","","","","50","","","","","","","","","","","","","","","","","","","","","","","","","","",""
"","","","","ctl-task-cpt","38","644600","0.0-7.0-0.5","31","1","2025-07-30 08:41:09","36c45c0696341be0efffe67d72a12abb","41.145.209.180","Mozilla/5.0 (Windows NT 10.0; Win64; x64) AppleWebKit/537.36 (KHTML, like Gecko) Chrome/138.0.0.0 Safari/537.36","WebKit","Chrome","138.0.0.0","Windows","10.0","https://app.prolific.com/","en-US,en;q=0.9","611cd5bfd7197f8a2a3682d1","687a19d2168e237449fb8af4","6889da0310e8941bd2d79ab2","0","611cd5bfd7197f8a2a3682d1","0","2025-07-30T08:51:56.896Z","","","","","","","","","","","","","","","","win-only","1","g1:NE,g2:SW","0.5","6","0","606563.1","1756.4","6757.6","38385.7","1","4","4","6","2","-4","-4","5","9","0.03787878787878788","5001.2","3000","-2095","[""down"",""left""]","{""num_key_presses"":8,""num_perfect"":3,""num_errors"":0,""num_randdir"":5,""num_randdir_good_moves"":2,""num_whilered"":0,""num_whileblue"":0,""num_blue"":2,""num_good_moves"":5}","[421.57142857142856,420.47767857142856,0.2,421.57142857142856,420.47767857142856,117.4,421.57142857142856,420.47767857142856,221.7,421.57142857142856,420.47767857142856,329,421.57142857142856,420.47767857142856,442.2,421.57142857142856,420.47767857142856,561.1,421.57142857142856,420.47767857142856,664.4,421.57142857142856,420.47767857142856,769.2,421.57142857142856,420.47767857142856,874.8,421.57142857142856,420.47767857142856,974.8,421.57142857142856,420.47767857142856,1075.1,421.57142857142856,420.47767857142856,1179.2,421.57142857142856,420.47767857142856,1279.5,421.57142857142856,420.47767857142856,1392,421.57142857142856,420.47767857142856,1504.9,421.57142857142856,420.47767857142856,1608.9,421.57142857142856,420.47767857142856,1710.7,421.57142857142856,420.47767857142856,1814.4,421.57142857142856,420.47767857142856,1919.2,421.57142857142856,420.47767857142856,2019.5,421.57142857142856,420.47767857142856,2119.9,421.57142857142856,420.47767857142856,2225.1,421.57142857142856,420.47767857142856,2338.6,421.57142857142856,420.47767857142856,2439.2,421.57142857142856,420.47767857142856,2544.2,421.57142857142856,420.47767857142856,2647.7,421.57142857142856,420.47767857142856,2748.8,421.57142857142856,420.47767857142856,2848.9,421.57142857142856,420.47767857142856,2949.2,421.57142857142856,420.47767857142856,3049.6,421.57142857142856,420.47767857142856,3153.7,421.57142857142856,420.47767857142856,3254.8,421.57142857142856,420.47767857142856,3359.5,421.57142857142856,420.47767857142856,3464.5,421.57142857142856,420.47767857142856,3564.5,421.57142857142856,420.47767857142856,3669.4,421.57142857142856,420.47767857142856,3769.4,421.57142857142856,420.47767857142856,3874.3,421.57142857142856,420.47767857142856,3990.5,421.57142857142856,420.47767857142856,4095.9,421.57142857142856,420.47767857142856,4199.3,421.57142857142856,420.47767857142856,4304.9,421.57142857142856,420.47767857142856,4411.1,421.57142857142856,420.47767857142856,4512.7,421.57142857142856,420.47767857142856,4614.6,421.57142857142856,420.47767857142856,4714.7,421.57142857142856,420.47767857142856,4824.9,421.57142857142856,420.47767857142856,4929.9]","[1483.1,1483.1,1000,0,483.1,""oops"",""left"",""up"",""bad_move"",4480.3,2996.8,2582.3,1483.6,414.4,""smooth"",""left"",""left"",""good_move"",7887.6,3406.9,3000.8,4480.7,406.1,""oops"",""left"",""left"",""good_move"",14836.1,6948.3,2938.3,11493.7,404.1,""oops"",""left"",""up"",""bad_move"",17348.8,2512.4,1929.6,14836.4,582.8,""oops"",""left"",""right"",""bad_move"",20696.8,3347.6,2984.5,17349.2,363.1,""oops"",""left"",""left"",""good_move"",23298.4,2601.3,2168,20697.1,433.3,""smooth"",""left"",""left"",""good_move"",28926.4,5627.9,1754.8,26549,622.6,""smooth"",""down"",""down"",""good_move""]"
"12730","","<div style=""width:500px;"">
  <p>What determined the result of this run?</p>
  </div>","48","html-slider-response","39","657332","0.0-7.0-1.5","31","1","2025-07-30 08:41:09","36c45c0696341be0efffe67d72a12abb","41.145.209.180","Mozilla/5.0 (Windows NT 10.0; Win64; x64) AppleWebKit/537.36 (KHTML, like Gecko) Chrome/138.0.0.0 Safari/537.36","WebKit","Chrome","138.0.0.0","Windows","10.0","https://app.prolific.com/","en-US,en;q=0.9","611cd5bfd7197f8a2a3682d1","687a19d2168e237449fb8af4","6889da0310e8941bd2d79ab2","0","611cd5bfd7197f8a2a3682d1","0","2025-07-30T08:52:09.628Z","","","","AttribQ","","","","","","","","","","","50","","","","","","","","","","","","","","","","","","","","","","","","","","",""
"5402","","<div style=""width:500px;"">
  <p>How much control did you have over the ball?</p>
  </div>","66","html-slider-response","40","662735","0.0-7.0-2.5","31","1","2025-07-30 08:41:09","36c45c0696341be0efffe67d72a12abb","41.145.209.180","Mozilla/5.0 (Windows NT 10.0; Win64; x64) AppleWebKit/537.36 (KHTML, like Gecko) Chrome/138.0.0.0 Safari/537.36","WebKit","Chrome","138.0.0.0","Windows","10.0","https://app.prolific.com/","en-US,en;q=0.9","611cd5bfd7197f8a2a3682d1","687a19d2168e237449fb8af4","6889da0310e8941bd2d79ab2","0","611cd5bfd7197f8a2a3682d1","0","2025-07-30T08:52:15.031Z","","","","ControlQ","","","","","","","","","","","50","","","","","","","","","","","","","","","","","","","","","","","","","","",""
"20523","","<div style=""width:500px;"">
  <p>How would you describe your current emotional state?</p>
  </div>","80","html-slider-response","41","683259","0.0-7.0-3.5","31","1","2025-07-30 08:41:09","36c45c0696341be0efffe67d72a12abb","41.145.209.180","Mozilla/5.0 (Windows NT 10.0; Win64; x64) AppleWebKit/537.36 (KHTML, like Gecko) Chrome/138.0.0.0 Safari/537.36","WebKit","Chrome","138.0.0.0","Windows","10.0","https://app.prolific.com/","en-US,en;q=0.9","611cd5bfd7197f8a2a3682d1","687a19d2168e237449fb8af4","6889da0310e8941bd2d79ab2","0","611cd5bfd7197f8a2a3682d1","0","2025-07-30T08:52:35.555Z","","","","StressQ","","","","","","","","","","","50","","","","","","","","","","","","","","","","","","","","","","","","","","",""
"5353","","<div style=""width:500px;"">
  <p>What best describes how you currently feel?</p>
  </div>","86","html-slider-response","42","688614","0.0-7.0-4.5","31","1","2025-07-30 08:41:09","36c45c0696341be0efffe67d72a12abb","41.145.209.180","Mozilla/5.0 (Windows NT 10.0; Win64; x64) AppleWebKit/537.36 (KHTML, like Gecko) Chrome/138.0.0.0 Safari/537.36","WebKit","Chrome","138.0.0.0","Windows","10.0","https://app.prolific.com/","en-US,en;q=0.9","611cd5bfd7197f8a2a3682d1","687a19d2168e237449fb8af4","6889da0310e8941bd2d79ab2","0","611cd5bfd7197f8a2a3682d1","0","2025-07-30T08:52:40.910Z","","","","MotivationQ","","","","","","","","","","","50","","","","","","","","","","","","","","","","","","","","","","","","","","",""
"","","","","ctl-task-cpt","43","736816","0.0-7.0-0.6","31","1","2025-07-30 08:41:09","36c45c0696341be0efffe67d72a12abb","41.145.209.180","Mozilla/5.0 (Windows NT 10.0; Win64; x64) AppleWebKit/537.36 (KHTML, like Gecko) Chrome/138.0.0.0 Safari/537.36","WebKit","Chrome","138.0.0.0","Windows","10.0","https://app.prolific.com/","en-US,en;q=0.9","611cd5bfd7197f8a2a3682d1","687a19d2168e237449fb8af4","6889da0310e8941bd2d79ab2","0","611cd5bfd7197f8a2a3682d1","0","2025-07-30T08:53:29.113Z","","","","","","","","","","","","","","","","win-only","2","g1:SE,g2:NW","0.4","7","0","691973","7287.3","12290.8","45180.8","1","4","4","6","1","-1","-1","4","5","0.030303030303030304","5003.4","3000","-1990","[""down"",""right""]","{""num_key_presses"":11,""num_perfect"":4,""num_errors"":0,""num_randdir"":7,""num_randdir_good_moves"":2,""num_whilered"":0,""num_whileblue"":0,""num_blue"":0,""num_good_moves"":6}","[417.57142857142856,423.47767857142856,0.3,417.57142857142856,423.47767857142856,103.2,417.57142857142856,423.47767857142856,212.4,417.57142857142856,423.47767857142856,314.8,417.57142857142856,423.47767857142856,418.8,417.57142857142856,423.47767857142856,526.4,417.57142857142856,423.47767857142856,643.5,417.57142857142856,423.47767857142856,743.8,417.57142857142856,423.47767857142856,847,417.57142857142856,423.47767857142856,964.2,417.57142857142856,423.47767857142856,1068.7,417.57142857142856,423.47767857142856,1175.5,417.57142857142856,423.47767857142856,1295.1,417.57142857142856,423.47767857142856,1396.3,417.57142857142856,423.47767857142856,1496.6,417.57142857142856,423.47767857142856,1608.9,417.57142857142856,423.47767857142856,1709.8,417.57142857142856,423.47767857142856,1811.7,417.57142857142856,423.47767857142856,1922.3,417.57142857142856,423.47767857142856,2023.9,417.57142857142856,423.47767857142856,2140.3,417.57142857142856,423.47767857142856,2243.5,417.57142857142856,423.47767857142856,2355.4,417.57142857142856,423.47767857142856,2475,417.57142857142856,423.47767857142856,2578.9,417.57142857142856,423.47767857142856,2684,417.57142857142856,423.47767857142856,2788.1,417.57142857142856,423.47767857142856,2888.9,417.57142857142856,423.47767857142856,3004.5,417.57142857142856,423.47767857142856,3112.4,417.57142857142856,423.47767857142856,3213.2,417.57142857142856,423.47767857142856,3318.3,417.57142857142856,423.47767857142856,3418.3,417.57142857142856,423.47767857142856,3536.9,417.57142857142856,423.47767857142856,3638.2,417.57142857142856,423.47767857142856,3738.5,417.57142857142856,423.47767857142856,3843.1,417.57142857142856,423.47767857142856,3944.1,417.57142857142856,423.47767857142856,4047.9,417.57142857142856,423.47767857142856,4148.7,417.57142857142856,423.47767857142856,4253.3,417.57142857142856,423.47767857142856,4353.4,417.57142857142856,423.47767857142856,4453.6,417.57142857142856,423.47767857142856,4553.8,417.57142857142856,423.47767857142856,4660,417.57142857142856,423.47767857142856,4775,417.57142857142856,423.47767857142856,4893,417.57142857142856,423.47767857142856,4998.3]","[1850.3,1850.3,1000,0,850.3,""smooth"",""down"",""down"",""good_move"",4600.3,2749.7,2386.7,1850.7,363,""oops"",""down"",""left"",""bad_move"",7293.9,2693.1,2345.9,4600.9,347.1,""smooth"",""down"",""down"",""good_move"",10391.8,3097.7,2794.1,7294.1,303.6,""smooth"",""right"",""right"",""good_move"",13376.6,2984.4,2554.8,10392.2,429.6,""oops"",""right"",""right"",""good_move"",16145.1,2768.1,2312.9,13377,455.2,""oops"",""right"",""up"",""bad_move"",19020.9,2875.4,2447.3,16145.5,428.1,""smooth"",""right"",""right"",""good_move"",21602.4,2581.3,2216.9,19021.1,364.4,""oops"",""down"",""up"",""bad_move"",24498.9,2896.1,2567.9,21602.8,328.2,""oops"",""down"",""down"",""good_move"",27467.7,2968.5,2683.6,24499.2,284.9,""oops"",""down"",""up"",""bad_move"",30354.2,2886.3,2536.9,27467.9,349.4,""oops"",""down"",""left"",""bad_move""]"
"7991","","<div style=""width:500px;"">
  <p>What determined the result of this run?</p>
  </div>","16","html-slider-response","44","744808","0.0-7.0-1.6","31","1","2025-07-30 08:41:09","36c45c0696341be0efffe67d72a12abb","41.145.209.180","Mozilla/5.0 (Windows NT 10.0; Win64; x64) AppleWebKit/537.36 (KHTML, like Gecko) Chrome/138.0.0.0 Safari/537.36","WebKit","Chrome","138.0.0.0","Windows","10.0","https://app.prolific.com/","en-US,en;q=0.9","611cd5bfd7197f8a2a3682d1","687a19d2168e237449fb8af4","6889da0310e8941bd2d79ab2","0","611cd5bfd7197f8a2a3682d1","0","2025-07-30T08:53:37.104Z","","","","AttribQ","","","","","","","","","","","50","","","","","","","","","","","","","","","","","","","","","","","","","","",""
"10196","","<div style=""width:500px;"">
  <p>How much control did you have over the ball?</p>
  </div>","55","html-slider-response","45","755006","0.0-7.0-2.6","31","1","2025-07-30 08:41:09","36c45c0696341be0efffe67d72a12abb","41.145.209.180","Mozilla/5.0 (Windows NT 10.0; Win64; x64) AppleWebKit/537.36 (KHTML, like Gecko) Chrome/138.0.0.0 Safari/537.36","WebKit","Chrome","138.0.0.0","Windows","10.0","https://app.prolific.com/","en-US,en;q=0.9","611cd5bfd7197f8a2a3682d1","687a19d2168e237449fb8af4","6889da0310e8941bd2d79ab2","0","611cd5bfd7197f8a2a3682d1","0","2025-07-30T08:53:47.302Z","","","","ControlQ","","","","","","","","","","","50","","","","","","","","","","","","","","","","","","","","","","","","","","",""
"3432","","<div style=""width:500px;"">
  <p>How would you describe your current emotional state?</p>
  </div>","12","html-slider-response","46","758439","0.0-7.0-3.6","31","1","2025-07-30 08:41:09","36c45c0696341be0efffe67d72a12abb","41.145.209.180","Mozilla/5.0 (Windows NT 10.0; Win64; x64) AppleWebKit/537.36 (KHTML, like Gecko) Chrome/138.0.0.0 Safari/537.36","WebKit","Chrome","138.0.0.0","Windows","10.0","https://app.prolific.com/","en-US,en;q=0.9","611cd5bfd7197f8a2a3682d1","687a19d2168e237449fb8af4","6889da0310e8941bd2d79ab2","0","611cd5bfd7197f8a2a3682d1","0","2025-07-30T08:53:50.735Z","","","","StressQ","","","","","","","","","","","50","","","","","","","","","","","","","","","","","","","","","","","","","","",""
"3594","","<div style=""width:500px;"">
  <p>What best describes how you currently feel?</p>
  </div>","82","html-slider-response","47","762034","0.0-7.0-4.6","31","1","2025-07-30 08:41:09","36c45c0696341be0efffe67d72a12abb","41.145.209.180","Mozilla/5.0 (Windows NT 10.0; Win64; x64) AppleWebKit/537.36 (KHTML, like Gecko) Chrome/138.0.0.0 Safari/537.36","WebKit","Chrome","138.0.0.0","Windows","10.0","https://app.prolific.com/","en-US,en;q=0.9","611cd5bfd7197f8a2a3682d1","687a19d2168e237449fb8af4","6889da0310e8941bd2d79ab2","0","611cd5bfd7197f8a2a3682d1","0","2025-07-30T08:53:54.331Z","","","","MotivationQ","","","","","","","","","","","50","","","","","","","","","","","","","","","","","","","","","","","","","","",""
"","","","","ctl-task-cpt","48","820769","0.0-7.0-0.7","31","1","2025-07-30 08:41:09","36c45c0696341be0efffe67d72a12abb","41.145.209.180","Mozilla/5.0 (Windows NT 10.0; Win64; x64) AppleWebKit/537.36 (KHTML, like Gecko) Chrome/138.0.0.0 Safari/537.36","WebKit","Chrome","138.0.0.0","Windows","10.0","https://app.prolific.com/","en-US,en;q=0.9","611cd5bfd7197f8a2a3682d1","687a19d2168e237449fb8af4","6889da0310e8941bd2d79ab2","0","611cd5bfd7197f8a2a3682d1","0","2025-07-30T08:54:53.065Z","","","","","","","","","","","","","","","","win-only","3","g1:SW,g2:NE","0.3","8","0","765394.4","12774.2","17782","55706.4","1","4","8","6","2","-8","-8","0","4","0","5007.8","3000","-1835","[""up"",""right""]","{""num_key_presses"":10,""num_perfect"":3,""num_errors"":0,""num_randdir"":7,""num_randdir_good_moves"":4,""num_whilered"":0,""num_whileblue"":0,""num_blue"":2,""num_good_moves"":7}","[417.57142857142856,423.47767857142856,0.3,417.57142857142856,423.47767857142856,101.8,417.57142857142856,423.47767857142856,206.7,417.57142857142856,423.47767857142856,312,417.57142857142856,423.47767857142856,415.8,417.57142857142856,423.47767857142856,516.5,417.57142857142856,423.47767857142856,620.8,417.57142857142856,423.47767857142856,737.5,417.57142857142856,423.47767857142856,841.7,417.57142857142856,423.47767857142856,948.9,417.57142857142856,423.47767857142856,1051.1,417.57142857142856,423.47767857142856,1154.4,417.57142857142856,423.47767857142856,1272.4,417.57142857142856,423.47767857142856,1376.8,417.57142857142856,423.47767857142856,1477.8,417.57142857142856,423.47767857142856,1581,417.57142857142856,423.47767857142856,1681.9,417.57142857142856,423.47767857142856,1801.7,417.57142857142856,423.47767857142856,1907.5,417.57142857142856,423.47767857142856,2012.2,417.57142857142856,423.47767857142856,2130.2,417.57142857142856,423.47767857142856,2231.2,417.57142857142856,423.47767857142856,2331.8,417.57142857142856,423.47767857142856,2436.6,417.57142857142856,423.47767857142856,2536.8,417.57142857142856,423.47767857142856,2659.7,417.57142857142856,423.47767857142856,2762.9,417.57142857142856,423.47767857142856,2866.2,417.57142857142856,423.47767857142856,2966.4,417.57142857142856,423.47767857142856,3083.6,417.57142857142856,423.47767857142856,3202.9,417.57142857142856,423.47767857142856,3306.5,417.57142857142856,423.47767857142856,3411.5,417.57142857142856,423.47767857142856,3523.8,417.57142857142856,423.47767857142856,3647.3,417.57142857142856,423.47767857142856,3747.6,417.57142857142856,423.47767857142856,3859.9,417.57142857142856,423.47767857142856,3961.5,417.57142857142856,423.47767857142856,4061.5,417.57142857142856,423.47767857142856,4162.7,417.57142857142856,423.47767857142856,4266.1,417.57142857142856,423.47767857142856,4366.6,417.57142857142856,423.47767857142856,4477.3,417.57142857142856,423.47767857142856,4581.7,417.57142857142856,423.47767857142856,4695.7,417.57142857142856,423.47767857142856,4803.7,417.57142857142856,423.47767857142856,4913.8]","[1540.7,1540.7,1000,0,540.7,""smooth"",""up"",""up"",""good_move"",3540.1,1998.8,1582.3,1541.3,416.5,""oops"",""up"",""right"",""good_move"",7156.3,3615.6,3196.9,3540.7,418.7,""oops"",""up"",""right"",""good_move"",10321.5,3164.9,2631.7,7156.6,533.2,""oops"",""up"",""down"",""bad_move"",19778.5,9456.6,1731.7,17488.4,558.4,""oops"",""up"",""down"",""bad_move"",22982.5,3203.9,2813.5,19778.6,390.4,""oops"",""up"",""up"",""good_move"",26156.5,3173.8,2640.1,22982.7,533.7,""oops"",""up"",""up"",""good_move"",29024.5,2867.9,2445.4,26156.7,422.5,""oops"",""up"",""down"",""bad_move"",32079.6,3054.8,2516.5,29024.8,538.3,""smooth"",""up"",""up"",""good_move"",35159.1,3079.5,2603.7,32079.7,475.8,""smooth"",""up"",""up"",""good_move""]"
"11584","","<div style=""width:500px;"">
  <p>What determined the result of this run?</p>
  </div>","19","html-slider-response","49","832353","0.0-7.0-1.7","31","1","2025-07-30 08:41:09","36c45c0696341be0efffe67d72a12abb","41.145.209.180","Mozilla/5.0 (Windows NT 10.0; Win64; x64) AppleWebKit/537.36 (KHTML, like Gecko) Chrome/138.0.0.0 Safari/537.36","WebKit","Chrome","138.0.0.0","Windows","10.0","https://app.prolific.com/","en-US,en;q=0.9","611cd5bfd7197f8a2a3682d1","687a19d2168e237449fb8af4","6889da0310e8941bd2d79ab2","0","611cd5bfd7197f8a2a3682d1","0","2025-07-30T08:55:04.649Z","","","","AttribQ","","","","","","","","","","","50","","","","","","","","","","","","","","","","","","","","","","","","","","",""
"15023","","<div style=""width:500px;"">
  <p>How much control did you have over the ball?</p>
  </div>","25","html-slider-response","50","847378","0.0-7.0-2.7","31","1","2025-07-30 08:41:09","36c45c0696341be0efffe67d72a12abb","41.145.209.180","Mozilla/5.0 (Windows NT 10.0; Win64; x64) AppleWebKit/537.36 (KHTML, like Gecko) Chrome/138.0.0.0 Safari/537.36","WebKit","Chrome","138.0.0.0","Windows","10.0","https://app.prolific.com/","en-US,en;q=0.9","611cd5bfd7197f8a2a3682d1","687a19d2168e237449fb8af4","6889da0310e8941bd2d79ab2","0","611cd5bfd7197f8a2a3682d1","0","2025-07-30T08:55:19.674Z","","","","ControlQ","","","","","","","","","","","50","","","","","","","","","","","","","","","","","","","","","","","","","","",""
"4586","","<div style=""width:500px;"">
  <p>How would you describe your current emotional state?</p>
  </div>","19","html-slider-response","51","851965","0.0-7.0-3.7","31","1","2025-07-30 08:41:09","36c45c0696341be0efffe67d72a12abb","41.145.209.180","Mozilla/5.0 (Windows NT 10.0; Win64; x64) AppleWebKit/537.36 (KHTML, like Gecko) Chrome/138.0.0.0 Safari/537.36","WebKit","Chrome","138.0.0.0","Windows","10.0","https://app.prolific.com/","en-US,en;q=0.9","611cd5bfd7197f8a2a3682d1","687a19d2168e237449fb8af4","6889da0310e8941bd2d79ab2","0","611cd5bfd7197f8a2a3682d1","0","2025-07-30T08:55:24.261Z","","","","StressQ","","","","","","","","","","","50","","","","","","","","","","","","","","","","","","","","","","","","","","",""
"4921","","<div style=""width:500px;"">
  <p>What best describes how you currently feel?</p>
  </div>","83","html-slider-response","52","856887","0.0-7.0-4.7","31","1","2025-07-30 08:41:09","36c45c0696341be0efffe67d72a12abb","41.145.209.180","Mozilla/5.0 (Windows NT 10.0; Win64; x64) AppleWebKit/537.36 (KHTML, like Gecko) Chrome/138.0.0.0 Safari/537.36","WebKit","Chrome","138.0.0.0","Windows","10.0","https://app.prolific.com/","en-US,en;q=0.9","611cd5bfd7197f8a2a3682d1","687a19d2168e237449fb8af4","6889da0310e8941bd2d79ab2","0","611cd5bfd7197f8a2a3682d1","0","2025-07-30T08:55:29.183Z","","","","MotivationQ","","","","","","","","","","","50","","","","","","","","","","","","","","","","","","","","","","","","","","",""
"","","","","ctl-task-cpt","53","911236","0.0-7.0-0.8","31","1","2025-07-30 08:41:09","36c45c0696341be0efffe67d72a12abb","41.145.209.180","Mozilla/5.0 (Windows NT 10.0; Win64; x64) AppleWebKit/537.36 (KHTML, like Gecko) Chrome/138.0.0.0 Safari/537.36","WebKit","Chrome","138.0.0.0","Windows","10.0","https://app.prolific.com/","en-US,en;q=0.9","611cd5bfd7197f8a2a3682d1","687a19d2168e237449fb8af4","6889da0310e8941bd2d79ab2","0","611cd5bfd7197f8a2a3682d1","0","2025-07-30T08:56:23.532Z","","","","","","","","","","","","","","","","win-only","1","g1:NE,g2:SW","0.4","9","0","860246.7","12795.7","17796","51331","1","4","8","6","2","8","8","8","0","0.06060606060606061","5000.3","3000","1260","[""down"",""left""]","{""num_key_presses"":8,""num_perfect"":4,""num_errors"":0,""num_randdir"":4,""num_randdir_good_moves"":3,""num_whilered"":0,""num_whileblue"":0,""num_blue"":3,""num_good_moves"":7}","[422.57142857142856,411.47767857142856,0.4,422.57142857142856,411.47767857142856,101.7,422.57142857142856,411.47767857142856,206.9,422.57142857142856,411.47767857142856,311.3,422.57142857142856,411.47767857142856,440.6,422.57142857142856,411.47767857142856,567.9,422.57142857142856,411.47767857142856,670.5,497.57142857142856,377.47767857142856,770.9,519.5714285714286,423.47767857142856,893.3,403.57142857142856,472.47767857142856,999.9,398.57142857142856,474.47767857142856,1101.7,398.57142857142856,474.47767857142856,1204.9,398.57142857142856,474.47767857142856,1305.5,398.57142857142856,474.47767857142856,1410.2,398.57142857142856,474.47767857142856,1511.8,398.57142857142856,474.47767857142856,1624.5,398.57142857142856,474.47767857142856,1731.8,398.57142857142856,474.47767857142856,1835.6,398.57142857142856,474.47767857142856,1951.9,398.57142857142856,474.47767857142856,2062.8,398.57142857142856,474.47767857142856,2163,398.57142857142856,474.47767857142856,2276,398.57142857142856,474.47767857142856,2386.3,398.57142857142856,474.47767857142856,2490.9,398.57142857142856,474.47767857142856,2607.7,398.57142857142856,474.47767857142856,2713.3,398.57142857142856,474.47767857142856,2823.5,398.57142857142856,474.47767857142856,2944.4,398.57142857142856,474.47767857142856,3047.2,398.57142857142856,474.47767857142856,3157.5,398.57142857142856,474.47767857142856,3273.9,398.57142857142856,474.47767857142856,3382.5,398.57142857142856,474.47767857142856,3488.3,398.57142857142856,474.47767857142856,3589.8,398.57142857142856,474.47767857142856,3690.1,398.57142857142856,474.47767857142856,3790.3,398.57142857142856,474.47767857142856,3896.4,398.57142857142856,474.47767857142856,4001.6,398.57142857142856,474.47767857142856,4105.3,398.57142857142856,474.47767857142856,4235.3,398.57142857142856,474.47767857142856,4340.8,398.57142857142856,474.47767857142856,4445.6,398.57142857142856,474.47767857142856,4550.6,398.57142857142856,474.47767857142856,4672.3,398.57142857142856,474.47767857142856,4779,398.57142857142856,474.47767857142856,4894.5,398.57142857142856,474.47767857142856,4996.2]","[1435,1435,1000,0,435,""smooth"",""down"",""down"",""good_move"",3831.5,2395.9,2031.6,1435.7,364.2,""oops"",""down"",""left"",""good_move"",6790.6,2958.9,2584.7,3831.7,374.2,""smooth"",""down"",""down"",""good_move"",9535.4,2744.6,2386.2,6790.8,358.4,""smooth"",""down"",""down"",""good_move"",12764.9,3229.3,2802.6,9535.6,426.7,""oops"",""left"",""left"",""good_move"",22931.9,10166.7,3079,19471.2,381.7,""oops"",""left"",""right"",""bad_move"",26964.9,4032.6,3653.4,22932.3,379.2,""smooth"",""left"",""left"",""good_move"",33388.1,6422.8,1788.2,31182.4,417.5,""oops"",""left"",""left"",""good_move""]"
"3728","","<div style=""width:500px;"">
  <p>What determined the result of this run?</p>
  </div>","98","html-slider-response","54","914965","0.0-7.0-1.8","31","1","2025-07-30 08:41:09","36c45c0696341be0efffe67d72a12abb","41.145.209.180","Mozilla/5.0 (Windows NT 10.0; Win64; x64) AppleWebKit/537.36 (KHTML, like Gecko) Chrome/138.0.0.0 Safari/537.36","WebKit","Chrome","138.0.0.0","Windows","10.0","https://app.prolific.com/","en-US,en;q=0.9","611cd5bfd7197f8a2a3682d1","687a19d2168e237449fb8af4","6889da0310e8941bd2d79ab2","0","611cd5bfd7197f8a2a3682d1","0","2025-07-30T08:56:27.261Z","","","","AttribQ","","","","","","","","","","","50","","","","","","","","","","","","","","","","","","","","","","","","","","",""
"3178","","<div style=""width:500px;"">
  <p>How much control did you have over the ball?</p>
  </div>","93","html-slider-response","55","918144","0.0-7.0-2.8","31","1","2025-07-30 08:41:09","36c45c0696341be0efffe67d72a12abb","41.145.209.180","Mozilla/5.0 (Windows NT 10.0; Win64; x64) AppleWebKit/537.36 (KHTML, like Gecko) Chrome/138.0.0.0 Safari/537.36","WebKit","Chrome","138.0.0.0","Windows","10.0","https://app.prolific.com/","en-US,en;q=0.9","611cd5bfd7197f8a2a3682d1","687a19d2168e237449fb8af4","6889da0310e8941bd2d79ab2","0","611cd5bfd7197f8a2a3682d1","0","2025-07-30T08:56:30.440Z","","","","ControlQ","","","","","","","","","","","50","","","","","","","","","","","","","","","","","","","","","","","","","","",""
"6692","","<div style=""width:500px;"">
  <p>How would you describe your current emotional state?</p>
  </div>","10","html-slider-response","56","924837","0.0-7.0-3.8","31","1","2025-07-30 08:41:09","36c45c0696341be0efffe67d72a12abb","41.145.209.180","Mozilla/5.0 (Windows NT 10.0; Win64; x64) AppleWebKit/537.36 (KHTML, like Gecko) Chrome/138.0.0.0 Safari/537.36","WebKit","Chrome","138.0.0.0","Windows","10.0","https://app.prolific.com/","en-US,en;q=0.9","611cd5bfd7197f8a2a3682d1","687a19d2168e237449fb8af4","6889da0310e8941bd2d79ab2","0","611cd5bfd7197f8a2a3682d1","0","2025-07-30T08:56:37.133Z","","","","StressQ","","","","","","","","","","","50","","","","","","","","","","","","","","","","","","","","","","","","","","",""
"6260","","<div style=""width:500px;"">
  <p>What best describes how you currently feel?</p>
  </div>","93","html-slider-response","57","931099","0.0-7.0-4.8","31","1","2025-07-30 08:41:09","36c45c0696341be0efffe67d72a12abb","41.145.209.180","Mozilla/5.0 (Windows NT 10.0; Win64; x64) AppleWebKit/537.36 (KHTML, like Gecko) Chrome/138.0.0.0 Safari/537.36","WebKit","Chrome","138.0.0.0","Windows","10.0","https://app.prolific.com/","en-US,en;q=0.9","611cd5bfd7197f8a2a3682d1","687a19d2168e237449fb8af4","6889da0310e8941bd2d79ab2","0","611cd5bfd7197f8a2a3682d1","0","2025-07-30T08:56:43.395Z","","","","MotivationQ","","","","","","","","","","","50","","","","","","","","","","","","","","","","","","","","","","","","","","",""
"","","","","ctl-task-cpt","58","997565","0.0-7.0-0.9","31","1","2025-07-30 08:41:09","36c45c0696341be0efffe67d72a12abb","41.145.209.180","Mozilla/5.0 (Windows NT 10.0; Win64; x64) AppleWebKit/537.36 (KHTML, like Gecko) Chrome/138.0.0.0 Safari/537.36","WebKit","Chrome","138.0.0.0","Windows","10.0","https://app.prolific.com/","en-US,en;q=0.9","611cd5bfd7197f8a2a3682d1","687a19d2168e237449fb8af4","6889da0310e8941bd2d79ab2","0","611cd5bfd7197f8a2a3682d1","0","2025-07-30T08:57:49.861Z","","","","","","","","","","","","","","","","win-only","3","g1:SW,g2:NE","0.5","10","0","934458.5","12846.2","17847.6","63430.9","1","4","4","6","1","-1","-2","6","8","0.045454545454545456","5001.4","3000","-1600","[""down"",""left""]","{""num_key_presses"":14,""num_perfect"":6,""num_errors"":1,""num_randdir"":7,""num_randdir_good_moves"":1,""num_whilered"":0,""num_whileblue"":1,""num_blue"":2,""num_good_moves"":7}","[416.57142857142856,416.47767857142856,0.2,416.57142857142856,416.47767857142856,100,416.57142857142856,416.47767857142856,207.2,416.57142857142856,416.47767857142856,326.3,416.57142857142856,416.47767857142856,429.4,416.57142857142856,416.47767857142856,529.7,416.57142857142856,416.47767857142856,634,416.57142857142856,416.47767857142856,748.4,416.57142857142856,416.47767857142856,849,416.57142857142856,416.47767857142856,961.2,416.57142857142856,416.47767857142856,1064.5,416.57142857142856,416.47767857142856,1165,416.57142857142856,416.47767857142856,1274.6,416.57142857142856,416.47767857142856,1400.7,416.57142857142856,416.47767857142856,1509,416.57142857142856,416.47767857142856,1609.1,416.57142857142856,416.47767857142856,1709.7,416.57142857142856,416.47767857142856,1821.2,416.57142857142856,416.47767857142856,1924.7,416.57142857142856,416.47767857142856,2033.5,416.57142857142856,416.47767857142856,2138.3,416.57142857142856,416.47767857142856,2260.5,416.57142857142856,416.47767857142856,2364.2,416.57142857142856,416.47767857142856,2489.4,416.57142857142856,416.47767857142856,2603.7,416.57142857142856,416.47767857142856,2715.4,416.57142857142856,416.47767857142856,2858.5,416.57142857142856,416.47767857142856,2964.8,416.57142857142856,416.47767857142856,3074.9,416.57142857142856,416.47767857142856,3191.8,416.57142857142856,416.47767857142856,3301,416.57142857142856,416.47767857142856,3418.2,416.57142857142856,416.47767857142856,3520.1,416.57142857142856,416.47767857142856,3649,416.57142857142856,416.47767857142856,3772.8,416.57142857142856,416.47767857142856,3874.2,416.57142857142856,416.47767857142856,3974.8,416.57142857142856,416.47767857142856,4087.6,416.57142857142856,416.47767857142856,4194.3,416.57142857142856,416.47767857142856,4319.4,416.57142857142856,416.47767857142856,4443.3,416.57142857142856,416.47767857142856,4543.9,416.57142857142856,416.47767857142856,4668.4,416.57142857142856,416.47767857142856,4779.7,416.57142857142856,416.47767857142856,4918.4]","[1701.6,1701.6,1000,0,701.6,""smooth"",""down"",""down"",""good_move"",4987.3,3285.3,2799.3,1702,486,""oops"",""down"",""right"",""bad_move"",7984.3,2996.6,2636.1,4987.7,360.5,""oops"",""down"",""up"",""bad_move"",11162.3,3177.6,2831.6,7984.7,346,""oops"",""down"",""up"",""bad_move"",13702.5,2539.9,2118.5,11162.7,421.3,""smooth"",""down"",""down"",""good_move"",17307.9,3605,3144.3,13702.9,460.7,""oops"",""down"",""right"",""bad_move"",20334,3025.8,2677.3,17308.2,348.5,""while_blue"",""down"",""up"",""bad_move"",23280,2945.8,2582.5,20334.2,363.3,""smooth"",""down"",""down"",""good_move"",26060,2779.8,2317.2,23280.2,462.6,""oops"",""down"",""up"",""bad_move"",29173.6,3113.3,2600,26060.3,513.3,""smooth"",""down"",""down"",""good_move"",31940.6,2766.7,2324.3,29173.9,442.4,""smooth"",""down"",""down"",""good_move"",34606.7,2666,2178.7,31940.7,487.3,""oops"",""down"",""down"",""good_move"",37422.9,2816.1,2450.5,34606.8,365.6,""oops"",""left"",""right"",""bad_move"",40506.8,3083.6,2722,37423.2,361.6,""smooth"",""left"",""left"",""good_move""]"
"3537","","<div style=""width:500px;"">
  <p>What determined the result of this run?</p>
  </div>","61","html-slider-response","59","1001104","0.0-7.0-1.9","31","1","2025-07-30 08:41:09","36c45c0696341be0efffe67d72a12abb","41.145.209.180","Mozilla/5.0 (Windows NT 10.0; Win64; x64) AppleWebKit/537.36 (KHTML, like Gecko) Chrome/138.0.0.0 Safari/537.36","WebKit","Chrome","138.0.0.0","Windows","10.0","https://app.prolific.com/","en-US,en;q=0.9","611cd5bfd7197f8a2a3682d1","687a19d2168e237449fb8af4","6889da0310e8941bd2d79ab2","0","611cd5bfd7197f8a2a3682d1","0","2025-07-30T08:57:53.400Z","","","","AttribQ","","","","","","","","","","","50","","","","","","","","","","","","","","","","","","","","","","","","","","",""
"4849","","<div style=""width:500px;"">
  <p>How much control did you have over the ball?</p>
  </div>","62","html-slider-response","60","1005953","0.0-7.0-2.9","31","1","2025-07-30 08:41:09","36c45c0696341be0efffe67d72a12abb","41.145.209.180","Mozilla/5.0 (Windows NT 10.0; Win64; x64) AppleWebKit/537.36 (KHTML, like Gecko) Chrome/138.0.0.0 Safari/537.36","WebKit","Chrome","138.0.0.0","Windows","10.0","https://app.prolific.com/","en-US,en;q=0.9","611cd5bfd7197f8a2a3682d1","687a19d2168e237449fb8af4","6889da0310e8941bd2d79ab2","0","611cd5bfd7197f8a2a3682d1","0","2025-07-30T08:57:58.250Z","","","","ControlQ","","","","","","","","","","","50","","","","","","","","","","","","","","","","","","","","","","","","","","",""
"3645","","<div style=""width:500px;"">
  <p>How would you describe your current emotional state?</p>
  </div>","6","html-slider-response","61","1009600","0.0-7.0-3.9","31","1","2025-07-30 08:41:09","36c45c0696341be0efffe67d72a12abb","41.145.209.180","Mozilla/5.0 (Windows NT 10.0; Win64; x64) AppleWebKit/537.36 (KHTML, like Gecko) Chrome/138.0.0.0 Safari/537.36","WebKit","Chrome","138.0.0.0","Windows","10.0","https://app.prolific.com/","en-US,en;q=0.9","611cd5bfd7197f8a2a3682d1","687a19d2168e237449fb8af4","6889da0310e8941bd2d79ab2","0","611cd5bfd7197f8a2a3682d1","0","2025-07-30T08:58:01.896Z","","","","StressQ","","","","","","","","","","","50","","","","","","","","","","","","","","","","","","","","","","","","","","",""
"3605","","<div style=""width:500px;"">
  <p>What best describes how you currently feel?</p>
  </div>","87","html-slider-response","62","1013206","0.0-7.0-4.9","31","1","2025-07-30 08:41:09","36c45c0696341be0efffe67d72a12abb","41.145.209.180","Mozilla/5.0 (Windows NT 10.0; Win64; x64) AppleWebKit/537.36 (KHTML, like Gecko) Chrome/138.0.0.0 Safari/537.36","WebKit","Chrome","138.0.0.0","Windows","10.0","https://app.prolific.com/","en-US,en;q=0.9","611cd5bfd7197f8a2a3682d1","687a19d2168e237449fb8af4","6889da0310e8941bd2d79ab2","0","611cd5bfd7197f8a2a3682d1","0","2025-07-30T08:58:05.502Z","","","","MotivationQ","","","","","","","","","","","50","","","","","","","","","","","","","","","","","","","","","","","","","","",""
"","","","","ctl-task-cpt","63","1057702","0.0-7.0-0.10","31","1","2025-07-30 08:41:09","36c45c0696341be0efffe67d72a12abb","41.145.209.180","Mozilla/5.0 (Windows NT 10.0; Win64; x64) AppleWebKit/537.36 (KHTML, like Gecko) Chrome/138.0.0.0 Safari/537.36","WebKit","Chrome","138.0.0.0","Windows","10.0","https://app.prolific.com/","en-US,en;q=0.9","611cd5bfd7197f8a2a3682d1","687a19d2168e237449fb8af4","6889da0310e8941bd2d79ab2","0","611cd5bfd7197f8a2a3682d1","0","2025-07-30T08:58:49.998Z","","","","","","","","","","","","","","","","win-only","2","g1:SE,g2:NW","0.6","11","0","1016566.2","12337.8","17345.1","41473.5","1","4","8","6","2","8","8","14","6","0.10606060606060606","5007.3","3000","1440","[""left"",""up""]","{""num_key_presses"":8,""num_perfect"":4,""num_errors"":0,""num_randdir"":4,""num_randdir_good_moves"":3,""num_whilered"":0,""num_whileblue"":0,""num_blue"":1,""num_good_moves"":7}","[421.57142857142856,425.47767857142856,0.4,421.57142857142856,425.47767857142856,108.4,421.57142857142856,425.47767857142856,213.5,421.57142857142856,425.47767857142856,338.5,421.57142857142856,425.47767857142856,464.6,421.57142857142856,425.47767857142856,570.5,421.57142857142856,425.47767857142856,685.2,421.57142857142856,425.47767857142856,789.1,421.57142857142856,425.47767857142856,903.4,421.57142857142856,425.47767857142856,1024.8,421.57142857142856,425.47767857142856,1128.6,421.57142857142856,425.47767857142856,1250.2,421.57142857142856,425.47767857142856,1353.2,421.57142857142856,425.47767857142856,1460.5,421.57142857142856,425.47767857142856,1562.7,421.57142857142856,425.47767857142856,1699,421.57142857142856,425.47767857142856,1802,421.57142857142856,425.47767857142856,1911.6,421.57142857142856,425.47767857142856,2021.2,421.57142857142856,425.47767857142856,2125,421.57142857142856,425.47767857142856,2228.4,421.57142857142856,425.47767857142856,2340.7,421.57142857142856,425.47767857142856,2464,421.57142857142856,425.47767857142856,2569.1,421.57142857142856,425.47767857142856,2673.3,421.57142857142856,425.47767857142856,2788.2,421.57142857142856,425.47767857142856,2902.2,421.57142857142856,425.47767857142856,3002.6,421.57142857142856,425.47767857142856,3129.5,421.57142857142856,425.47767857142856,3255.1,421.57142857142856,425.47767857142856,3357.5,421.57142857142856,425.47767857142856,3465.4,421.57142857142856,425.47767857142856,3586.6,421.57142857142856,425.47767857142856,3689.8,421.57142857142856,425.47767857142856,3793,421.57142857142856,425.47767857142856,3894.5,421.57142857142856,425.47767857142856,4022.3,421.57142857142856,425.47767857142856,4123.4,421.57142857142856,425.47767857142856,4231.6,421.57142857142856,425.47767857142856,4332.7,421.57142857142856,425.47767857142856,4432.8,421.57142857142856,425.47767857142856,4537.4,421.57142857142856,425.47767857142856,4655.3,421.57142857142856,425.47767857142856,4760,421.57142857142856,425.47767857142856,4882.5]","[1406.1,1406.2,1000,0,406.2,""smooth"",""up"",""up"",""good_move"",3630.4,2223.7,1810.5,1406.7,413.2,""oops"",""up"",""up"",""good_move"",6157.1,2526.5,2145.5,3630.6,381,""smooth"",""up"",""up"",""good_move"",9308.4,3151,2758.1,6157.4,392.9,""oops"",""left"",""right"",""bad_move"",11959.1,2650.5,2287.8,9308.6,362.7,""smooth"",""left"",""left"",""good_move"",18405.7,6446.4,2311.5,15650.2,444,""smooth"",""left"",""left"",""good_move"",21353.5,2947.6,2528.6,18406,419,""oops"",""left"",""left"",""good_move"",23970.4,2616.6,2218.5,21353.8,398.1,""oops"",""left"",""left"",""good_move""]"
"10758","","<div style=""width:500px;"">
  <p>What determined the result of this run?</p>
  </div>","87","html-slider-response","64","1068462","0.0-7.0-1.10","31","1","2025-07-30 08:41:09","36c45c0696341be0efffe67d72a12abb","41.145.209.180","Mozilla/5.0 (Windows NT 10.0; Win64; x64) AppleWebKit/537.36 (KHTML, like Gecko) Chrome/138.0.0.0 Safari/537.36","WebKit","Chrome","138.0.0.0","Windows","10.0","https://app.prolific.com/","en-US,en;q=0.9","611cd5bfd7197f8a2a3682d1","687a19d2168e237449fb8af4","6889da0310e8941bd2d79ab2","0","611cd5bfd7197f8a2a3682d1","0","2025-07-30T08:59:00.758Z","","","","AttribQ","","","","","","","","","","","50","","","","","","","","","","","","","","","","","","","","","","","","","","",""
"6330","","<div style=""width:500px;"">
  <p>How much control did you have over the ball?</p>
  </div>","91","html-slider-response","65","1074793","0.0-7.0-2.10","31","1","2025-07-30 08:41:09","36c45c0696341be0efffe67d72a12abb","41.145.209.180","Mozilla/5.0 (Windows NT 10.0; Win64; x64) AppleWebKit/537.36 (KHTML, like Gecko) Chrome/138.0.0.0 Safari/537.36","WebKit","Chrome","138.0.0.0","Windows","10.0","https://app.prolific.com/","en-US,en;q=0.9","611cd5bfd7197f8a2a3682d1","687a19d2168e237449fb8af4","6889da0310e8941bd2d79ab2","0","611cd5bfd7197f8a2a3682d1","0","2025-07-30T08:59:07.089Z","","","","ControlQ","","","","","","","","","","","50","","","","","","","","","","","","","","","","","","","","","","","","","","",""
"5465","","<div style=""width:500px;"">
  <p>How would you describe your current emotional state?</p>
  </div>","9","html-slider-response","66","1080259","0.0-7.0-3.10","31","1","2025-07-30 08:41:09","36c45c0696341be0efffe67d72a12abb","41.145.209.180","Mozilla/5.0 (Windows NT 10.0; Win64; x64) AppleWebKit/537.36 (KHTML, like Gecko) Chrome/138.0.0.0 Safari/537.36","WebKit","Chrome","138.0.0.0","Windows","10.0","https://app.prolific.com/","en-US,en;q=0.9","611cd5bfd7197f8a2a3682d1","687a19d2168e237449fb8af4","6889da0310e8941bd2d79ab2","0","611cd5bfd7197f8a2a3682d1","0","2025-07-30T08:59:12.555Z","","","","StressQ","","","","","","","","","","","50","","","","","","","","","","","","","","","","","","","","","","","","","","",""
"3892","","<div style=""width:500px;"">
  <p>What best describes how you currently feel?</p>
  </div>","90","html-slider-response","67","1084153","0.0-7.0-4.10","31","1","2025-07-30 08:41:09","36c45c0696341be0efffe67d72a12abb","41.145.209.180","Mozilla/5.0 (Windows NT 10.0; Win64; x64) AppleWebKit/537.36 (KHTML, like Gecko) Chrome/138.0.0.0 Safari/537.36","WebKit","Chrome","138.0.0.0","Windows","10.0","https://app.prolific.com/","en-US,en;q=0.9","611cd5bfd7197f8a2a3682d1","687a19d2168e237449fb8af4","6889da0310e8941bd2d79ab2","0","611cd5bfd7197f8a2a3682d1","0","2025-07-30T08:59:16.449Z","","","","MotivationQ","","","","","","","","","","","50","","","","","","","","","","","","","","","","","","","","","","","","","","",""
"","","","","ctl-task-cpt","68","1129352","0.0-7.0-0.11","31","1","2025-07-30 08:41:09","36c45c0696341be0efffe67d72a12abb","41.145.209.180","Mozilla/5.0 (Windows NT 10.0; Win64; x64) AppleWebKit/537.36 (KHTML, like Gecko) Chrome/138.0.0.0 Safari/537.36","WebKit","Chrome","138.0.0.0","Windows","10.0","https://app.prolific.com/","en-US,en;q=0.9","611cd5bfd7197f8a2a3682d1","687a19d2168e237449fb8af4","6889da0310e8941bd2d79ab2","0","611cd5bfd7197f8a2a3682d1","0","2025-07-30T09:00:01.648Z","","","","","","","","","","","","","","","","win-only","2","g1:SE,g2:NW","0.7","12","0","1087512.1","13322.6","18335","42187.2","1","4","4","6","1","1","1","15","14","0.11363636363636363","5012.4","3000","1775","[""down"",""right""]","{""num_key_presses"":6,""num_perfect"":4,""num_errors"":0,""num_randdir"":2,""num_randdir_good_moves"":1,""num_whilered"":0,""num_whileblue"":0,""num_blue"":2,""num_good_moves"":5}","[416.57142857142856,423.47767857142856,0.3,416.57142857142856,423.47767857142856,112.3,416.57142857142856,423.47767857142856,212.9,416.57142857142856,423.47767857142856,328.9,416.57142857142856,423.47767857142856,435.4,416.57142857142856,423.47767857142856,537.9,416.57142857142856,423.47767857142856,639.6,416.57142857142856,423.47767857142856,767.1,416.57142857142856,423.47767857142856,893.6,416.57142857142856,423.47767857142856,997.7,416.57142857142856,423.47767857142856,1098.7,416.57142857142856,423.47767857142856,1202.9,416.57142857142856,423.47767857142856,1312.1,416.57142857142856,423.47767857142856,1412.4,416.57142857142856,423.47767857142856,1528,416.57142857142856,423.47767857142856,1645.3,416.57142857142856,423.47767857142856,1762.7,416.57142857142856,423.47767857142856,1866,416.57142857142856,423.47767857142856,1968.4,416.57142857142856,423.47767857142856,2106.5,416.57142857142856,423.47767857142856,2208.7,416.57142857142856,423.47767857142856,2327.5,416.57142857142856,423.47767857142856,2430.1,416.57142857142856,423.47767857142856,2533.3,416.57142857142856,423.47767857142856,2638,416.57142857142856,423.47767857142856,2752.6,416.57142857142856,423.47767857142856,2860,416.57142857142856,423.47767857142856,2980.1,416.57142857142856,423.47767857142856,3087.2,416.57142857142856,423.47767857142856,3226.3,416.57142857142856,423.47767857142856,3327.4,416.57142857142856,423.47767857142856,3431,416.57142857142856,423.47767857142856,3532.9,416.57142857142856,423.47767857142856,3635.6,416.57142857142856,423.47767857142856,3737.6,416.57142857142856,423.47767857142856,3838.7,416.57142857142856,423.47767857142856,3974.3,416.57142857142856,423.47767857142856,4100.4,416.57142857142856,423.47767857142856,4214.2,416.57142857142856,423.47767857142856,4325.7,416.57142857142856,423.47767857142856,4428.5,416.57142857142856,423.47767857142856,4559.9,416.57142857142856,423.47767857142856,4681.7,416.57142857142856,423.47767857142856,4783.5,416.57142857142856,423.47767857142856,4883.9]","[1731.3,1731.3,1000,0,731.3,""oops"",""right"",""down"",""good_move"",4492.8,2761.1,2253.6,1731.7,507.5,""smooth"",""right"",""right"",""good_move"",7296.8,2803.6,2357,4493.2,446.6,""smooth"",""right"",""right"",""good_move"",11048.1,3751,3354.7,7297.1,396.3,""oops"",""down"",""up"",""bad_move"",17508.9,6460.3,2565.2,14546.7,397,""smooth"",""down"",""down"",""good_move"",23674.8,6165.6,2970.9,20321.3,382.6,""smooth"",""down"",""down"",""good_move""]"
"3870","","<div style=""width:500px;"">
  <p>What determined the result of this run?</p>
  </div>","89","html-slider-response","69","1133223","0.0-7.0-1.11","31","1","2025-07-30 08:41:09","36c45c0696341be0efffe67d72a12abb","41.145.209.180","Mozilla/5.0 (Windows NT 10.0; Win64; x64) AppleWebKit/537.36 (KHTML, like Gecko) Chrome/138.0.0.0 Safari/537.36","WebKit","Chrome","138.0.0.0","Windows","10.0","https://app.prolific.com/","en-US,en;q=0.9","611cd5bfd7197f8a2a3682d1","687a19d2168e237449fb8af4","6889da0310e8941bd2d79ab2","0","611cd5bfd7197f8a2a3682d1","0","2025-07-30T09:00:05.519Z","","","","AttribQ","","","","","","","","","","","50","","","","","","","","","","","","","","","","","","","","","","","","","","",""
"3330","","<div style=""width:500px;"">
  <p>How much control did you have over the ball?</p>
  </div>","94","html-slider-response","70","1136554","0.0-7.0-2.11","31","1","2025-07-30 08:41:09","36c45c0696341be0efffe67d72a12abb","41.145.209.180","Mozilla/5.0 (Windows NT 10.0; Win64; x64) AppleWebKit/537.36 (KHTML, like Gecko) Chrome/138.0.0.0 Safari/537.36","WebKit","Chrome","138.0.0.0","Windows","10.0","https://app.prolific.com/","en-US,en;q=0.9","611cd5bfd7197f8a2a3682d1","687a19d2168e237449fb8af4","6889da0310e8941bd2d79ab2","0","611cd5bfd7197f8a2a3682d1","0","2025-07-30T09:00:08.850Z","","","","ControlQ","","","","","","","","","","","50","","","","","","","","","","","","","","","","","","","","","","","","","","",""
"4640","","<div style=""width:500px;"">
  <p>How would you describe your current emotional state?</p>
  </div>","7","html-slider-response","71","1141195","0.0-7.0-3.11","31","1","2025-07-30 08:41:09","36c45c0696341be0efffe67d72a12abb","41.145.209.180","Mozilla/5.0 (Windows NT 10.0; Win64; x64) AppleWebKit/537.36 (KHTML, like Gecko) Chrome/138.0.0.0 Safari/537.36","WebKit","Chrome","138.0.0.0","Windows","10.0","https://app.prolific.com/","en-US,en;q=0.9","611cd5bfd7197f8a2a3682d1","687a19d2168e237449fb8af4","6889da0310e8941bd2d79ab2","0","611cd5bfd7197f8a2a3682d1","0","2025-07-30T09:00:13.491Z","","","","StressQ","","","","","","","","","","","50","","","","","","","","","","","","","","","","","","","","","","","","","","",""
"3409","","<div style=""width:500px;"">
  <p>What best describes how you currently feel?</p>
  </div>","96","html-slider-response","72","1144604","0.0-7.0-4.11","31","1","2025-07-30 08:41:09","36c45c0696341be0efffe67d72a12abb","41.145.209.180","Mozilla/5.0 (Windows NT 10.0; Win64; x64) AppleWebKit/537.36 (KHTML, like Gecko) Chrome/138.0.0.0 Safari/537.36","WebKit","Chrome","138.0.0.0","Windows","10.0","https://app.prolific.com/","en-US,en;q=0.9","611cd5bfd7197f8a2a3682d1","687a19d2168e237449fb8af4","6889da0310e8941bd2d79ab2","0","611cd5bfd7197f8a2a3682d1","0","2025-07-30T09:00:16.901Z","","","","MotivationQ","","","","","","","","","","","50","","","","","","","","","","","","","","","","","","","","","","","","","","",""
"","","","","ctl-task-cpt","73","1196321","0.0-7.0-0.12","31","1","2025-07-30 08:41:09","36c45c0696341be0efffe67d72a12abb","41.145.209.180","Mozilla/5.0 (Windows NT 10.0; Win64; x64) AppleWebKit/537.36 (KHTML, like Gecko) Chrome/138.0.0.0 Safari/537.36","WebKit","Chrome","138.0.0.0","Windows","10.0","https://app.prolific.com/","en-US,en;q=0.9","611cd5bfd7197f8a2a3682d1","687a19d2168e237449fb8af4","6889da0310e8941bd2d79ab2","0","611cd5bfd7197f8a2a3682d1","0","2025-07-30T09:01:08.617Z","","","","","","","","","","","","","","","","win-only","3","g1:SW,g2:NE","0.8","13","0","1147964.2","12724.9","17773.6","48696.5","1","4","4","6","2","4","4","19","15","0.14393939393939395","5048.7","3000","1385","[""up"",""right""]","{""num_key_presses"":10,""num_perfect"":8,""num_errors"":0,""num_randdir"":2,""num_randdir_good_moves"":0,""num_whilered"":0,""num_whileblue"":0,""num_blue"":1,""num_good_moves"":8}","[414.57142857142856,427.47767857142856,0.3,414.57142857142856,427.47767857142856,145.5,414.57142857142856,427.47767857142856,267.3,414.57142857142856,427.47767857142856,375.8,414.57142857142856,427.47767857142856,480.8,414.57142857142856,427.47767857142856,589.5,414.57142857142856,427.47767857142856,705.9,414.57142857142856,427.47767857142856,811.7,414.57142857142856,427.47767857142856,922.2,414.57142857142856,427.47767857142856,1044.4,414.57142857142856,427.47767857142856,1146,414.57142857142856,427.47767857142856,1266,414.57142857142856,427.47767857142856,1391.9,414.57142857142856,427.47767857142856,1495.3,414.57142857142856,427.47767857142856,1597.3,414.57142857142856,427.47767857142856,1718.9,414.57142857142856,427.47767857142856,1850.2,414.57142857142856,427.47767857142856,1951.4,414.57142857142856,427.47767857142856,2073.5,414.57142857142856,427.47767857142856,2175.3,414.57142857142856,427.47767857142856,2291.6,414.57142857142856,427.47767857142856,2395,414.57142857142856,427.47767857142856,2497.4,414.57142857142856,427.47767857142856,2644.7,414.57142857142856,427.47767857142856,2745.4,414.57142857142856,427.47767857142856,2846.4,414.57142857142856,427.47767857142856,2970.8,414.57142857142856,427.47767857142856,3071.1,414.57142857142856,427.47767857142856,3176.8,414.57142857142856,427.47767857142856,3309.9,414.57142857142856,427.47767857142856,3413,414.57142857142856,427.47767857142856,3523.5,414.57142857142856,427.47767857142856,3633.6,414.57142857142856,427.47767857142856,3773.2,414.57142857142856,427.47767857142856,3879,414.57142857142856,427.47767857142856,3981.8,414.57142857142856,427.47767857142856,4106.7,414.57142857142856,427.47767857142856,4235.5,414.57142857142856,427.47767857142856,4337.1,414.57142857142856,427.47767857142856,4459.3,414.57142857142856,427.47767857142856,4562.2,414.57142857142856,427.47767857142856,4669.4,414.57142857142856,427.47767857142856,4770.9,414.57142857142856,427.47767857142856,4876.5,414.57142857142856,427.47767857142856,4976.8]","[1386.2,1386.2,1000,0,386.2,""smooth"",""up"",""up"",""good_move"",3864.1,2477.4,1804.1,1386.8,673.2,""smooth"",""up"",""up"",""good_move"",6274.2,2409.9,1729.9,3864.3,680,""smooth"",""up"",""up"",""good_move"",8943.3,2668.9,2309.3,6274.4,359.6,""oops"",""right"",""down"",""bad_move"",12410.5,3466.7,3087.3,8943.8,379.4,""smooth"",""right"",""right"",""good_move"",18925.9,6515,2804.4,15691.3,430.2,""oops"",""right"",""down"",""bad_move"",21811.5,2885.2,2466,18926.3,419.2,""smooth"",""right"",""right"",""good_move"",23918.3,2106.5,1595.9,21811.8,510.6,""smooth"",""right"",""right"",""good_move"",27310.8,3392.2,3013.5,23918.6,378.7,""smooth"",""up"",""up"",""good_move"",30696.9,3385.7,3006.3,27311.2,379.4,""smooth"",""up"",""up"",""good_move""]"
"3482","","<div style=""width:500px;"">
  <p>What determined the result of this run?</p>
  </div>","11","html-slider-response","74","1199804","0.0-7.0-1.12","31","1","2025-07-30 08:41:09","36c45c0696341be0efffe67d72a12abb","41.145.209.180","Mozilla/5.0 (Windows NT 10.0; Win64; x64) AppleWebKit/537.36 (KHTML, like Gecko) Chrome/138.0.0.0 Safari/537.36","WebKit","Chrome","138.0.0.0","Windows","10.0","https://app.prolific.com/","en-US,en;q=0.9","611cd5bfd7197f8a2a3682d1","687a19d2168e237449fb8af4","6889da0310e8941bd2d79ab2","0","611cd5bfd7197f8a2a3682d1","0","2025-07-30T09:01:12.100Z","","","","AttribQ","","","","","","","","","","","50","","","","","","","","","","","","","","","","","","","","","","","","","","",""
"2913","","<div style=""width:500px;"">
  <p>How much control did you have over the ball?</p>
  </div>","89","html-slider-response","75","1202718","0.0-7.0-2.12","31","1","2025-07-30 08:41:09","36c45c0696341be0efffe67d72a12abb","41.145.209.180","Mozilla/5.0 (Windows NT 10.0; Win64; x64) AppleWebKit/537.36 (KHTML, like Gecko) Chrome/138.0.0.0 Safari/537.36","WebKit","Chrome","138.0.0.0","Windows","10.0","https://app.prolific.com/","en-US,en;q=0.9","611cd5bfd7197f8a2a3682d1","687a19d2168e237449fb8af4","6889da0310e8941bd2d79ab2","0","611cd5bfd7197f8a2a3682d1","0","2025-07-30T09:01:15.014Z","","","","ControlQ","","","","","","","","","","","50","","","","","","","","","","","","","","","","","","","","","","","","","","",""
"2886","","<div style=""width:500px;"">
  <p>How would you describe your current emotional state?</p>
  </div>","8","html-slider-response","76","1205605","0.0-7.0-3.12","31","1","2025-07-30 08:41:09","36c45c0696341be0efffe67d72a12abb","41.145.209.180","Mozilla/5.0 (Windows NT 10.0; Win64; x64) AppleWebKit/537.36 (KHTML, like Gecko) Chrome/138.0.0.0 Safari/537.36","WebKit","Chrome","138.0.0.0","Windows","10.0","https://app.prolific.com/","en-US,en;q=0.9","611cd5bfd7197f8a2a3682d1","687a19d2168e237449fb8af4","6889da0310e8941bd2d79ab2","0","611cd5bfd7197f8a2a3682d1","0","2025-07-30T09:01:17.901Z","","","","StressQ","","","","","","","","","","","50","","","","","","","","","","","","","","","","","","","","","","","","","","",""
"2862","","<div style=""width:500px;"">
  <p>What best describes how you currently feel?</p>
  </div>","97","html-slider-response","77","1208468","0.0-7.0-4.12","31","1","2025-07-30 08:41:09","36c45c0696341be0efffe67d72a12abb","41.145.209.180","Mozilla/5.0 (Windows NT 10.0; Win64; x64) AppleWebKit/537.36 (KHTML, like Gecko) Chrome/138.0.0.0 Safari/537.36","WebKit","Chrome","138.0.0.0","Windows","10.0","https://app.prolific.com/","en-US,en;q=0.9","611cd5bfd7197f8a2a3682d1","687a19d2168e237449fb8af4","6889da0310e8941bd2d79ab2","0","611cd5bfd7197f8a2a3682d1","0","2025-07-30T09:01:20.764Z","","","","MotivationQ","","","","","","","","","","","50","","","","","","","","","","","","","","","","","","","","","","","","","","",""
