"rt","response_timestamp","stimulus","response","trial_type","trial_index","time_elapsed","internal_node_id","run_id","condition","recorded_at","source_code_version","ip","user_agent","device","browser","browser_version","platform","platform_version","referer","accept_language","PROLIFIC_PID","STUDY_ID","SESSION_ID","BATCH","prolific_id","batch","realtime","success","question_order","question_id","eventType","responses","item_order","radio_event_ids","radio_event_times","key_event_times","mouse_event_times","straightlining","zigzagging","honeypot","view_history","slider_start","which_type","canvas_config","goals_layout","control_level","trial_number","tutorial_trial_number","trial_start_time","phase1_start_time","phase2_start_time","phase3_start_time","goal_1_value","goal_1_distance","goal_2_value","goal_2_distance","goal_selected","outcome","outcome_total","participant_final_score","participant_initial_score","participant_final_score_prop","goal_choice_rt","allocated_time","allocated_time_remaining","goal_direction","counts","mouse_movements","key_presses"
"93430","1753864787294","<p style='font-size:40px;line-height:1.25'><strong>Welcome to the experiment!</strong></p><p style='font-size:1.1em;line-height:1.25'>Thank you for participanting in our experiment again! You will be asked to play the Dysfunctional Ball Game again. We will briefly recap the rules before we start.</p><p style='font-size:1.1em;line-height:1.25'>Press <strong>Next</strong> to continue.</p>","0","custom-html-button-response","0","93432","0.0-0.0","7","1","2025-07-30 08:38:12","36c45c0696341be0efffe67d72a12abb","154.117.166.3","Mozilla/5.0 (Windows NT 10.0; Win64; x64) AppleWebKit/537.36 (KHTML, like Gecko) Chrome/138.0.0.0 Safari/537.36","WebKit","Chrome","138.0.0.0","Windows","10.0","https://app.prolific.com/","en-US,en;q=0.9","611d0afbb2a19acfd012545b","687a19d2168e237449fb8af4","6889d9e4cf2ca61c950e73ca","0","611d0afbb2a19acfd012545b","0","2025-07-30T08:39:47.295Z","","","","","","","","","","","","","","","","","","","","","","","","","","","","","","","","","","","","","","","","","",""
"10878","","","","fullscreen","1","105329","0.0-1.0","7","1","2025-07-30 08:38:12","36c45c0696341be0efffe67d72a12abb","154.117.166.3","Mozilla/5.0 (Windows NT 10.0; Win64; x64) AppleWebKit/537.36 (KHTML, like Gecko) Chrome/138.0.0.0 Safari/537.36","WebKit","Chrome","138.0.0.0","Windows","10.0","https://app.prolific.com/","en-US,en;q=0.9","611d0afbb2a19acfd012545b","687a19d2168e237449fb8af4","6889d9e4cf2ca61c950e73ca","0","611d0afbb2a19acfd012545b","0","","true","","","","","","","","","","","","","","","","","","","","","","","","","","","","","","","","","","","","","","","","",""
"5669","1753864804862"," <p style='font-size:1.1em;line-height:1.25'>Thank you for closing all other tabs.</p><p style='font-size:1.1em;line-height:1.25'>We will now invite you to fill in some questionnaires, before starting the game.<br>This will take about 5 minutes.<br></p><p style='font-size:1.1em;line-height:1.25'>Press the <strong>Next</strong> button to continue.</p>","0","custom-html-button-response","2","110999","0.0-2.0","7","1","2025-07-30 08:38:12","36c45c0696341be0efffe67d72a12abb","154.117.166.3","Mozilla/5.0 (Windows NT 10.0; Win64; x64) AppleWebKit/537.36 (KHTML, like Gecko) Chrome/138.0.0.0 Safari/537.36","WebKit","Chrome","138.0.0.0","Windows","10.0","https://app.prolific.com/","en-US,en;q=0.9","611d0afbb2a19acfd012545b","687a19d2168e237449fb8af4","6889d9e4cf2ca61c950e73ca","0","611d0afbb2a19acfd012545b","0","2025-07-30T08:40:04.862Z","","","","","","","","","","","","","","","","","","","","","","","","","","","","","","","","","","","","","","","","","",""
"4944","","","{""assigned_sex"":""male""}","survey-multi-choice","3","115945","0.0-3.0-0.0","7","1","2025-07-30 08:38:12","36c45c0696341be0efffe67d72a12abb","154.117.166.3","Mozilla/5.0 (Windows NT 10.0; Win64; x64) AppleWebKit/537.36 (KHTML, like Gecko) Chrome/138.0.0.0 Safari/537.36","WebKit","Chrome","138.0.0.0","Windows","10.0","https://app.prolific.com/","en-US,en;q=0.9","611d0afbb2a19acfd012545b","687a19d2168e237449fb8af4","6889d9e4cf2ca61c950e73ca","0","611d0afbb2a19acfd012545b","0","","","[0]","0","demographics","","","","","","","","","","","","","","","","","","","","","","","","","","","","","","","","","","","","","",""
"8634","1753864818442","<p style='font-size:1.1em;line-height:1.25'>In the following, we will perform a baseline assessment. This means that we will ask you a few questions relating to your experiences over the past month.<br></p><p style='font-size:1.1em;line-height:1.25'>Press the <strong>Next</strong> button to continue.</p>","0","custom-html-button-response","4","124579","0.0-4.0-0.0","7","1","2025-07-30 08:38:12","36c45c0696341be0efffe67d72a12abb","154.117.166.3","Mozilla/5.0 (Windows NT 10.0; Win64; x64) AppleWebKit/537.36 (KHTML, like Gecko) Chrome/138.0.0.0 Safari/537.36","WebKit","Chrome","138.0.0.0","Windows","10.0","https://app.prolific.com/","en-US,en;q=0.9","611d0afbb2a19acfd012545b","687a19d2168e237449fb8af4","6889d9e4cf2ca61c950e73ca","0","611d0afbb2a19acfd012545b","0","2025-07-30T08:40:18.443Z","","","","","","","","","","","","","","","","","","","","","","","","","","","","","","","","","","","","","","","","","",""
"98891.40000000596","","","","survey-template","5","223476","0.0-4.0-1.0","7","1","2025-07-30 08:38:12","36c45c0696341be0efffe67d72a12abb","154.117.166.3","Mozilla/5.0 (Windows NT 10.0; Win64; x64) AppleWebKit/537.36 (KHTML, like Gecko) Chrome/138.0.0.0 Safari/537.36","WebKit","Chrome","138.0.0.0","Windows","10.0","https://app.prolific.com/","en-US,en;q=0.9","611d0afbb2a19acfd012545b","687a19d2168e237449fb8af4","6889d9e4cf2ca61c950e73ca","0","611d0afbb2a19acfd012545b","0","2025-07-30T08:41:57.339Z","","","","pss","{""Q01"":""1"",""Q02"":""1"",""Q03"":""1"",""Q04"":""0"",""Q05"":""0"",""Q06"":""4"",""Q07"":""0"",""Q08"":""0"",""Q09"":""4"",""Q10"":""0""}","[0,1,2,3,4,5,6,7,8,9]","[""Q01"",""Q02"",""Q03"",""Q04"",""Q05"",""Q06"",""Q07"",""Q08"",""Q09"",""Q10""]","[36098.79999999702,41298.20000000298,45774.60000000894,51434.20000000298,56566.40000000596,63840.70000000298,74548,85864.79999999702,90973.70000000298,97015.5]","[]","[19.600000008940697,36098.79999999702,41298.20000000298,45774.60000000894,51434.20000000298,55478.90000000596,56566.40000000596,63840.70000000298,74548,84672.70000000298,85864.79999999702,90973.70000000298,95861.70000000298,97015.5,98890]","0.6","0.1111111111111111","0","","","","","","","","","","","","","","","","","","","","","","","","","","","","",""
"4081","1753864921420","<p style='font-size:1.1em;line-height:1.25'>Thank you for your answers! Now we will ask you a few more questions relating to your feelings in the last 24 hours.<br></p><p style='font-size:1.1em;line-height:1.25'>Press the <strong>Next</strong> button to continue.</p>","0","custom-html-button-response","6","227558","0.0-4.0-2.0","7","1","2025-07-30 08:38:12","36c45c0696341be0efffe67d72a12abb","154.117.166.3","Mozilla/5.0 (Windows NT 10.0; Win64; x64) AppleWebKit/537.36 (KHTML, like Gecko) Chrome/138.0.0.0 Safari/537.36","WebKit","Chrome","138.0.0.0","Windows","10.0","https://app.prolific.com/","en-US,en;q=0.9","611d0afbb2a19acfd012545b","687a19d2168e237449fb8af4","6889d9e4cf2ca61c950e73ca","0","611d0afbb2a19acfd012545b","0","2025-07-30T08:42:01.421Z","","","","","","","","","","","","","","","","","","","","","","","","","","","","","","","","","","","","","","","","","",""
"60983.79999999702","","","","survey-template","7","288544","0.0-4.0-3.0","7","1","2025-07-30 08:38:12","36c45c0696341be0efffe67d72a12abb","154.117.166.3","Mozilla/5.0 (Windows NT 10.0; Win64; x64) AppleWebKit/537.36 (KHTML, like Gecko) Chrome/138.0.0.0 Safari/537.36","WebKit","Chrome","138.0.0.0","Windows","10.0","https://app.prolific.com/","en-US,en;q=0.9","611d0afbb2a19acfd012545b","687a19d2168e237449fb8af4","6889d9e4cf2ca61c950e73ca","0","611d0afbb2a19acfd012545b","0","2025-07-30T08:43:02.407Z","","","","drsp","{""Q01"":""0"",""Q02"":""0"",""Q03"":""0"",""Q04"":""0"",""Q05"":""0"",""Q06"":""0"",""Q07"":""0"",""Q08"":""0"",""Q09"":""0"",""Q10"":""0"",""Q11"":""0"",""Q12"":""0"",""Q13"":""5"",""Q14"":""2"",""Q15"":""0"",""Q16"":""0"",""Q17"":""0"",""Q18"":""0"",""Q19"":""0"",""Q20"":""0"",""Q21"":""0"",""Q22"":""0""}","[0,1,2,3,4,5,6,7,8,9,10,11,12,13,14,15,16,17,18,19,20,21]","[""Q01"",""Q02"",""Q03"",""Q04"",""Q05"",""Q06"",""Q07"",""Q08"",""Q09"",""Q10"",""Q11"",""Q12"",""Q13"",""Q14"",""Q15"",""Q16"",""Q17"",""Q18"",""Q19"",""Q20"",""Q21"",""Q22""]","[3776,4961.0999999940395,6359.4000000059605,7346.20000000298,8540.29999999702,10066.70000000298,15844.59999999404,18207.09999999404,19852.40000000596,21224.59999999404,25756.59999999404,27715.59999999404,31461.20000000298,37290.20000000298,41655.90000000596,43513.20000000298,46129.90000000596,47407.40000000596,50833.09999999404,54688,57194.59999999404,59145.09999999404]","[]","[12.5,3776,4961.0999999940395,6359.4000000059605,7346.20000000298,8540.29999999702,10066.70000000298,11470.29999999702,13396.40000000596,14636.5,15844.59999999404,16907.20000000298,18207.09999999404,19852.40000000596,21224.59999999404,23644.90000000596,25756.59999999404,27715.59999999404,31461.20000000298,35590.79999999702,37290.20000000298,40624.5,41655.90000000596,43513.20000000298,46129.90000000596,47407.40000000596,49616.70000000298,50833.09999999404,54688,57194.59999999404,59145.09999999404,60981.5]","0.9090909090909091","0.047619047619047616","0","","","","","","","","","","","","","","","","","","","","","","","","","","","","",""
"22419.20000000298","","","","survey-template","8","310965","0.0-4.0-4.0","7","1","2025-07-30 08:38:12","36c45c0696341be0efffe67d72a12abb","154.117.166.3","Mozilla/5.0 (Windows NT 10.0; Win64; x64) AppleWebKit/537.36 (KHTML, like Gecko) Chrome/138.0.0.0 Safari/537.36","WebKit","Chrome","138.0.0.0","Windows","10.0","https://app.prolific.com/","en-US,en;q=0.9","611d0afbb2a19acfd012545b","687a19d2168e237449fb8af4","6889d9e4cf2ca61c950e73ca","0","611d0afbb2a19acfd012545b","0","2025-07-30T08:43:24.828Z","","","","stress","{""Q01"":""0"",""Q02"":""0"",""Q03"":""0""}","[0,1,2]","[""Q01"",""Q02"",""Q03""]","[4440.100000008941,14359,21110.90000000596]","[]","[2880.2999999970198,4440.100000008941,11619.70000000298,14359,21110.90000000596,22418.60000000894]","0.6666666666666666","1","0","","","","","","","","","","","","","","","","","","","","","","","","","","","","",""
"102459","","","","instructions","9","413424","0.0-5.0-0.0","7","1","2025-07-30 08:38:12","36c45c0696341be0efffe67d72a12abb","154.117.166.3","Mozilla/5.0 (Windows NT 10.0; Win64; x64) AppleWebKit/537.36 (KHTML, like Gecko) Chrome/138.0.0.0 Safari/537.36","WebKit","Chrome","138.0.0.0","Windows","10.0","https://app.prolific.com/","en-US,en;q=0.9","611d0afbb2a19acfd012545b","687a19d2168e237449fb8af4","6889d9e4cf2ca61c950e73ca","0","611d0afbb2a19acfd012545b","0","","","","","","","","","","","","","","","[{""page_index"":0,""viewing_time"":102458}]","","","","","","","","","","","","","","","","","","","","","","","","","","","",""
"25749","","<p>Before you start with this game please answer the following three questions yourself. </p>
  <p>Through this game, we measure several aspects of your cognitive performance, such as reaction times, multi-tasking capabilities </p>
  <p>and the ability to assess the situation you are in.</p>
  <p></p>
  <p><b>How good do you usually are in such tasks?</b></p>","100","html-slider-response","10","439178","0.0-6.0-0.0","7","1","2025-07-30 08:38:12","36c45c0696341be0efffe67d72a12abb","154.117.166.3","Mozilla/5.0 (Windows NT 10.0; Win64; x64) AppleWebKit/537.36 (KHTML, like Gecko) Chrome/138.0.0.0 Safari/537.36","WebKit","Chrome","138.0.0.0","Windows","10.0","https://app.prolific.com/","en-US,en;q=0.9","611d0afbb2a19acfd012545b","687a19d2168e237449fb8af4","6889d9e4cf2ca61c950e73ca","0","611d0afbb2a19acfd012545b","0","2025-07-30T08:45:33.041Z","","","","PreSkillQ","","","","","","","","","","","50","","","","","","","","","","","","","","","","","","","","","","","","","","",""
"5780","","<div style=""width:500px;"">
  <p>How well do you think you will perform in this task compared to other participants?</p>
  </div>","100","html-slider-response","11","444959","0.0-6.0-1.0","7","1","2025-07-30 08:38:12","36c45c0696341be0efffe67d72a12abb","154.117.166.3","Mozilla/5.0 (Windows NT 10.0; Win64; x64) AppleWebKit/537.36 (KHTML, like Gecko) Chrome/138.0.0.0 Safari/537.36","WebKit","Chrome","138.0.0.0","Windows","10.0","https://app.prolific.com/","en-US,en;q=0.9","611d0afbb2a19acfd012545b","687a19d2168e237449fb8af4","6889d9e4cf2ca61c950e73ca","0","611d0afbb2a19acfd012545b","0","2025-07-30T08:45:38.822Z","","","","PrePerfQ","","","","","","","","","","","50","","","","","","","","","","","","","","","","","","","","","","","","","","",""
"3952","","<div style=""width:500px;"">
  <p>What best describes how you currently feel?</p>
  </div>","100","html-slider-response","12","448912","0.0-6.0-2.0","7","1","2025-07-30 08:38:12","36c45c0696341be0efffe67d72a12abb","154.117.166.3","Mozilla/5.0 (Windows NT 10.0; Win64; x64) AppleWebKit/537.36 (KHTML, like Gecko) Chrome/138.0.0.0 Safari/537.36","WebKit","Chrome","138.0.0.0","Windows","10.0","https://app.prolific.com/","en-US,en;q=0.9","611d0afbb2a19acfd012545b","687a19d2168e237449fb8af4","6889d9e4cf2ca61c950e73ca","0","611d0afbb2a19acfd012545b","0","2025-07-30T08:45:42.775Z","","","","PreMotivationQ","","","","","","","","","","","50","","","","","","","","","","","","","","","","","","","","","","","","","","",""
"","","","","ctl-task-cpt","13","474799","0.0-7.0-0.0","7","1","2025-07-30 08:38:12","36c45c0696341be0efffe67d72a12abb","154.117.166.3","Mozilla/5.0 (Windows NT 10.0; Win64; x64) AppleWebKit/537.36 (KHTML, like Gecko) Chrome/138.0.0.0 Safari/537.36","WebKit","Chrome","138.0.0.0","Windows","10.0","https://app.prolific.com/","en-US,en;q=0.9","611d0afbb2a19acfd012545b","687a19d2168e237449fb8af4","6889d9e4cf2ca61c950e73ca","0","611d0afbb2a19acfd012545b","0","2025-07-30T08:46:08.662Z","","","","","","","","","","","","","","","","win-only","1","g1:NE,g2:SW","1","1","0","454309.1","5005","10011.2","22877.3","1","4","8","6","2","-8","-8","0","0","0","1933.3","3000","-2990","[""down"",""left""]","{""num_key_presses"":3,""num_perfect"":3,""num_errors"":0,""num_randdir"":0,""num_randdir_good_moves"":0,""num_whilered"":0,""num_whileblue"":0,""num_blue"":0,""num_good_moves"":3}","[296.22232142857143,299.12857142857143,0.2,296.22232142857143,299.12857142857143,100.2,296.22232142857143,299.12857142857143,200.6,296.22232142857143,299.12857142857143,306,296.22232142857143,299.12857142857143,406.3,296.22232142857143,299.12857142857143,506.6,296.22232142857143,299.12857142857143,610.9,296.22232142857143,299.12857142857143,717.2,296.22232142857143,299.12857142857143,820.4,215.22232142857143,349.12857142857143,920.8,26.222321428571426,562.1285714285714,1021.3,6.222321428571426,612.1285714285714,1126.7,6.222321428571426,612.1285714285714,1226.9,6.222321428571426,612.1285714285714,1334,6.222321428571426,612.1285714285714,1437.1,20.222321428571426,591.1285714285714,1541.4,23.222321428571426,587.1285714285714,1651.1,23.222321428571426,587.1285714285714,1756.6,23.222321428571426,587.1285714285714,1862.2,23.222321428571426,587.1285714285714,1967.8,23.222321428571426,587.1285714285714,2071.1,23.222321428571426,587.1285714285714,2176.4,23.222321428571426,587.1285714285714,2283.8,23.222321428571426,587.1285714285714,2386,62.222321428571426,538.1285714285714,2486.9,257.22232142857143,319.12857142857143,2591.4,300.22232142857143,275.12857142857143,2691.8,303.22232142857143,272.12857142857143,2800.1,303.22232142857143,272.12857142857143,2901.2,317.22232142857143,264.12857142857143,3010.7,331.22232142857143,257.12857142857143,3111.5,334.22232142857143,257.12857142857143,3211.7,335.22232142857143,257.12857142857143,3316.7,335.22232142857143,257.12857142857143,3417.1,335.22232142857143,257.12857142857143,3520.7,335.22232142857143,257.12857142857143,3621.7,335.22232142857143,257.12857142857143,3726.2,335.22232142857143,257.12857142857143,3826.7,335.22232142857143,257.12857142857143,3934.3,335.22232142857143,257.12857142857143,4036.5,335.22232142857143,257.12857142857143,4136.5,335.22232142857143,257.12857142857143,4241.2,335.22232142857143,257.12857142857143,4350.2,335.22232142857143,257.12857142857143,4450.2,335.22232142857143,257.12857142857143,4555.9,335.22232142857143,257.12857142857143,4661.7,335.22232142857143,257.12857142857143,4767.1,335.22232142857143,257.12857142857143,4871.5,335.22232142857143,257.12857142857143,4975.7]","[2567.4,2567.4,1000,0,1567.4,""smooth"",""left"",""left"",""good_move"",6487.7,3920.1,3186.5,2567.7,733.5,""smooth"",""left"",""left"",""good_move"",9774.7,3286.9,2604.5,6487.8,682.4,""smooth"",""down"",""down"",""good_move""]"
"6220","","<div style=""width:500px;"">
  <p>What determined the result of this run?</p>
  </div>","100","html-slider-response","14","481020","0.0-7.0-1.0","7","1","2025-07-30 08:38:12","36c45c0696341be0efffe67d72a12abb","154.117.166.3","Mozilla/5.0 (Windows NT 10.0; Win64; x64) AppleWebKit/537.36 (KHTML, like Gecko) Chrome/138.0.0.0 Safari/537.36","WebKit","Chrome","138.0.0.0","Windows","10.0","https://app.prolific.com/","en-US,en;q=0.9","611d0afbb2a19acfd012545b","687a19d2168e237449fb8af4","6889d9e4cf2ca61c950e73ca","0","611d0afbb2a19acfd012545b","0","2025-07-30T08:46:14.883Z","","","","AttribQ","","","","","","","","","","","50","","","","","","","","","","","","","","","","","","","","","","","","","","",""
"4664","","<div style=""width:500px;"">
  <p>How much control did you have over the ball?</p>
  </div>","0","html-slider-response","15","485685","0.0-7.0-2.0","7","1","2025-07-30 08:38:12","36c45c0696341be0efffe67d72a12abb","154.117.166.3","Mozilla/5.0 (Windows NT 10.0; Win64; x64) AppleWebKit/537.36 (KHTML, like Gecko) Chrome/138.0.0.0 Safari/537.36","WebKit","Chrome","138.0.0.0","Windows","10.0","https://app.prolific.com/","en-US,en;q=0.9","611d0afbb2a19acfd012545b","687a19d2168e237449fb8af4","6889d9e4cf2ca61c950e73ca","0","611d0afbb2a19acfd012545b","0","2025-07-30T08:46:19.548Z","","","","ControlQ","","","","","","","","","","","50","","","","","","","","","","","","","","","","","","","","","","","","","","",""
"4801","","<div style=""width:500px;"">
  <p>How would you describe your current emotional state?</p>
  </div>","0","html-slider-response","16","490487","0.0-7.0-3.0","7","1","2025-07-30 08:38:12","36c45c0696341be0efffe67d72a12abb","154.117.166.3","Mozilla/5.0 (Windows NT 10.0; Win64; x64) AppleWebKit/537.36 (KHTML, like Gecko) Chrome/138.0.0.0 Safari/537.36","WebKit","Chrome","138.0.0.0","Windows","10.0","https://app.prolific.com/","en-US,en;q=0.9","611d0afbb2a19acfd012545b","687a19d2168e237449fb8af4","6889d9e4cf2ca61c950e73ca","0","611d0afbb2a19acfd012545b","0","2025-07-30T08:46:24.350Z","","","","StressQ","","","","","","","","","","","50","","","","","","","","","","","","","","","","","","","","","","","","","","",""
"4419","","<div style=""width:500px;"">
  <p>What best describes how you currently feel?</p>
  </div>","100","html-slider-response","17","494907","0.0-7.0-4.0","7","1","2025-07-30 08:38:12","36c45c0696341be0efffe67d72a12abb","154.117.166.3","Mozilla/5.0 (Windows NT 10.0; Win64; x64) AppleWebKit/537.36 (KHTML, like Gecko) Chrome/138.0.0.0 Safari/537.36","WebKit","Chrome","138.0.0.0","Windows","10.0","https://app.prolific.com/","en-US,en;q=0.9","611d0afbb2a19acfd012545b","687a19d2168e237449fb8af4","6889d9e4cf2ca61c950e73ca","0","611d0afbb2a19acfd012545b","0","2025-07-30T08:46:28.770Z","","","","MotivationQ","","","","","","","","","","","50","","","","","","","","","","","","","","","","","","","","","","","","","","",""
"","","","","ctl-task-cpt","18","524684","0.0-7.0-0.1","7","1","2025-07-30 08:38:12","36c45c0696341be0efffe67d72a12abb","154.117.166.3","Mozilla/5.0 (Windows NT 10.0; Win64; x64) AppleWebKit/537.36 (KHTML, like Gecko) Chrome/138.0.0.0 Safari/537.36","WebKit","Chrome","138.0.0.0","Windows","10.0","https://app.prolific.com/","en-US,en;q=0.9","611d0afbb2a19acfd012545b","687a19d2168e237449fb8af4","6889d9e4cf2ca61c950e73ca","0","611d0afbb2a19acfd012545b","0","2025-07-30T08:46:58.548Z","","","","","","","","","","","","","","","","win-only","3","g1:SW,g2:NE","0.9","2","0","500302","2285.1","7286.8","26757.1","1","4","4","6","2","4","4","4","0","0.030303030303030304","2492.6","3000","130","[""up"",""right""]","{""num_key_presses"":6,""num_perfect"":6,""num_errors"":0,""num_randdir"":0,""num_randdir_good_moves"":0,""num_whilered"":0,""num_whileblue"":0,""num_blue"":1,""num_good_moves"":6}","[298.22232142857143,298.12857142857143,0.2,298.22232142857143,298.12857142857143,101.4,298.22232142857143,298.12857142857143,205.6,298.22232142857143,298.12857142857143,311.1,298.22232142857143,298.12857142857143,416.1,298.22232142857143,298.12857142857143,516.1,298.22232142857143,298.12857142857143,621,298.22232142857143,298.12857142857143,726.4,288.22232142857143,344.12857142857143,827.4,278.22232142857143,351.12857142857143,930.8,246.22232142857143,360.12857142857143,1031.3,225.22232142857143,379.12857142857143,1131.4,221.22232142857143,384.12857142857143,1236.1,345.22232142857143,242.12857142857143,1340.8,638.2223214285714,-31.871428571428574,1446.2,704.2223214285714,-76.87142857142857,1551.6,702.2223214285714,-77.87142857142857,1655.5,610.2223214285714,24.128571428571426,1760.5,593.2223214285714,48.128571428571426,1860.7,592.2223214285714,50.128571428571426,1960.9,587.2223214285714,53.128571428571426,2061.3,574.2223214285714,57.128571428571426,2165.5,568.2223214285714,59.128571428571426,2271.3,568.2223214285714,59.128571428571426,2371.3,568.2223214285714,59.128571428571426,2476.1,568.2223214285714,59.128571428571426,2581.4,568.2223214285714,59.128571428571426,2686.5,568.2223214285714,59.128571428571426,2790.6,568.2223214285714,59.128571428571426,2895.8,568.2223214285714,59.128571428571426,2996.3,568.2223214285714,59.128571428571426,3096.6,549.2223214285714,75.12857142857143,3201.2,314.22232142857143,384.12857142857143,3301.4,237.22232142857143,462.12857142857143,3406.2,219.22232142857143,473.12857142857143,3510.4,216.22232142857143,443.12857142857143,3615.9,229.22232142857143,405.12857142857143,3720.9,253.22232142857143,369.12857142857143,3826.7,254.22232142857143,367.12857142857143,3931.5,255.22232142857143,366.12857142857143,4036.6,255.22232142857143,363.12857142857143,4140.9,255.22232142857143,363.12857142857143,4246.8,255.22232142857143,362.12857142857143,4351.5,255.22232142857143,360.12857142857143,4457.3,255.22232142857143,360.12857142857143,4560.8,255.22232142857143,360.12857142857143,4666.2,255.22232142857143,360.12857142857143,4766.5,255.22232142857143,360.12857142857143,4870,255.22232142857143,360.12857142857143,4970.9]","[1513.9,1513.9,1000,0,513.9,""smooth"",""right"",""right"",""good_move"",4802.2,3288,2814.2,1514.3,473.7,""smooth"",""right"",""right"",""good_move"",7828.7,3026.2,2586.2,4802.6,440,""smooth"",""up"",""up"",""good_move"",14147.7,6318.5,2556.6,11103.8,487.3,""smooth"",""up"",""up"",""good_move"",16567,2419.1,1872,14147.9,547.1,""smooth"",""up"",""up"",""good_move"",19375.4,2808.2,2364.1,16567.2,444.1,""smooth"",""right"",""right"",""good_move""]"
"5135","","<div style=""width:500px;"">
  <p>What determined the result of this run?</p>
  </div>","100","html-slider-response","19","529821","0.0-7.0-1.1","7","1","2025-07-30 08:38:12","36c45c0696341be0efffe67d72a12abb","154.117.166.3","Mozilla/5.0 (Windows NT 10.0; Win64; x64) AppleWebKit/537.36 (KHTML, like Gecko) Chrome/138.0.0.0 Safari/537.36","WebKit","Chrome","138.0.0.0","Windows","10.0","https://app.prolific.com/","en-US,en;q=0.9","611d0afbb2a19acfd012545b","687a19d2168e237449fb8af4","6889d9e4cf2ca61c950e73ca","0","611d0afbb2a19acfd012545b","0","2025-07-30T08:47:03.684Z","","","","AttribQ","","","","","","","","","","","50","","","","","","","","","","","","","","","","","","","","","","","","","","",""
"3723","","<div style=""width:500px;"">
  <p>How much control did you have over the ball?</p>
  </div>","100","html-slider-response","20","533544","0.0-7.0-2.1","7","1","2025-07-30 08:38:12","36c45c0696341be0efffe67d72a12abb","154.117.166.3","Mozilla/5.0 (Windows NT 10.0; Win64; x64) AppleWebKit/537.36 (KHTML, like Gecko) Chrome/138.0.0.0 Safari/537.36","WebKit","Chrome","138.0.0.0","Windows","10.0","https://app.prolific.com/","en-US,en;q=0.9","611d0afbb2a19acfd012545b","687a19d2168e237449fb8af4","6889d9e4cf2ca61c950e73ca","0","611d0afbb2a19acfd012545b","0","2025-07-30T08:47:07.408Z","","","","ControlQ","","","","","","","","","","","50","","","","","","","","","","","","","","","","","","","","","","","","","","",""
"4594","","<div style=""width:500px;"">
  <p>How would you describe your current emotional state?</p>
  </div>","0","html-slider-response","21","538140","0.0-7.0-3.1","7","1","2025-07-30 08:38:12","36c45c0696341be0efffe67d72a12abb","154.117.166.3","Mozilla/5.0 (Windows NT 10.0; Win64; x64) AppleWebKit/537.36 (KHTML, like Gecko) Chrome/138.0.0.0 Safari/537.36","WebKit","Chrome","138.0.0.0","Windows","10.0","https://app.prolific.com/","en-US,en;q=0.9","611d0afbb2a19acfd012545b","687a19d2168e237449fb8af4","6889d9e4cf2ca61c950e73ca","0","611d0afbb2a19acfd012545b","0","2025-07-30T08:47:12.003Z","","","","StressQ","","","","","","","","","","","50","","","","","","","","","","","","","","","","","","","","","","","","","","",""
"4052","","<div style=""width:500px;"">
  <p>What best describes how you currently feel?</p>
  </div>","100","html-slider-response","22","542192","0.0-7.0-4.1","7","1","2025-07-30 08:38:12","36c45c0696341be0efffe67d72a12abb","154.117.166.3","Mozilla/5.0 (Windows NT 10.0; Win64; x64) AppleWebKit/537.36 (KHTML, like Gecko) Chrome/138.0.0.0 Safari/537.36","WebKit","Chrome","138.0.0.0","Windows","10.0","https://app.prolific.com/","en-US,en;q=0.9","611d0afbb2a19acfd012545b","687a19d2168e237449fb8af4","6889d9e4cf2ca61c950e73ca","0","611d0afbb2a19acfd012545b","0","2025-07-30T08:47:16.055Z","","","","MotivationQ","","","","","","","","","","","50","","","","","","","","","","","","","","","","","","","","","","","","","","",""
"","","","","ctl-task-cpt","23","571016","0.0-7.0-0.2","7","1","2025-07-30 08:38:12","36c45c0696341be0efffe67d72a12abb","154.117.166.3","Mozilla/5.0 (Windows NT 10.0; Win64; x64) AppleWebKit/537.36 (KHTML, like Gecko) Chrome/138.0.0.0 Safari/537.36","WebKit","Chrome","138.0.0.0","Windows","10.0","https://app.prolific.com/","en-US,en;q=0.9","611d0afbb2a19acfd012545b","687a19d2168e237449fb8af4","6889d9e4cf2ca61c950e73ca","0","611d0afbb2a19acfd012545b","0","2025-07-30T08:47:44.879Z","","","","","","","","","","","","","","","","win-only","3","g1:SW,g2:NE","0.8","3","0","547588.4","1773.7","6776.8","25801.4","1","4","8","6","2","8","7","11","4","0.08333333333333333","1612.8","3000","200","[""up"",""right""]","{""num_key_presses"":7,""num_perfect"":4,""num_errors"":1,""num_randdir"":2,""num_randdir_good_moves"":2,""num_whilered"":0,""num_whileblue"":0,""num_blue"":0,""num_good_moves"":6}","[292.22232142857143,303.12857142857143,0.2,292.22232142857143,303.12857142857143,102.8,292.22232142857143,303.12857142857143,208.5,292.22232142857143,303.12857142857143,311.9,292.22232142857143,303.12857142857143,416.6,292.22232142857143,303.12857142857143,517.9,292.22232142857143,303.12857142857143,621.7,292.22232142857143,303.12857142857143,722.8,310.22232142857143,284.12857142857143,827.1,469.22232142857143,143.12857142857143,930.4,506.22232142857143,109.12857142857143,1031.7,523.2223214285714,87.12857142857143,1132.7,529.2223214285714,78.12857142857143,1232.8,537.2223214285714,70.12857142857143,1332.8,537.2223214285714,70.12857142857143,1436.9,537.2223214285714,70.12857142857143,1536.9,537.2223214285714,70.12857142857143,1642.2,537.2223214285714,70.12857142857143,1745.5,537.2223214285714,70.12857142857143,1847.2,537.2223214285714,70.12857142857143,1948.2,504.22232142857143,96.12857142857143,2052.1,359.22232142857143,232.12857142857143,2152.3,340.22232142857143,254.12857142857143,2258,340.22232142857143,254.12857142857143,2363.8,340.22232142857143,254.12857142857143,2464.1,340.22232142857143,254.12857142857143,2564.1,340.22232142857143,254.12857142857143,2664.8,340.22232142857143,254.12857142857143,2767.2,340.22232142857143,254.12857142857143,2871.7,340.22232142857143,254.12857142857143,2972.1,303.22232142857143,322.12857142857143,3072.1,291.22232142857143,340.12857142857143,3172.7,289.22232142857143,341.12857142857143,3272.7,288.22232142857143,341.12857142857143,3372.8,288.22232142857143,341.12857142857143,3478.4,288.22232142857143,341.12857142857143,3582.5,283.22232142857143,340.12857142857143,3682.8,259.22232142857143,335.12857142857143,3787.9,242.22232142857143,335.12857142857143,3888.7,235.22232142857143,337.12857142857143,3991.7,235.22232142857143,337.12857142857143,4093,235.22232142857143,337.12857142857143,4193,235.22232142857143,337.12857142857143,4297.6,235.22232142857143,337.12857142857143,4403,235.22232142857143,337.12857142857143,4506.6,235.22232142857143,337.12857142857143,4606.7,235.22232142857143,337.12857142857143,4708,235.22232142857143,337.12857142857143,4813.2,235.22232142857143,337.12857142857143,4914.6]","[1464.4,1464.4,1000,0,464.4,""oops"",""up"",""up"",""good_move"",4501.9,3037.2,2572.7,1464.7,464.5,""oops"",""up"",""right"",""good_move"",7708.6,3206.3,2672.5,4502.3,533.8,""smooth"",""up"",""up"",""good_move"",10378.5,2669.6,2253.1,7708.9,416.5,""smooth"",""up"",""up"",""good_move"",10917.1,538.4,2387.7,10378.7,-1849.3,""error"",""-"",""-"",""no_move"",15542,4624.6,3167.9,11919.2,454.9,""smooth"",""right"",""right"",""good_move"",18931.9,3389.7,2894.9,15542.2,494.8,""smooth"",""right"",""right"",""good_move""]"
"3466","","<div style=""width:500px;"">
  <p>What determined the result of this run?</p>
  </div>","100","html-slider-response","24","574483","0.0-7.0-1.2","7","1","2025-07-30 08:38:12","36c45c0696341be0efffe67d72a12abb","154.117.166.3","Mozilla/5.0 (Windows NT 10.0; Win64; x64) AppleWebKit/537.36 (KHTML, like Gecko) Chrome/138.0.0.0 Safari/537.36","WebKit","Chrome","138.0.0.0","Windows","10.0","https://app.prolific.com/","en-US,en;q=0.9","611d0afbb2a19acfd012545b","687a19d2168e237449fb8af4","6889d9e4cf2ca61c950e73ca","0","611d0afbb2a19acfd012545b","0","2025-07-30T08:47:48.346Z","","","","AttribQ","","","","","","","","","","","50","","","","","","","","","","","","","","","","","","","","","","","","","","",""
"2905","","<div style=""width:500px;"">
  <p>How much control did you have over the ball?</p>
  </div>","100","html-slider-response","25","577389","0.0-7.0-2.2","7","1","2025-07-30 08:38:12","36c45c0696341be0efffe67d72a12abb","154.117.166.3","Mozilla/5.0 (Windows NT 10.0; Win64; x64) AppleWebKit/537.36 (KHTML, like Gecko) Chrome/138.0.0.0 Safari/537.36","WebKit","Chrome","138.0.0.0","Windows","10.0","https://app.prolific.com/","en-US,en;q=0.9","611d0afbb2a19acfd012545b","687a19d2168e237449fb8af4","6889d9e4cf2ca61c950e73ca","0","611d0afbb2a19acfd012545b","0","2025-07-30T08:47:51.252Z","","","","ControlQ","","","","","","","","","","","50","","","","","","","","","","","","","","","","","","","","","","","","","","",""
"2959","","<div style=""width:500px;"">
  <p>How would you describe your current emotional state?</p>
  </div>","0","html-slider-response","26","580349","0.0-7.0-3.2","7","1","2025-07-30 08:38:12","36c45c0696341be0efffe67d72a12abb","154.117.166.3","Mozilla/5.0 (Windows NT 10.0; Win64; x64) AppleWebKit/537.36 (KHTML, like Gecko) Chrome/138.0.0.0 Safari/537.36","WebKit","Chrome","138.0.0.0","Windows","10.0","https://app.prolific.com/","en-US,en;q=0.9","611d0afbb2a19acfd012545b","687a19d2168e237449fb8af4","6889d9e4cf2ca61c950e73ca","0","611d0afbb2a19acfd012545b","0","2025-07-30T08:47:54.212Z","","","","StressQ","","","","","","","","","","","50","","","","","","","","","","","","","","","","","","","","","","","","","","",""
"3210","","<div style=""width:500px;"">
  <p>What best describes how you currently feel?</p>
  </div>","100","html-slider-response","27","583559","0.0-7.0-4.2","7","1","2025-07-30 08:38:12","36c45c0696341be0efffe67d72a12abb","154.117.166.3","Mozilla/5.0 (Windows NT 10.0; Win64; x64) AppleWebKit/537.36 (KHTML, like Gecko) Chrome/138.0.0.0 Safari/537.36","WebKit","Chrome","138.0.0.0","Windows","10.0","https://app.prolific.com/","en-US,en;q=0.9","611d0afbb2a19acfd012545b","687a19d2168e237449fb8af4","6889d9e4cf2ca61c950e73ca","0","611d0afbb2a19acfd012545b","0","2025-07-30T08:47:57.422Z","","","","MotivationQ","","","","","","","","","","","50","","","","","","","","","","","","","","","","","","","","","","","","","","",""
"","","","","ctl-task-cpt","28","624312","0.0-7.0-0.3","7","1","2025-07-30 08:38:12","36c45c0696341be0efffe67d72a12abb","154.117.166.3","Mozilla/5.0 (Windows NT 10.0; Win64; x64) AppleWebKit/537.36 (KHTML, like Gecko) Chrome/138.0.0.0 Safari/537.36","WebKit","Chrome","138.0.0.0","Windows","10.0","https://app.prolific.com/","en-US,en;q=0.9","611d0afbb2a19acfd012545b","687a19d2168e237449fb8af4","6889d9e4cf2ca61c950e73ca","0","611d0afbb2a19acfd012545b","0","2025-07-30T08:48:38.175Z","","","","","","","","","","","","","","","","win-only","1","g1:NE,g2:SW","0.7","4","0","588956.1","2817","7820.5","37746.3","1","4","4","6","2","-4","-5","6","11","0.045454545454545456","1747.2","3000","-2975","[""down"",""left""]","{""num_key_presses"":7,""num_perfect"":3,""num_errors"":1,""num_randdir"":3,""num_randdir_good_moves"":0,""num_whilered"":0,""num_whileblue"":1,""num_blue"":4,""num_good_moves"":4}","[294.22232142857143,298.12857142857143,0.4,294.22232142857143,298.12857142857143,104.3,294.22232142857143,298.12857142857143,208.7,294.22232142857143,298.12857142857143,308.9,294.22232142857143,298.12857142857143,409.3,294.22232142857143,298.12857142857143,509.4,294.22232142857143,298.12857142857143,610.1,294.22232142857143,298.12857142857143,718.1,294.22232142857143,298.12857142857143,822.7,292.22232142857143,298.12857142857143,924.6,129.22232142857143,441.12857142857143,1029.1,59.222321428571426,499.12857142857143,1129.4,36.222321428571426,515.1285714285714,1230.2,34.222321428571426,516.1285714285714,1334.5,31.222321428571426,521.1285714285714,1439,31.222321428571426,521.1285714285714,1544.3,31.222321428571426,521.1285714285714,1649,31.222321428571426,521.1285714285714,1749.5,31.222321428571426,521.1285714285714,1854.6,31.222321428571426,521.1285714285714,1959.2,31.222321428571426,521.1285714285714,2060.5,31.222321428571426,521.1285714285714,2164.3,38.222321428571426,518.1285714285714,2270.4,237.22232142857143,381.12857142857143,2373.6,310.22232142857143,302.12857142857143,2479.7,332.22232142857143,278.12857142857143,2586.1,333.22232142857143,278.12857142857143,2688.6,333.22232142857143,277.12857142857143,2789.4,333.22232142857143,277.12857142857143,2889.6,335.22232142857143,274.12857142857143,2994.4,337.22232142857143,270.12857142857143,3101.8,337.22232142857143,270.12857142857143,3203.9,337.22232142857143,270.12857142857143,3303.9,337.22232142857143,270.12857142857143,3409,337.22232142857143,270.12857142857143,3515.1,337.22232142857143,270.12857142857143,3615.8,337.22232142857143,270.12857142857143,3719.1,337.22232142857143,270.12857142857143,3819.2,337.22232142857143,270.12857142857143,3923.8,337.22232142857143,270.12857142857143,4024.2,337.22232142857143,270.12857142857143,4124.6,337.22232142857143,270.12857142857143,4229.6,337.22232142857143,270.12857142857143,4330.1,337.22232142857143,270.12857142857143,4433.1,337.22232142857143,270.12857142857143,4535.9,337.22232142857143,270.12857142857143,4638.5,337.22232142857143,270.12857142857143,4739.2,337.22232142857143,270.12857142857143,4843.5,337.22232142857143,270.12857142857143,4948.9]","[1447.3,1447.3,1000,0,447.3,""smooth"",""down"",""down"",""good_move"",3945.6,2497.9,2073,1447.7,424.9,""oops"",""left"",""up"",""bad_move"",6197,2251,1903.8,3946,347.2,""smooth"",""down"",""down"",""good_move"",8448.7,2251.5,1834.6,6197.2,416.9,""oops"",""down"",""right"",""bad_move"",10903.3,2454.2,2022.4,8449.1,431.8,""oops"",""down"",""right"",""bad_move"",17209.6,6306,2378.6,14535.8,295.2,""while_blue"",""down"",""down"",""good_move"",27408.6,10198.7,2984.5,23825.4,598.7,""smooth"",""left"",""left"",""good_move""]"
"4078","","<div style=""width:500px;"">
  <p>What determined the result of this run?</p>
  </div>","100","html-slider-response","29","628391","0.0-7.0-1.3","7","1","2025-07-30 08:38:12","36c45c0696341be0efffe67d72a12abb","154.117.166.3","Mozilla/5.0 (Windows NT 10.0; Win64; x64) AppleWebKit/537.36 (KHTML, like Gecko) Chrome/138.0.0.0 Safari/537.36","WebKit","Chrome","138.0.0.0","Windows","10.0","https://app.prolific.com/","en-US,en;q=0.9","611d0afbb2a19acfd012545b","687a19d2168e237449fb8af4","6889d9e4cf2ca61c950e73ca","0","611d0afbb2a19acfd012545b","0","2025-07-30T08:48:42.254Z","","","","AttribQ","","","","","","","","","","","50","","","","","","","","","","","","","","","","","","","","","","","","","","",""
"3004","","<div style=""width:500px;"">
  <p>How much control did you have over the ball?</p>
  </div>","100","html-slider-response","30","631395","0.0-7.0-2.3","7","1","2025-07-30 08:38:12","36c45c0696341be0efffe67d72a12abb","154.117.166.3","Mozilla/5.0 (Windows NT 10.0; Win64; x64) AppleWebKit/537.36 (KHTML, like Gecko) Chrome/138.0.0.0 Safari/537.36","WebKit","Chrome","138.0.0.0","Windows","10.0","https://app.prolific.com/","en-US,en;q=0.9","611d0afbb2a19acfd012545b","687a19d2168e237449fb8af4","6889d9e4cf2ca61c950e73ca","0","611d0afbb2a19acfd012545b","0","2025-07-30T08:48:45.259Z","","","","ControlQ","","","","","","","","","","","50","","","","","","","","","","","","","","","","","","","","","","","","","","",""
"3050","","<div style=""width:500px;"">
  <p>How would you describe your current emotional state?</p>
  </div>","0","html-slider-response","31","634446","0.0-7.0-3.3","7","1","2025-07-30 08:38:12","36c45c0696341be0efffe67d72a12abb","154.117.166.3","Mozilla/5.0 (Windows NT 10.0; Win64; x64) AppleWebKit/537.36 (KHTML, like Gecko) Chrome/138.0.0.0 Safari/537.36","WebKit","Chrome","138.0.0.0","Windows","10.0","https://app.prolific.com/","en-US,en;q=0.9","611d0afbb2a19acfd012545b","687a19d2168e237449fb8af4","6889d9e4cf2ca61c950e73ca","0","611d0afbb2a19acfd012545b","0","2025-07-30T08:48:48.309Z","","","","StressQ","","","","","","","","","","","50","","","","","","","","","","","","","","","","","","","","","","","","","","",""
"3249","","<div style=""width:500px;"">
  <p>What best describes how you currently feel?</p>
  </div>","100","html-slider-response","32","637696","0.0-7.0-4.3","7","1","2025-07-30 08:38:12","36c45c0696341be0efffe67d72a12abb","154.117.166.3","Mozilla/5.0 (Windows NT 10.0; Win64; x64) AppleWebKit/537.36 (KHTML, like Gecko) Chrome/138.0.0.0 Safari/537.36","WebKit","Chrome","138.0.0.0","Windows","10.0","https://app.prolific.com/","en-US,en;q=0.9","611d0afbb2a19acfd012545b","687a19d2168e237449fb8af4","6889d9e4cf2ca61c950e73ca","0","611d0afbb2a19acfd012545b","0","2025-07-30T08:48:51.559Z","","","","MotivationQ","","","","","","","","","","","50","","","","","","","","","","","","","","","","","","","","","","","","","","",""
"","","","","ctl-task-cpt","33","683348","0.0-7.0-0.4","7","1","2025-07-30 08:38:12","36c45c0696341be0efffe67d72a12abb","154.117.166.3","Mozilla/5.0 (Windows NT 10.0; Win64; x64) AppleWebKit/537.36 (KHTML, like Gecko) Chrome/138.0.0.0 Safari/537.36","WebKit","Chrome","138.0.0.0","Windows","10.0","https://app.prolific.com/","en-US,en;q=0.9","611d0afbb2a19acfd012545b","687a19d2168e237449fb8af4","6889d9e4cf2ca61c950e73ca","0","611d0afbb2a19acfd012545b","0","2025-07-30T08:49:37.211Z","","","","","","","","","","","","","","","","win-only","1","g1:NE,g2:SW","0.6","5","0","643092.6","2117.2","7121.3","42645.5","1","4","4","6","2","-4","-5","1","6","0.007575757575757576","2040.2","3000","-3000","[""down"",""left""]","{""num_key_presses"":8,""num_perfect"":5,""num_errors"":1,""num_randdir"":2,""num_randdir_good_moves"":1,""num_whilered"":0,""num_whileblue"":1,""num_blue"":4,""num_good_moves"":6}","[297.22232142857143,291.12857142857143,0.4,297.22232142857143,291.12857142857143,103.5,297.22232142857143,291.12857142857143,209.6,297.22232142857143,291.12857142857143,317.4,297.22232142857143,291.12857142857143,418.9,297.22232142857143,291.12857142857143,524.5,297.22232142857143,291.12857142857143,628.7,297.22232142857143,291.12857142857143,733.3,297.22232142857143,291.12857142857143,833.7,297.22232142857143,291.12857142857143,938.3,297.22232142857143,291.12857142857143,1039.1,21.222321428571426,560.1285714285714,1143.5,-8.777678571428574,597.1285714285714,1248.4,-10.777678571428574,600.1285714285714,1348.8,-11.777678571428574,600.1285714285714,1453.7,26.222321428571426,543.1285714285714,1553.7,32.222321428571426,537.1285714285714,1654,33.222321428571426,536.1285714285714,1761.9,33.222321428571426,536.1285714285714,1863.3,33.222321428571426,536.1285714285714,1969,33.222321428571426,536.1285714285714,2070,33.222321428571426,536.1285714285714,2177.9,33.222321428571426,536.1285714285714,2280.6,33.222321428571426,536.1285714285714,2380.8,33.222321428571426,536.1285714285714,2484.1,33.222321428571426,536.1285714285714,2589.2,128.22232142857143,516.1285714285714,2689.6,254.22232142857143,431.12857142857143,2793.7,340.22232142857143,356.12857142857143,2893.7,394.22232142857143,289.12857142857143,2999.1,400.22232142857143,283.12857142857143,3104.4,400.22232142857143,283.12857142857143,3209.3,400.22232142857143,283.12857142857143,3314,400.22232142857143,283.12857142857143,3417.3,389.22232142857143,278.12857142857143,3518.6,370.22232142857143,274.12857142857143,3623.7,353.22232142857143,265.12857142857143,3728.9,352.22232142857143,264.12857142857143,3831.2,352.22232142857143,264.12857142857143,3933.7,352.22232142857143,264.12857142857143,4038.4,352.22232142857143,264.12857142857143,4139.9,352.22232142857143,264.12857142857143,4244.3,352.22232142857143,264.12857142857143,4348.3,352.22232142857143,264.12857142857143,4448.9,352.22232142857143,264.12857142857143,4549,352.22232142857143,264.12857142857143,4653.6,352.22232142857143,264.12857142857143,4754.2,352.22232142857143,264.12857142857143,4854.3,352.22232142857143,264.12857142857143,4958.9]","[1467.7,1467.7,1000,0,467.7,""smooth"",""down"",""down"",""good_move"",8937.5,7469.5,2676.8,5774.5,486.2,""smooth"",""left"",""left"",""good_move"",12131.7,3193.9,2807.7,8937.8,386.2,""oops"",""left"",""right"",""bad_move"",15807.6,3675.6,3309.7,12132,365.9,""smooth"",""left"",""left"",""good_move"",25217.8,9409.8,2419.7,22409.9,388.2,""oops"",""left"",""left"",""good_move"",27682,2464.1,2075.6,25218.1,388.4,""smooth"",""left"",""left"",""good_move"",30194.6,2512.3,2127.1,27682.3,385.2,""smooth"",""down"",""down"",""good_move"",32965.1,2770.1,2475,30195,295.1,""while_blue"",""down"",""up"",""bad_move""]"
"7332","","<div style=""width:500px;"">
  <p>What determined the result of this run?</p>
  </div>","57","html-slider-response","34","690681","0.0-7.0-1.4","7","1","2025-07-30 08:38:12","36c45c0696341be0efffe67d72a12abb","154.117.166.3","Mozilla/5.0 (Windows NT 10.0; Win64; x64) AppleWebKit/537.36 (KHTML, like Gecko) Chrome/138.0.0.0 Safari/537.36","WebKit","Chrome","138.0.0.0","Windows","10.0","https://app.prolific.com/","en-US,en;q=0.9","611d0afbb2a19acfd012545b","687a19d2168e237449fb8af4","6889d9e4cf2ca61c950e73ca","0","611d0afbb2a19acfd012545b","0","2025-07-30T08:49:44.544Z","","","","AttribQ","","","","","","","","","","","50","","","","","","","","","","","","","","","","","","","","","","","","","","",""
"3287","","<div style=""width:500px;"">
  <p>How much control did you have over the ball?</p>
  </div>","27","html-slider-response","35","693969","0.0-7.0-2.4","7","1","2025-07-30 08:38:12","36c45c0696341be0efffe67d72a12abb","154.117.166.3","Mozilla/5.0 (Windows NT 10.0; Win64; x64) AppleWebKit/537.36 (KHTML, like Gecko) Chrome/138.0.0.0 Safari/537.36","WebKit","Chrome","138.0.0.0","Windows","10.0","https://app.prolific.com/","en-US,en;q=0.9","611d0afbb2a19acfd012545b","687a19d2168e237449fb8af4","6889d9e4cf2ca61c950e73ca","0","611d0afbb2a19acfd012545b","0","2025-07-30T08:49:47.832Z","","","","ControlQ","","","","","","","","","","","50","","","","","","","","","","","","","","","","","","","","","","","","","","",""
"3485","","<div style=""width:500px;"">
  <p>How would you describe your current emotional state?</p>
  </div>","0","html-slider-response","36","697455","0.0-7.0-3.4","7","1","2025-07-30 08:38:12","36c45c0696341be0efffe67d72a12abb","154.117.166.3","Mozilla/5.0 (Windows NT 10.0; Win64; x64) AppleWebKit/537.36 (KHTML, like Gecko) Chrome/138.0.0.0 Safari/537.36","WebKit","Chrome","138.0.0.0","Windows","10.0","https://app.prolific.com/","en-US,en;q=0.9","611d0afbb2a19acfd012545b","687a19d2168e237449fb8af4","6889d9e4cf2ca61c950e73ca","0","611d0afbb2a19acfd012545b","0","2025-07-30T08:49:51.318Z","","","","StressQ","","","","","","","","","","","50","","","","","","","","","","","","","","","","","","","","","","","","","","",""
"3248","","<div style=""width:500px;"">
  <p>What best describes how you currently feel?</p>
  </div>","100","html-slider-response","37","700704","0.0-7.0-4.4","7","1","2025-07-30 08:38:12","36c45c0696341be0efffe67d72a12abb","154.117.166.3","Mozilla/5.0 (Windows NT 10.0; Win64; x64) AppleWebKit/537.36 (KHTML, like Gecko) Chrome/138.0.0.0 Safari/537.36","WebKit","Chrome","138.0.0.0","Windows","10.0","https://app.prolific.com/","en-US,en;q=0.9","611d0afbb2a19acfd012545b","687a19d2168e237449fb8af4","6889d9e4cf2ca61c950e73ca","0","611d0afbb2a19acfd012545b","0","2025-07-30T08:49:54.567Z","","","","MotivationQ","","","","","","","","","","","50","","","","","","","","","","","","","","","","","","","","","","","","","","",""
"","","","","ctl-task-cpt","38","741210","0.0-7.0-0.5","7","1","2025-07-30 08:38:12","36c45c0696341be0efffe67d72a12abb","154.117.166.3","Mozilla/5.0 (Windows NT 10.0; Win64; x64) AppleWebKit/537.36 (KHTML, like Gecko) Chrome/138.0.0.0 Safari/537.36","WebKit","Chrome","138.0.0.0","Windows","10.0","https://app.prolific.com/","en-US,en;q=0.9","611d0afbb2a19acfd012545b","687a19d2168e237449fb8af4","6889d9e4cf2ca61c950e73ca","0","611d0afbb2a19acfd012545b","0","2025-07-30T08:50:35.073Z","","","","","","","","","","","","","","","","win-only","2","g1:SE,g2:NW","0.5","6","0","706100.7","1925.2","6930.4","37480.3","1","4","8","6","2","-8","-8","0","1","0","2081.1","3000","-2930","[""left"",""up""]","{""num_key_presses"":6,""num_perfect"":4,""num_errors"":0,""num_randdir"":2,""num_randdir_good_moves"":0,""num_whilered"":0,""num_whileblue"":0,""num_blue"":3,""num_good_moves"":4}","[298.22232142857143,294.12857142857143,0.2,298.22232142857143,294.12857142857143,100.8,298.22232142857143,294.12857142857143,205,298.22232142857143,294.12857142857143,310.2,298.22232142857143,294.12857142857143,416,298.22232142857143,294.12857142857143,520.1,298.22232142857143,294.12857142857143,621,298.22232142857143,294.12857142857143,721.2,298.22232142857143,294.12857142857143,821.2,298.22232142857143,294.12857142857143,930.4,298.22232142857143,294.12857142857143,1033.7,298.22232142857143,294.12857142857143,1136.3,298.22232142857143,294.12857142857143,1240.7,298.22232142857143,294.12857142857143,1341.2,124.22232142857143,213.12857142857143,1445.4,63.222321428571426,105.12857142857143,1550.3,56.222321428571426,96.12857142857143,1650.5,49.222321428571426,92.12857142857143,1755.2,49.222321428571426,92.12857142857143,1856.7,49.222321428571426,92.12857142857143,1965.6,49.222321428571426,92.12857142857143,2066.1,49.222321428571426,92.12857142857143,2170.7,49.222321428571426,92.12857142857143,2281.7,49.222321428571426,92.12857142857143,2385.3,49.222321428571426,92.12857142857143,2494.5,49.222321428571426,92.12857142857143,2595.3,49.222321428571426,92.12857142857143,2697.8,49.222321428571426,92.12857142857143,2801.2,49.222321428571426,92.12857142857143,2911.5,65.22232142857143,117.12857142857143,3014.8,133.22232142857143,172.12857142857143,3115,151.22232142857143,167.12857142857143,3215.3,161.22232142857143,167.12857142857143,3316.6,185.22232142857143,214.12857142857143,3420.7,203.22232142857143,245.12857142857143,3527.5,203.22232142857143,245.12857142857143,3630.7,203.22232142857143,245.12857142857143,3730.7,203.22232142857143,245.12857142857143,3830.9,203.22232142857143,245.12857142857143,3931.1,203.22232142857143,245.12857142857143,4031.5,203.22232142857143,245.12857142857143,4135.7,203.22232142857143,245.12857142857143,4236.4,203.22232142857143,245.12857142857143,4340.3,203.22232142857143,245.12857142857143,4447.1,203.22232142857143,245.12857142857143,4550.6,203.22232142857143,245.12857142857143,4650.8,203.22232142857143,245.12857142857143,4756.2,203.22232142857143,245.12857142857143,4858.9,203.22232142857143,245.12857142857143,4966.3]","[1504.6,1504.6,1000,0,504.6,""oops"",""left"",""right"",""bad_move"",7603.6,6098.6,2228.9,4821,553.7,""smooth"",""up"",""up"",""good_move"",10554.3,2950.4,2414,7604,536.4,""smooth"",""up"",""up"",""good_move"",14065.4,3510.7,3078.5,10554.8,432.1,""oops"",""left"",""down"",""bad_move"",17473.3,3407.4,2923.5,14065.9,483.9,""smooth"",""up"",""up"",""good_move"",20909.1,3435.6,3040.6,17473.5,395,""smooth"",""up"",""up"",""good_move""]"
"5219","","<div style=""width:500px;"">
  <p>What determined the result of this run?</p>
  </div>","100","html-slider-response","39","746430","0.0-7.0-1.5","7","1","2025-07-30 08:38:12","36c45c0696341be0efffe67d72a12abb","154.117.166.3","Mozilla/5.0 (Windows NT 10.0; Win64; x64) AppleWebKit/537.36 (KHTML, like Gecko) Chrome/138.0.0.0 Safari/537.36","WebKit","Chrome","138.0.0.0","Windows","10.0","https://app.prolific.com/","en-US,en;q=0.9","611d0afbb2a19acfd012545b","687a19d2168e237449fb8af4","6889d9e4cf2ca61c950e73ca","0","611d0afbb2a19acfd012545b","0","2025-07-30T08:50:40.293Z","","","","AttribQ","","","","","","","","","","","50","","","","","","","","","","","","","","","","","","","","","","","","","","",""
"3661","","<div style=""width:500px;"">
  <p>How much control did you have over the ball?</p>
  </div>","9","html-slider-response","40","750092","0.0-7.0-2.5","7","1","2025-07-30 08:38:12","36c45c0696341be0efffe67d72a12abb","154.117.166.3","Mozilla/5.0 (Windows NT 10.0; Win64; x64) AppleWebKit/537.36 (KHTML, like Gecko) Chrome/138.0.0.0 Safari/537.36","WebKit","Chrome","138.0.0.0","Windows","10.0","https://app.prolific.com/","en-US,en;q=0.9","611d0afbb2a19acfd012545b","687a19d2168e237449fb8af4","6889d9e4cf2ca61c950e73ca","0","611d0afbb2a19acfd012545b","0","2025-07-30T08:50:43.955Z","","","","ControlQ","","","","","","","","","","","50","","","","","","","","","","","","","","","","","","","","","","","","","","",""
"10595","","<div style=""width:500px;"">
  <p>How would you describe your current emotional state?</p>
  </div>","0","html-slider-response","41","760688","0.0-7.0-3.5","7","1","2025-07-30 08:38:12","36c45c0696341be0efffe67d72a12abb","154.117.166.3","Mozilla/5.0 (Windows NT 10.0; Win64; x64) AppleWebKit/537.36 (KHTML, like Gecko) Chrome/138.0.0.0 Safari/537.36","WebKit","Chrome","138.0.0.0","Windows","10.0","https://app.prolific.com/","en-US,en;q=0.9","611d0afbb2a19acfd012545b","687a19d2168e237449fb8af4","6889d9e4cf2ca61c950e73ca","0","611d0afbb2a19acfd012545b","0","2025-07-30T08:50:54.551Z","","","","StressQ","","","","","","","","","","","50","","","","","","","","","","","","","","","","","","","","","","","","","","",""
"3905","","<div style=""width:500px;"">
  <p>What best describes how you currently feel?</p>
  </div>","100","html-slider-response","42","764594","0.0-7.0-4.5","7","1","2025-07-30 08:38:12","36c45c0696341be0efffe67d72a12abb","154.117.166.3","Mozilla/5.0 (Windows NT 10.0; Win64; x64) AppleWebKit/537.36 (KHTML, like Gecko) Chrome/138.0.0.0 Safari/537.36","WebKit","Chrome","138.0.0.0","Windows","10.0","https://app.prolific.com/","en-US,en;q=0.9","611d0afbb2a19acfd012545b","687a19d2168e237449fb8af4","6889d9e4cf2ca61c950e73ca","0","611d0afbb2a19acfd012545b","0","2025-07-30T08:50:58.457Z","","","","MotivationQ","","","","","","","","","","","50","","","","","","","","","","","","","","","","","","","","","","","","","","",""
"","","","","ctl-task-cpt","43","815943","0.0-7.0-0.6","7","1","2025-07-30 08:38:12","36c45c0696341be0efffe67d72a12abb","154.117.166.3","Mozilla/5.0 (Windows NT 10.0; Win64; x64) AppleWebKit/537.36 (KHTML, like Gecko) Chrome/138.0.0.0 Safari/537.36","WebKit","Chrome","138.0.0.0","Windows","10.0","https://app.prolific.com/","en-US,en;q=0.9","611d0afbb2a19acfd012545b","687a19d2168e237449fb8af4","6889d9e4cf2ca61c950e73ca","0","611d0afbb2a19acfd012545b","0","2025-07-30T08:51:49.806Z","","","","","","","","","","","","","","","","win-only","0","g1:NW,g2:SE","0.4","7","0","769990.4","2763.1","7763.6","48330.9","1","4","4","6","2","-4","-4","0","0","0","2135.3","3000","-2500","[""down"",""right""]","{""num_key_presses"":8,""num_perfect"":4,""num_errors"":0,""num_randdir"":4,""num_randdir_good_moves"":1,""num_whilered"":0,""num_whileblue"":0,""num_blue"":5,""num_good_moves"":5}","[288.22232142857143,297.12857142857143,0.3,288.22232142857143,297.12857142857143,102,288.22232142857143,297.12857142857143,203.6,288.22232142857143,297.12857142857143,317.6,288.22232142857143,297.12857142857143,418.2,288.22232142857143,297.12857142857143,522.6,288.22232142857143,297.12857142857143,623.1,286.22232142857143,293.12857142857143,727.5,262.22232142857143,249.12857142857143,835.2,259.22232142857143,242.12857142857143,938.1,288.22232142857143,262.12857142857143,1039.3,477.22232142857143,616.1285714285714,1142.7,477.22232142857143,616.1285714285714,1252,477.22232142857143,616.1285714285714,1353.1,477.22232142857143,616.1285714285714,1454.1,493.22232142857143,609.1285714285714,1568.2,507.22232142857143,581.1285714285714,1672.7,515.2223214285714,550.1285714285714,1773.1,516.2223214285714,545.1285714285714,1873.7,516.2223214285714,545.1285714285714,1983.7,516.2223214285714,545.1285714285714,2087.6,516.2223214285714,545.1285714285714,2200.5,516.2223214285714,545.1285714285714,2300.6,516.2223214285714,545.1285714285714,2403.2,500.22232142857143,508.12857142857143,2507.4,342.22232142857143,261.12857142857143,2607.9,306.22232142857143,230.12857142857143,2708,288.22232142857143,221.12857142857143,2816.3,271.22232142857143,225.12857142857143,2916.3,260.22232142857143,230.12857142857143,3017.6,260.22232142857143,230.12857142857143,3117.9,260.22232142857143,230.12857142857143,3223.5,260.22232142857143,230.12857142857143,3332.4,260.22232142857143,230.12857142857143,3433.6,260.22232142857143,230.12857142857143,3537.6,260.22232142857143,230.12857142857143,3642.9,260.22232142857143,230.12857142857143,3747.6,260.22232142857143,230.12857142857143,3852.7,260.22232142857143,230.12857142857143,3966.1,260.22232142857143,230.12857142857143,4069,260.22232142857143,230.12857142857143,4172.8,260.22232142857143,230.12857142857143,4273.5,260.22232142857143,230.12857142857143,4383.2,260.22232142857143,230.12857142857143,4487.8,260.22232142857143,230.12857142857143,4592.4,260.22232142857143,230.12857142857143,4692.6,260.22232142857143,230.12857142857143,4792.7,260.22232142857143,230.12857142857143,4897.5]","[1464.5,1464.5,1000,0,464.5,""smooth"",""right"",""right"",""good_move"",4414.5,2949.7,2523.8,1464.8,425.9,""smooth"",""right"",""right"",""good_move"",7944.6,3529.9,3044.7,4414.7,485.2,""oops"",""down"",""right"",""good_move"",17435,9490.1,2274.1,14733.2,427.8,""oops"",""down"",""left"",""bad_move"",19599.6,2164.2,1654.7,17435.4,509.5,""oops"",""down"",""left"",""bad_move"",33529.1,13929,2937.1,30148,444,""smooth"",""down"",""down"",""good_move"",36161.3,2631.8,2247.4,33529.5,384.4,""smooth"",""down"",""down"",""good_move"",38280.8,2119.2,1773.5,36161.6,345.7,""oops"",""right"",""up"",""bad_move""]"
"7622","","<div style=""width:500px;"">
  <p>What determined the result of this run?</p>
  </div>","79","html-slider-response","44","823566","0.0-7.0-1.6","7","1","2025-07-30 08:38:12","36c45c0696341be0efffe67d72a12abb","154.117.166.3","Mozilla/5.0 (Windows NT 10.0; Win64; x64) AppleWebKit/537.36 (KHTML, like Gecko) Chrome/138.0.0.0 Safari/537.36","WebKit","Chrome","138.0.0.0","Windows","10.0","https://app.prolific.com/","en-US,en;q=0.9","611d0afbb2a19acfd012545b","687a19d2168e237449fb8af4","6889d9e4cf2ca61c950e73ca","0","611d0afbb2a19acfd012545b","0","2025-07-30T08:51:57.429Z","","","","AttribQ","","","","","","","","","","","50","","","","","","","","","","","","","","","","","","","","","","","","","","",""
"8522","","<div style=""width:500px;"">
  <p>How much control did you have over the ball?</p>
  </div>","34","html-slider-response","45","832089","0.0-7.0-2.6","7","1","2025-07-30 08:38:12","36c45c0696341be0efffe67d72a12abb","154.117.166.3","Mozilla/5.0 (Windows NT 10.0; Win64; x64) AppleWebKit/537.36 (KHTML, like Gecko) Chrome/138.0.0.0 Safari/537.36","WebKit","Chrome","138.0.0.0","Windows","10.0","https://app.prolific.com/","en-US,en;q=0.9","611d0afbb2a19acfd012545b","687a19d2168e237449fb8af4","6889d9e4cf2ca61c950e73ca","0","611d0afbb2a19acfd012545b","0","2025-07-30T08:52:05.952Z","","","","ControlQ","","","","","","","","","","","50","","","","","","","","","","","","","","","","","","","","","","","","","","",""
"3835","","<div style=""width:500px;"">
  <p>How would you describe your current emotional state?</p>
  </div>","0","html-slider-response","46","835926","0.0-7.0-3.6","7","1","2025-07-30 08:38:12","36c45c0696341be0efffe67d72a12abb","154.117.166.3","Mozilla/5.0 (Windows NT 10.0; Win64; x64) AppleWebKit/537.36 (KHTML, like Gecko) Chrome/138.0.0.0 Safari/537.36","WebKit","Chrome","138.0.0.0","Windows","10.0","https://app.prolific.com/","en-US,en;q=0.9","611d0afbb2a19acfd012545b","687a19d2168e237449fb8af4","6889d9e4cf2ca61c950e73ca","0","611d0afbb2a19acfd012545b","0","2025-07-30T08:52:09.789Z","","","","StressQ","","","","","","","","","","","50","","","","","","","","","","","","","","","","","","","","","","","","","","",""
"3592","","<div style=""width:500px;"">
  <p>What best describes how you currently feel?</p>
  </div>","100","html-slider-response","47","839519","0.0-7.0-4.6","7","1","2025-07-30 08:38:12","36c45c0696341be0efffe67d72a12abb","154.117.166.3","Mozilla/5.0 (Windows NT 10.0; Win64; x64) AppleWebKit/537.36 (KHTML, like Gecko) Chrome/138.0.0.0 Safari/537.36","WebKit","Chrome","138.0.0.0","Windows","10.0","https://app.prolific.com/","en-US,en;q=0.9","611d0afbb2a19acfd012545b","687a19d2168e237449fb8af4","6889d9e4cf2ca61c950e73ca","0","611d0afbb2a19acfd012545b","0","2025-07-30T08:52:13.382Z","","","","MotivationQ","","","","","","","","","","","50","","","","","","","","","","","","","","","","","","","","","","","","","","",""
"","","","","ctl-task-cpt","48","884903","0.0-7.0-0.7","7","1","2025-07-30 08:38:12","36c45c0696341be0efffe67d72a12abb","154.117.166.3","Mozilla/5.0 (Windows NT 10.0; Win64; x64) AppleWebKit/537.36 (KHTML, like Gecko) Chrome/138.0.0.0 Safari/537.36","WebKit","Chrome","138.0.0.0","Windows","10.0","https://app.prolific.com/","en-US,en;q=0.9","611d0afbb2a19acfd012545b","687a19d2168e237449fb8af4","6889d9e4cf2ca61c950e73ca","0","611d0afbb2a19acfd012545b","0","2025-07-30T08:52:58.766Z","","","","","","","","","","","","","","","","win-only","3","g1:SW,g2:NE","0.3","8","0","844915.3","1782.7","6783.9","42366.3","1","4","8","6","2","-8","-8","0","0","0","2471.9","3000","-2420","[""up"",""right""]","{""num_key_presses"":8,""num_perfect"":3,""num_errors"":0,""num_randdir"":5,""num_randdir_good_moves"":3,""num_whilered"":0,""num_whileblue"":0,""num_blue"":3,""num_good_moves"":6}","[298.22232142857143,301.12857142857143,0.2,298.22232142857143,301.12857142857143,102.2,298.22232142857143,301.12857142857143,202.5,298.22232142857143,301.12857142857143,303.9,298.22232142857143,301.12857142857143,408.3,298.22232142857143,301.12857142857143,519.4,298.22232142857143,301.12857142857143,622.6,298.22232142857143,301.12857142857143,723.5,298.22232142857143,301.12857142857143,837.7,298.22232142857143,301.12857142857143,938.8,376.22232142857143,231.12857142857143,1039.3,496.22232142857143,76.12857142857143,1142.9,540.2223214285714,1.1285714285714263,1243.2,548.2223214285714,-7.871428571428574,1352.2,548.2223214285714,-7.871428571428574,1452.9,528.2223214285714,34.128571428571426,1553.3,515.2223214285714,61.128571428571426,1658.4,514.2223214285714,62.128571428571426,1758.4,514.2223214285714,62.128571428571426,1868.1,514.2223214285714,62.128571428571426,1972.7,514.2223214285714,62.128571428571426,2086.9,514.2223214285714,62.128571428571426,2188.1,514.2223214285714,62.128571428571426,2292.6,514.2223214285714,62.128571428571426,2392.8,514.2223214285714,62.128571428571426,2500.9,514.2223214285714,62.128571428571426,2604.2,514.2223214285714,62.128571428571426,2708.1,514.2223214285714,62.128571428571426,2808.2,514.2223214285714,62.128571428571426,2918.5,514.2223214285714,62.128571428571426,3019.1,514.2223214285714,62.128571428571426,3122.8,513.2223214285714,62.128571428571426,3223.1,364.22232142857143,182.12857142857143,3328.8,304.22232142857143,234.12857142857143,3437.3,232.22232142857143,303.12857142857143,3537.5,187.22232142857143,344.12857142857143,3639.1,186.22232142857143,344.12857142857143,3742.7,186.22232142857143,344.12857142857143,3842.9,186.22232142857143,344.12857142857143,3951.9,196.22232142857143,347.12857142857143,4053,220.22232142857143,348.12857142857143,4159.1,232.22232142857143,347.12857142857143,4262.9,233.22232142857143,347.12857142857143,4367.8,233.22232142857143,345.12857142857143,4468,233.22232142857143,345.12857142857143,4568.1,233.22232142857143,345.12857142857143,4668.6,233.22232142857143,345.12857142857143,4773.3,233.22232142857143,345.12857142857143,4886.7,233.22232142857143,345.12857142857143,4988.7]","[1455.9,1455.9,1000,0,455.9,""oops"",""right"",""right"",""good_move"",4063.8,2607.5,2254.5,1456.3,353,""oops"",""right"",""left"",""bad_move"",11289.9,7225.6,3046.1,7767.3,476.5,""smooth"",""up"",""up"",""good_move"",17122.3,5832.3,2462.7,14321.8,337.9,""oops"",""up"",""left"",""bad_move"",19693.6,2571,2088.4,17122.6,482.6,""smooth"",""up"",""up"",""good_move"",22676.8,2982.8,2408.4,19694,574.4,""oops"",""up"",""right"",""good_move"",29303.4,6625.9,2274,26552,477.4,""smooth"",""up"",""up"",""good_move"",32915.9,3612,3147.9,29303.9,464.1,""oops"",""up"",""right"",""good_move""]"
"4760","","<div style=""width:500px;"">
  <p>What determined the result of this run?</p>
  </div>","76","html-slider-response","49","889665","0.0-7.0-1.7","7","1","2025-07-30 08:38:12","36c45c0696341be0efffe67d72a12abb","154.117.166.3","Mozilla/5.0 (Windows NT 10.0; Win64; x64) AppleWebKit/537.36 (KHTML, like Gecko) Chrome/138.0.0.0 Safari/537.36","WebKit","Chrome","138.0.0.0","Windows","10.0","https://app.prolific.com/","en-US,en;q=0.9","611d0afbb2a19acfd012545b","687a19d2168e237449fb8af4","6889d9e4cf2ca61c950e73ca","0","611d0afbb2a19acfd012545b","0","2025-07-30T08:53:03.528Z","","","","AttribQ","","","","","","","","","","","50","","","","","","","","","","","","","","","","","","","","","","","","","","",""
"9852","","<div style=""width:500px;"">
  <p>How much control did you have over the ball?</p>
  </div>","41","html-slider-response","50","899518","0.0-7.0-2.7","7","1","2025-07-30 08:38:12","36c45c0696341be0efffe67d72a12abb","154.117.166.3","Mozilla/5.0 (Windows NT 10.0; Win64; x64) AppleWebKit/537.36 (KHTML, like Gecko) Chrome/138.0.0.0 Safari/537.36","WebKit","Chrome","138.0.0.0","Windows","10.0","https://app.prolific.com/","en-US,en;q=0.9","611d0afbb2a19acfd012545b","687a19d2168e237449fb8af4","6889d9e4cf2ca61c950e73ca","0","611d0afbb2a19acfd012545b","0","2025-07-30T08:53:13.381Z","","","","ControlQ","","","","","","","","","","","50","","","","","","","","","","","","","","","","","","","","","","","","","","",""
"9607","","<div style=""width:500px;"">
  <p>How would you describe your current emotional state?</p>
  </div>","0","html-slider-response","51","909127","0.0-7.0-3.7","7","1","2025-07-30 08:38:12","36c45c0696341be0efffe67d72a12abb","154.117.166.3","Mozilla/5.0 (Windows NT 10.0; Win64; x64) AppleWebKit/537.36 (KHTML, like Gecko) Chrome/138.0.0.0 Safari/537.36","WebKit","Chrome","138.0.0.0","Windows","10.0","https://app.prolific.com/","en-US,en;q=0.9","611d0afbb2a19acfd012545b","687a19d2168e237449fb8af4","6889d9e4cf2ca61c950e73ca","0","611d0afbb2a19acfd012545b","0","2025-07-30T08:53:22.990Z","","","","StressQ","","","","","","","","","","","50","","","","","","","","","","","","","","","","","","","","","","","","","","",""
"3683","","<div style=""width:500px;"">
  <p>What best describes how you currently feel?</p>
  </div>","100","html-slider-response","52","912811","0.0-7.0-4.7","7","1","2025-07-30 08:38:12","36c45c0696341be0efffe67d72a12abb","154.117.166.3","Mozilla/5.0 (Windows NT 10.0; Win64; x64) AppleWebKit/537.36 (KHTML, like Gecko) Chrome/138.0.0.0 Safari/537.36","WebKit","Chrome","138.0.0.0","Windows","10.0","https://app.prolific.com/","en-US,en;q=0.9","611d0afbb2a19acfd012545b","687a19d2168e237449fb8af4","6889d9e4cf2ca61c950e73ca","0","611d0afbb2a19acfd012545b","0","2025-07-30T08:53:26.674Z","","","","MotivationQ","","","","","","","","","","","50","","","","","","","","","","","","","","","","","","","","","","","","","","",""
"","","","","ctl-task-cpt","53","947987","0.0-7.0-0.8","7","1","2025-07-30 08:38:12","36c45c0696341be0efffe67d72a12abb","154.117.166.3","Mozilla/5.0 (Windows NT 10.0; Win64; x64) AppleWebKit/537.36 (KHTML, like Gecko) Chrome/138.0.0.0 Safari/537.36","WebKit","Chrome","138.0.0.0","Windows","10.0","https://app.prolific.com/","en-US,en;q=0.9","611d0afbb2a19acfd012545b","687a19d2168e237449fb8af4","6889d9e4cf2ca61c950e73ca","0","611d0afbb2a19acfd012545b","0","2025-07-30T08:54:01.850Z","","","","","","","","","","","","","","","","win-only","3","g1:SW,g2:NE","0.4","9","0","918208.3","1688.7","6692.3","32156.1","1","4","8","6","2","-8","-8","0","0","0","2964.9","3000","-2350","[""up"",""right""]","{""num_key_presses"":7,""num_perfect"":2,""num_errors"":0,""num_randdir"":5,""num_randdir_good_moves"":2,""num_whilered"":0,""num_whileblue"":0,""num_blue"":1,""num_good_moves"":4}","[299.22232142857143,303.12857142857143,0.2,299.22232142857143,303.12857142857143,100.8,299.22232142857143,303.12857142857143,203.3,299.22232142857143,303.12857142857143,317.7,299.22232142857143,303.12857142857143,421.7,299.22232142857143,303.12857142857143,521.9,299.22232142857143,303.12857142857143,622.9,299.22232142857143,303.12857142857143,726.7,299.22232142857143,303.12857142857143,827.3,299.22232142857143,303.12857142857143,927.7,299.22232142857143,303.12857142857143,1027.7,299.22232142857143,303.12857142857143,1135.4,299.22232142857143,303.12857142857143,1237,299.22232142857143,303.12857142857143,1338,299.22232142857143,303.12857142857143,1442.5,299.22232142857143,303.12857142857143,1542.8,299.22232142857143,303.12857142857143,1646.5,299.22232142857143,303.12857142857143,1747,299.22232142857143,303.12857142857143,1851.1,299.22232142857143,303.12857142857143,1953.1,313.22232142857143,295.12857142857143,2056.6,407.22232142857143,189.12857142857143,2156.6,433.22232142857143,139.12857142857143,2257.6,449.22232142857143,121.12857142857143,2362.2,501.22232142857143,96.12857142857143,2467.2,520.2223214285714,83.12857142857143,2567.2,520.2223214285714,81.12857142857143,2669.6,520.2223214285714,81.12857142857143,2773,520.2223214285714,81.12857142857143,2876.7,520.2223214285714,81.12857142857143,2977.4,520.2223214285714,81.12857142857143,3079.2,520.2223214285714,81.12857142857143,3183.3,520.2223214285714,81.12857142857143,3287.7,520.2223214285714,81.12857142857143,3402.1,520.2223214285714,81.12857142857143,3502.4,520.2223214285714,81.12857142857143,3602.6,520.2223214285714,81.12857142857143,3704.3,520.2223214285714,81.12857142857143,3818.9,520.2223214285714,81.12857142857143,3919.9,486.22232142857143,100.12857142857143,4021.1,405.22232142857143,160.12857142857143,4121.9,361.22232142857143,218.12857142857143,4224.9,361.22232142857143,218.12857142857143,4325.4,361.22232142857143,218.12857142857143,4435.7,361.22232142857143,218.12857142857143,4539,349.22232142857143,235.12857142857143,4640.2,269.22232142857143,315.12857142857143,4741,220.22232142857143,370.12857142857143,4849.4,218.22232142857143,372.12857142857143,4953.1]","[2114.1,2114.1,1000,0,1114.1,""oops"",""up"",""left"",""bad_move"",8749.5,6634.9,2181.9,6049.4,518.2,""smooth"",""up"",""up"",""good_move"",11411.6,2661.8,2108.9,8749.8,553,""smooth"",""up"",""up"",""good_move"",14459,3047.1,2638.7,11411.9,408.4,""oops"",""up"",""down"",""bad_move"",17156.1,2696.7,2301.7,14459.4,395,""oops"",""up"",""right"",""good_move"",19635,2478.5,2103.5,17156.6,374.9,""oops"",""up"",""right"",""good_move"",22668.9,3033.6,2670.3,19635.3,363.3,""oops"",""up"",""left"",""bad_move""]"
"8240","","<div style=""width:500px;"">
  <p>What determined the result of this run?</p>
  </div>","43","html-slider-response","54","956228","0.0-7.0-1.8","7","1","2025-07-30 08:38:12","36c45c0696341be0efffe67d72a12abb","154.117.166.3","Mozilla/5.0 (Windows NT 10.0; Win64; x64) AppleWebKit/537.36 (KHTML, like Gecko) Chrome/138.0.0.0 Safari/537.36","WebKit","Chrome","138.0.0.0","Windows","10.0","https://app.prolific.com/","en-US,en;q=0.9","611d0afbb2a19acfd012545b","687a19d2168e237449fb8af4","6889d9e4cf2ca61c950e73ca","0","611d0afbb2a19acfd012545b","0","2025-07-30T08:54:10.091Z","","","","AttribQ","","","","","","","","","","","50","","","","","","","","","","","","","","","","","","","","","","","","","","",""
"10630","","<div style=""width:500px;"">
  <p>How much control did you have over the ball?</p>
  </div>","28","html-slider-response","55","966860","0.0-7.0-2.8","7","1","2025-07-30 08:38:12","36c45c0696341be0efffe67d72a12abb","154.117.166.3","Mozilla/5.0 (Windows NT 10.0; Win64; x64) AppleWebKit/537.36 (KHTML, like Gecko) Chrome/138.0.0.0 Safari/537.36","WebKit","Chrome","138.0.0.0","Windows","10.0","https://app.prolific.com/","en-US,en;q=0.9","611d0afbb2a19acfd012545b","687a19d2168e237449fb8af4","6889d9e4cf2ca61c950e73ca","0","611d0afbb2a19acfd012545b","0","2025-07-30T08:54:20.723Z","","","","ControlQ","","","","","","","","","","","50","","","","","","","","","","","","","","","","","","","","","","","","","","",""
"3591","","<div style=""width:500px;"">
  <p>How would you describe your current emotional state?</p>
  </div>","0","html-slider-response","56","970452","0.0-7.0-3.8","7","1","2025-07-30 08:38:12","36c45c0696341be0efffe67d72a12abb","154.117.166.3","Mozilla/5.0 (Windows NT 10.0; Win64; x64) AppleWebKit/537.36 (KHTML, like Gecko) Chrome/138.0.0.0 Safari/537.36","WebKit","Chrome","138.0.0.0","Windows","10.0","https://app.prolific.com/","en-US,en;q=0.9","611d0afbb2a19acfd012545b","687a19d2168e237449fb8af4","6889d9e4cf2ca61c950e73ca","0","611d0afbb2a19acfd012545b","0","2025-07-30T08:54:24.315Z","","","","StressQ","","","","","","","","","","","50","","","","","","","","","","","","","","","","","","","","","","","","","","",""
"3103","","<div style=""width:500px;"">
  <p>What best describes how you currently feel?</p>
  </div>","100","html-slider-response","57","973556","0.0-7.0-4.8","7","1","2025-07-30 08:38:12","36c45c0696341be0efffe67d72a12abb","154.117.166.3","Mozilla/5.0 (Windows NT 10.0; Win64; x64) AppleWebKit/537.36 (KHTML, like Gecko) Chrome/138.0.0.0 Safari/537.36","WebKit","Chrome","138.0.0.0","Windows","10.0","https://app.prolific.com/","en-US,en;q=0.9","611d0afbb2a19acfd012545b","687a19d2168e237449fb8af4","6889d9e4cf2ca61c950e73ca","0","611d0afbb2a19acfd012545b","0","2025-07-30T08:54:27.419Z","","","","MotivationQ","","","","","","","","","","","50","","","","","","","","","","","","","","","","","","","","","","","","","","",""
"","","","","ctl-task-cpt","58","1014059","0.0-7.0-0.9","7","1","2025-07-30 08:38:12","36c45c0696341be0efffe67d72a12abb","154.117.166.3","Mozilla/5.0 (Windows NT 10.0; Win64; x64) AppleWebKit/537.36 (KHTML, like Gecko) Chrome/138.0.0.0 Safari/537.36","WebKit","Chrome","138.0.0.0","Windows","10.0","https://app.prolific.com/","en-US,en;q=0.9","611d0afbb2a19acfd012545b","687a19d2168e237449fb8af4","6889d9e4cf2ca61c950e73ca","0","611d0afbb2a19acfd012545b","0","2025-07-30T08:55:07.922Z","","","","","","","","","","","","","","","","win-only","1","g1:NE,g2:SW","0.5","10","0","978954.2","1609.5","6611.4","37482.1","1","4","4","6","2","-4","-4","0","0","0","3315.1","3000","-2445","[""down"",""left""]","{""num_key_presses"":9,""num_perfect"":4,""num_errors"":0,""num_randdir"":5,""num_randdir_good_moves"":3,""num_whilered"":0,""num_whileblue"":0,""num_blue"":1,""num_good_moves"":7}","[296.22232142857143,299.12857142857143,0.3,296.22232142857143,299.12857142857143,100.6,296.22232142857143,299.12857142857143,200.8,296.22232142857143,299.12857142857143,301.8,296.22232142857143,299.12857142857143,417.6,296.22232142857143,299.12857142857143,521.9,296.22232142857143,299.12857142857143,622.6,296.22232142857143,299.12857142857143,727.4,296.22232142857143,299.12857142857143,827.9,275.22232142857143,318.12857142857143,934.1,-10.777678571428574,587.1285714285714,1036.8,-51.777678571428574,632.1285714285714,1140.8,-51.777678571428574,632.1285714285714,1240.9,-1.7776785714285737,587.1285714285714,1342.3,44.222321428571426,551.1285714285714,1446.2,49.222321428571426,546.1285714285714,1552,50.222321428571426,546.1285714285714,1666.7,50.222321428571426,546.1285714285714,1767.1,50.222321428571426,546.1285714285714,1871.1,50.222321428571426,546.1285714285714,1972.2,50.222321428571426,546.1285714285714,2072.3,50.222321428571426,546.1285714285714,2176.1,50.222321428571426,546.1285714285714,2283.2,50.222321428571426,546.1285714285714,2386.4,50.222321428571426,546.1285714285714,2486.8,50.222321428571426,546.1285714285714,2587.2,50.222321428571426,546.1285714285714,2687.4,50.222321428571426,546.1285714285714,2792.1,50.222321428571426,546.1285714285714,2892.3,50.222321428571426,546.1285714285714,2996.5,50.222321428571426,546.1285714285714,3096.6,50.222321428571426,546.1285714285714,3201.5,50.222321428571426,546.1285714285714,3302,50.222321428571426,546.1285714285714,3415.8,50.222321428571426,546.1285714285714,3516.4,50.222321428571426,546.1285714285714,3620.9,50.222321428571426,546.1285714285714,3720.9,50.222321428571426,546.1285714285714,3831.8,50.222321428571426,546.1285714285714,3932.4,50.222321428571426,546.1285714285714,4036.8,50.222321428571426,546.1285714285714,4149.8,50.222321428571426,546.1285714285714,4251.9,50.222321428571426,546.1285714285714,4352,50.222321428571426,546.1285714285714,4456.4,50.222321428571426,546.1285714285714,4556.5,170.22232142857143,547.1285714285714,4661.6,305.22232142857143,450.12857142857143,4766.2,346.22232142857143,335.12857142857143,4866.7,362.22232142857143,245.12857142857143,4967.4]","[2018.2,2018.2,1000,0,1018.2,""smooth"",""down"",""down"",""good_move"",4748.5,2729.9,2308,2018.6,421.9,""smooth"",""down"",""down"",""good_move"",11147.6,6398.8,2910.8,7849.5,387.3,""oops"",""down"",""up"",""bad_move"",14142.9,2994.9,2566.7,11148,428.2,""oops"",""up"",""left"",""good_move"",16543.3,2399.9,1883.4,14143.4,516.5,""oops"",""left"",""left"",""good_move"",19793.4,3249.9,2928.2,16543.5,321.7,""smooth"",""left"",""left"",""good_move"",22928.4,3134.8,2822.3,19793.6,312.5,""oops"",""down"",""down"",""good_move"",25663.7,2735,2419.8,22928.7,315.2,""oops"",""down"",""up"",""bad_move"",29201.6,3537.4,3209.9,25664.2,327.5,""smooth"",""down"",""down"",""good_move""]"
"5155","","<div style=""width:500px;"">
  <p>What determined the result of this run?</p>
  </div>","100","html-slider-response","59","1019215","0.0-7.0-1.9","7","1","2025-07-30 08:38:12","36c45c0696341be0efffe67d72a12abb","154.117.166.3","Mozilla/5.0 (Windows NT 10.0; Win64; x64) AppleWebKit/537.36 (KHTML, like Gecko) Chrome/138.0.0.0 Safari/537.36","WebKit","Chrome","138.0.0.0","Windows","10.0","https://app.prolific.com/","en-US,en;q=0.9","611d0afbb2a19acfd012545b","687a19d2168e237449fb8af4","6889d9e4cf2ca61c950e73ca","0","611d0afbb2a19acfd012545b","0","2025-07-30T08:55:13.078Z","","","","AttribQ","","","","","","","","","","","50","","","","","","","","","","","","","","","","","","","","","","","","","","",""
"8612","","<div style=""width:500px;"">
  <p>How much control did you have over the ball?</p>
  </div>","100","html-slider-response","60","1027828","0.0-7.0-2.9","7","1","2025-07-30 08:38:12","36c45c0696341be0efffe67d72a12abb","154.117.166.3","Mozilla/5.0 (Windows NT 10.0; Win64; x64) AppleWebKit/537.36 (KHTML, like Gecko) Chrome/138.0.0.0 Safari/537.36","WebKit","Chrome","138.0.0.0","Windows","10.0","https://app.prolific.com/","en-US,en;q=0.9","611d0afbb2a19acfd012545b","687a19d2168e237449fb8af4","6889d9e4cf2ca61c950e73ca","0","611d0afbb2a19acfd012545b","0","2025-07-30T08:55:21.692Z","","","","ControlQ","","","","","","","","","","","50","","","","","","","","","","","","","","","","","","","","","","","","","","",""
"60113","","<div style=""width:500px;"">
  <p>How would you describe your current emotional state?</p>
  </div>","0","html-slider-response","61","1087942","0.0-7.0-3.9","7","1","2025-07-30 08:38:12","36c45c0696341be0efffe67d72a12abb","154.117.166.3","Mozilla/5.0 (Windows NT 10.0; Win64; x64) AppleWebKit/537.36 (KHTML, like Gecko) Chrome/138.0.0.0 Safari/537.36","WebKit","Chrome","138.0.0.0","Windows","10.0","https://app.prolific.com/","en-US,en;q=0.9","611d0afbb2a19acfd012545b","687a19d2168e237449fb8af4","6889d9e4cf2ca61c950e73ca","0","611d0afbb2a19acfd012545b","0","2025-07-30T08:56:21.805Z","","","","StressQ","","","","","","","","","","","50","","","","","","","","","","","","","","","","","","","","","","","","","","",""
"4066","","<div style=""width:500px;"">
  <p>What best describes how you currently feel?</p>
  </div>","100","html-slider-response","62","1092010","0.0-7.0-4.9","7","1","2025-07-30 08:38:12","36c45c0696341be0efffe67d72a12abb","154.117.166.3","Mozilla/5.0 (Windows NT 10.0; Win64; x64) AppleWebKit/537.36 (KHTML, like Gecko) Chrome/138.0.0.0 Safari/537.36","WebKit","Chrome","138.0.0.0","Windows","10.0","https://app.prolific.com/","en-US,en;q=0.9","611d0afbb2a19acfd012545b","687a19d2168e237449fb8af4","6889d9e4cf2ca61c950e73ca","0","611d0afbb2a19acfd012545b","0","2025-07-30T08:56:25.873Z","","","","MotivationQ","","","","","","","","","","","50","","","","","","","","","","","","","","","","","","","","","","","","","","",""
"","","","","ctl-task-cpt","63","1136113","0.0-7.0-0.10","7","1","2025-07-30 08:38:12","36c45c0696341be0efffe67d72a12abb","154.117.166.3","Mozilla/5.0 (Windows NT 10.0; Win64; x64) AppleWebKit/537.36 (KHTML, like Gecko) Chrome/138.0.0.0 Safari/537.36","WebKit","Chrome","138.0.0.0","Windows","10.0","https://app.prolific.com/","en-US,en;q=0.9","611d0afbb2a19acfd012545b","687a19d2168e237449fb8af4","6889d9e4cf2ca61c950e73ca","0","611d0afbb2a19acfd012545b","0","2025-07-30T08:57:09.976Z","","","","","","","","","","","","","","","","win-only","3","g1:SW,g2:NE","0.6","11","0","1097407.6","1512.9","6516.6","41081","1","4","8","6","2","8","8","8","0","0.06060606060606061","1566.3","3000","540","[""up"",""right""]","{""num_key_presses"":8,""num_perfect"":6,""num_errors"":0,""num_randdir"":2,""num_randdir_good_moves"":1,""num_whilered"":0,""num_whileblue"":0,""num_blue"":4,""num_good_moves"":7}","[293.22232142857143,297.12857142857143,0.3,293.22232142857143,297.12857142857143,104.1,293.22232142857143,297.12857142857143,209.2,293.22232142857143,297.12857142857143,309.6,293.22232142857143,297.12857142857143,413.9,293.22232142857143,297.12857142857143,514.1,293.22232142857143,297.12857142857143,618.6,293.22232142857143,297.12857142857143,722.9,293.22232142857143,297.12857142857143,823.8,439.22232142857143,107.12857142857143,938.6,490.22232142857143,73.12857142857143,1039.2,499.22232142857143,71.12857142857143,1139.7,502.22232142857143,71.12857142857143,1240.2,502.22232142857143,72.12857142857143,1355.5,502.22232142857143,72.12857142857143,1470.8,502.22232142857143,72.12857142857143,1571,502.22232142857143,72.12857142857143,1674.7,502.22232142857143,72.12857142857143,1775.6,502.22232142857143,72.12857142857143,1879.3,502.22232142857143,72.12857142857143,1984.2,502.22232142857143,72.12857142857143,2085.4,502.22232142857143,73.12857142857143,2188.8,410.22232142857143,160.12857142857143,2290,348.22232142857143,241.12857142857143,2390.5,312.22232142857143,316.12857142857143,2499.1,265.22232142857143,388.12857142857143,2599.3,262.22232142857143,392.12857142857143,2703.7,262.22232142857143,385.12857142857143,2807.2,270.22232142857143,369.12857142857143,2921.7,270.22232142857143,369.12857142857143,3023,270.22232142857143,369.12857142857143,3125,270.22232142857143,369.12857142857143,3230.2,270.22232142857143,369.12857142857143,3330.6,270.22232142857143,369.12857142857143,3433.2,270.22232142857143,369.12857142857143,3537.2,270.22232142857143,369.12857142857143,3638.4,270.22232142857143,369.12857142857143,3740.8,270.22232142857143,369.12857142857143,3846.3,270.22232142857143,369.12857142857143,3946.3,270.22232142857143,369.12857142857143,4056.3,270.22232142857143,369.12857142857143,4158.5,270.22232142857143,369.12857142857143,4258.9,270.22232142857143,369.12857142857143,4364.1,270.22232142857143,369.12857142857143,4468.4,270.22232142857143,369.12857142857143,4570.9,270.22232142857143,369.12857142857143,4673.8,270.22232142857143,369.12857142857143,4787.1,270.22232142857143,369.12857142857143,4888.8,270.22232142857143,369.12857142857143,4989.5]","[8072.3,8072.4,2618.7,5159.7,294,""oops"",""up"",""down"",""bad_move"",13133.6,5060.8,2373.6,10399.1,360.9,""smooth"",""up"",""up"",""good_move"",16367.3,3233.2,2748.5,13134.1,484.7,""smooth"",""up"",""up"",""good_move"",23044.5,6677,2788.8,19779.2,476.5,""smooth"",""up"",""up"",""good_move"",26054.8,3010.1,2584.9,23044.7,425.2,""smooth"",""right"",""right"",""good_move"",28926.3,2870.9,2398.2,26055.4,472.7,""smooth"",""right"",""right"",""good_move"",31615.3,2688.7,2168.4,28926.6,520.3,""smooth"",""right"",""right"",""good_move"",34445.7,2830.2,2474.8,31615.5,355.4,""oops"",""up"",""up"",""good_move""]"
"4546","","<div style=""width:500px;"">
  <p>What determined the result of this run?</p>
  </div>","100","html-slider-response","64","1140660","0.0-7.0-1.10","7","1","2025-07-30 08:38:12","36c45c0696341be0efffe67d72a12abb","154.117.166.3","Mozilla/5.0 (Windows NT 10.0; Win64; x64) AppleWebKit/537.36 (KHTML, like Gecko) Chrome/138.0.0.0 Safari/537.36","WebKit","Chrome","138.0.0.0","Windows","10.0","https://app.prolific.com/","en-US,en;q=0.9","611d0afbb2a19acfd012545b","687a19d2168e237449fb8af4","6889d9e4cf2ca61c950e73ca","0","611d0afbb2a19acfd012545b","0","2025-07-30T08:57:14.523Z","","","","AttribQ","","","","","","","","","","","50","","","","","","","","","","","","","","","","","","","","","","","","","","",""
"3270","","<div style=""width:500px;"">
  <p>How much control did you have over the ball?</p>
  </div>","100","html-slider-response","65","1143931","0.0-7.0-2.10","7","1","2025-07-30 08:38:12","36c45c0696341be0efffe67d72a12abb","154.117.166.3","Mozilla/5.0 (Windows NT 10.0; Win64; x64) AppleWebKit/537.36 (KHTML, like Gecko) Chrome/138.0.0.0 Safari/537.36","WebKit","Chrome","138.0.0.0","Windows","10.0","https://app.prolific.com/","en-US,en;q=0.9","611d0afbb2a19acfd012545b","687a19d2168e237449fb8af4","6889d9e4cf2ca61c950e73ca","0","611d0afbb2a19acfd012545b","0","2025-07-30T08:57:17.795Z","","","","ControlQ","","","","","","","","","","","50","","","","","","","","","","","","","","","","","","","","","","","","","","",""
"4279","","<div style=""width:500px;"">
  <p>How would you describe your current emotional state?</p>
  </div>","0","html-slider-response","66","1148211","0.0-7.0-3.10","7","1","2025-07-30 08:38:12","36c45c0696341be0efffe67d72a12abb","154.117.166.3","Mozilla/5.0 (Windows NT 10.0; Win64; x64) AppleWebKit/537.36 (KHTML, like Gecko) Chrome/138.0.0.0 Safari/537.36","WebKit","Chrome","138.0.0.0","Windows","10.0","https://app.prolific.com/","en-US,en;q=0.9","611d0afbb2a19acfd012545b","687a19d2168e237449fb8af4","6889d9e4cf2ca61c950e73ca","0","611d0afbb2a19acfd012545b","0","2025-07-30T08:57:22.075Z","","","","StressQ","","","","","","","","","","","50","","","","","","","","","","","","","","","","","","","","","","","","","","",""
"4814","","<div style=""width:500px;"">
  <p>What best describes how you currently feel?</p>
  </div>","100","html-slider-response","67","1153027","0.0-7.0-4.10","7","1","2025-07-30 08:38:12","36c45c0696341be0efffe67d72a12abb","154.117.166.3","Mozilla/5.0 (Windows NT 10.0; Win64; x64) AppleWebKit/537.36 (KHTML, like Gecko) Chrome/138.0.0.0 Safari/537.36","WebKit","Chrome","138.0.0.0","Windows","10.0","https://app.prolific.com/","en-US,en;q=0.9","611d0afbb2a19acfd012545b","687a19d2168e237449fb8af4","6889d9e4cf2ca61c950e73ca","0","611d0afbb2a19acfd012545b","0","2025-07-30T08:57:26.890Z","","","","MotivationQ","","","","","","","","","","","50","","","","","","","","","","","","","","","","","","","","","","","","","","",""
"","","","","ctl-task-cpt","68","1183294","0.0-7.0-0.11","7","1","2025-07-30 08:38:12","36c45c0696341be0efffe67d72a12abb","154.117.166.3","Mozilla/5.0 (Windows NT 10.0; Win64; x64) AppleWebKit/537.36 (KHTML, like Gecko) Chrome/138.0.0.0 Safari/537.36","WebKit","Chrome","138.0.0.0","Windows","10.0","https://app.prolific.com/","en-US,en;q=0.9","611d0afbb2a19acfd012545b","687a19d2168e237449fb8af4","6889d9e4cf2ca61c950e73ca","0","611d0afbb2a19acfd012545b","0","2025-07-30T08:57:57.157Z","","","","","","","","","","","","","","","","win-only","2","g1:SE,g2:NW","0.7","12","0","1158424.2","1480.2","6481","27246.2","1","4","4","6","2","4","4","12","8","0.09090909090909091","1803.2","3000","1025","[""left"",""up""]","{""num_key_presses"":6,""num_perfect"":6,""num_errors"":0,""num_randdir"":0,""num_randdir_good_moves"":0,""num_whilered"":0,""num_whileblue"":0,""num_blue"":1,""num_good_moves"":6}","[293.22232142857143,295.12857142857143,0.2,293.22232142857143,295.12857142857143,101.9,293.22232142857143,295.12857142857143,206.7,293.22232142857143,295.12857142857143,311.8,293.22232142857143,295.12857142857143,416.5,293.22232142857143,295.12857142857143,521.1,293.22232142857143,295.12857142857143,622.7,293.22232142857143,295.12857142857143,735.8,293.22232142857143,295.12857142857143,836.1,293.22232142857143,295.12857142857143,940.7,293.22232142857143,295.12857142857143,1041.4,174.22232142857143,151.12857142857143,1146.1,96.22232142857143,32.128571428571426,1246.5,84.22232142857143,13.128571428571426,1350.9,65.22232142857143,32.128571428571426,1469.4,58.222321428571426,60.128571428571426,1570.8,58.222321428571426,60.128571428571426,1671.1,58.222321428571426,60.128571428571426,1776.2,58.222321428571426,60.128571428571426,1876.2,58.222321428571426,60.128571428571426,1976.6,58.222321428571426,60.128571428571426,2080.2,58.222321428571426,60.128571428571426,2180.4,58.222321428571426,60.128571428571426,2281.1,58.222321428571426,60.128571428571426,2381.4,58.222321428571426,60.128571428571426,2482.1,58.222321428571426,61.128571428571426,2585.8,257.22232142857143,242.12857142857143,2706.5,347.22232142857143,356.12857142857143,2811.1,347.22232142857143,371.12857142857143,2915.5,329.22232142857143,372.12857142857143,3015.8,325.22232142857143,372.12857142857143,3133.1,325.22232142857143,372.12857142857143,3234,325.22232142857143,372.12857142857143,3335.9,325.22232142857143,372.12857142857143,3440.7,325.22232142857143,372.12857142857143,3540.8,325.22232142857143,372.12857142857143,3645.9,325.22232142857143,372.12857142857143,3750.4,325.22232142857143,372.12857142857143,3850.7,325.22232142857143,372.12857142857143,3966.6,325.22232142857143,372.12857142857143,4071.3,325.22232142857143,372.12857142857143,4176.3,325.22232142857143,372.12857142857143,4276.6,325.22232142857143,372.12857142857143,4381.2,325.22232142857143,372.12857142857143,4486.5,325.22232142857143,372.12857142857143,4601.5,325.22232142857143,372.12857142857143,4705.9,325.22232142857143,371.12857142857143,4806.7,328.22232142857143,361.12857142857143,4912.9]","[1505.8,1505.8,1000,0,505.8,""smooth"",""up"",""up"",""good_move"",8467.2,6960.8,2872.6,5146.3,448.3,""smooth"",""up"",""up"",""good_move"",11745,3277.6,2767.3,8467.4,510.3,""smooth"",""up"",""up"",""good_move"",14243.5,2498,2033.6,11745.5,464.4,""smooth"",""left"",""left"",""good_move"",17031.4,2787.5,2237.3,14243.9,550.2,""smooth"",""left"",""left"",""good_move"",20647.4,3615.6,3206.7,17031.8,408.9,""smooth"",""left"",""left"",""good_move""]"
"2840","","<div style=""width:500px;"">
  <p>What determined the result of this run?</p>
  </div>","100","html-slider-response","69","1186136","0.0-7.0-1.11","7","1","2025-07-30 08:38:12","36c45c0696341be0efffe67d72a12abb","154.117.166.3","Mozilla/5.0 (Windows NT 10.0; Win64; x64) AppleWebKit/537.36 (KHTML, like Gecko) Chrome/138.0.0.0 Safari/537.36","WebKit","Chrome","138.0.0.0","Windows","10.0","https://app.prolific.com/","en-US,en;q=0.9","611d0afbb2a19acfd012545b","687a19d2168e237449fb8af4","6889d9e4cf2ca61c950e73ca","0","611d0afbb2a19acfd012545b","0","2025-07-30T08:57:59.999Z","","","","AttribQ","","","","","","","","","","","50","","","","","","","","","","","","","","","","","","","","","","","","","","",""
"2741","","<div style=""width:500px;"">
  <p>How much control did you have over the ball?</p>
  </div>","100","html-slider-response","70","1188879","0.0-7.0-2.11","7","1","2025-07-30 08:38:12","36c45c0696341be0efffe67d72a12abb","154.117.166.3","Mozilla/5.0 (Windows NT 10.0; Win64; x64) AppleWebKit/537.36 (KHTML, like Gecko) Chrome/138.0.0.0 Safari/537.36","WebKit","Chrome","138.0.0.0","Windows","10.0","https://app.prolific.com/","en-US,en;q=0.9","611d0afbb2a19acfd012545b","687a19d2168e237449fb8af4","6889d9e4cf2ca61c950e73ca","0","611d0afbb2a19acfd012545b","0","2025-07-30T08:58:02.742Z","","","","ControlQ","","","","","","","","","","","50","","","","","","","","","","","","","","","","","","","","","","","","","","",""
"2735","","<div style=""width:500px;"">
  <p>How would you describe your current emotional state?</p>
  </div>","0","html-slider-response","71","1191615","0.0-7.0-3.11","7","1","2025-07-30 08:38:12","36c45c0696341be0efffe67d72a12abb","154.117.166.3","Mozilla/5.0 (Windows NT 10.0; Win64; x64) AppleWebKit/537.36 (KHTML, like Gecko) Chrome/138.0.0.0 Safari/537.36","WebKit","Chrome","138.0.0.0","Windows","10.0","https://app.prolific.com/","en-US,en;q=0.9","611d0afbb2a19acfd012545b","687a19d2168e237449fb8af4","6889d9e4cf2ca61c950e73ca","0","611d0afbb2a19acfd012545b","0","2025-07-30T08:58:05.478Z","","","","StressQ","","","","","","","","","","","50","","","","","","","","","","","","","","","","","","","","","","","","","","",""
"2849","","<div style=""width:500px;"">
  <p>What best describes how you currently feel?</p>
  </div>","100","html-slider-response","72","1194466","0.0-7.0-4.11","7","1","2025-07-30 08:38:12","36c45c0696341be0efffe67d72a12abb","154.117.166.3","Mozilla/5.0 (Windows NT 10.0; Win64; x64) AppleWebKit/537.36 (KHTML, like Gecko) Chrome/138.0.0.0 Safari/537.36","WebKit","Chrome","138.0.0.0","Windows","10.0","https://app.prolific.com/","en-US,en;q=0.9","611d0afbb2a19acfd012545b","687a19d2168e237449fb8af4","6889d9e4cf2ca61c950e73ca","0","611d0afbb2a19acfd012545b","0","2025-07-30T08:58:08.329Z","","","","MotivationQ","","","","","","","","","","","50","","","","","","","","","","","","","","","","","","","","","","","","","","",""
"","","","","ctl-task-cpt","73","1239992","0.0-7.0-0.12","7","1","2025-07-30 08:38:12","36c45c0696341be0efffe67d72a12abb","154.117.166.3","Mozilla/5.0 (Windows NT 10.0; Win64; x64) AppleWebKit/537.36 (KHTML, like Gecko) Chrome/138.0.0.0 Safari/537.36","WebKit","Chrome","138.0.0.0","Windows","10.0","https://app.prolific.com/","en-US,en;q=0.9","611d0afbb2a19acfd012545b","687a19d2168e237449fb8af4","6889d9e4cf2ca61c950e73ca","0","611d0afbb2a19acfd012545b","0","2025-07-30T08:58:53.855Z","","","","","","","","","","","","","","","","win-only","2","g1:SE,g2:NW","0.8","13","0","1199863.9","1521.4","6525.6","42500.6","1","4","4","6","2","-4","-4","8","12","0.06060606060606061","1845.6","3000","-1960","[""left"",""up""]","{""num_key_presses"":9,""num_perfect"":7,""num_errors"":0,""num_randdir"":2,""num_randdir_good_moves"":0,""num_whilered"":0,""num_whileblue"":0,""num_blue"":2,""num_good_moves"":7}","[291.22232142857143,294.12857142857143,0.4,291.22232142857143,294.12857142857143,102.7,291.22232142857143,294.12857142857143,203.8,291.22232142857143,294.12857142857143,304.7,291.22232142857143,294.12857142857143,409.2,291.22232142857143,294.12857142857143,509.5,291.22232142857143,294.12857142857143,610.2,291.22232142857143,294.12857142857143,713.8,291.22232142857143,294.12857142857143,814.9,271.22232142857143,258.12857142857143,920.2,88.22232142857143,84.12857142857143,1020.6,20.222321428571426,26.128571428571426,1120.9,-14.777678571428574,-15.871428571428574,1232.3,-13.777678571428574,-14.871428571428574,1335.5,41.222321428571426,66.12857142857143,1436.3,44.222321428571426,73.12857142857143,1541.3,44.222321428571426,73.12857142857143,1643.4,44.222321428571426,73.12857142857143,1750.3,44.222321428571426,73.12857142857143,1857.6,44.222321428571426,73.12857142857143,1960.3,44.222321428571426,73.12857142857143,2061.8,44.222321428571426,73.12857142857143,2163.6,44.222321428571426,73.12857142857143,2264.5,44.222321428571426,73.12857142857143,2369.5,326.22232142857143,347.12857142857143,2476.8,374.22232142857143,425.12857142857143,2579.5,375.22232142857143,426.12857142857143,2681.1,375.22232142857143,426.12857142857143,2784.6,375.22232142857143,426.12857142857143,2889.3,375.22232142857143,426.12857142857143,2989.8,372.22232142857143,420.12857142857143,3090.2,355.22232142857143,387.12857142857143,3194.4,352.22232142857143,375.12857142857143,3299.4,347.22232142857143,356.12857142857143,3410.1,345.22232142857143,355.12857142857143,3514,345.22232142857143,355.12857142857143,3616,345.22232142857143,355.12857142857143,3718.8,345.22232142857143,355.12857142857143,3820.6,345.22232142857143,355.12857142857143,3931.9,345.22232142857143,355.12857142857143,4034,345.22232142857143,355.12857142857143,4134.3,345.22232142857143,355.12857142857143,4240.3,345.22232142857143,355.12857142857143,4344.1,345.22232142857143,355.12857142857143,4444.8,345.22232142857143,355.12857142857143,4553.9,345.22232142857143,355.12857142857143,4654.8,345.22232142857143,355.12857142857143,4759.9,345.22232142857143,355.12857142857143,4866.8,345.22232142857143,355.12857142857143,4970.7]","[1499.3,1499.3,1000,0,499.3,""smooth"",""left"",""left"",""good_move"",8665.3,7165.5,2931.2,5292.9,441.2,""smooth"",""up"",""up"",""good_move"",11372.3,2706.6,2196.5,8665.7,510.1,""smooth"",""left"",""left"",""good_move"",14130.8,2758,2345.5,11372.8,412.5,""oops"",""up"",""right"",""bad_move"",17125.5,2994.3,2432.9,14131.2,561.4,""oops"",""left"",""down"",""bad_move"",20411,3285.1,2834.8,17125.9,450.3,""smooth"",""up"",""up"",""good_move"",23118.5,2707.1,2359.5,20411.4,347.6,""smooth"",""up"",""up"",""good_move"",29468.2,6349.4,2210.9,26866,391.3,""smooth"",""left"",""left"",""good_move"",32688.1,3219.6,2886.4,29468.6,333.1,""smooth"",""left"",""left"",""good_move""]"
"39868","","<div style=""width:500px;"">
  <p>What determined the result of this run?</p>
  </div>","100","html-slider-response","74","1279861","0.0-7.0-1.12","7","1","2025-07-30 08:38:12","36c45c0696341be0efffe67d72a12abb","154.117.166.3","Mozilla/5.0 (Windows NT 10.0; Win64; x64) AppleWebKit/537.36 (KHTML, like Gecko) Chrome/138.0.0.0 Safari/537.36","WebKit","Chrome","138.0.0.0","Windows","10.0","https://app.prolific.com/","en-US,en;q=0.9","611d0afbb2a19acfd012545b","687a19d2168e237449fb8af4","6889d9e4cf2ca61c950e73ca","0","611d0afbb2a19acfd012545b","0","2025-07-30T08:59:33.725Z","","","","AttribQ","","","","","","","","","","","50","","","","","","","","","","","","","","","","","","","","","","","","","","",""
"3452","","<div style=""width:500px;"">
  <p>How much control did you have over the ball?</p>
  </div>","100","html-slider-response","75","1283314","0.0-7.0-2.12","7","1","2025-07-30 08:38:12","36c45c0696341be0efffe67d72a12abb","154.117.166.3","Mozilla/5.0 (Windows NT 10.0; Win64; x64) AppleWebKit/537.36 (KHTML, like Gecko) Chrome/138.0.0.0 Safari/537.36","WebKit","Chrome","138.0.0.0","Windows","10.0","https://app.prolific.com/","en-US,en;q=0.9","611d0afbb2a19acfd012545b","687a19d2168e237449fb8af4","6889d9e4cf2ca61c950e73ca","0","611d0afbb2a19acfd012545b","0","2025-07-30T08:59:37.178Z","","","","ControlQ","","","","","","","","","","","50","","","","","","","","","","","","","","","","","","","","","","","","","","",""
"3546","","<div style=""width:500px;"">
  <p>How would you describe your current emotional state?</p>
  </div>","0","html-slider-response","76","1286862","0.0-7.0-3.12","7","1","2025-07-30 08:38:12","36c45c0696341be0efffe67d72a12abb","154.117.166.3","Mozilla/5.0 (Windows NT 10.0; Win64; x64) AppleWebKit/537.36 (KHTML, like Gecko) Chrome/138.0.0.0 Safari/537.36","WebKit","Chrome","138.0.0.0","Windows","10.0","https://app.prolific.com/","en-US,en;q=0.9","611d0afbb2a19acfd012545b","687a19d2168e237449fb8af4","6889d9e4cf2ca61c950e73ca","0","611d0afbb2a19acfd012545b","0","2025-07-30T08:59:40.725Z","","","","StressQ","","","","","","","","","","","50","","","","","","","","","","","","","","","","","","","","","","","","","","",""
"5056","","<div style=""width:500px;"">
  <p>What best describes how you currently feel?</p>
  </div>","100","html-slider-response","77","1291920","0.0-7.0-4.12","7","1","2025-07-30 08:38:12","36c45c0696341be0efffe67d72a12abb","154.117.166.3","Mozilla/5.0 (Windows NT 10.0; Win64; x64) AppleWebKit/537.36 (KHTML, like Gecko) Chrome/138.0.0.0 Safari/537.36","WebKit","Chrome","138.0.0.0","Windows","10.0","https://app.prolific.com/","en-US,en;q=0.9","611d0afbb2a19acfd012545b","687a19d2168e237449fb8af4","6889d9e4cf2ca61c950e73ca","0","611d0afbb2a19acfd012545b","0","2025-07-30T08:59:45.783Z","","","","MotivationQ","","","","","","","","","","","50","","","","","","","","","","","","","","","","","","","","","","","","","","",""
