"rt","response_timestamp","stimulus","response","trial_type","trial_index","time_elapsed","internal_node_id","run_id","condition","recorded_at","source_code_version","ip","user_agent","device","browser","browser_version","platform","platform_version","referer","accept_language","PROLIFIC_PID","STUDY_ID","SESSION_ID","BATCH","prolific_id","batch","realtime","success","question_order","question_id","eventType","responses","item_order","radio_event_ids","radio_event_times","key_event_times","mouse_event_times","straightlining","zigzagging","honeypot","view_history","slider_start","which_type","canvas_config","goals_layout","control_level","trial_number","tutorial_trial_number","trial_start_time","phase1_start_time","phase2_start_time","phase3_start_time","goal_1_value","goal_1_distance","goal_2_value","goal_2_distance","goal_selected","outcome","outcome_total","participant_final_score","participant_initial_score","participant_final_score_prop","goal_choice_rt","allocated_time","allocated_time_remaining","goal_direction","counts","mouse_movements","key_presses"
"62080","1754470487579","<p style='font-size:40px;line-height:1.25'><strong>Welcome to the experiment!</strong></p><p style='font-size:1.1em;line-height:1.25'>Thank you for participanting in our experiment again! You will be asked to play the Dysfunctional Ball Game again. We will briefly recap the rules before we start.</p><p style='font-size:1.1em;line-height:1.25'>Press <strong>Next</strong> to continue.</p>","0","custom-html-button-response","0","62079","0.0-0.0","141","1","2025-08-06 08:53:43","36c45c0696341be0efffe67d72a12abb","41.164.82.138","Mozilla/5.0 (Windows NT 10.0; Win64; x64) AppleWebKit/537.36 (KHTML, like Gecko) Chrome/138.0.0.0 Safari/537.36","WebKit","Chrome","138.0.0.0","Windows","10.0","https://app.prolific.com/","en-US,en;q=0.9","611e2d4ad083c861391122b2","687a1a965b9f5b85a264363e","6893174acde40931fe5bb471","1","611e2d4ad083c861391122b2","1","2025-08-06T08:54:47.580Z","","","","","","","","","","","","","","","","","","","","","","","","","","","","","","","","","","","","","","","","","",""
"9790","","","","fullscreen","1","72873","0.0-1.0","141","1","2025-08-06 08:53:43","36c45c0696341be0efffe67d72a12abb","41.164.82.138","Mozilla/5.0 (Windows NT 10.0; Win64; x64) AppleWebKit/537.36 (KHTML, like Gecko) Chrome/138.0.0.0 Safari/537.36","WebKit","Chrome","138.0.0.0","Windows","10.0","https://app.prolific.com/","en-US,en;q=0.9","611e2d4ad083c861391122b2","687a1a965b9f5b85a264363e","6893174acde40931fe5bb471","1","611e2d4ad083c861391122b2","1","","true","","","","","","","","","","","","","","","","","","","","","","","","","","","","","","","","","","","","","","","","",""
"13213","1754470511588"," <p style='font-size:1.1em;line-height:1.25'>Thank you for closing all other tabs.</p><p style='font-size:1.1em;line-height:1.25'>We will now invite you to fill in some questionnaires, before starting the game.<br>This will take about 5 minutes.<br></p><p style='font-size:1.1em;line-height:1.25'>Press the <strong>Next</strong> button to continue.</p>","0","custom-html-button-response","2","86087","0.0-2.0","141","1","2025-08-06 08:53:43","36c45c0696341be0efffe67d72a12abb","41.164.82.138","Mozilla/5.0 (Windows NT 10.0; Win64; x64) AppleWebKit/537.36 (KHTML, like Gecko) Chrome/138.0.0.0 Safari/537.36","WebKit","Chrome","138.0.0.0","Windows","10.0","https://app.prolific.com/","en-US,en;q=0.9","611e2d4ad083c861391122b2","687a1a965b9f5b85a264363e","6893174acde40931fe5bb471","1","611e2d4ad083c861391122b2","1","2025-08-06T08:55:11.589Z","","","","","","","","","","","","","","","","","","","","","","","","","","","","","","","","","","","","","","","","","",""
"3511","","","{""assigned_sex"":""female""}","survey-multi-choice","3","89601","0.0-3.0-0.0","141","1","2025-08-06 08:53:43","36c45c0696341be0efffe67d72a12abb","41.164.82.138","Mozilla/5.0 (Windows NT 10.0; Win64; x64) AppleWebKit/537.36 (KHTML, like Gecko) Chrome/138.0.0.0 Safari/537.36","WebKit","Chrome","138.0.0.0","Windows","10.0","https://app.prolific.com/","en-US,en;q=0.9","611e2d4ad083c861391122b2","687a1a965b9f5b85a264363e","6893174acde40931fe5bb471","1","611e2d4ad083c861391122b2","1","","","[0]","0","demographics","","","","","","","","","","","","","","","","","","","","","","","","","","","","","","","","","","","","","",""
"6838","1754470521939","<p style='font-size:1.1em;line-height:1.25'>In the following, we will perform a baseline assessment. This means that we will ask you a few questions relating to your experiences over the past month.<br></p><p style='font-size:1.1em;line-height:1.25'>Press the <strong>Next</strong> button to continue.</p>","0","custom-html-button-response","4","96439","0.0-4.0-0.0","141","1","2025-08-06 08:53:43","36c45c0696341be0efffe67d72a12abb","41.164.82.138","Mozilla/5.0 (Windows NT 10.0; Win64; x64) AppleWebKit/537.36 (KHTML, like Gecko) Chrome/138.0.0.0 Safari/537.36","WebKit","Chrome","138.0.0.0","Windows","10.0","https://app.prolific.com/","en-US,en;q=0.9","611e2d4ad083c861391122b2","687a1a965b9f5b85a264363e","6893174acde40931fe5bb471","1","611e2d4ad083c861391122b2","1","2025-08-06T08:55:21.940Z","","","","","","","","","","","","","","","","","","","","","","","","","","","","","","","","","","","","","","","","","",""
"84690.40000000037","","","","survey-template","5","181127","0.0-4.0-1.0","141","1","2025-08-06 08:53:43","36c45c0696341be0efffe67d72a12abb","41.164.82.138","Mozilla/5.0 (Windows NT 10.0; Win64; x64) AppleWebKit/537.36 (KHTML, like Gecko) Chrome/138.0.0.0 Safari/537.36","WebKit","Chrome","138.0.0.0","Windows","10.0","https://app.prolific.com/","en-US,en;q=0.9","611e2d4ad083c861391122b2","687a1a965b9f5b85a264363e","6893174acde40931fe5bb471","1","611e2d4ad083c861391122b2","1","2025-08-06T08:56:46.629Z","","","","pss","{""Q01"":""2"",""Q02"":""3"",""Q03"":""2"",""Q04"":""2"",""Q05"":""2"",""Q06"":""3"",""Q07"":""0"",""Q08"":""3"",""Q09"":""2"",""Q10"":""2""}","[0,1,2,3,4,5,6,7,8,9]","[""Q01"",""Q02"",""Q03"",""Q04"",""Q03"",""Q04"",""Q05"",""Q05"",""Q06"",""Q07"",""Q08"",""Q09"",""Q10""]","[19343.900000000373,24624.299999999814,28015.60000000056,30768.200000000186,31543.299999999814,36399.40000000037,41591.90000000037,42712.5,49960.700000000186,57560.10000000056,64208.90000000037,70121.20000000019,83489.20000000019]","[]","[0.10000000055879354,19343.900000000373,24624.299999999814,28015.60000000056,30768.200000000186,31543.299999999814,36399.40000000037,41591.90000000037,42360.200000000186,42712.5,49960.700000000186,57112.700000000186,57560.10000000056,64208.90000000037,70121.20000000019,83489.20000000019,84688.60000000056]","0.6","0.5555555555555556","0","","","","","","","","","","","","","","","","","","","","","","","","","","","","",""
"4997","1754470611626","<p style='font-size:1.1em;line-height:1.25'>Thank you for your answers! Now we will ask you a few more questions relating to your feelings in the last 24 hours.<br></p><p style='font-size:1.1em;line-height:1.25'>Press the <strong>Next</strong> button to continue.</p>","0","custom-html-button-response","6","186126","0.0-4.0-2.0","141","1","2025-08-06 08:53:43","36c45c0696341be0efffe67d72a12abb","41.164.82.138","Mozilla/5.0 (Windows NT 10.0; Win64; x64) AppleWebKit/537.36 (KHTML, like Gecko) Chrome/138.0.0.0 Safari/537.36","WebKit","Chrome","138.0.0.0","Windows","10.0","https://app.prolific.com/","en-US,en;q=0.9","611e2d4ad083c861391122b2","687a1a965b9f5b85a264363e","6893174acde40931fe5bb471","1","611e2d4ad083c861391122b2","1","2025-08-06T08:56:51.627Z","","","","","","","","","","","","","","","","","","","","","","","","","","","","","","","","","","","","","","","","","",""
"93354.90000000037","","","","survey-template","7","279481","0.0-4.0-3.0","141","1","2025-08-06 08:53:43","36c45c0696341be0efffe67d72a12abb","41.164.82.138","Mozilla/5.0 (Windows NT 10.0; Win64; x64) AppleWebKit/537.36 (KHTML, like Gecko) Chrome/138.0.0.0 Safari/537.36","WebKit","Chrome","138.0.0.0","Windows","10.0","https://app.prolific.com/","en-US,en;q=0.9","611e2d4ad083c861391122b2","687a1a965b9f5b85a264363e","6893174acde40931fe5bb471","1","611e2d4ad083c861391122b2","1","2025-08-06T08:58:24.982Z","","","","drsp","{""Q01"":""3"",""Q02"":""4"",""Q03"":""1"",""Q04"":""2"",""Q05"":""2"",""Q06"":""1"",""Q07"":""1"",""Q08"":""0"",""Q09"":""1"",""Q10"":""1"",""Q11"":""1"",""Q12"":""2"",""Q13"":""5"",""Q14"":""3"",""Q15"":""1"",""Q16"":""0"",""Q17"":""1"",""Q18"":""2"",""Q19"":""1"",""Q20"":""0"",""Q21"":""0"",""Q22"":""0""}","[0,1,2,3,4,5,6,7,8,9,10,11,12,13,14,15,16,17,18,19,20,21]","[""Q01"",""Q02"",""Q03"",""Q04"",""Q05"",""Q06"",""Q07"",""Q08"",""Q09"",""Q09"",""Q09"",""Q10"",""Q11"",""Q12"",""Q13"",""Q14"",""Q15"",""Q16"",""Q17"",""Q18"",""Q19"",""Q20"",""Q21"",""Q22""]","[3174.7000000001863,6511.100000000559,9078.5,11711.100000000559,15079,18887.700000000186,23022.799999999814,25815.400000000373,32975.5,34151.60000000056,35174.90000000037,37319.10000000056,39398.90000000037,41799.5,45175.799999999814,48503.5,52007,58992,62543.799999999814,65303.700000000186,73511.10000000056,79488.10000000056,84088.10000000056,89736.40000000037]","[]","[0.10000000055879354,3174.7000000001863,6511.100000000559,9078.5,11711.100000000559,15079,18887.700000000186,23022.799999999814,25815.400000000373,32975.5,34151.60000000056,35174.90000000037,37319.10000000056,39398.90000000037,41799.5,45175.799999999814,48503.5,52007,58992,62543.799999999814,65303.700000000186,73511.10000000056,79488.10000000056,84088.10000000056,88672.60000000056,89736.40000000037,93352.10000000056]","0.4090909090909091","0.5238095238095238","0","","","","","","","","","","","","","","","","","","","","","","","","","","","","",""
"14467.699999999255","","","","survey-template","8","293950","0.0-4.0-4.0","141","1","2025-08-06 08:53:43","36c45c0696341be0efffe67d72a12abb","41.164.82.138","Mozilla/5.0 (Windows NT 10.0; Win64; x64) AppleWebKit/537.36 (KHTML, like Gecko) Chrome/138.0.0.0 Safari/537.36","WebKit","Chrome","138.0.0.0","Windows","10.0","https://app.prolific.com/","en-US,en;q=0.9","611e2d4ad083c861391122b2","687a1a965b9f5b85a264363e","6893174acde40931fe5bb471","1","611e2d4ad083c861391122b2","1","2025-08-06T08:58:39.451Z","","","","stress","{""Q01"":""3"",""Q02"":""4"",""Q03"":""0""}","[0,1,2]","[""Q01"",""Q02"",""Q03"",""Q03""]","[3276.199999999255,7324.0999999996275,11891.799999999814,13356.5]","[]","[3276.199999999255,7324.0999999996275,11891.799999999814,12892.5,13356.5,13796.5,14467]","0.3333333333333333","0.5","0","","","","","","","","","","","","","","","","","","","","","","","","","","","","",""
"69530","","","","instructions","9","363478","0.0-5.0-0.0","141","1","2025-08-06 08:53:43","36c45c0696341be0efffe67d72a12abb","41.164.82.138","Mozilla/5.0 (Windows NT 10.0; Win64; x64) AppleWebKit/537.36 (KHTML, like Gecko) Chrome/138.0.0.0 Safari/537.36","WebKit","Chrome","138.0.0.0","Windows","10.0","https://app.prolific.com/","en-US,en;q=0.9","611e2d4ad083c861391122b2","687a1a965b9f5b85a264363e","6893174acde40931fe5bb471","1","611e2d4ad083c861391122b2","1","","","","","","","","","","","","","","","[{""page_index"":0,""viewing_time"":69529}]","","","","","","","","","","","","","","","","","","","","","","","","","","","",""
"15670","","<p>Before you start with this game please answer the following three questions yourself. </p>
  <p>Through this game, we measure several aspects of your cognitive performance, such as reaction times, multi-tasking capabilities </p>
  <p>and the ability to assess the situation you are in.</p>
  <p></p>
  <p><b>How good do you usually are in such tasks?</b></p>","100","html-slider-response","10","379149","0.0-6.0-0.0","141","1","2025-08-06 08:53:43","36c45c0696341be0efffe67d72a12abb","41.164.82.138","Mozilla/5.0 (Windows NT 10.0; Win64; x64) AppleWebKit/537.36 (KHTML, like Gecko) Chrome/138.0.0.0 Safari/537.36","WebKit","Chrome","138.0.0.0","Windows","10.0","https://app.prolific.com/","en-US,en;q=0.9","611e2d4ad083c861391122b2","687a1a965b9f5b85a264363e","6893174acde40931fe5bb471","1","611e2d4ad083c861391122b2","1","2025-08-06T09:00:04.650Z","","","","PreSkillQ","","","","","","","","","","","50","","","","","","","","","","","","","","","","","","","","","","","","","","",""
"4807","","<div style=""width:500px;"">
  <p>How well do you think you will perform in this task compared to other participants?</p>
  </div>","100","html-slider-response","11","383957","0.0-6.0-1.0","141","1","2025-08-06 08:53:43","36c45c0696341be0efffe67d72a12abb","41.164.82.138","Mozilla/5.0 (Windows NT 10.0; Win64; x64) AppleWebKit/537.36 (KHTML, like Gecko) Chrome/138.0.0.0 Safari/537.36","WebKit","Chrome","138.0.0.0","Windows","10.0","https://app.prolific.com/","en-US,en;q=0.9","611e2d4ad083c861391122b2","687a1a965b9f5b85a264363e","6893174acde40931fe5bb471","1","611e2d4ad083c861391122b2","1","2025-08-06T09:00:09.458Z","","","","PrePerfQ","","","","","","","","","","","50","","","","","","","","","","","","","","","","","","","","","","","","","","",""
"3775","","<div style=""width:500px;"">
  <p>What best describes how you currently feel?</p>
  </div>","100","html-slider-response","12","387733","0.0-6.0-2.0","141","1","2025-08-06 08:53:43","36c45c0696341be0efffe67d72a12abb","41.164.82.138","Mozilla/5.0 (Windows NT 10.0; Win64; x64) AppleWebKit/537.36 (KHTML, like Gecko) Chrome/138.0.0.0 Safari/537.36","WebKit","Chrome","138.0.0.0","Windows","10.0","https://app.prolific.com/","en-US,en;q=0.9","611e2d4ad083c861391122b2","687a1a965b9f5b85a264363e","6893174acde40931fe5bb471","1","611e2d4ad083c861391122b2","1","2025-08-06T09:00:13.234Z","","","","PreMotivationQ","","","","","","","","","","","50","","","","","","","","","","","","","","","","","","","","","","","","","","",""
"","","","","ctl-task-cpt","13","423800","0.0-7.0-0.0","141","1","2025-08-06 08:53:43","36c45c0696341be0efffe67d72a12abb","41.164.82.138","Mozilla/5.0 (Windows NT 10.0; Win64; x64) AppleWebKit/537.36 (KHTML, like Gecko) Chrome/138.0.0.0 Safari/537.36","WebKit","Chrome","138.0.0.0","Windows","10.0","https://app.prolific.com/","en-US,en;q=0.9","611e2d4ad083c861391122b2","687a1a965b9f5b85a264363e","6893174acde40931fe5bb471","1","611e2d4ad083c861391122b2","1","2025-08-06T09:00:49.301Z","","","","","","","","","","","","","","","","win-only","2","g1:SE,g2:NW","1","1","0","390615.4","4102.5","9106.9","33064.9","1","4","8","6","2","-8","-9","0","0","0","5004.4","3000","-2675","[""left"",""up""]","{""num_key_presses"":6,""num_perfect"":5,""num_errors"":1,""num_randdir"":0,""num_randdir_good_moves"":0,""num_whilered"":0,""num_whileblue"":0,""num_blue"":1,""num_good_moves"":4}","[410.3214133126395,414.07142761775424,0.2,410.3214133126395,414.07142761775424,103.9,410.3214133126395,414.07142761775424,208.7,410.3214133126395,414.07142761775424,308.7,410.3214133126395,414.07142761775424,408.8,410.3214133126395,414.07142761775424,513.8,410.3214133126395,414.07142761775424,614.1,410.3214133126395,414.07142761775424,718.6,410.3214133126395,414.07142761775424,823,410.3214133126395,414.07142761775424,923.9,410.3214133126395,414.07142761775424,1028.1,410.3214133126395,414.07142761775424,1128.6,410.3214133126395,414.07142761775424,1228.6,410.3214133126395,414.07142761775424,1328.7,410.3214133126395,414.07142761775424,1428.8,410.3214133126395,414.07142761775424,1533.9,410.3214133126395,414.07142761775424,1637.9,410.3214133126395,414.07142761775424,1738,410.3214133126395,414.07142761775424,1838.4,410.3214133126395,414.07142761775424,1943.4,410.3214133126395,414.07142761775424,2044.2,410.3214133126395,414.07142761775424,2148,410.3214133126395,414.07142761775424,2248.5,410.3214133126395,414.07142761775424,2353.6,410.3214133126395,414.07142761775424,2453.9,410.3214133126395,414.07142761775424,2555.1,410.3214133126395,414.07142761775424,2658.8,410.3214133126395,414.07142761775424,2763.6,410.3214133126395,414.07142761775424,2863.7,410.3214133126395,414.07142761775424,2968.7,410.3214133126395,414.07142761775424,3073.7,410.3214133126395,414.07142761775424,3178.4,410.3214133126395,414.07142761775424,3279.8,410.3214133126395,414.07142761775424,3382.9,410.3214133126395,414.07142761775424,3483.3,410.3214133126395,414.07142761775424,3588.7,410.3214133126395,414.07142761775424,3689.1,410.3214133126395,414.07142761775424,3793.6,410.3214133126395,414.07142761775424,3893.7,410.3214133126395,414.07142761775424,3998.6,410.3214133126395,414.07142761775424,4103.9,410.3214133126395,414.07142761775424,4203.9,410.3214133126395,414.07142761775424,4304.2,410.3214133126395,414.07142761775424,4407.9,410.3214133126395,414.07142761775424,4509.8,410.3214133126395,414.07142761775424,4614.2,410.3214133126395,414.07142761775424,4718.4,410.3214133126395,414.07142761775424,4824.1,410.3214133126395,414.07142761775424,4928.8]","[1767.7,1767.6,1000,0.1,767.6,""smooth"",""down"",""down"",""bad_move"",1880.3,112.3,2363.8,1768.2,-2251.6,""error"",""-"",""-"",""no_move"",9620.8,7740.3,2197.1,6684.2,739.5,""smooth"",""up"",""up"",""good_move"",13436,3814.9,3367.3,9621.1,447.6,""smooth"",""up"",""up"",""good_move"",16770.2,3334.1,2852.2,13436.1,481.9,""smooth"",""up"",""up"",""good_move"",19971.6,3201,2810.3,16770.6,390.7,""smooth"",""up"",""up"",""good_move""]"
"8076","","<div style=""width:500px;"">
  <p>What determined the result of this run?</p>
  </div>","100","html-slider-response","14","431877","0.0-7.0-1.0","141","1","2025-08-06 08:53:43","36c45c0696341be0efffe67d72a12abb","41.164.82.138","Mozilla/5.0 (Windows NT 10.0; Win64; x64) AppleWebKit/537.36 (KHTML, like Gecko) Chrome/138.0.0.0 Safari/537.36","WebKit","Chrome","138.0.0.0","Windows","10.0","https://app.prolific.com/","en-US,en;q=0.9","611e2d4ad083c861391122b2","687a1a965b9f5b85a264363e","6893174acde40931fe5bb471","1","611e2d4ad083c861391122b2","1","2025-08-06T09:00:57.378Z","","","","AttribQ","","","","","","","","","","","50","","","","","","","","","","","","","","","","","","","","","","","","","","",""
"4992","","<div style=""width:500px;"">
  <p>How much control did you have over the ball?</p>
  </div>","100","html-slider-response","15","436870","0.0-7.0-2.0","141","1","2025-08-06 08:53:43","36c45c0696341be0efffe67d72a12abb","41.164.82.138","Mozilla/5.0 (Windows NT 10.0; Win64; x64) AppleWebKit/537.36 (KHTML, like Gecko) Chrome/138.0.0.0 Safari/537.36","WebKit","Chrome","138.0.0.0","Windows","10.0","https://app.prolific.com/","en-US,en;q=0.9","611e2d4ad083c861391122b2","687a1a965b9f5b85a264363e","6893174acde40931fe5bb471","1","611e2d4ad083c861391122b2","1","2025-08-06T09:01:02.371Z","","","","ControlQ","","","","","","","","","","","50","","","","","","","","","","","","","","","","","","","","","","","","","","",""
"4368","","<div style=""width:500px;"">
  <p>How would you describe your current emotional state?</p>
  </div>","59","html-slider-response","16","441238","0.0-7.0-3.0","141","1","2025-08-06 08:53:43","36c45c0696341be0efffe67d72a12abb","41.164.82.138","Mozilla/5.0 (Windows NT 10.0; Win64; x64) AppleWebKit/537.36 (KHTML, like Gecko) Chrome/138.0.0.0 Safari/537.36","WebKit","Chrome","138.0.0.0","Windows","10.0","https://app.prolific.com/","en-US,en;q=0.9","611e2d4ad083c861391122b2","687a1a965b9f5b85a264363e","6893174acde40931fe5bb471","1","611e2d4ad083c861391122b2","1","2025-08-06T09:01:06.739Z","","","","StressQ","","","","","","","","","","","50","","","","","","","","","","","","","","","","","","","","","","","","","","",""
"3775","","<div style=""width:500px;"">
  <p>What best describes how you currently feel?</p>
  </div>","100","html-slider-response","17","445014","0.0-7.0-4.0","141","1","2025-08-06 08:53:43","36c45c0696341be0efffe67d72a12abb","41.164.82.138","Mozilla/5.0 (Windows NT 10.0; Win64; x64) AppleWebKit/537.36 (KHTML, like Gecko) Chrome/138.0.0.0 Safari/537.36","WebKit","Chrome","138.0.0.0","Windows","10.0","https://app.prolific.com/","en-US,en;q=0.9","611e2d4ad083c861391122b2","687a1a965b9f5b85a264363e","6893174acde40931fe5bb471","1","611e2d4ad083c861391122b2","1","2025-08-06T09:01:10.515Z","","","","MotivationQ","","","","","","","","","","","50","","","","","","","","","","","","","","","","","","","","","","","","","","",""
"","","","","ctl-task-cpt","18","473187","0.0-7.0-0.1","141","1","2025-08-06 08:53:43","36c45c0696341be0efffe67d72a12abb","41.164.82.138","Mozilla/5.0 (Windows NT 10.0; Win64; x64) AppleWebKit/537.36 (KHTML, like Gecko) Chrome/138.0.0.0 Safari/537.36","WebKit","Chrome","138.0.0.0","Windows","10.0","https://app.prolific.com/","en-US,en;q=0.9","611e2d4ad083c861391122b2","687a1a965b9f5b85a264363e","6893174acde40931fe5bb471","1","611e2d4ad083c861391122b2","1","2025-08-06T09:01:38.688Z","","","","","","","","","","","","","","","","win-only","1","g1:NE,g2:SW","0.9","2","0","447896.2","2211.6","7213.7","25160.3","1","4","4","6","1","1","0","0","0","0","5002","3000","1385","[""up"",""right""]","{""num_key_presses"":5,""num_perfect"":4,""num_errors"":1,""num_randdir"":0,""num_randdir_good_moves"":0,""num_whilered"":0,""num_whileblue"":0,""num_blue"":2,""num_good_moves"":4}","[420.3214133126395,421.57142761775424,0.2,425.3214133126395,419.07142761775424,104.6,442.8214133126395,415.32142761775424,204.6,442.8214133126395,415.32142761775424,309,442.8214133126395,415.32142761775424,417.3,442.8214133126395,415.32142761775424,519.4,442.8214133126395,415.32142761775424,619.4,442.8214133126395,415.32142761775424,723.7,442.8214133126395,415.32142761775424,823.8,442.8214133126395,415.32142761775424,924.2,442.8214133126395,415.32142761775424,1034.6,442.8214133126395,415.32142761775424,1139.6,442.8214133126395,415.32142761775424,1243.7,442.8214133126395,415.32142761775424,1344.3,442.8214133126395,415.32142761775424,1450.1,442.8214133126395,415.32142761775424,1550.2,442.8214133126395,415.32142761775424,1653.9,442.8214133126395,415.32142761775424,1754.4,442.8214133126395,415.32142761775424,1859,442.8214133126395,415.32142761775424,1966.9,442.8214133126395,415.32142761775424,2067.1,442.8214133126395,415.32142761775424,2167.6,442.8214133126395,415.32142761775424,2269.4,442.8214133126395,415.32142761775424,2369.7,442.8214133126395,415.32142761775424,2469.7,442.8214133126395,415.32142761775424,2574.5,442.8214133126395,415.32142761775424,2674.8,442.8214133126395,415.32142761775424,2774.9,442.8214133126395,415.32142761775424,2885,442.8214133126395,415.32142761775424,2985,442.8214133126395,415.32142761775424,3089.6,442.8214133126395,415.32142761775424,3189.8,442.8214133126395,415.32142761775424,3294.2,442.8214133126395,415.32142761775424,3395.1,442.8214133126395,415.32142761775424,3501.3,442.8214133126395,415.32142761775424,3602,442.8214133126395,415.32142761775424,3704.2,442.8214133126395,415.32142761775424,3808.8,442.8214133126395,415.32142761775424,3908.9,442.8214133126395,415.32142761775424,4009.6,442.8214133126395,415.32142761775424,4118.4,442.8214133126395,415.32142761775424,4219.5,442.8214133126395,415.32142761775424,4324.5,442.8214133126395,415.32142761775424,4424.6,442.8214133126395,415.32142761775424,4529.2,442.8214133126395,415.32142761775424,4629.5,442.8214133126395,415.32142761775424,4735.3,442.8214133126395,415.32142761775424,4836.1,442.8214133126395,415.32142761775424,4939.2]","[1457.3,1457.3,1000,0,457.3,""smooth"",""right"",""right"",""good_move"",1687.2,229.6,3095.2,1457.6,-2865.6,""error"",""-"",""-"",""no_move"",5301.5,3614.1,2098.6,2691.6,511.3,""smooth"",""right"",""right"",""good_move"",7535.6,2233.8,1759,5301.9,474.7,""smooth"",""up"",""up"",""good_move"",17857.1,10321.2,2131.3,15332.5,393.3,""smooth"",""up"",""up"",""good_move""]"
"2875","","<div style=""width:500px;"">
  <p>What determined the result of this run?</p>
  </div>","100","html-slider-response","19","476063","0.0-7.0-1.1","141","1","2025-08-06 08:53:43","36c45c0696341be0efffe67d72a12abb","41.164.82.138","Mozilla/5.0 (Windows NT 10.0; Win64; x64) AppleWebKit/537.36 (KHTML, like Gecko) Chrome/138.0.0.0 Safari/537.36","WebKit","Chrome","138.0.0.0","Windows","10.0","https://app.prolific.com/","en-US,en;q=0.9","611e2d4ad083c861391122b2","687a1a965b9f5b85a264363e","6893174acde40931fe5bb471","1","611e2d4ad083c861391122b2","1","2025-08-06T09:01:41.564Z","","","","AttribQ","","","","","","","","","","","50","","","","","","","","","","","","","","","","","","","","","","","","","","",""
"2663","","<div style=""width:500px;"">
  <p>How much control did you have over the ball?</p>
  </div>","100","html-slider-response","20","478727","0.0-7.0-2.1","141","1","2025-08-06 08:53:43","36c45c0696341be0efffe67d72a12abb","41.164.82.138","Mozilla/5.0 (Windows NT 10.0; Win64; x64) AppleWebKit/537.36 (KHTML, like Gecko) Chrome/138.0.0.0 Safari/537.36","WebKit","Chrome","138.0.0.0","Windows","10.0","https://app.prolific.com/","en-US,en;q=0.9","611e2d4ad083c861391122b2","687a1a965b9f5b85a264363e","6893174acde40931fe5bb471","1","611e2d4ad083c861391122b2","1","2025-08-06T09:01:44.228Z","","","","ControlQ","","","","","","","","","","","50","","","","","","","","","","","","","","","","","","","","","","","","","","",""
"4615","","<div style=""width:500px;"">
  <p>How would you describe your current emotional state?</p>
  </div>","100","html-slider-response","21","483342","0.0-7.0-3.1","141","1","2025-08-06 08:53:43","36c45c0696341be0efffe67d72a12abb","41.164.82.138","Mozilla/5.0 (Windows NT 10.0; Win64; x64) AppleWebKit/537.36 (KHTML, like Gecko) Chrome/138.0.0.0 Safari/537.36","WebKit","Chrome","138.0.0.0","Windows","10.0","https://app.prolific.com/","en-US,en;q=0.9","611e2d4ad083c861391122b2","687a1a965b9f5b85a264363e","6893174acde40931fe5bb471","1","611e2d4ad083c861391122b2","1","2025-08-06T09:01:48.843Z","","","","StressQ","","","","","","","","","","","50","","","","","","","","","","","","","","","","","","","","","","","","","","",""
"3063","","<div style=""width:500px;"">
  <p>What best describes how you currently feel?</p>
  </div>","100","html-slider-response","22","486406","0.0-7.0-4.1","141","1","2025-08-06 08:53:43","36c45c0696341be0efffe67d72a12abb","41.164.82.138","Mozilla/5.0 (Windows NT 10.0; Win64; x64) AppleWebKit/537.36 (KHTML, like Gecko) Chrome/138.0.0.0 Safari/537.36","WebKit","Chrome","138.0.0.0","Windows","10.0","https://app.prolific.com/","en-US,en;q=0.9","611e2d4ad083c861391122b2","687a1a965b9f5b85a264363e","6893174acde40931fe5bb471","1","611e2d4ad083c861391122b2","1","2025-08-06T09:01:51.907Z","","","","MotivationQ","","","","","","","","","","","50","","","","","","","","","","","","","","","","","","","","","","","","","","",""
"","","","","ctl-task-cpt","23","505649","0.0-7.0-0.2","141","1","2025-08-06 08:53:43","36c45c0696341be0efffe67d72a12abb","41.164.82.138","Mozilla/5.0 (Windows NT 10.0; Win64; x64) AppleWebKit/537.36 (KHTML, like Gecko) Chrome/138.0.0.0 Safari/537.36","WebKit","Chrome","138.0.0.0","Windows","10.0","https://app.prolific.com/","en-US,en;q=0.9","611e2d4ad083c861391122b2","687a1a965b9f5b85a264363e","6893174acde40931fe5bb471","1","611e2d4ad083c861391122b2","1","2025-08-06T09:02:11.150Z","","","","","","","","","","","","","","","","win-only","1","g1:NE,g2:SW","0.8","3","0","489290","1000.4","6002.8","16216.9","1","4","8","6","1","1","1","1","0","0.007575757575757576","5002.4","3000","1515","[""up"",""right""]","{""num_key_presses"":4,""num_perfect"":3,""num_errors"":0,""num_randdir"":1,""num_randdir_good_moves"":1,""num_whilered"":0,""num_whileblue"":0,""num_blue"":0,""num_good_moves"":4}","[415.3214133126395,419.07142761775424,0.2,410.3214133126395,416.57142761775424,100.4,407.8214133126395,416.57142761775424,206.2,407.8214133126395,416.57142761775424,310.4,407.8214133126395,416.57142761775424,410.5,407.8214133126395,416.57142761775424,511,407.8214133126395,416.57142761775424,616.9,407.8214133126395,416.57142761775424,717,407.8214133126395,416.57142761775424,817.2,407.8214133126395,416.57142761775424,917.7,407.8214133126395,416.57142761775424,1020.8,407.8214133126395,416.57142761775424,1120.9,407.8214133126395,416.57142761775424,1220.9,407.8214133126395,416.57142761775424,1325.2,407.8214133126395,416.57142761775424,1425.6,407.8214133126395,416.57142761775424,1525.7,407.8214133126395,416.57142761775424,1625.9,407.8214133126395,416.57142761775424,1734.7,407.8214133126395,416.57142761775424,1834.9,407.8214133126395,416.57142761775424,1935.8,407.8214133126395,416.57142761775424,2035.9,407.8214133126395,416.57142761775424,2140.4,407.8214133126395,416.57142761775424,2240.5,407.8214133126395,416.57142761775424,2351.5,407.8214133126395,416.57142761775424,2451.5,407.8214133126395,416.57142761775424,2551.7,407.8214133126395,416.57142761775424,2652.1,407.8214133126395,416.57142761775424,2752.5,407.8214133126395,416.57142761775424,2855.7,407.8214133126395,416.57142761775424,2956,407.8214133126395,416.57142761775424,3060.7,407.8214133126395,416.57142761775424,3160.9,407.8214133126395,416.57142761775424,3271.4,407.8214133126395,416.57142761775424,3375.8,407.8214133126395,416.57142761775424,3485.9,407.8214133126395,416.57142761775424,3591,407.8214133126395,416.57142761775424,3695.8,407.8214133126395,416.57142761775424,3802.3,407.8214133126395,416.57142761775424,3902.5,407.8214133126395,416.57142761775424,4003,407.8214133126395,416.57142761775424,4105.7,407.8214133126395,416.57142761775424,4210.1,407.8214133126395,416.57142761775424,4310.3,407.8214133126395,416.57142761775424,4419.3,407.8214133126395,416.57142761775424,4520.1,407.8214133126395,416.57142761775424,4620.3,407.8214133126395,416.57142761775424,4720.4,407.8214133126395,416.57142761775424,4820.4,407.8214133126395,416.57142761775424,4926.1]","[1420.1,1420.1,1000,0,420.1,""smooth"",""right"",""right"",""good_move"",4267.5,2847.1,2374.8,1420.4,472.3,""smooth"",""up"",""up"",""good_move"",6941.2,2673.4,2254.2,4267.8,419.2,""oops"",""right"",""up"",""good_move"",10119.9,3178.5,2817.3,6941.5,361.1,""smooth"",""right"",""right"",""good_move""]"
"2205","","<div style=""width:500px;"">
  <p>What determined the result of this run?</p>
  </div>","100","html-slider-response","24","507855","0.0-7.0-1.2","141","1","2025-08-06 08:53:43","36c45c0696341be0efffe67d72a12abb","41.164.82.138","Mozilla/5.0 (Windows NT 10.0; Win64; x64) AppleWebKit/537.36 (KHTML, like Gecko) Chrome/138.0.0.0 Safari/537.36","WebKit","Chrome","138.0.0.0","Windows","10.0","https://app.prolific.com/","en-US,en;q=0.9","611e2d4ad083c861391122b2","687a1a965b9f5b85a264363e","6893174acde40931fe5bb471","1","611e2d4ad083c861391122b2","1","2025-08-06T09:02:13.356Z","","","","AttribQ","","","","","","","","","","","50","","","","","","","","","","","","","","","","","","","","","","","","","","",""
"1719","","<div style=""width:500px;"">
  <p>How much control did you have over the ball?</p>
  </div>","100","html-slider-response","25","509574","0.0-7.0-2.2","141","1","2025-08-06 08:53:43","36c45c0696341be0efffe67d72a12abb","41.164.82.138","Mozilla/5.0 (Windows NT 10.0; Win64; x64) AppleWebKit/537.36 (KHTML, like Gecko) Chrome/138.0.0.0 Safari/537.36","WebKit","Chrome","138.0.0.0","Windows","10.0","https://app.prolific.com/","en-US,en;q=0.9","611e2d4ad083c861391122b2","687a1a965b9f5b85a264363e","6893174acde40931fe5bb471","1","611e2d4ad083c861391122b2","1","2025-08-06T09:02:15.075Z","","","","ControlQ","","","","","","","","","","","50","","","","","","","","","","","","","","","","","","","","","","","","","","",""
"2480","","<div style=""width:500px;"">
  <p>How would you describe your current emotional state?</p>
  </div>","0","html-slider-response","26","512054","0.0-7.0-3.2","141","1","2025-08-06 08:53:43","36c45c0696341be0efffe67d72a12abb","41.164.82.138","Mozilla/5.0 (Windows NT 10.0; Win64; x64) AppleWebKit/537.36 (KHTML, like Gecko) Chrome/138.0.0.0 Safari/537.36","WebKit","Chrome","138.0.0.0","Windows","10.0","https://app.prolific.com/","en-US,en;q=0.9","611e2d4ad083c861391122b2","687a1a965b9f5b85a264363e","6893174acde40931fe5bb471","1","611e2d4ad083c861391122b2","1","2025-08-06T09:02:17.555Z","","","","StressQ","","","","","","","","","","","50","","","","","","","","","","","","","","","","","","","","","","","","","","",""
"1744","","<div style=""width:500px;"">
  <p>What best describes how you currently feel?</p>
  </div>","100","html-slider-response","27","513799","0.0-7.0-4.2","141","1","2025-08-06 08:53:43","36c45c0696341be0efffe67d72a12abb","41.164.82.138","Mozilla/5.0 (Windows NT 10.0; Win64; x64) AppleWebKit/537.36 (KHTML, like Gecko) Chrome/138.0.0.0 Safari/537.36","WebKit","Chrome","138.0.0.0","Windows","10.0","https://app.prolific.com/","en-US,en;q=0.9","611e2d4ad083c861391122b2","687a1a965b9f5b85a264363e","6893174acde40931fe5bb471","1","611e2d4ad083c861391122b2","1","2025-08-06T09:02:19.300Z","","","","MotivationQ","","","","","","","","","","","50","","","","","","","","","","","","","","","","","","","","","","","","","","",""
"","","","","ctl-task-cpt","28","561935","0.0-7.0-0.3","141","1","2025-08-06 08:53:43","36c45c0696341be0efffe67d72a12abb","41.164.82.138","Mozilla/5.0 (Windows NT 10.0; Win64; x64) AppleWebKit/537.36 (KHTML, like Gecko) Chrome/138.0.0.0 Safari/537.36","WebKit","Chrome","138.0.0.0","Windows","10.0","https://app.prolific.com/","en-US,en;q=0.9","611e2d4ad083c861391122b2","687a1a965b9f5b85a264363e","6893174acde40931fe5bb471","1","611e2d4ad083c861391122b2","1","2025-08-06T09:03:07.437Z","","","","","","","","","","","","","","","","win-only","0","g1:NW,g2:SE","0.7","4","0","516682.5","758.7","5760.8","45121.2","1","4","4","6","1","-1","-2","0","1","0","5002.1","3000","-2990","[""left"",""up""]","{""num_key_presses"":7,""num_perfect"":5,""num_errors"":1,""num_randdir"":1,""num_randdir_good_moves"":0,""num_whilered"":0,""num_whileblue"":1,""num_blue"":6,""num_good_moves"":5}","[419.0714133126395,421.57142761775424,0.3,419.0714133126395,421.57142761775424,103.7,419.0714133126395,421.57142761775424,206.6,419.0714133126395,421.57142761775424,306.7,419.0714133126395,421.57142761775424,408.2,419.0714133126395,421.57142761775424,512.5,419.0714133126395,421.57142761775424,612.6,419.0714133126395,421.57142761775424,716.7,419.0714133126395,421.57142761775424,822.4,419.0714133126395,421.57142761775424,927.6,419.0714133126395,421.57142761775424,1032.8,419.0714133126395,421.57142761775424,1137.2,419.0714133126395,421.57142761775424,1241.5,419.0714133126395,421.57142761775424,1343,419.0714133126395,421.57142761775424,1446.8,419.0714133126395,421.57142761775424,1547.2,419.0714133126395,421.57142761775424,1652.6,419.0714133126395,421.57142761775424,1756.8,419.0714133126395,421.57142761775424,1863.7,419.0714133126395,421.57142761775424,1966.5,419.0714133126395,421.57142761775424,2067.3,419.0714133126395,421.57142761775424,2172.6,419.0714133126395,421.57142761775424,2277.1,419.0714133126395,421.57142761775424,2383,419.0714133126395,421.57142761775424,2487.3,419.0714133126395,421.57142761775424,2591.7,419.0714133126395,421.57142761775424,2693.2,419.0714133126395,421.57142761775424,2796.7,419.0714133126395,421.57142761775424,2896.7,419.0714133126395,421.57142761775424,2998,419.0714133126395,421.57142761775424,3102.8,419.0714133126395,421.57142761775424,3202.9,419.0714133126395,421.57142761775424,3306.9,419.0714133126395,421.57142761775424,3407.2,419.0714133126395,421.57142761775424,3512.2,419.0714133126395,421.57142761775424,3612.7,419.0714133126395,421.57142761775424,3716.6,419.0714133126395,421.57142761775424,3817.2,419.0714133126395,421.57142761775424,3917.2,419.0714133126395,421.57142761775424,4017.2,419.0714133126395,421.57142761775424,4122.6,419.0714133126395,421.57142761775424,4226.6,419.0714133126395,421.57142761775424,4327.4,419.0714133126395,421.57142761775424,4427.6,419.0714133126395,421.57142761775424,4530,419.0714133126395,421.57142761775424,4632.6,419.0714133126395,421.57142761775424,4737.3,419.0714133126395,421.57142761775424,4841.5,419.0714133126395,421.57142761775424,4941.6]","[1503.7,1503.8,1000,0,503.8,""smooth"",""left"",""left"",""good_move"",11780.4,10276.1,2084.8,9314.6,381,""smooth"",""left"",""left"",""good_move"",14445.6,2665.1,2146.4,11780.5,518.7,""oops"",""up"",""down"",""bad_move"",16786.5,2340.8,1926.8,14445.7,414,""smooth"",""up"",""up"",""good_move"",19534.7,2747.9,2397.1,16786.8,350.8,""smooth"",""up"",""up"",""good_move"",21650.1,2115.2,1770.1,19534.9,345.1,""while_blue"",""up"",""down"",""bad_move"",25073,3422.6,2951,21650.4,471.6,""smooth"",""up"",""up"",""good_move""]"
"2166","","<div style=""width:500px;"">
  <p>What determined the result of this run?</p>
  </div>","0","html-slider-response","29","564103","0.0-7.0-1.3","141","1","2025-08-06 08:53:43","36c45c0696341be0efffe67d72a12abb","41.164.82.138","Mozilla/5.0 (Windows NT 10.0; Win64; x64) AppleWebKit/537.36 (KHTML, like Gecko) Chrome/138.0.0.0 Safari/537.36","WebKit","Chrome","138.0.0.0","Windows","10.0","https://app.prolific.com/","en-US,en;q=0.9","611e2d4ad083c861391122b2","687a1a965b9f5b85a264363e","6893174acde40931fe5bb471","1","611e2d4ad083c861391122b2","1","2025-08-06T09:03:09.604Z","","","","AttribQ","","","","","","","","","","","50","","","","","","","","","","","","","","","","","","","","","","","","","","",""
"3009","","<div style=""width:500px;"">
  <p>How much control did you have over the ball?</p>
  </div>","100","html-slider-response","30","567112","0.0-7.0-2.3","141","1","2025-08-06 08:53:43","36c45c0696341be0efffe67d72a12abb","41.164.82.138","Mozilla/5.0 (Windows NT 10.0; Win64; x64) AppleWebKit/537.36 (KHTML, like Gecko) Chrome/138.0.0.0 Safari/537.36","WebKit","Chrome","138.0.0.0","Windows","10.0","https://app.prolific.com/","en-US,en;q=0.9","611e2d4ad083c861391122b2","687a1a965b9f5b85a264363e","6893174acde40931fe5bb471","1","611e2d4ad083c861391122b2","1","2025-08-06T09:03:12.613Z","","","","ControlQ","","","","","","","","","","","50","","","","","","","","","","","","","","","","","","","","","","","","","","",""
"2030","","<div style=""width:500px;"">
  <p>How would you describe your current emotional state?</p>
  </div>","0","html-slider-response","31","569143","0.0-7.0-3.3","141","1","2025-08-06 08:53:43","36c45c0696341be0efffe67d72a12abb","41.164.82.138","Mozilla/5.0 (Windows NT 10.0; Win64; x64) AppleWebKit/537.36 (KHTML, like Gecko) Chrome/138.0.0.0 Safari/537.36","WebKit","Chrome","138.0.0.0","Windows","10.0","https://app.prolific.com/","en-US,en;q=0.9","611e2d4ad083c861391122b2","687a1a965b9f5b85a264363e","6893174acde40931fe5bb471","1","611e2d4ad083c861391122b2","1","2025-08-06T09:03:14.644Z","","","","StressQ","","","","","","","","","","","50","","","","","","","","","","","","","","","","","","","","","","","","","","",""
"2039","","<div style=""width:500px;"">
  <p>What best describes how you currently feel?</p>
  </div>","100","html-slider-response","32","571183","0.0-7.0-4.3","141","1","2025-08-06 08:53:43","36c45c0696341be0efffe67d72a12abb","41.164.82.138","Mozilla/5.0 (Windows NT 10.0; Win64; x64) AppleWebKit/537.36 (KHTML, like Gecko) Chrome/138.0.0.0 Safari/537.36","WebKit","Chrome","138.0.0.0","Windows","10.0","https://app.prolific.com/","en-US,en;q=0.9","611e2d4ad083c861391122b2","687a1a965b9f5b85a264363e","6893174acde40931fe5bb471","1","611e2d4ad083c861391122b2","1","2025-08-06T09:03:16.684Z","","","","MotivationQ","","","","","","","","","","","50","","","","","","","","","","","","","","","","","","","","","","","","","","",""
"","","","","ctl-task-cpt","33","614930","0.0-7.0-0.4","141","1","2025-08-06 08:53:43","36c45c0696341be0efffe67d72a12abb","41.164.82.138","Mozilla/5.0 (Windows NT 10.0; Win64; x64) AppleWebKit/537.36 (KHTML, like Gecko) Chrome/138.0.0.0 Safari/537.36","WebKit","Chrome","138.0.0.0","Windows","10.0","https://app.prolific.com/","en-US,en;q=0.9","611e2d4ad083c861391122b2","687a1a965b9f5b85a264363e","6893174acde40931fe5bb471","1","611e2d4ad083c861391122b2","1","2025-08-06T09:04:00.431Z","","","","","","","","","","","","","","","","win-only","3","g1:SW,g2:NE","0.6","5","0","574068.1","589.6","5590.5","40730.6","1","4","4","6","2","-4","-4","0","0","0","5000.9","3000","-3005","[""up"",""right""]","{""num_key_presses"":6,""num_perfect"":3,""num_errors"":0,""num_randdir"":3,""num_randdir_good_moves"":1,""num_whilered"":0,""num_whileblue"":0,""num_blue"":4,""num_good_moves"":4}","[416.5714133126395,417.82142761775424,0,416.5714133126395,417.82142761775424,101.1,419.0714133126395,414.07142761775424,201.3,426.5714133126395,406.57142761775424,306,426.5714133126395,406.57142761775424,411.4,426.5714133126395,406.57142761775424,511.4,426.5714133126395,406.57142761775424,611.7,426.5714133126395,406.57142761775424,716.8,426.5714133126395,406.57142761775424,820.8,426.5714133126395,406.57142761775424,920.8,426.5714133126395,406.57142761775424,1021.2,426.5714133126395,406.57142761775424,1125.8,426.5714133126395,406.57142761775424,1226.5,426.5714133126395,406.57142761775424,1327,426.5714133126395,406.57142761775424,1431.2,426.5714133126395,406.57142761775424,1536.6,426.5714133126395,406.57142761775424,1641.1,426.5714133126395,406.57142761775424,1746.3,426.5714133126395,406.57142761775424,1851.3,426.5714133126395,406.57142761775424,1951.9,426.5714133126395,406.57142761775424,2052.6,426.5714133126395,406.57142761775424,2157.3,426.5714133126395,406.57142761775424,2260.8,426.5714133126395,406.57142761775424,2361.2,426.5714133126395,406.57142761775424,2461.3,426.5714133126395,406.57142761775424,2566.3,426.5714133126395,406.57142761775424,2670.9,426.5714133126395,406.57142761775424,2770.9,426.5714133126395,406.57142761775424,2871.5,426.5714133126395,406.57142761775424,2976,426.5714133126395,406.57142761775424,3080.7,426.5714133126395,406.57142761775424,3181,426.5714133126395,406.57142761775424,3281,426.5714133126395,406.57142761775424,3382.3,426.5714133126395,406.57142761775424,3486.2,426.5714133126395,406.57142761775424,3591.3,426.5714133126395,406.57142761775424,3691.5,426.5714133126395,406.57142761775424,3791.6,426.5714133126395,406.57142761775424,3896.9,426.5714133126395,406.57142761775424,4001.4,426.5714133126395,406.57142761775424,4102.2,426.5714133126395,406.57142761775424,4205.9,426.5714133126395,406.57142761775424,4306.3,426.5714133126395,406.57142761775424,4411.4,426.5714133126395,406.57142761775424,4515.6,426.5714133126395,406.57142761775424,4620.8,426.5714133126395,406.57142761775424,4726.9,426.5714133126395,406.57142761775424,4831,426.5714133126395,406.57142761775424,4931.1]","[1549.3,1549.3,1000,0,549.3,""oops"",""right"",""up"",""good_move"",8953.2,7403.6,3051.3,5509.7,392.2,""oops"",""right"",""left"",""bad_move"",16381.8,7428.3,2831.9,13204.8,345.1,""smooth"",""up"",""up"",""good_move"",23245.1,6863,3209,19650.5,385.6,""smooth"",""up"",""up"",""good_move"",25481.7,2236.4,1739.4,23245.3,497,""oops"",""right"",""down"",""bad_move"",28208.4,2726.3,2200.5,25482.1,525.8,""smooth"",""right"",""right"",""good_move""]"
"2517","","<div style=""width:500px;"">
  <p>What determined the result of this run?</p>
  </div>","0","html-slider-response","34","617448","0.0-7.0-1.4","141","1","2025-08-06 08:53:43","36c45c0696341be0efffe67d72a12abb","41.164.82.138","Mozilla/5.0 (Windows NT 10.0; Win64; x64) AppleWebKit/537.36 (KHTML, like Gecko) Chrome/138.0.0.0 Safari/537.36","WebKit","Chrome","138.0.0.0","Windows","10.0","https://app.prolific.com/","en-US,en;q=0.9","611e2d4ad083c861391122b2","687a1a965b9f5b85a264363e","6893174acde40931fe5bb471","1","611e2d4ad083c861391122b2","1","2025-08-06T09:04:02.949Z","","","","AttribQ","","","","","","","","","","","50","","","","","","","","","","","","","","","","","","","","","","","","","","",""
"1880","","<div style=""width:500px;"">
  <p>How much control did you have over the ball?</p>
  </div>","0","html-slider-response","35","619328","0.0-7.0-2.4","141","1","2025-08-06 08:53:43","36c45c0696341be0efffe67d72a12abb","41.164.82.138","Mozilla/5.0 (Windows NT 10.0; Win64; x64) AppleWebKit/537.36 (KHTML, like Gecko) Chrome/138.0.0.0 Safari/537.36","WebKit","Chrome","138.0.0.0","Windows","10.0","https://app.prolific.com/","en-US,en;q=0.9","611e2d4ad083c861391122b2","687a1a965b9f5b85a264363e","6893174acde40931fe5bb471","1","611e2d4ad083c861391122b2","1","2025-08-06T09:04:04.829Z","","","","ControlQ","","","","","","","","","","","50","","","","","","","","","","","","","","","","","","","","","","","","","","",""
"2558","","<div style=""width:500px;"">
  <p>How would you describe your current emotional state?</p>
  </div>","0","html-slider-response","36","621887","0.0-7.0-3.4","141","1","2025-08-06 08:53:43","36c45c0696341be0efffe67d72a12abb","41.164.82.138","Mozilla/5.0 (Windows NT 10.0; Win64; x64) AppleWebKit/537.36 (KHTML, like Gecko) Chrome/138.0.0.0 Safari/537.36","WebKit","Chrome","138.0.0.0","Windows","10.0","https://app.prolific.com/","en-US,en;q=0.9","611e2d4ad083c861391122b2","687a1a965b9f5b85a264363e","6893174acde40931fe5bb471","1","611e2d4ad083c861391122b2","1","2025-08-06T09:04:07.388Z","","","","StressQ","","","","","","","","","","","50","","","","","","","","","","","","","","","","","","","","","","","","","","",""
"2528","","<div style=""width:500px;"">
  <p>What best describes how you currently feel?</p>
  </div>","100","html-slider-response","37","624416","0.0-7.0-4.4","141","1","2025-08-06 08:53:43","36c45c0696341be0efffe67d72a12abb","41.164.82.138","Mozilla/5.0 (Windows NT 10.0; Win64; x64) AppleWebKit/537.36 (KHTML, like Gecko) Chrome/138.0.0.0 Safari/537.36","WebKit","Chrome","138.0.0.0","Windows","10.0","https://app.prolific.com/","en-US,en;q=0.9","611e2d4ad083c861391122b2","687a1a965b9f5b85a264363e","6893174acde40931fe5bb471","1","611e2d4ad083c861391122b2","1","2025-08-06T09:04:09.917Z","","","","MotivationQ","","","","","","","","","","","50","","","","","","","","","","","","","","","","","","","","","","","","","","",""
"","","","","ctl-task-cpt","38","662370","0.0-7.0-0.5","141","1","2025-08-06 08:53:43","36c45c0696341be0efffe67d72a12abb","41.164.82.138","Mozilla/5.0 (Windows NT 10.0; Win64; x64) AppleWebKit/537.36 (KHTML, like Gecko) Chrome/138.0.0.0 Safari/537.36","WebKit","Chrome","138.0.0.0","Windows","10.0","https://app.prolific.com/","en-US,en;q=0.9","611e2d4ad083c861391122b2","687a1a965b9f5b85a264363e","6893174acde40931fe5bb471","1","611e2d4ad083c861391122b2","1","2025-08-06T09:04:47.871Z","","","","","","","","","","","","","","","","win-only","3","g1:SW,g2:NE","0.5","6","0","627300.7","686.4","5691.4","34937.2","1","4","8","6","1","-1","-1","0","0","0","5005","3000","-2985","[""down"",""left""]","{""num_key_presses"":6,""num_perfect"":3,""num_errors"":0,""num_randdir"":3,""num_randdir_good_moves"":1,""num_whilered"":0,""num_whileblue"":0,""num_blue"":3,""num_good_moves"":3}","[415.3214133126395,421.57142761775424,0.1,415.3214133126395,421.57142761775424,100.3,415.3214133126395,421.57142761775424,200.9,425.3214133126395,415.32142761775424,304.8,425.3214133126395,415.32142761775424,410.5,425.3214133126395,415.32142761775424,514.4,425.3214133126395,415.32142761775424,615.2,425.3214133126395,415.32142761775424,719.2,425.3214133126395,415.32142761775424,819.7,425.3214133126395,415.32142761775424,924.2,425.3214133126395,415.32142761775424,1028.9,425.3214133126395,415.32142761775424,1129.2,425.3214133126395,415.32142761775424,1229.9,425.3214133126395,415.32142761775424,1335,425.3214133126395,415.32142761775424,1439.3,425.3214133126395,415.32142761775424,1540.3,425.3214133126395,415.32142761775424,1645.3,425.3214133126395,415.32142761775424,1749.8,425.3214133126395,415.32142761775424,1849.8,425.3214133126395,415.32142761775424,1954.2,425.3214133126395,415.32142761775424,2054.3,425.3214133126395,415.32142761775424,2160.3,425.3214133126395,415.32142761775424,2264.4,425.3214133126395,415.32142761775424,2369.9,425.3214133126395,415.32142761775424,2474.2,425.3214133126395,415.32142761775424,2575.9,425.3214133126395,415.32142761775424,2678.9,425.3214133126395,415.32142761775424,2778.9,425.3214133126395,415.32142761775424,2880.3,425.3214133126395,415.32142761775424,2980.3,425.3214133126395,415.32142761775424,3085.1,425.3214133126395,415.32142761775424,3190.1,425.3214133126395,415.32142761775424,3290.3,425.3214133126395,415.32142761775424,3395.8,425.3214133126395,415.32142761775424,3496.6,425.3214133126395,415.32142761775424,3599.2,425.3214133126395,415.32142761775424,3704.6,425.3214133126395,415.32142761775424,3810.3,425.3214133126395,415.32142761775424,3913.9,425.3214133126395,415.32142761775424,4015.4,425.3214133126395,415.32142761775424,4119,425.3214133126395,415.32142761775424,4219.7,425.3214133126395,415.32142761775424,4320.3,425.3214133126395,415.32142761775424,4423.9,425.3214133126395,415.32142761775424,4525,425.3214133126395,415.32142761775424,4629.1,425.3214133126395,415.32142761775424,4730,425.3214133126395,415.32142761775424,4835.2,425.3214133126395,415.32142761775424,4940.4]","[1654.6,1654.6,1000,0,654.6,""oops"",""down"",""right"",""bad_move"",8142.4,6487.6,2789.1,4960.5,392.8,""smooth"",""left"",""left"",""good_move"",11422.5,3279.7,2714.1,8142.8,565.6,""smooth"",""right"",""right"",""bad_move"",17618,6195.3,2214.1,15030,373.9,""oops"",""left"",""left"",""good_move"",21029.9,3411.6,3004.1,17618.3,407.5,""smooth"",""left"",""left"",""good_move"",23950,2919.9,2534.1,21030.1,385.8,""oops"",""left"",""up"",""bad_move""]"
"2149","","<div style=""width:500px;"">
  <p>What determined the result of this run?</p>
  </div>","0","html-slider-response","39","664520","0.0-7.0-1.5","141","1","2025-08-06 08:53:43","36c45c0696341be0efffe67d72a12abb","41.164.82.138","Mozilla/5.0 (Windows NT 10.0; Win64; x64) AppleWebKit/537.36 (KHTML, like Gecko) Chrome/138.0.0.0 Safari/537.36","WebKit","Chrome","138.0.0.0","Windows","10.0","https://app.prolific.com/","en-US,en;q=0.9","611e2d4ad083c861391122b2","687a1a965b9f5b85a264363e","6893174acde40931fe5bb471","1","611e2d4ad083c861391122b2","1","2025-08-06T09:04:50.021Z","","","","AttribQ","","","","","","","","","","","50","","","","","","","","","","","","","","","","","","","","","","","","","","",""
"1719","","<div style=""width:500px;"">
  <p>How much control did you have over the ball?</p>
  </div>","0","html-slider-response","40","666240","0.0-7.0-2.5","141","1","2025-08-06 08:53:43","36c45c0696341be0efffe67d72a12abb","41.164.82.138","Mozilla/5.0 (Windows NT 10.0; Win64; x64) AppleWebKit/537.36 (KHTML, like Gecko) Chrome/138.0.0.0 Safari/537.36","WebKit","Chrome","138.0.0.0","Windows","10.0","https://app.prolific.com/","en-US,en;q=0.9","611e2d4ad083c861391122b2","687a1a965b9f5b85a264363e","6893174acde40931fe5bb471","1","611e2d4ad083c861391122b2","1","2025-08-06T09:04:51.741Z","","","","ControlQ","","","","","","","","","","","50","","","","","","","","","","","","","","","","","","","","","","","","","","",""
"1999","","<div style=""width:500px;"">
  <p>How would you describe your current emotional state?</p>
  </div>","100","html-slider-response","41","668240","0.0-7.0-3.5","141","1","2025-08-06 08:53:43","36c45c0696341be0efffe67d72a12abb","41.164.82.138","Mozilla/5.0 (Windows NT 10.0; Win64; x64) AppleWebKit/537.36 (KHTML, like Gecko) Chrome/138.0.0.0 Safari/537.36","WebKit","Chrome","138.0.0.0","Windows","10.0","https://app.prolific.com/","en-US,en;q=0.9","611e2d4ad083c861391122b2","687a1a965b9f5b85a264363e","6893174acde40931fe5bb471","1","611e2d4ad083c861391122b2","1","2025-08-06T09:04:53.741Z","","","","StressQ","","","","","","","","","","","50","","","","","","","","","","","","","","","","","","","","","","","","","","",""
"1767","","<div style=""width:500px;"">
  <p>What best describes how you currently feel?</p>
  </div>","100","html-slider-response","42","670008","0.0-7.0-4.5","141","1","2025-08-06 08:53:43","36c45c0696341be0efffe67d72a12abb","41.164.82.138","Mozilla/5.0 (Windows NT 10.0; Win64; x64) AppleWebKit/537.36 (KHTML, like Gecko) Chrome/138.0.0.0 Safari/537.36","WebKit","Chrome","138.0.0.0","Windows","10.0","https://app.prolific.com/","en-US,en;q=0.9","611e2d4ad083c861391122b2","687a1a965b9f5b85a264363e","6893174acde40931fe5bb471","1","611e2d4ad083c861391122b2","1","2025-08-06T09:04:55.509Z","","","","MotivationQ","","","","","","","","","","","50","","","","","","","","","","","","","","","","","","","","","","","","","","",""
"","","","","ctl-task-cpt","43","727430","0.0-7.0-0.6","141","1","2025-08-06 08:53:43","36c45c0696341be0efffe67d72a12abb","41.164.82.138","Mozilla/5.0 (Windows NT 10.0; Win64; x64) AppleWebKit/537.36 (KHTML, like Gecko) Chrome/138.0.0.0 Safari/537.36","WebKit","Chrome","138.0.0.0","Windows","10.0","https://app.prolific.com/","en-US,en;q=0.9","611e2d4ad083c861391122b2","687a1a965b9f5b85a264363e","6893174acde40931fe5bb471","1","611e2d4ad083c861391122b2","1","2025-08-06T09:05:52.931Z","","","","","","","","","","","","","","","","win-only","3","g1:SW,g2:NE","0.4","7","0","672893.6","934.9","5935.9","54405.2","1","4","8","6","2","-8","-9","0","0","0","5001","3000","-3010","[""up"",""right""]","{""num_key_presses"":8,""num_perfect"":3,""num_errors"":1,""num_randdir"":4,""num_randdir_good_moves"":2,""num_whilered"":0,""num_whileblue"":0,""num_blue"":7,""num_good_moves"":5}","[417.8214133126395,416.57142761775424,0.2,417.8214133126395,416.57142761775424,101,416.5714133126395,422.82142761775424,205.4,415.3214133126395,424.07142761775424,306.2,415.3214133126395,424.07142761775424,411,415.3214133126395,424.07142761775424,516,415.3214133126395,424.07142761775424,621,415.3214133126395,424.07142761775424,725.6,415.3214133126395,424.07142761775424,825.7,415.3214133126395,424.07142761775424,930.9,415.3214133126395,424.07142761775424,1031.1,415.3214133126395,424.07142761775424,1135.6,415.3214133126395,424.07142761775424,1240.7,415.3214133126395,424.07142761775424,1340.9,415.3214133126395,424.07142761775424,1441.1,415.3214133126395,424.07142761775424,1545.8,415.3214133126395,424.07142761775424,1646.1,415.3214133126395,424.07142761775424,1750.8,415.3214133126395,424.07142761775424,1851.4,415.3214133126395,424.07142761775424,1952.2,415.3214133126395,424.07142761775424,2055.6,415.3214133126395,424.07142761775424,2156.2,415.3214133126395,424.07142761775424,2260.2,415.3214133126395,424.07142761775424,2360.7,415.3214133126395,424.07142761775424,2461,415.3214133126395,424.07142761775424,2566,415.3214133126395,424.07142761775424,2671.1,415.3214133126395,424.07142761775424,2771.1,415.3214133126395,424.07142761775424,2871.8,415.3214133126395,424.07142761775424,2976.2,415.3214133126395,424.07142761775424,3080.3,415.3214133126395,424.07142761775424,3180.4,415.3214133126395,424.07142761775424,3281.2,415.3214133126395,424.07142761775424,3386.9,415.3214133126395,424.07142761775424,3491.2,415.3214133126395,424.07142761775424,3592.1,415.3214133126395,424.07142761775424,3695.7,415.3214133126395,424.07142761775424,3795.7,415.3214133126395,424.07142761775424,3896.6,415.3214133126395,424.07142761775424,4001.1,415.3214133126395,424.07142761775424,4101.5,415.3214133126395,424.07142761775424,4205.4,415.3214133126395,424.07142761775424,4305.8,415.3214133126395,424.07142761775424,4410.3,415.3214133126395,424.07142761775424,4510.9,415.3214133126395,424.07142761775424,4611,415.3214133126395,424.07142761775424,4711,415.3214133126395,424.07142761775424,4815.8,415.3214133126395,424.07142761775424,4920.5]","[8876,8876.1,2602.6,5914.1,359.4,""oops"",""right"",""right"",""good_move"",22493.6,13617.1,2752.7,19384.4,356.5,""smooth"",""right"",""right"",""good_move"",23585.6,1091.5,2303.8,22494.2,-1212.4,""error"",""-"",""-"",""no_move"",35529.4,11943.7,3121.3,32000.6,407.6,""smooth"",""up"",""up"",""good_move"",38421.4,2891.7,2454.1,35529.7,437.6,""smooth"",""right"",""right"",""good_move"",41285.1,2863.5,2386.3,38421.6,477.2,""oops"",""up"",""down"",""bad_move"",43995.1,2709.7,2319.5,41285.5,390.1,""oops"",""up"",""left"",""bad_move"",46388.8,2393.5,1968.7,43995.3,424.8,""oops"",""right"",""up"",""good_move""]"
"2154","","<div style=""width:500px;"">
  <p>What determined the result of this run?</p>
  </div>","100","html-slider-response","44","729586","0.0-7.0-1.6","141","1","2025-08-06 08:53:43","36c45c0696341be0efffe67d72a12abb","41.164.82.138","Mozilla/5.0 (Windows NT 10.0; Win64; x64) AppleWebKit/537.36 (KHTML, like Gecko) Chrome/138.0.0.0 Safari/537.36","WebKit","Chrome","138.0.0.0","Windows","10.0","https://app.prolific.com/","en-US,en;q=0.9","611e2d4ad083c861391122b2","687a1a965b9f5b85a264363e","6893174acde40931fe5bb471","1","611e2d4ad083c861391122b2","1","2025-08-06T09:05:55.087Z","","","","AttribQ","","","","","","","","","","","50","","","","","","","","","","","","","","","","","","","","","","","","","","",""
"1398","","<div style=""width:500px;"">
  <p>How much control did you have over the ball?</p>
  </div>","0","html-slider-response","45","730985","0.0-7.0-2.6","141","1","2025-08-06 08:53:43","36c45c0696341be0efffe67d72a12abb","41.164.82.138","Mozilla/5.0 (Windows NT 10.0; Win64; x64) AppleWebKit/537.36 (KHTML, like Gecko) Chrome/138.0.0.0 Safari/537.36","WebKit","Chrome","138.0.0.0","Windows","10.0","https://app.prolific.com/","en-US,en;q=0.9","611e2d4ad083c861391122b2","687a1a965b9f5b85a264363e","6893174acde40931fe5bb471","1","611e2d4ad083c861391122b2","1","2025-08-06T09:05:56.486Z","","","","ControlQ","","","","","","","","","","","50","","","","","","","","","","","","","","","","","","","","","","","","","","",""
"1680","","<div style=""width:500px;"">
  <p>How would you describe your current emotional state?</p>
  </div>","0","html-slider-response","46","732666","0.0-7.0-3.6","141","1","2025-08-06 08:53:43","36c45c0696341be0efffe67d72a12abb","41.164.82.138","Mozilla/5.0 (Windows NT 10.0; Win64; x64) AppleWebKit/537.36 (KHTML, like Gecko) Chrome/138.0.0.0 Safari/537.36","WebKit","Chrome","138.0.0.0","Windows","10.0","https://app.prolific.com/","en-US,en;q=0.9","611e2d4ad083c861391122b2","687a1a965b9f5b85a264363e","6893174acde40931fe5bb471","1","611e2d4ad083c861391122b2","1","2025-08-06T09:05:58.167Z","","","","StressQ","","","","","","","","","","","50","","","","","","","","","","","","","","","","","","","","","","","","","","",""
"1695","","<div style=""width:500px;"">
  <p>What best describes how you currently feel?</p>
  </div>","100","html-slider-response","47","734361","0.0-7.0-4.6","141","1","2025-08-06 08:53:43","36c45c0696341be0efffe67d72a12abb","41.164.82.138","Mozilla/5.0 (Windows NT 10.0; Win64; x64) AppleWebKit/537.36 (KHTML, like Gecko) Chrome/138.0.0.0 Safari/537.36","WebKit","Chrome","138.0.0.0","Windows","10.0","https://app.prolific.com/","en-US,en;q=0.9","611e2d4ad083c861391122b2","687a1a965b9f5b85a264363e","6893174acde40931fe5bb471","1","611e2d4ad083c861391122b2","1","2025-08-06T09:05:59.862Z","","","","MotivationQ","","","","","","","","","","","50","","","","","","","","","","","","","","","","","","","","","","","","","","",""
"","","","","ctl-task-cpt","48","781092","0.0-7.0-0.7","141","1","2025-08-06 08:53:43","36c45c0696341be0efffe67d72a12abb","41.164.82.138","Mozilla/5.0 (Windows NT 10.0; Win64; x64) AppleWebKit/537.36 (KHTML, like Gecko) Chrome/138.0.0.0 Safari/537.36","WebKit","Chrome","138.0.0.0","Windows","10.0","https://app.prolific.com/","en-US,en;q=0.9","611e2d4ad083c861391122b2","687a1a965b9f5b85a264363e","6893174acde40931fe5bb471","1","611e2d4ad083c861391122b2","1","2025-08-06T09:06:46.593Z","","","","","","","","","","","","","","","","win-only","3","g1:SW,g2:NE","0.3","8","0","737247.5","710.1","5714.2","43706","1","4","4","6","1","1","1","1","0","0.007575757575757576","5004.1","3000","215","[""down"",""left""]","{""num_key_presses"":8,""num_perfect"":2,""num_errors"":0,""num_randdir"":6,""num_randdir_good_moves"":4,""num_whilered"":0,""num_whileblue"":0,""num_blue"":4,""num_good_moves"":6}","[416.5714133126395,425.32142761775424,0.3,416.5714133126395,425.32142761775424,102.9,416.5714133126395,425.32142761775424,206.2,416.5714133126395,425.32142761775424,306.3,416.5714133126395,425.32142761775424,411.3,416.5714133126395,425.32142761775424,511.4,416.5714133126395,425.32142761775424,617,416.5714133126395,425.32142761775424,717.8,416.5714133126395,425.32142761775424,818.9,416.5714133126395,425.32142761775424,921.6,416.5714133126395,425.32142761775424,1026.7,416.5714133126395,425.32142761775424,1135.2,416.5714133126395,425.32142761775424,1235.4,416.5714133126395,425.32142761775424,1335.7,416.5714133126395,425.32142761775424,1435.8,416.5714133126395,425.32142761775424,1536.4,416.5714133126395,425.32142761775424,1640.3,416.5714133126395,425.32142761775424,1740.4,416.5714133126395,425.32142761775424,1841,416.5714133126395,425.32142761775424,1945.5,416.5714133126395,425.32142761775424,2046.3,416.5714133126395,425.32142761775424,2153.1,416.5714133126395,425.32142761775424,2253.6,416.5714133126395,425.32142761775424,2355.8,416.5714133126395,425.32142761775424,2461.6,416.5714133126395,425.32142761775424,2569.3,416.5714133126395,425.32142761775424,2670.2,416.5714133126395,425.32142761775424,2776.4,416.5714133126395,425.32142761775424,2886.7,416.5714133126395,425.32142761775424,2990.9,416.5714133126395,425.32142761775424,3091.2,416.5714133126395,425.32142761775424,3195.6,416.5714133126395,425.32142761775424,3296.4,416.5714133126395,425.32142761775424,3403.7,416.5714133126395,425.32142761775424,3506.7,416.5714133126395,425.32142761775424,3611.2,416.5714133126395,425.32142761775424,3711.5,416.5714133126395,425.32142761775424,3811.7,416.5714133126395,425.32142761775424,3920.7,416.5714133126395,425.32142761775424,4025.1,416.5714133126395,425.32142761775424,4125.7,416.5714133126395,425.32142761775424,4227.1,416.5714133126395,425.32142761775424,4336.7,416.5714133126395,425.32142761775424,4438.1,416.5714133126395,425.32142761775424,4540,416.5714133126395,425.32142761775424,4641.5,416.5714133126395,425.32142761775424,4745.7,416.5714133126395,425.32142761775424,4845.7,416.5714133126395,425.32142761775424,4946.5]","[5054.4,5054.4,2676.1,2002.6,375.7,""smooth"",""down"",""down"",""good_move"",8408.9,3354.1,2984.5,5054.8,369.6,""oops"",""down"",""right"",""bad_move"",11344.4,2935.2,2538.6,8409.2,396.6,""oops"",""left"",""down"",""good_move"",21057,9712.4,2342.3,18324.4,390.3,""oops"",""left"",""left"",""good_move"",23407.9,2350.6,1929.5,21057.3,421.1,""oops"",""left"",""right"",""bad_move"",26675.7,3267.4,2842.4,23408.3,425,""smooth"",""left"",""left"",""good_move"",29693.3,3017.4,2655.7,26675.9,361.7,""oops"",""left"",""left"",""good_move"",37891.4,8197.9,3558.5,33884.3,448.6,""oops"",""left"",""left"",""good_move""]"
"1917","","<div style=""width:500px;"">
  <p>What determined the result of this run?</p>
  </div>","100","html-slider-response","49","783010","0.0-7.0-1.7","141","1","2025-08-06 08:53:43","36c45c0696341be0efffe67d72a12abb","41.164.82.138","Mozilla/5.0 (Windows NT 10.0; Win64; x64) AppleWebKit/537.36 (KHTML, like Gecko) Chrome/138.0.0.0 Safari/537.36","WebKit","Chrome","138.0.0.0","Windows","10.0","https://app.prolific.com/","en-US,en;q=0.9","611e2d4ad083c861391122b2","687a1a965b9f5b85a264363e","6893174acde40931fe5bb471","1","611e2d4ad083c861391122b2","1","2025-08-06T09:06:48.511Z","","","","AttribQ","","","","","","","","","","","50","","","","","","","","","","","","","","","","","","","","","","","","","","",""
"8160","","<div style=""width:500px;"">
  <p>How much control did you have over the ball?</p>
  </div>","100","html-slider-response","50","791170","0.0-7.0-2.7","141","1","2025-08-06 08:53:43","36c45c0696341be0efffe67d72a12abb","41.164.82.138","Mozilla/5.0 (Windows NT 10.0; Win64; x64) AppleWebKit/537.36 (KHTML, like Gecko) Chrome/138.0.0.0 Safari/537.36","WebKit","Chrome","138.0.0.0","Windows","10.0","https://app.prolific.com/","en-US,en;q=0.9","611e2d4ad083c861391122b2","687a1a965b9f5b85a264363e","6893174acde40931fe5bb471","1","611e2d4ad083c861391122b2","1","2025-08-06T09:06:56.671Z","","","","ControlQ","","","","","","","","","","","50","","","","","","","","","","","","","","","","","","","","","","","","","","",""
"3736","","<div style=""width:500px;"">
  <p>How would you describe your current emotional state?</p>
  </div>","0","html-slider-response","51","794907","0.0-7.0-3.7","141","1","2025-08-06 08:53:43","36c45c0696341be0efffe67d72a12abb","41.164.82.138","Mozilla/5.0 (Windows NT 10.0; Win64; x64) AppleWebKit/537.36 (KHTML, like Gecko) Chrome/138.0.0.0 Safari/537.36","WebKit","Chrome","138.0.0.0","Windows","10.0","https://app.prolific.com/","en-US,en;q=0.9","611e2d4ad083c861391122b2","687a1a965b9f5b85a264363e","6893174acde40931fe5bb471","1","611e2d4ad083c861391122b2","1","2025-08-06T09:07:00.408Z","","","","StressQ","","","","","","","","","","","50","","","","","","","","","","","","","","","","","","","","","","","","","","",""
"2623","","<div style=""width:500px;"">
  <p>What best describes how you currently feel?</p>
  </div>","100","html-slider-response","52","797530","0.0-7.0-4.7","141","1","2025-08-06 08:53:43","36c45c0696341be0efffe67d72a12abb","41.164.82.138","Mozilla/5.0 (Windows NT 10.0; Win64; x64) AppleWebKit/537.36 (KHTML, like Gecko) Chrome/138.0.0.0 Safari/537.36","WebKit","Chrome","138.0.0.0","Windows","10.0","https://app.prolific.com/","en-US,en;q=0.9","611e2d4ad083c861391122b2","687a1a965b9f5b85a264363e","6893174acde40931fe5bb471","1","611e2d4ad083c861391122b2","1","2025-08-06T09:07:03.032Z","","","","MotivationQ","","","","","","","","","","","50","","","","","","","","","","","","","","","","","","","","","","","","","","",""
"","","","","ctl-task-cpt","53","828694","0.0-7.0-0.8","141","1","2025-08-06 08:53:43","36c45c0696341be0efffe67d72a12abb","41.164.82.138","Mozilla/5.0 (Windows NT 10.0; Win64; x64) AppleWebKit/537.36 (KHTML, like Gecko) Chrome/138.0.0.0 Safari/537.36","WebKit","Chrome","138.0.0.0","Windows","10.0","https://app.prolific.com/","en-US,en;q=0.9","611e2d4ad083c861391122b2","687a1a965b9f5b85a264363e","6893174acde40931fe5bb471","1","611e2d4ad083c861391122b2","1","2025-08-06T09:07:34.196Z","","","","","","","","","","","","","","","","win-only","2","g1:SE,g2:NW","0.4","9","0","800417","1249.5","6251.2","28145.8","1","4","4","6","2","-4","-4","0","1","0","5001.7","3000","-3015","[""left"",""up""]","{""num_key_presses"":6,""num_perfect"":4,""num_errors"":0,""num_randdir"":2,""num_randdir_good_moves"":0,""num_whilered"":0,""num_whileblue"":0,""num_blue"":1,""num_good_moves"":4}","[414.0714133126395,419.07142761775424,0.3,414.0714133126395,419.07142761775424,100.9,414.0714133126395,419.07142761775424,201.8,414.0714133126395,419.07142761775424,302.3,414.0714133126395,419.07142761775424,405.9,414.0714133126395,419.07142761775424,506.9,414.0714133126395,419.07142761775424,611.2,414.0714133126395,419.07142761775424,716.3,414.0714133126395,419.07142761775424,819.1,414.0714133126395,419.07142761775424,920.6,414.0714133126395,419.07142761775424,1021,414.0714133126395,419.07142761775424,1121.8,414.0714133126395,419.07142761775424,1226,414.0714133126395,419.07142761775424,1326.5,414.0714133126395,419.07142761775424,1431.9,414.0714133126395,419.07142761775424,1537.7,414.0714133126395,419.07142761775424,1641.7,414.0714133126395,419.07142761775424,1742.1,414.0714133126395,419.07142761775424,1846.3,414.0714133126395,419.07142761775424,1946.7,414.0714133126395,419.07142761775424,2051.7,414.0714133126395,419.07142761775424,2156.6,414.0714133126395,419.07142761775424,2261.4,414.0714133126395,419.07142761775424,2366.6,414.0714133126395,419.07142761775424,2470.8,414.0714133126395,419.07142761775424,2570.8,414.0714133126395,419.07142761775424,2670.8,414.0714133126395,419.07142761775424,2771.1,414.0714133126395,419.07142761775424,2871.9,414.0714133126395,419.07142761775424,2976.2,414.0714133126395,419.07142761775424,3080.9,414.0714133126395,419.07142761775424,3186.6,414.0714133126395,419.07142761775424,3286.7,414.0714133126395,419.07142761775424,3391.5,414.0714133126395,419.07142761775424,3496.4,414.0714133126395,419.07142761775424,3596.9,414.0714133126395,419.07142761775424,3702.3,414.0714133126395,419.07142761775424,3806.2,414.0714133126395,419.07142761775424,3907.6,414.0714133126395,419.07142761775424,4010.9,414.0714133126395,419.07142761775424,4112.5,414.0714133126395,419.07142761775424,4216,414.0714133126395,419.07142761775424,4317,414.0714133126395,419.07142761775424,4421.1,414.0714133126395,419.07142761775424,4521.1,414.0714133126395,419.07142761775424,4626,414.0714133126395,419.07142761775424,4726.4,414.0714133126395,419.07142761775424,4826.7,414.0714133126395,419.07142761775424,4931.2]","[1923.5,1923.5,1000,0,923.5,""smooth"",""up"",""up"",""good_move"",8304.8,6381,2417.6,5464.9,422.3,""smooth"",""left"",""left"",""good_move"",11216.4,2911.4,2397.4,8305,514,""smooth"",""left"",""left"",""good_move"",14303.4,3086.9,2650.5,11216.5,436.4,""smooth"",""left"",""left"",""good_move"",17016.6,2713,2319.9,14303.7,393,""oops"",""up"",""right"",""bad_move"",19592.6,2575.8,2230.6,17016.8,345.2,""oops"",""up"",""right"",""bad_move""]"
"1812","","<div style=""width:500px;"">
  <p>What determined the result of this run?</p>
  </div>","0","html-slider-response","54","830507","0.0-7.0-1.8","141","1","2025-08-06 08:53:43","36c45c0696341be0efffe67d72a12abb","41.164.82.138","Mozilla/5.0 (Windows NT 10.0; Win64; x64) AppleWebKit/537.36 (KHTML, like Gecko) Chrome/138.0.0.0 Safari/537.36","WebKit","Chrome","138.0.0.0","Windows","10.0","https://app.prolific.com/","en-US,en;q=0.9","611e2d4ad083c861391122b2","687a1a965b9f5b85a264363e","6893174acde40931fe5bb471","1","611e2d4ad083c861391122b2","1","2025-08-06T09:07:36.008Z","","","","AttribQ","","","","","","","","","","","50","","","","","","","","","","","","","","","","","","","","","","","","","","",""
"2152","","<div style=""width:500px;"">
  <p>How much control did you have over the ball?</p>
  </div>","0","html-slider-response","55","832660","0.0-7.0-2.8","141","1","2025-08-06 08:53:43","36c45c0696341be0efffe67d72a12abb","41.164.82.138","Mozilla/5.0 (Windows NT 10.0; Win64; x64) AppleWebKit/537.36 (KHTML, like Gecko) Chrome/138.0.0.0 Safari/537.36","WebKit","Chrome","138.0.0.0","Windows","10.0","https://app.prolific.com/","en-US,en;q=0.9","611e2d4ad083c861391122b2","687a1a965b9f5b85a264363e","6893174acde40931fe5bb471","1","611e2d4ad083c861391122b2","1","2025-08-06T09:07:38.161Z","","","","ControlQ","","","","","","","","","","","50","","","","","","","","","","","","","","","","","","","","","","","","","","",""
"2151","","<div style=""width:500px;"">
  <p>How would you describe your current emotional state?</p>
  </div>","0","html-slider-response","56","834812","0.0-7.0-3.8","141","1","2025-08-06 08:53:43","36c45c0696341be0efffe67d72a12abb","41.164.82.138","Mozilla/5.0 (Windows NT 10.0; Win64; x64) AppleWebKit/537.36 (KHTML, like Gecko) Chrome/138.0.0.0 Safari/537.36","WebKit","Chrome","138.0.0.0","Windows","10.0","https://app.prolific.com/","en-US,en;q=0.9","611e2d4ad083c861391122b2","687a1a965b9f5b85a264363e","6893174acde40931fe5bb471","1","611e2d4ad083c861391122b2","1","2025-08-06T09:07:40.313Z","","","","StressQ","","","","","","","","","","","50","","","","","","","","","","","","","","","","","","","","","","","","","","",""
"1903","","<div style=""width:500px;"">
  <p>What best describes how you currently feel?</p>
  </div>","100","html-slider-response","57","836716","0.0-7.0-4.8","141","1","2025-08-06 08:53:43","36c45c0696341be0efffe67d72a12abb","41.164.82.138","Mozilla/5.0 (Windows NT 10.0; Win64; x64) AppleWebKit/537.36 (KHTML, like Gecko) Chrome/138.0.0.0 Safari/537.36","WebKit","Chrome","138.0.0.0","Windows","10.0","https://app.prolific.com/","en-US,en;q=0.9","611e2d4ad083c861391122b2","687a1a965b9f5b85a264363e","6893174acde40931fe5bb471","1","611e2d4ad083c861391122b2","1","2025-08-06T09:07:42.217Z","","","","MotivationQ","","","","","","","","","","","50","","","","","","","","","","","","","","","","","","","","","","","","","","",""
"","","","","ctl-task-cpt","58","873050","0.0-7.0-0.9","141","1","2025-08-06 08:53:43","36c45c0696341be0efffe67d72a12abb","41.164.82.138","Mozilla/5.0 (Windows NT 10.0; Win64; x64) AppleWebKit/537.36 (KHTML, like Gecko) Chrome/138.0.0.0 Safari/537.36","WebKit","Chrome","138.0.0.0","Windows","10.0","https://app.prolific.com/","en-US,en;q=0.9","611e2d4ad083c861391122b2","687a1a965b9f5b85a264363e","6893174acde40931fe5bb471","1","611e2d4ad083c861391122b2","1","2025-08-06T09:08:18.551Z","","","","","","","","","","","","","","","","win-only","2","g1:SE,g2:NW","0.5","10","0","839601.9","831.3","5835.2","33316.9","1","4","8","6","2","-8","-8","0","0","0","5003.9","3000","-2635","[""left"",""up""]","{""num_key_presses"":7,""num_perfect"":5,""num_errors"":0,""num_randdir"":2,""num_randdir_good_moves"":1,""num_whilered"":0,""num_whileblue"":0,""num_blue"":2,""num_good_moves"":6}","[415.3214133126395,419.07142761775424,0.2,415.3214133126395,419.07142761775424,103.4,415.3214133126395,419.07142761775424,204.1,415.3214133126395,419.07142761775424,306.1,415.3214133126395,419.07142761775424,410.9,415.3214133126395,419.07142761775424,518.8,415.3214133126395,419.07142761775424,619.5,415.3214133126395,419.07142761775424,724.4,415.3214133126395,419.07142761775424,829.7,415.3214133126395,419.07142761775424,930.8,415.3214133126395,419.07142761775424,1035.3,415.3214133126395,419.07142761775424,1137.1,415.3214133126395,419.07142761775424,1239.5,415.3214133126395,419.07142761775424,1345.4,415.3214133126395,419.07142761775424,1452.5,415.3214133126395,419.07142761775424,1552.5,415.3214133126395,419.07142761775424,1653.9,415.3214133126395,419.07142761775424,1759,415.3214133126395,419.07142761775424,1868.8,415.3214133126395,419.07142761775424,1968.9,415.3214133126395,419.07142761775424,2069,415.3214133126395,419.07142761775424,2174.8,415.3214133126395,419.07142761775424,2279.8,415.3214133126395,419.07142761775424,2379.9,415.3214133126395,419.07142761775424,2480,415.3214133126395,419.07142761775424,2586.6,415.3214133126395,419.07142761775424,2686.8,415.3214133126395,419.07142761775424,2789.1,415.3214133126395,419.07142761775424,2889.6,415.3214133126395,419.07142761775424,2996.4,415.3214133126395,419.07142761775424,3103.2,415.3214133126395,419.07142761775424,3203.2,415.3214133126395,419.07142761775424,3304.5,415.3214133126395,419.07142761775424,3409.2,415.3214133126395,419.07142761775424,3510,415.3214133126395,419.07142761775424,3619.4,415.3214133126395,419.07142761775424,3724.6,415.3214133126395,419.07142761775424,3829.3,415.3214133126395,419.07142761775424,3936.6,415.3214133126395,419.07142761775424,4037.7,415.3214133126395,419.07142761775424,4139.1,415.3214133126395,419.07142761775424,4244.3,415.3214133126395,419.07142761775424,4344.7,415.3214133126395,419.07142761775424,4444.8,415.3214133126395,419.07142761775424,4544.9,415.3214133126395,419.07142761775424,4652.9,415.3214133126395,419.07142761775424,4753.2,415.3214133126395,419.07142761775424,4854,415.3214133126395,419.07142761775424,4954.9]","[1434.7,1434.7,1000,0,434.7,""smooth"",""left"",""left"",""good_move"",3675.4,2240.3,1882.9,1435.1,357.4,""smooth"",""left"",""left"",""good_move"",6872.4,3196.8,2691.5,3675.6,505.3,""oops"",""left"",""left"",""good_move"",9061.7,2189.1,1754.4,6872.6,434.7,""oops"",""up"",""down"",""bad_move"",15896.9,6834.9,2319.7,13150.8,426.4,""smooth"",""up"",""up"",""good_move"",22106.5,6209.2,2418.2,19291.9,396.4,""smooth"",""up"",""up"",""good_move"",24548.4,2441.7,1815.2,22106.7,626.5,""smooth"",""up"",""up"",""good_move""]"
"8265","","<div style=""width:500px;"">
  <p>What determined the result of this run?</p>
  </div>","100","html-slider-response","59","881316","0.0-7.0-1.9","141","1","2025-08-06 08:53:43","36c45c0696341be0efffe67d72a12abb","41.164.82.138","Mozilla/5.0 (Windows NT 10.0; Win64; x64) AppleWebKit/537.36 (KHTML, like Gecko) Chrome/138.0.0.0 Safari/537.36","WebKit","Chrome","138.0.0.0","Windows","10.0","https://app.prolific.com/","en-US,en;q=0.9","611e2d4ad083c861391122b2","687a1a965b9f5b85a264363e","6893174acde40931fe5bb471","1","611e2d4ad083c861391122b2","1","2025-08-06T09:08:26.817Z","","","","AttribQ","","","","","","","","","","","50","","","","","","","","","","","","","","","","","","","","","","","","","","",""
"2247","","<div style=""width:500px;"">
  <p>How much control did you have over the ball?</p>
  </div>","100","html-slider-response","60","883564","0.0-7.0-2.9","141","1","2025-08-06 08:53:43","36c45c0696341be0efffe67d72a12abb","41.164.82.138","Mozilla/5.0 (Windows NT 10.0; Win64; x64) AppleWebKit/537.36 (KHTML, like Gecko) Chrome/138.0.0.0 Safari/537.36","WebKit","Chrome","138.0.0.0","Windows","10.0","https://app.prolific.com/","en-US,en;q=0.9","611e2d4ad083c861391122b2","687a1a965b9f5b85a264363e","6893174acde40931fe5bb471","1","611e2d4ad083c861391122b2","1","2025-08-06T09:08:29.065Z","","","","ControlQ","","","","","","","","","","","50","","","","","","","","","","","","","","","","","","","","","","","","","","",""
"1703","","<div style=""width:500px;"">
  <p>How would you describe your current emotional state?</p>
  </div>","0","html-slider-response","61","885268","0.0-7.0-3.9","141","1","2025-08-06 08:53:43","36c45c0696341be0efffe67d72a12abb","41.164.82.138","Mozilla/5.0 (Windows NT 10.0; Win64; x64) AppleWebKit/537.36 (KHTML, like Gecko) Chrome/138.0.0.0 Safari/537.36","WebKit","Chrome","138.0.0.0","Windows","10.0","https://app.prolific.com/","en-US,en;q=0.9","611e2d4ad083c861391122b2","687a1a965b9f5b85a264363e","6893174acde40931fe5bb471","1","611e2d4ad083c861391122b2","1","2025-08-06T09:08:30.769Z","","","","StressQ","","","","","","","","","","","50","","","","","","","","","","","","","","","","","","","","","","","","","","",""
"1800","","<div style=""width:500px;"">
  <p>What best describes how you currently feel?</p>
  </div>","100","html-slider-response","62","887069","0.0-7.0-4.9","141","1","2025-08-06 08:53:43","36c45c0696341be0efffe67d72a12abb","41.164.82.138","Mozilla/5.0 (Windows NT 10.0; Win64; x64) AppleWebKit/537.36 (KHTML, like Gecko) Chrome/138.0.0.0 Safari/537.36","WebKit","Chrome","138.0.0.0","Windows","10.0","https://app.prolific.com/","en-US,en;q=0.9","611e2d4ad083c861391122b2","687a1a965b9f5b85a264363e","6893174acde40931fe5bb471","1","611e2d4ad083c861391122b2","1","2025-08-06T09:08:32.570Z","","","","MotivationQ","","","","","","","","","","","50","","","","","","","","","","","","","","","","","","","","","","","","","","",""
"","","","","ctl-task-cpt","63","929019","0.0-7.0-0.10","141","1","2025-08-06 08:53:43","36c45c0696341be0efffe67d72a12abb","41.164.82.138","Mozilla/5.0 (Windows NT 10.0; Win64; x64) AppleWebKit/537.36 (KHTML, like Gecko) Chrome/138.0.0.0 Safari/537.36","WebKit","Chrome","138.0.0.0","Windows","10.0","https://app.prolific.com/","en-US,en;q=0.9","611e2d4ad083c861391122b2","687a1a965b9f5b85a264363e","6893174acde40931fe5bb471","1","611e2d4ad083c861391122b2","1","2025-08-06T09:09:14.520Z","","","","","","","","","","","","","","","","win-only","2","g1:SE,g2:NW","0.6","11","0","889955.3","774.2","5776.3","38933","1","4","4","6","2","-4","-4","0","0","0","5002.1","3000","-2580","[""left"",""up""]","{""num_key_presses"":8,""num_perfect"":4,""num_errors"":0,""num_randdir"":4,""num_randdir_good_moves"":1,""num_whilered"":0,""num_whileblue"":0,""num_blue"":2,""num_good_moves"":5}","[407.8214133126395,419.07142761775424,0.1,407.8214133126395,419.07142761775424,105.3,409.0714133126395,419.07142761775424,208.5,409.0714133126395,419.07142761775424,309.3,409.0714133126395,419.07142761775424,409.3,409.0714133126395,419.07142761775424,509.7,409.0714133126395,419.07142761775424,612.1,409.0714133126395,419.07142761775424,716.1,409.0714133126395,419.07142761775424,816.5,409.0714133126395,419.07142761775424,927.4,409.0714133126395,419.07142761775424,1032.5,409.0714133126395,419.07142761775424,1136.4,409.0714133126395,419.07142761775424,1242.8,409.0714133126395,419.07142761775424,1343,409.0714133126395,419.07142761775424,1447,409.0714133126395,419.07142761775424,1552,409.0714133126395,419.07142761775424,1658.7,409.0714133126395,419.07142761775424,1762.5,409.0714133126395,419.07142761775424,1863.1,409.0714133126395,419.07142761775424,1967.5,409.0714133126395,419.07142761775424,2071.3,409.0714133126395,419.07142761775424,2178.2,409.0714133126395,419.07142761775424,2283.5,409.0714133126395,419.07142761775424,2386.3,409.0714133126395,419.07142761775424,2493.5,409.0714133126395,419.07142761775424,2596.2,409.0714133126395,419.07142761775424,2697.3,409.0714133126395,419.07142761775424,2802,409.0714133126395,419.07142761775424,2902.7,409.0714133126395,419.07142761775424,3011.5,409.0714133126395,419.07142761775424,3112,409.0714133126395,419.07142761775424,3216.6,409.0714133126395,419.07142761775424,3318.2,409.0714133126395,419.07142761775424,3421.3,409.0714133126395,419.07142761775424,3527.8,409.0714133126395,419.07142761775424,3628.5,409.0714133126395,419.07142761775424,3729.8,409.0714133126395,419.07142761775424,3831.2,409.0714133126395,419.07142761775424,3931.4,409.0714133126395,419.07142761775424,4031.4,409.0714133126395,419.07142761775424,4131.6,409.0714133126395,419.07142761775424,4231.6,409.0714133126395,419.07142761775424,4337.6,409.0714133126395,419.07142761775424,4445.4,409.0714133126395,419.07142761775424,4547.1,409.0714133126395,419.07142761775424,4651.2,409.0714133126395,419.07142761775424,4751.8,409.0714133126395,419.07142761775424,4851.9,409.0714133126395,419.07142761775424,4952.2]","[1481.7,1481.7,1000,0,481.7,""smooth"",""left"",""left"",""good_move"",4192,2710,2341,1482,369,""oops"",""left"",""left"",""good_move"",14465.5,10273.3,2230.8,11784.6,450.1,""smooth"",""left"",""left"",""good_move"",16988.1,2522.2,2145.1,14465.9,377.1,""oops"",""up"",""down"",""bad_move"",20691.3,3702.9,3328.5,16988.4,374.4,""smooth"",""up"",""up"",""good_move"",24359.4,3667.9,3264.4,20691.6,403.4,""oops"",""up"",""right"",""bad_move"",27285.1,2925.4,2574,24359.7,351.4,""smooth"",""up"",""up"",""good_move"",30188,2902.5,2440.3,27285.5,462.2,""oops"",""up"",""down"",""bad_move""]"
"2354","","<div style=""width:500px;"">
  <p>What determined the result of this run?</p>
  </div>","100","html-slider-response","64","931373","0.0-7.0-1.10","141","1","2025-08-06 08:53:43","36c45c0696341be0efffe67d72a12abb","41.164.82.138","Mozilla/5.0 (Windows NT 10.0; Win64; x64) AppleWebKit/537.36 (KHTML, like Gecko) Chrome/138.0.0.0 Safari/537.36","WebKit","Chrome","138.0.0.0","Windows","10.0","https://app.prolific.com/","en-US,en;q=0.9","611e2d4ad083c861391122b2","687a1a965b9f5b85a264363e","6893174acde40931fe5bb471","1","611e2d4ad083c861391122b2","1","2025-08-06T09:09:16.874Z","","","","AttribQ","","","","","","","","","","","50","","","","","","","","","","","","","","","","","","","","","","","","","","",""
"1799","","<div style=""width:500px;"">
  <p>How much control did you have over the ball?</p>
  </div>","100","html-slider-response","65","933173","0.0-7.0-2.10","141","1","2025-08-06 08:53:43","36c45c0696341be0efffe67d72a12abb","41.164.82.138","Mozilla/5.0 (Windows NT 10.0; Win64; x64) AppleWebKit/537.36 (KHTML, like Gecko) Chrome/138.0.0.0 Safari/537.36","WebKit","Chrome","138.0.0.0","Windows","10.0","https://app.prolific.com/","en-US,en;q=0.9","611e2d4ad083c861391122b2","687a1a965b9f5b85a264363e","6893174acde40931fe5bb471","1","611e2d4ad083c861391122b2","1","2025-08-06T09:09:18.674Z","","","","ControlQ","","","","","","","","","","","50","","","","","","","","","","","","","","","","","","","","","","","","","","",""
"1807","","<div style=""width:500px;"">
  <p>How would you describe your current emotional state?</p>
  </div>","0","html-slider-response","66","934981","0.0-7.0-3.10","141","1","2025-08-06 08:53:43","36c45c0696341be0efffe67d72a12abb","41.164.82.138","Mozilla/5.0 (Windows NT 10.0; Win64; x64) AppleWebKit/537.36 (KHTML, like Gecko) Chrome/138.0.0.0 Safari/537.36","WebKit","Chrome","138.0.0.0","Windows","10.0","https://app.prolific.com/","en-US,en;q=0.9","611e2d4ad083c861391122b2","687a1a965b9f5b85a264363e","6893174acde40931fe5bb471","1","611e2d4ad083c861391122b2","1","2025-08-06T09:09:20.482Z","","","","StressQ","","","","","","","","","","","50","","","","","","","","","","","","","","","","","","","","","","","","","","",""
"1575","","<div style=""width:500px;"">
  <p>What best describes how you currently feel?</p>
  </div>","100","html-slider-response","67","936557","0.0-7.0-4.10","141","1","2025-08-06 08:53:43","36c45c0696341be0efffe67d72a12abb","41.164.82.138","Mozilla/5.0 (Windows NT 10.0; Win64; x64) AppleWebKit/537.36 (KHTML, like Gecko) Chrome/138.0.0.0 Safari/537.36","WebKit","Chrome","138.0.0.0","Windows","10.0","https://app.prolific.com/","en-US,en;q=0.9","611e2d4ad083c861391122b2","687a1a965b9f5b85a264363e","6893174acde40931fe5bb471","1","611e2d4ad083c861391122b2","1","2025-08-06T09:09:22.058Z","","","","MotivationQ","","","","","","","","","","","50","","","","","","","","","","","","","","","","","","","","","","","","","","",""
"","","","","ctl-task-cpt","68","988376","0.0-7.0-0.11","141","1","2025-08-06 08:53:43","36c45c0696341be0efffe67d72a12abb","41.164.82.138","Mozilla/5.0 (Windows NT 10.0; Win64; x64) AppleWebKit/537.36 (KHTML, like Gecko) Chrome/138.0.0.0 Safari/537.36","WebKit","Chrome","138.0.0.0","Windows","10.0","https://app.prolific.com/","en-US,en;q=0.9","611e2d4ad083c861391122b2","687a1a965b9f5b85a264363e","6893174acde40931fe5bb471","1","611e2d4ad083c861391122b2","1","2025-08-06T09:10:13.878Z","","","","","","","","","","","","","","","","win-only","2","g1:SE,g2:NW","0.7","12","0","939444.2","814.1","5816","48800.6","1","4","8","6","2","-8","-9","0","0","0","5001.9","3000","-3005","[""left"",""up""]","{""num_key_presses"":8,""num_perfect"":5,""num_errors"":1,""num_randdir"":2,""num_randdir_good_moves"":0,""num_whilered"":0,""num_whileblue"":0,""num_blue"":6,""num_good_moves"":5}","[426.5714133126395,420.32142761775424,0.1,426.5714133126395,420.32142761775424,100.9,425.3214133126395,421.57142761775424,202.5,425.3214133126395,421.57142761775424,306.4,425.3214133126395,421.57142761775424,407.1,425.3214133126395,421.57142761775424,512.6,425.3214133126395,421.57142761775424,616.6,425.3214133126395,421.57142761775424,722.1,425.3214133126395,421.57142761775424,826,425.3214133126395,421.57142761775424,927.2,425.3214133126395,421.57142761775424,1035.6,425.3214133126395,421.57142761775424,1138.8,425.3214133126395,421.57142761775424,1241.5,425.3214133126395,421.57142761775424,1341.9,425.3214133126395,421.57142761775424,1450.9,425.3214133126395,421.57142761775424,1551.7,425.3214133126395,421.57142761775424,1656.8,425.3214133126395,421.57142761775424,1761.9,425.3214133126395,421.57142761775424,1865.8,425.3214133126395,421.57142761775424,1970.9,425.3214133126395,421.57142761775424,2071.7,425.3214133126395,421.57142761775424,2172.3,425.3214133126395,421.57142761775424,2276.9,425.3214133126395,421.57142761775424,2385.2,425.3214133126395,421.57142761775424,2486.6,425.3214133126395,421.57142761775424,2592.4,425.3214133126395,421.57142761775424,2692.5,425.3214133126395,421.57142761775424,2803.4,425.3214133126395,421.57142761775424,2906.5,425.3214133126395,421.57142761775424,3006.7,425.3214133126395,421.57142761775424,3119.2,425.3214133126395,421.57142761775424,3221.7,425.3214133126395,421.57142761775424,3322.3,425.3214133126395,421.57142761775424,3426.1,425.3214133126395,421.57142761775424,3528,425.3214133126395,421.57142761775424,3635.8,425.3214133126395,421.57142761775424,3736.4,425.3214133126395,421.57142761775424,3836.9,425.3214133126395,421.57142761775424,3941.1,425.3214133126395,421.57142761775424,4042.6,425.3214133126395,421.57142761775424,4146.1,425.3214133126395,421.57142761775424,4247.1,425.3214133126395,421.57142761775424,4352.8,425.3214133126395,421.57142761775424,4457.5,425.3214133126395,421.57142761775424,4561.7,425.3214133126395,421.57142761775424,4672,425.3214133126395,421.57142761775424,4772.2,425.3214133126395,421.57142761775424,4876.5,425.3214133126395,421.57142761775424,4976.5]","[1592.8,1592.8,1000,0,592.8,""smooth"",""up"",""up"",""good_move"",4634.2,3041,2655.1,1593.2,385.9,""oops"",""up"",""down"",""bad_move"",14308.1,9673.6,2700.6,11071.2,536.3,""oops"",""up"",""right"",""bad_move"",20257.8,5949.4,2623.4,17255.2,379.2,""smooth"",""left"",""left"",""good_move"",26122.6,5864.5,2533.1,23240.1,349.4,""smooth"",""left"",""left"",""good_move"",29094.1,2971.2,2527.3,26122.9,443.9,""smooth"",""left"",""left"",""good_move"",31942.2,2847.9,2464,29094.3,383.9,""smooth"",""left"",""left"",""good_move"",34392.4,2450,2497.1,31942.4,-47.1,""error"",""-"",""-"",""no_move""]"
"1853","","<div style=""width:500px;"">
  <p>What determined the result of this run?</p>
  </div>","0","html-slider-response","69","990230","0.0-7.0-1.11","141","1","2025-08-06 08:53:43","36c45c0696341be0efffe67d72a12abb","41.164.82.138","Mozilla/5.0 (Windows NT 10.0; Win64; x64) AppleWebKit/537.36 (KHTML, like Gecko) Chrome/138.0.0.0 Safari/537.36","WebKit","Chrome","138.0.0.0","Windows","10.0","https://app.prolific.com/","en-US,en;q=0.9","611e2d4ad083c861391122b2","687a1a965b9f5b85a264363e","6893174acde40931fe5bb471","1","611e2d4ad083c861391122b2","1","2025-08-06T09:10:15.732Z","","","","AttribQ","","","","","","","","","","","50","","","","","","","","","","","","","","","","","","","","","","","","","","",""
"2446","","<div style=""width:500px;"">
  <p>How much control did you have over the ball?</p>
  </div>","0","html-slider-response","70","992678","0.0-7.0-2.11","141","1","2025-08-06 08:53:43","36c45c0696341be0efffe67d72a12abb","41.164.82.138","Mozilla/5.0 (Windows NT 10.0; Win64; x64) AppleWebKit/537.36 (KHTML, like Gecko) Chrome/138.0.0.0 Safari/537.36","WebKit","Chrome","138.0.0.0","Windows","10.0","https://app.prolific.com/","en-US,en;q=0.9","611e2d4ad083c861391122b2","687a1a965b9f5b85a264363e","6893174acde40931fe5bb471","1","611e2d4ad083c861391122b2","1","2025-08-06T09:10:18.179Z","","","","ControlQ","","","","","","","","","","","50","","","","","","","","","","","","","","","","","","","","","","","","","","",""
"1735","","<div style=""width:500px;"">
  <p>How would you describe your current emotional state?</p>
  </div>","100","html-slider-response","71","994414","0.0-7.0-3.11","141","1","2025-08-06 08:53:43","36c45c0696341be0efffe67d72a12abb","41.164.82.138","Mozilla/5.0 (Windows NT 10.0; Win64; x64) AppleWebKit/537.36 (KHTML, like Gecko) Chrome/138.0.0.0 Safari/537.36","WebKit","Chrome","138.0.0.0","Windows","10.0","https://app.prolific.com/","en-US,en;q=0.9","611e2d4ad083c861391122b2","687a1a965b9f5b85a264363e","6893174acde40931fe5bb471","1","611e2d4ad083c861391122b2","1","2025-08-06T09:10:19.915Z","","","","StressQ","","","","","","","","","","","50","","","","","","","","","","","","","","","","","","","","","","","","","","",""
"1744","","<div style=""width:500px;"">
  <p>What best describes how you currently feel?</p>
  </div>","0","html-slider-response","72","996159","0.0-7.0-4.11","141","1","2025-08-06 08:53:43","36c45c0696341be0efffe67d72a12abb","41.164.82.138","Mozilla/5.0 (Windows NT 10.0; Win64; x64) AppleWebKit/537.36 (KHTML, like Gecko) Chrome/138.0.0.0 Safari/537.36","WebKit","Chrome","138.0.0.0","Windows","10.0","https://app.prolific.com/","en-US,en;q=0.9","611e2d4ad083c861391122b2","687a1a965b9f5b85a264363e","6893174acde40931fe5bb471","1","611e2d4ad083c861391122b2","1","2025-08-06T09:10:21.660Z","","","","MotivationQ","","","","","","","","","","","50","","","","","","","","","","","","","","","","","","","","","","","","","","",""
"","","","","ctl-task-cpt","73","1023498","0.0-7.0-0.12","141","1","2025-08-06 08:53:43","36c45c0696341be0efffe67d72a12abb","41.164.82.138","Mozilla/5.0 (Windows NT 10.0; Win64; x64) AppleWebKit/537.36 (KHTML, like Gecko) Chrome/138.0.0.0 Safari/537.36","WebKit","Chrome","138.0.0.0","Windows","10.0","https://app.prolific.com/","en-US,en;q=0.9","611e2d4ad083c861391122b2","687a1a965b9f5b85a264363e","6893174acde40931fe5bb471","1","611e2d4ad083c861391122b2","1","2025-08-06T09:10:48.999Z","","","","","","","","","","","","","","","","win-only","2","g1:SE,g2:NW","0.8","13","0","999046.1","669.7","5673.6","24320.8","1","4","4","6","2","4","4","4","0","0.030303030303030304","5003.9","3000","730","[""left"",""up""]","{""num_key_presses"":6,""num_perfect"":6,""num_errors"":0,""num_randdir"":0,""num_randdir_good_moves"":0,""num_whilered"":0,""num_whileblue"":0,""num_blue"":1,""num_good_moves"":6}","[419.0714133126395,409.07142761775424,0.2,419.0714133126395,409.07142761775424,101.8,419.0714133126395,409.07142761775424,202,419.0714133126395,409.07142761775424,305.6,419.0714133126395,409.07142761775424,406.1,419.0714133126395,409.07142761775424,511,419.0714133126395,409.07142761775424,611.4,419.0714133126395,409.07142761775424,718.3,419.0714133126395,409.07142761775424,820.4,419.0714133126395,409.07142761775424,920.9,419.0714133126395,409.07142761775424,1021.3,419.0714133126395,409.07142761775424,1126.3,419.0714133126395,409.07142761775424,1226.3,419.0714133126395,409.07142761775424,1333.5,419.0714133126395,409.07142761775424,1435.2,419.0714133126395,409.07142761775424,1538.8,419.0714133126395,409.07142761775424,1641.4,419.0714133126395,409.07142761775424,1746,419.0714133126395,409.07142761775424,1850.8,419.0714133126395,409.07142761775424,1950.9,419.0714133126395,409.07142761775424,2055.9,419.0714133126395,409.07142761775424,2160.3,419.0714133126395,409.07142761775424,2260.4,419.0714133126395,409.07142761775424,2368.9,419.0714133126395,409.07142761775424,2470.1,419.0714133126395,409.07142761775424,2571.9,419.0714133126395,409.07142761775424,2676.2,419.0714133126395,409.07142761775424,2785.3,419.0714133126395,409.07142761775424,2886.1,419.0714133126395,409.07142761775424,2986.6,419.0714133126395,409.07142761775424,3091.5,419.0714133126395,409.07142761775424,3196.9,419.0714133126395,409.07142761775424,3303.5,419.0714133126395,409.07142761775424,3405.7,419.0714133126395,409.07142761775424,3505.9,419.0714133126395,409.07142761775424,3611.4,419.0714133126395,409.07142761775424,3719.2,419.0714133126395,409.07142761775424,3821.8,419.0714133126395,409.07142761775424,3922.3,419.0714133126395,409.07142761775424,4026,419.0714133126395,409.07142761775424,4126.1,419.0714133126395,409.07142761775424,4226.1,419.0714133126395,409.07142761775424,4330.9,419.0714133126395,409.07142761775424,4431.7,419.0714133126395,409.07142761775424,4535.8,419.0714133126395,409.07142761775424,4641.4,419.0714133126395,409.07142761775424,4745.5,419.0714133126395,409.07142761775424,4846,419.0714133126395,409.07142761775424,4952.9]","[1477.9,1477.9,1000,0,477.9,""smooth"",""up"",""up"",""good_move"",4444.3,2966.1,2298.6,1478.2,667.5,""smooth"",""left"",""left"",""good_move"",7234.7,2790,2412.2,4444.7,377.8,""smooth"",""left"",""left"",""good_move"",10502.7,3267.9,2791,7234.8,476.9,""smooth"",""up"",""up"",""good_move"",12818.6,2315.5,1839,10503.1,476.5,""smooth"",""up"",""up"",""good_move"",18542.2,5723.4,2344.2,15876.7,321.3,""smooth"",""left"",""left"",""good_move""]"
"2068","","<div style=""width:500px;"">
  <p>What determined the result of this run?</p>
  </div>","100","html-slider-response","74","1025567","0.0-7.0-1.12","141","1","2025-08-06 08:53:43","36c45c0696341be0efffe67d72a12abb","41.164.82.138","Mozilla/5.0 (Windows NT 10.0; Win64; x64) AppleWebKit/537.36 (KHTML, like Gecko) Chrome/138.0.0.0 Safari/537.36","WebKit","Chrome","138.0.0.0","Windows","10.0","https://app.prolific.com/","en-US,en;q=0.9","611e2d4ad083c861391122b2","687a1a965b9f5b85a264363e","6893174acde40931fe5bb471","1","611e2d4ad083c861391122b2","1","2025-08-06T09:10:51.068Z","","","","AttribQ","","","","","","","","","","","50","","","","","","","","","","","","","","","","","","","","","","","","","","",""
"3671","","<div style=""width:500px;"">
  <p>How much control did you have over the ball?</p>
  </div>","100","html-slider-response","75","1029238","0.0-7.0-2.12","141","1","2025-08-06 08:53:43","36c45c0696341be0efffe67d72a12abb","41.164.82.138","Mozilla/5.0 (Windows NT 10.0; Win64; x64) AppleWebKit/537.36 (KHTML, like Gecko) Chrome/138.0.0.0 Safari/537.36","WebKit","Chrome","138.0.0.0","Windows","10.0","https://app.prolific.com/","en-US,en;q=0.9","611e2d4ad083c861391122b2","687a1a965b9f5b85a264363e","6893174acde40931fe5bb471","1","611e2d4ad083c861391122b2","1","2025-08-06T09:10:54.739Z","","","","ControlQ","","","","","","","","","","","50","","","","","","","","","","","","","","","","","","","","","","","","","","",""
"2360","","<div style=""width:500px;"">
  <p>How would you describe your current emotional state?</p>
  </div>","0","html-slider-response","76","1031599","0.0-7.0-3.12","141","1","2025-08-06 08:53:43","36c45c0696341be0efffe67d72a12abb","41.164.82.138","Mozilla/5.0 (Windows NT 10.0; Win64; x64) AppleWebKit/537.36 (KHTML, like Gecko) Chrome/138.0.0.0 Safari/537.36","WebKit","Chrome","138.0.0.0","Windows","10.0","https://app.prolific.com/","en-US,en;q=0.9","611e2d4ad083c861391122b2","687a1a965b9f5b85a264363e","6893174acde40931fe5bb471","1","611e2d4ad083c861391122b2","1","2025-08-06T09:10:57.100Z","","","","StressQ","","","","","","","","","","","50","","","","","","","","","","","","","","","","","","","","","","","","","","",""
"1783","","<div style=""width:500px;"">
  <p>What best describes how you currently feel?</p>
  </div>","100","html-slider-response","77","1033383","0.0-7.0-4.12","141","1","2025-08-06 08:53:43","36c45c0696341be0efffe67d72a12abb","41.164.82.138","Mozilla/5.0 (Windows NT 10.0; Win64; x64) AppleWebKit/537.36 (KHTML, like Gecko) Chrome/138.0.0.0 Safari/537.36","WebKit","Chrome","138.0.0.0","Windows","10.0","https://app.prolific.com/","en-US,en;q=0.9","611e2d4ad083c861391122b2","687a1a965b9f5b85a264363e","6893174acde40931fe5bb471","1","611e2d4ad083c861391122b2","1","2025-08-06T09:10:58.884Z","","","","MotivationQ","","","","","","","","","","","50","","","","","","","","","","","","","","","","","","","","","","","","","","",""
