"rt","response_timestamp","stimulus","response","trial_type","trial_index","time_elapsed","internal_node_id","run_id","condition","recorded_at","source_code_version","ip","user_agent","device","browser","browser_version","platform","platform_version","referer","accept_language","PROLIFIC_PID","STUDY_ID","SESSION_ID","BATCH","prolific_id","batch","realtime","success","question_order","question_id","eventType","responses","item_order","radio_event_ids","radio_event_times","key_event_times","mouse_event_times","straightlining","zigzagging","honeypot","view_history","slider_start","which_type","canvas_config","goals_layout","control_level","trial_number","tutorial_trial_number","trial_start_time","phase1_start_time","phase2_start_time","phase3_start_time","goal_1_value","goal_1_distance","goal_2_value","goal_2_distance","goal_selected","outcome","outcome_total","participant_final_score","participant_initial_score","participant_final_score_prop","goal_choice_rt","allocated_time","allocated_time_remaining","goal_direction","counts","mouse_movements","key_presses"
"2622","1754548491585","<p style='font-size:40px;line-height:1.25'><strong>Welcome to the experiment!</strong></p><p style='font-size:1.1em;line-height:1.25'>Thank you for participanting in our experiment again! You will be asked to play the Dysfunctional Ball Game again. We will briefly recap the rules before we start.</p><p style='font-size:1.1em;line-height:1.25'>Press <strong>Next</strong> to continue.</p>","0","custom-html-button-response","0","2627","0.0-0.0","224","1","2025-08-07 06:34:48","36c45c0696341be0efffe67d72a12abb","41.74.177.238","Mozilla/5.0 (Windows NT 10.0; Win64; x64) AppleWebKit/537.36 (KHTML, like Gecko) Chrome/138.0.0.0 Safari/537.36","WebKit","Chrome","138.0.0.0","Windows","10.0","https://app.prolific.com/","en-US,en;q=0.9","6122f45e2e93a3ff9a7b7a5d","6877649eabb845cf142cd221","689448fe4c783100c121ac78","1","6122f45e2e93a3ff9a7b7a5d","1","2025-08-07T06:34:51.587Z","","","","","","","","","","","","","","","","","","","","","","","","","","","","","","","","","","","","","","","","","",""
"6514","","","","fullscreen","1","10160","0.0-1.0","224","1","2025-08-07 06:34:48","36c45c0696341be0efffe67d72a12abb","41.74.177.238","Mozilla/5.0 (Windows NT 10.0; Win64; x64) AppleWebKit/537.36 (KHTML, like Gecko) Chrome/138.0.0.0 Safari/537.36","WebKit","Chrome","138.0.0.0","Windows","10.0","https://app.prolific.com/","en-US,en;q=0.9","6122f45e2e93a3ff9a7b7a5d","6877649eabb845cf142cd221","689448fe4c783100c121ac78","1","6122f45e2e93a3ff9a7b7a5d","1","","true","","","","","","","","","","","","","","","","","","","","","","","","","","","","","","","","","","","","","","","","",""
"3339","1754548502460"," <p style='font-size:1.1em;line-height:1.25'>Thank you for closing all other tabs.</p><p style='font-size:1.1em;line-height:1.25'>We will now invite you to fill in some questionnaires, before starting the game.<br>This will take about 5 minutes.<br></p><p style='font-size:1.1em;line-height:1.25'>Press the <strong>Next</strong> button to continue.</p>","0","custom-html-button-response","2","13501","0.0-2.0","224","1","2025-08-07 06:34:48","36c45c0696341be0efffe67d72a12abb","41.74.177.238","Mozilla/5.0 (Windows NT 10.0; Win64; x64) AppleWebKit/537.36 (KHTML, like Gecko) Chrome/138.0.0.0 Safari/537.36","WebKit","Chrome","138.0.0.0","Windows","10.0","https://app.prolific.com/","en-US,en;q=0.9","6122f45e2e93a3ff9a7b7a5d","6877649eabb845cf142cd221","689448fe4c783100c121ac78","1","6122f45e2e93a3ff9a7b7a5d","1","2025-08-07T06:35:02.461Z","","","","","","","","","","","","","","","","","","","","","","","","","","","","","","","","","","","","","","","","","",""
"3119","","","{""assigned_sex"":""female""}","survey-multi-choice","3","16623","0.0-3.0-0.0","224","1","2025-08-07 06:34:48","36c45c0696341be0efffe67d72a12abb","41.74.177.238","Mozilla/5.0 (Windows NT 10.0; Win64; x64) AppleWebKit/537.36 (KHTML, like Gecko) Chrome/138.0.0.0 Safari/537.36","WebKit","Chrome","138.0.0.0","Windows","10.0","https://app.prolific.com/","en-US,en;q=0.9","6122f45e2e93a3ff9a7b7a5d","6877649eabb845cf142cd221","689448fe4c783100c121ac78","1","6122f45e2e93a3ff9a7b7a5d","1","","","[0]","0","demographics","","","","","","","","","","","","","","","","","","","","","","","","","","","","","","","","","","","","","",""
"1647","1754548507232","<p style='font-size:1.1em;line-height:1.25'>In the following, we will perform a baseline assessment. This means that we will ask you a few questions relating to your experiences over the past month.<br></p><p style='font-size:1.1em;line-height:1.25'>Press the <strong>Next</strong> button to continue.</p>","0","custom-html-button-response","4","18272","0.0-4.0-0.0","224","1","2025-08-07 06:34:48","36c45c0696341be0efffe67d72a12abb","41.74.177.238","Mozilla/5.0 (Windows NT 10.0; Win64; x64) AppleWebKit/537.36 (KHTML, like Gecko) Chrome/138.0.0.0 Safari/537.36","WebKit","Chrome","138.0.0.0","Windows","10.0","https://app.prolific.com/","en-US,en;q=0.9","6122f45e2e93a3ff9a7b7a5d","6877649eabb845cf142cd221","689448fe4c783100c121ac78","1","6122f45e2e93a3ff9a7b7a5d","1","2025-08-07T06:35:07.233Z","","","","","","","","","","","","","","","","","","","","","","","","","","","","","","","","","","","","","","","","","",""
"50661.79999998212","","","","survey-template","5","70610","0.0-4.0-1.0","224","1","2025-08-07 06:34:48","36c45c0696341be0efffe67d72a12abb","41.74.177.238","Mozilla/5.0 (Windows NT 10.0; Win64; x64) AppleWebKit/537.36 (KHTML, like Gecko) Chrome/138.0.0.0 Safari/537.36","WebKit","Chrome","138.0.0.0","Windows","10.0","https://app.prolific.com/","en-US,en;q=0.9","6122f45e2e93a3ff9a7b7a5d","6877649eabb845cf142cd221","689448fe4c783100c121ac78","1","6122f45e2e93a3ff9a7b7a5d","1","2025-08-07T06:35:59.570Z","","","","pss","{""Q01"":""2"",""Q02"":""3"",""Q03"":""3"",""Q04"":""2"",""Q05"":""2"",""Q06"":""3"",""Q07"":""2"",""Q08"":""2"",""Q09"":""2"",""Q10"":""3""}","[0,1,2,3,4,5,6,7,8,9]","[""Q01"",""Q02"",""Q03"",""Q03"",""Q04"",""Q05"",""Q06"",""Q07"",""Q08"",""Q09"",""Q10""]","[5971.199999988079,10290.799999982119,14506.299999982119,16888.69999998808,20914.59999999404,23983.59999999404,28636.69999998808,36411.09999999404,40451.19999998808,44927.5,49737.09999999404]","[]","[0.19999998807907104,5971.199999988079,10290.799999982119,14506.299999982119,16888.69999998808,20914.59999999404,23983.59999999404,28636.69999998808,36411.09999999404,40451.19999998808,44927.5,49737.09999999404,50657.39999997616]","0.6","0.5555555555555556","0","","","","","","","","","","","","","","","","","","","","","","","","","","","","",""
"1371","1754548560942","<p style='font-size:1.1em;line-height:1.25'>Thank you for your answers! Now we will ask you a few more questions relating to your feelings in the last 24 hours.<br></p><p style='font-size:1.1em;line-height:1.25'>Press the <strong>Next</strong> button to continue.</p>","0","custom-html-button-response","6","71983","0.0-4.0-2.0","224","1","2025-08-07 06:34:48","36c45c0696341be0efffe67d72a12abb","41.74.177.238","Mozilla/5.0 (Windows NT 10.0; Win64; x64) AppleWebKit/537.36 (KHTML, like Gecko) Chrome/138.0.0.0 Safari/537.36","WebKit","Chrome","138.0.0.0","Windows","10.0","https://app.prolific.com/","en-US,en;q=0.9","6122f45e2e93a3ff9a7b7a5d","6877649eabb845cf142cd221","689448fe4c783100c121ac78","1","6122f45e2e93a3ff9a7b7a5d","1","2025-08-07T06:36:00.943Z","","","","","","","","","","","","","","","","","","","","","","","","","","","","","","","","","","","","","","","","","",""
"60701.30000001192","","","","survey-template","7","132695","0.0-4.0-3.0","224","1","2025-08-07 06:34:48","36c45c0696341be0efffe67d72a12abb","41.74.177.238","Mozilla/5.0 (Windows NT 10.0; Win64; x64) AppleWebKit/537.36 (KHTML, like Gecko) Chrome/138.0.0.0 Safari/537.36","WebKit","Chrome","138.0.0.0","Windows","10.0","https://app.prolific.com/","en-US,en;q=0.9","6122f45e2e93a3ff9a7b7a5d","6877649eabb845cf142cd221","689448fe4c783100c121ac78","1","6122f45e2e93a3ff9a7b7a5d","1","2025-08-07T06:37:01.656Z","","","","drsp","{""Q01"":""2"",""Q02"":""2"",""Q03"":""1"",""Q04"":""3"",""Q05"":""3"",""Q06"":""2"",""Q07"":""3"",""Q08"":""1"",""Q09"":""1"",""Q10"":""1"",""Q11"":""2"",""Q12"":""3"",""Q13"":""5"",""Q14"":""2"",""Q15"":""3"",""Q16"":""4"",""Q17"":""3"",""Q18"":""3"",""Q19"":""1"",""Q20"":""2"",""Q21"":""2"",""Q22"":""2""}","[0,1,2,3,4,5,6,7,8,9,10,11,12,13,14,15,16,17,18,19,20,21]","[""Q01"",""Q02"",""Q03"",""Q04"",""Q05"",""Q06"",""Q07"",""Q08"",""Q09"",""Q10"",""Q11"",""Q12"",""Q13"",""Q14"",""Q15"",""Q16"",""Q17"",""Q18"",""Q19"",""Q20"",""Q21"",""Q22""]","[3827.300000011921,6242.0999999940395,7235,9230.5,11401.5,13416.5,15376.5,18471.5,22022.80000001192,23683.40000000596,25207.20000001788,27789.40000000596,30617.09999999404,32657.09999999404,35067,39138.90000000596,41143.09999999404,42955.20000001788,47693.59999999404,53148.5,56590.40000000596,59777.80000001192]","[]","[0.09999999403953552,3827.300000011921,6242.0999999940395,7235,9230.5,11401.5,13416.5,15376.5,18471.5,22022.80000001192,23683.40000000596,25207.20000001788,27789.40000000596,29680.59999999404,30617.09999999404,32657.09999999404,35067,39138.90000000596,41143.09999999404,42955.20000001788,47693.59999999404,53148.5,56590.40000000596,59777.80000001192,60685.09999999404]","0.36363636363636365","0.42857142857142855","0","","","","","","","","","","","","","","","","","","","","","","","","","","","","",""
"10526.90000000596","","","","survey-template","8","143226","0.0-4.0-4.0","224","1","2025-08-07 06:34:48","36c45c0696341be0efffe67d72a12abb","41.74.177.238","Mozilla/5.0 (Windows NT 10.0; Win64; x64) AppleWebKit/537.36 (KHTML, like Gecko) Chrome/138.0.0.0 Safari/537.36","WebKit","Chrome","138.0.0.0","Windows","10.0","https://app.prolific.com/","en-US,en;q=0.9","6122f45e2e93a3ff9a7b7a5d","6877649eabb845cf142cd221","689448fe4c783100c121ac78","1","6122f45e2e93a3ff9a7b7a5d","1","2025-08-07T06:37:12.187Z","","","","stress","{""Q01"":""3"",""Q02"":""4"",""Q03"":""2""}","[0,1,2]","[""Q01"",""Q02"",""Q03""]","[3496.9000000059605,6736.700000017881,9804]","[]","[3496.9000000059605,6736.700000017881,9804,10526.100000023842]","0.3333333333333333","0.5","0","","","","","","","","","","","","","","","","","","","","","","","","","","","","",""
"4244","","","","instructions","9","147471","0.0-5.0-0.0","224","1","2025-08-07 06:34:48","36c45c0696341be0efffe67d72a12abb","41.74.177.238","Mozilla/5.0 (Windows NT 10.0; Win64; x64) AppleWebKit/537.36 (KHTML, like Gecko) Chrome/138.0.0.0 Safari/537.36","WebKit","Chrome","138.0.0.0","Windows","10.0","https://app.prolific.com/","en-US,en;q=0.9","6122f45e2e93a3ff9a7b7a5d","6877649eabb845cf142cd221","689448fe4c783100c121ac78","1","6122f45e2e93a3ff9a7b7a5d","1","","","","","","","","","","","","","","","[{""page_index"":0,""viewing_time"":4243}]","","","","","","","","","","","","","","","","","","","","","","","","","","","",""
"5154","","<p>Before you start with this game please answer the following three questions yourself. </p>
  <p>Through this game, we measure several aspects of your cognitive performance, such as reaction times, multi-tasking capabilities </p>
  <p>and the ability to assess the situation you are in.</p>
  <p></p>
  <p><b>How good do you usually are in such tasks?</b></p>","77","html-slider-response","10","152631","0.0-6.0-0.0","224","1","2025-08-07 06:34:48","36c45c0696341be0efffe67d72a12abb","41.74.177.238","Mozilla/5.0 (Windows NT 10.0; Win64; x64) AppleWebKit/537.36 (KHTML, like Gecko) Chrome/138.0.0.0 Safari/537.36","WebKit","Chrome","138.0.0.0","Windows","10.0","https://app.prolific.com/","en-US,en;q=0.9","6122f45e2e93a3ff9a7b7a5d","6877649eabb845cf142cd221","689448fe4c783100c121ac78","1","6122f45e2e93a3ff9a7b7a5d","1","2025-08-07T06:37:21.591Z","","","","PreSkillQ","","","","","","","","","","","50","","","","","","","","","","","","","","","","","","","","","","","","","","",""
"3332","","<div style=""width:500px;"">
  <p>How well do you think you will perform in this task compared to other participants?</p>
  </div>","71","html-slider-response","11","155966","0.0-6.0-1.0","224","1","2025-08-07 06:34:48","36c45c0696341be0efffe67d72a12abb","41.74.177.238","Mozilla/5.0 (Windows NT 10.0; Win64; x64) AppleWebKit/537.36 (KHTML, like Gecko) Chrome/138.0.0.0 Safari/537.36","WebKit","Chrome","138.0.0.0","Windows","10.0","https://app.prolific.com/","en-US,en;q=0.9","6122f45e2e93a3ff9a7b7a5d","6877649eabb845cf142cd221","689448fe4c783100c121ac78","1","6122f45e2e93a3ff9a7b7a5d","1","2025-08-07T06:37:24.926Z","","","","PrePerfQ","","","","","","","","","","","50","","","","","","","","","","","","","","","","","","","","","","","","","","",""
"4628","","<div style=""width:500px;"">
  <p>What best describes how you currently feel?</p>
  </div>","30","html-slider-response","12","160597","0.0-6.0-2.0","224","1","2025-08-07 06:34:48","36c45c0696341be0efffe67d72a12abb","41.74.177.238","Mozilla/5.0 (Windows NT 10.0; Win64; x64) AppleWebKit/537.36 (KHTML, like Gecko) Chrome/138.0.0.0 Safari/537.36","WebKit","Chrome","138.0.0.0","Windows","10.0","https://app.prolific.com/","en-US,en;q=0.9","6122f45e2e93a3ff9a7b7a5d","6877649eabb845cf142cd221","689448fe4c783100c121ac78","1","6122f45e2e93a3ff9a7b7a5d","1","2025-08-07T06:37:29.557Z","","","","PreMotivationQ","","","","","","","","","","","50","","","","","","","","","","","","","","","","","","","","","","","","","","",""
"","","","","ctl-task-cpt","13","183863","0.0-7.0-0.0","224","1","2025-08-07 06:34:48","36c45c0696341be0efffe67d72a12abb","41.74.177.238","Mozilla/5.0 (Windows NT 10.0; Win64; x64) AppleWebKit/537.36 (KHTML, like Gecko) Chrome/138.0.0.0 Safari/537.36","WebKit","Chrome","138.0.0.0","Windows","10.0","https://app.prolific.com/","en-US,en;q=0.9","6122f45e2e93a3ff9a7b7a5d","6877649eabb845cf142cd221","689448fe4c783100c121ac78","1","6122f45e2e93a3ff9a7b7a5d","1","2025-08-07T06:37:52.823Z","","","","","","","","","","","","","","","","win-only","2","g1:SE,g2:NW","1","1","0","162319.6","1317","6318.3","20248.9","1","4","4","6","1","1","0","0","0","0","1985.8","3000","1245","[""down"",""right""]","{""num_key_presses"":5,""num_perfect"":4,""num_errors"":1,""num_randdir"":0,""num_randdir_good_moves"":0,""num_whilered"":0,""num_whileblue"":0,""num_blue"":0,""num_good_moves"":4}","[422.57142857142856,413.1808016640799,0.3,422.57142857142856,413.1808016640799,104.8,424.07142857142856,413.1808016640799,207.8,457.07142857142856,423.6808016640799,309.2,667.0714285714286,428.1808016640799,414.4,934.0714285714286,447.6808016640799,514.7,1103.5714285714287,453.6808016640799,615.2,1354.0714285714287,467.1808016640799,722.3,1354.0714285714287,467.1808016640799,825.1,1354.0714285714287,467.1808016640799,929.8,1354.0714285714287,467.1808016640799,1030.2,1354.0714285714287,467.1808016640799,1130.8,1354.0714285714287,467.1808016640799,1235.4,1150.0714285714287,617.1808016640799,1338.3,1048.0714285714287,761.1808016640799,1439.2,919.0714285714286,710.1808016640799,1539.4,848.5714285714286,710.1808016640799,1639.4,815.5714285714286,726.6808016640799,1748.7,788.5714285714286,735.6808016640799,1850.8,766.0714285714286,737.1808016640799,1957.2,773.5714285714286,738.6808016640799,2057.6,772.0714285714286,738.6808016640799,2161.2,773.5714285714286,741.6808016640799,2264.3,899.5714285714286,764.1808016640799,2364.6,974.5714285714286,768.6808016640799,2464.7,983.5714285714286,779.1808016640799,2570.9,983.5714285714286,779.1808016640799,2672.7,983.5714285714286,779.1808016640799,2772.7,983.5714285714286,779.1808016640799,2874.5,983.5714285714286,779.1808016640799,2975.1,983.5714285714286,779.1808016640799,3079.7,983.5714285714286,779.1808016640799,3184,983.5714285714286,779.1808016640799,3284.1,983.5714285714286,779.1808016640799,3384.1,985.0714285714286,779.1808016640799,3489.3,1027.0714285714287,771.6808016640799,3592.8,1111.0714285714287,749.1808016640799,3694.9,1117.0714285714287,746.1808016640799,3800.4,1118.5714285714287,743.1808016640799,3900.9,1139.5714285714287,731.1808016640799,4005,1145.5714285714287,729.6808016640799,4105.2,1147.0714285714287,728.1808016640799,4206.9,1148.5714285714287,728.1808016640799,4307.5,1148.5714285714287,728.1808016640799,4409.6,1148.5714285714287,728.1808016640799,4516.4,1148.5714285714287,728.1808016640799,4622.3,1150.0714285714287,728.1808016640799,4724.8,1151.5714285714287,728.1808016640799,4829.5,1160.5714285714287,731.1808016640799,4930.6]","[473.9,473.8,1000,0.1,-526.2,""error"",""-"",""-"",""no_move"",4191.2,3716.9,2250,1478.9,462.3,""smooth"",""down"",""down"",""good_move"",7571.2,3378.8,2793.2,4192.5,585.5,""smooth"",""down"",""down"",""good_move"",10910.5,3338.2,2841.5,7572.4,496.6,""smooth"",""right"",""right"",""good_move"",13824,2913.1,2396.6,10910.9,516.6,""smooth"",""right"",""right"",""good_move""]"
"4498","","<div style=""width:500px;"">
  <p>What determined the result of this run?</p>
  </div>","87","html-slider-response","14","188363","0.0-7.0-1.0","224","1","2025-08-07 06:34:48","36c45c0696341be0efffe67d72a12abb","41.74.177.238","Mozilla/5.0 (Windows NT 10.0; Win64; x64) AppleWebKit/537.36 (KHTML, like Gecko) Chrome/138.0.0.0 Safari/537.36","WebKit","Chrome","138.0.0.0","Windows","10.0","https://app.prolific.com/","en-US,en;q=0.9","6122f45e2e93a3ff9a7b7a5d","6877649eabb845cf142cd221","689448fe4c783100c121ac78","1","6122f45e2e93a3ff9a7b7a5d","1","2025-08-07T06:37:57.323Z","","","","AttribQ","","","","","","","","","","","50","","","","","","","","","","","","","","","","","","","","","","","","","","",""
"4618","","<div style=""width:500px;"">
  <p>How much control did you have over the ball?</p>
  </div>","99","html-slider-response","15","192983","0.0-7.0-2.0","224","1","2025-08-07 06:34:48","36c45c0696341be0efffe67d72a12abb","41.74.177.238","Mozilla/5.0 (Windows NT 10.0; Win64; x64) AppleWebKit/537.36 (KHTML, like Gecko) Chrome/138.0.0.0 Safari/537.36","WebKit","Chrome","138.0.0.0","Windows","10.0","https://app.prolific.com/","en-US,en;q=0.9","6122f45e2e93a3ff9a7b7a5d","6877649eabb845cf142cd221","689448fe4c783100c121ac78","1","6122f45e2e93a3ff9a7b7a5d","1","2025-08-07T06:38:01.943Z","","","","ControlQ","","","","","","","","","","","50","","","","","","","","","","","","","","","","","","","","","","","","","","",""
"3996","","<div style=""width:500px;"">
  <p>How would you describe your current emotional state?</p>
  </div>","24","html-slider-response","16","196981","0.0-7.0-3.0","224","1","2025-08-07 06:34:48","36c45c0696341be0efffe67d72a12abb","41.74.177.238","Mozilla/5.0 (Windows NT 10.0; Win64; x64) AppleWebKit/537.36 (KHTML, like Gecko) Chrome/138.0.0.0 Safari/537.36","WebKit","Chrome","138.0.0.0","Windows","10.0","https://app.prolific.com/","en-US,en;q=0.9","6122f45e2e93a3ff9a7b7a5d","6877649eabb845cf142cd221","689448fe4c783100c121ac78","1","6122f45e2e93a3ff9a7b7a5d","1","2025-08-07T06:38:05.941Z","","","","StressQ","","","","","","","","","","","50","","","","","","","","","","","","","","","","","","","","","","","","","","",""
"3940","","<div style=""width:500px;"">
  <p>What best describes how you currently feel?</p>
  </div>","28","html-slider-response","17","200923","0.0-7.0-4.0","224","1","2025-08-07 06:34:48","36c45c0696341be0efffe67d72a12abb","41.74.177.238","Mozilla/5.0 (Windows NT 10.0; Win64; x64) AppleWebKit/537.36 (KHTML, like Gecko) Chrome/138.0.0.0 Safari/537.36","WebKit","Chrome","138.0.0.0","Windows","10.0","https://app.prolific.com/","en-US,en;q=0.9","6122f45e2e93a3ff9a7b7a5d","6877649eabb845cf142cd221","689448fe4c783100c121ac78","1","6122f45e2e93a3ff9a7b7a5d","1","2025-08-07T06:38:09.883Z","","","","MotivationQ","","","","","","","","","","","50","","","","","","","","","","","","","","","","","","","","","","","","","","",""
"","","","","ctl-task-cpt","18","248261","0.0-7.0-0.1","224","1","2025-08-07 06:34:48","36c45c0696341be0efffe67d72a12abb","41.74.177.238","Mozilla/5.0 (Windows NT 10.0; Win64; x64) AppleWebKit/537.36 (KHTML, like Gecko) Chrome/138.0.0.0 Safari/537.36","WebKit","Chrome","138.0.0.0","Windows","10.0","https://app.prolific.com/","en-US,en;q=0.9","6122f45e2e93a3ff9a7b7a5d","6877649eabb845cf142cd221","689448fe4c783100c121ac78","1","6122f45e2e93a3ff9a7b7a5d","1","2025-08-07T06:38:57.221Z","","","","","","","","","","","","","","","","win-only","0","g1:NW,g2:SE","0.9","2","0","202638.2","1246.4","6251.8","44332.9","1","4","8","6","2","-8","-8","0","0","0","1761.5","3000","-2470","[""down"",""right""]","{""num_key_presses"":7,""num_perfect"":6,""num_errors"":0,""num_randdir"":1,""num_randdir_good_moves"":0,""num_whilered"":0,""num_whileblue"":0,""num_blue"":5,""num_good_moves"":6}","[409.07142857142856,411.6808016640799,0.4,409.07142857142856,411.6808016640799,104.4,409.07142857142856,411.6808016640799,206.3,409.07142857142856,411.6808016640799,310.2,409.07142857142856,411.6808016640799,410.2,409.07142857142856,413.1808016640799,511.4,407.57142857142856,413.1808016640799,611.6,404.57142857142856,411.6808016640799,714.7,404.57142857142856,413.1808016640799,820.4,458.57142857142856,434.1808016640799,925,559.0714285714286,531.6808016640799,1029.3,709.0714285714286,665.1808016640799,1133.9,698.5714285714286,651.6808016640799,1235.4,599.5714285714286,584.1808016640799,1335.8,551.5714285714286,560.1808016640799,1439.9,749.5714285714286,770.1808016640799,1540.1,734.5714285714286,750.6808016640799,1646.7,742.0714285714286,749.1808016640799,1752,742.0714285714286,749.1808016640799,1856.3,749.5714285714286,758.1808016640799,1961.7,944.5714285714286,905.1808016640799,2065.1,1292.5714285714287,960.6808016640799,2166.3,1328.5714285714287,960.6808016640799,2273.4,1328.5714285714287,960.6808016640799,2376.5,1328.5714285714287,960.6808016640799,2481.5,1328.5714285714287,960.6808016640799,2586.4,1328.5714285714287,960.6808016640799,2690.5,1328.5714285714287,960.6808016640799,2793,1328.5714285714287,960.6808016640799,2896.7,1328.5714285714287,960.6808016640799,3002.8,1328.5714285714287,960.6808016640799,3104.7,1328.5714285714287,960.6808016640799,3205.7,1328.5714285714287,960.6808016640799,3311.3,1328.5714285714287,960.6808016640799,3415.3,1328.5714285714287,960.6808016640799,3519.9,1328.5714285714287,960.6808016640799,3620.8,1328.5714285714287,960.6808016640799,3720.9,1328.5714285714287,960.6808016640799,3825.4,1328.5714285714287,960.6808016640799,3929.7,1328.5714285714287,960.6808016640799,4030.2,1328.5714285714287,960.6808016640799,4134.4,1328.5714285714287,960.6808016640799,4235.3,1328.5714285714287,960.6808016640799,4335.3,1328.5714285714287,960.6808016640799,4440.4,1328.5714285714287,960.6808016640799,4540.5,1328.5714285714287,960.6808016640799,4640.5,1328.5714285714287,960.6808016640799,4740.6,1328.5714285714287,960.6808016640799,4845.6,1328.5714285714287,960.6808016640799,4950.4]","[1478.6,1478.6,1000,0,478.6,""oops"",""down"",""left"",""bad_move"",18285.4,16806.4,2773.4,15089.7,422.3,""smooth"",""down"",""down"",""good_move"",24594.6,6308.1,2719.2,21388.9,486.6,""smooth"",""down"",""down"",""good_move"",27271.9,2677,2118.9,24594.9,558.1,""smooth"",""down"",""down"",""good_move"",30343.7,3071.2,2655.8,27272.5,415.4,""smooth"",""right"",""right"",""good_move"",33366.1,3022,2483.4,30344.1,538.6,""smooth"",""right"",""right"",""good_move"",35582.9,2216.6,1801.5,33366.3,415.1,""smooth"",""right"",""right"",""good_move""]"
"4278","","<div style=""width:500px;"">
  <p>What determined the result of this run?</p>
  </div>","90","html-slider-response","19","252541","0.0-7.0-1.1","224","1","2025-08-07 06:34:48","36c45c0696341be0efffe67d72a12abb","41.74.177.238","Mozilla/5.0 (Windows NT 10.0; Win64; x64) AppleWebKit/537.36 (KHTML, like Gecko) Chrome/138.0.0.0 Safari/537.36","WebKit","Chrome","138.0.0.0","Windows","10.0","https://app.prolific.com/","en-US,en;q=0.9","6122f45e2e93a3ff9a7b7a5d","6877649eabb845cf142cd221","689448fe4c783100c121ac78","1","6122f45e2e93a3ff9a7b7a5d","1","2025-08-07T06:39:01.501Z","","","","AttribQ","","","","","","","","","","","50","","","","","","","","","","","","","","","","","","","","","","","","","","",""
"3244","","<div style=""width:500px;"">
  <p>How much control did you have over the ball?</p>
  </div>","93","html-slider-response","20","255787","0.0-7.0-2.1","224","1","2025-08-07 06:34:48","36c45c0696341be0efffe67d72a12abb","41.74.177.238","Mozilla/5.0 (Windows NT 10.0; Win64; x64) AppleWebKit/537.36 (KHTML, like Gecko) Chrome/138.0.0.0 Safari/537.36","WebKit","Chrome","138.0.0.0","Windows","10.0","https://app.prolific.com/","en-US,en;q=0.9","6122f45e2e93a3ff9a7b7a5d","6877649eabb845cf142cd221","689448fe4c783100c121ac78","1","6122f45e2e93a3ff9a7b7a5d","1","2025-08-07T06:39:04.748Z","","","","ControlQ","","","","","","","","","","","50","","","","","","","","","","","","","","","","","","","","","","","","","","",""
"4861","","<div style=""width:500px;"">
  <p>How would you describe your current emotional state?</p>
  </div>","23","html-slider-response","21","260650","0.0-7.0-3.1","224","1","2025-08-07 06:34:48","36c45c0696341be0efffe67d72a12abb","41.74.177.238","Mozilla/5.0 (Windows NT 10.0; Win64; x64) AppleWebKit/537.36 (KHTML, like Gecko) Chrome/138.0.0.0 Safari/537.36","WebKit","Chrome","138.0.0.0","Windows","10.0","https://app.prolific.com/","en-US,en;q=0.9","6122f45e2e93a3ff9a7b7a5d","6877649eabb845cf142cd221","689448fe4c783100c121ac78","1","6122f45e2e93a3ff9a7b7a5d","1","2025-08-07T06:39:09.610Z","","","","StressQ","","","","","","","","","","","50","","","","","","","","","","","","","","","","","","","","","","","","","","",""
"2561","","<div style=""width:500px;"">
  <p>What best describes how you currently feel?</p>
  </div>","21","html-slider-response","22","263211","0.0-7.0-4.1","224","1","2025-08-07 06:34:48","36c45c0696341be0efffe67d72a12abb","41.74.177.238","Mozilla/5.0 (Windows NT 10.0; Win64; x64) AppleWebKit/537.36 (KHTML, like Gecko) Chrome/138.0.0.0 Safari/537.36","WebKit","Chrome","138.0.0.0","Windows","10.0","https://app.prolific.com/","en-US,en;q=0.9","6122f45e2e93a3ff9a7b7a5d","6877649eabb845cf142cd221","689448fe4c783100c121ac78","1","6122f45e2e93a3ff9a7b7a5d","1","2025-08-07T06:39:12.172Z","","","","MotivationQ","","","","","","","","","","","50","","","","","","","","","","","","","","","","","","","","","","","","","","",""
"","","","","ctl-task-cpt","23","282862","0.0-7.0-0.2","224","1","2025-08-07 06:34:48","36c45c0696341be0efffe67d72a12abb","41.74.177.238","Mozilla/5.0 (Windows NT 10.0; Win64; x64) AppleWebKit/537.36 (KHTML, like Gecko) Chrome/138.0.0.0 Safari/537.36","WebKit","Chrome","138.0.0.0","Windows","10.0","https://app.prolific.com/","en-US,en;q=0.9","6122f45e2e93a3ff9a7b7a5d","6877649eabb845cf142cd221","689448fe4c783100c121ac78","1","6122f45e2e93a3ff9a7b7a5d","1","2025-08-07T06:39:31.822Z","","","","","","","","","","","","","","","","win-only","1","g1:NE,g2:SW","0.8","3","0","264926.2","1616.9","6617.5","16632.6","1","4","4","6","1","1","1","1","0","0.007575757575757576","1250.7","3000","1425","[""up"",""right""]","{""num_key_presses"":4,""num_perfect"":4,""num_errors"":0,""num_randdir"":0,""num_randdir_good_moves"":0,""num_whilered"":0,""num_whileblue"":0,""num_blue"":0,""num_good_moves"":4}","[404.57142857142856,420.6808016640799,0.2,406.07142857142856,420.6808016640799,104.2,406.07142857142856,420.6808016640799,208.4,406.07142857142856,420.6808016640799,309.4,406.07142857142856,420.6808016640799,414,406.07142857142856,420.6808016640799,515.5,406.07142857142856,420.6808016640799,615.7,406.07142857142856,398.1808016640799,718.7,418.07142857142856,380.1808016640799,819.4,635.5714285714286,185.18080166407992,924,710.5714285714286,90.68080166407994,1029.5,722.5714285714286,95.18080166407994,1134.3,721.0714285714286,99.68080166407994,1234.8,721.0714285714286,99.68080166407994,1338.8,721.0714285714286,99.68080166407994,1439.4,745.0714285714286,125.18080166407994,1545.6,974.5714285714286,200.18080166407992,1649.3,1184.5714285714287,234.68080166407992,1749.3,1268.5714285714287,264.6808016640799,1854.2,1268.5714285714287,264.6808016640799,1959.2,1270.0714285714287,264.6808016640799,2063.8,1270.0714285714287,264.6808016640799,2163.8,1270.0714285714287,264.6808016640799,2264.7,1270.0714285714287,264.6808016640799,2369.1,1270.0714285714287,264.6808016640799,2473.9,1270.0714285714287,264.6808016640799,2578.5,1270.0714285714287,264.6808016640799,2682.2,1270.0714285714287,264.6808016640799,2783.8,1270.0714285714287,264.6808016640799,2889.1,1270.0714285714287,264.6808016640799,2989.4,1270.0714285714287,264.6808016640799,3094,1270.0714285714287,264.6808016640799,3199.4,1270.0714285714287,264.6808016640799,3300.3,1270.0714285714287,264.6808016640799,3403.7,1270.0714285714287,264.6808016640799,3504.3,1270.0714285714287,264.6808016640799,3608.5,1270.0714285714287,264.6808016640799,3709.1,1270.0714285714287,264.6808016640799,3810,1270.0714285714287,264.6808016640799,3913.7,1270.0714285714287,264.6808016640799,4013.9,1270.0714285714287,264.6808016640799,4114.9,1270.0714285714287,264.6808016640799,4219.3,1270.0714285714287,264.6808016640799,4324.3,1270.0714285714287,264.6808016640799,4428.6,1270.0714285714287,264.6808016640799,4528.8,1270.0714285714287,264.6808016640799,4634.9,1270.0714285714287,264.6808016640799,4738.5,1270.0714285714287,264.6808016640799,4843.7,1270.0714285714287,264.6808016640799,4943.7]","[1486.5,1486.5,1000,0,486.5,""smooth"",""up"",""up"",""good_move"",4556.5,3069.8,2658.6,1486.7,411.2,""smooth"",""up"",""up"",""good_move"",7447,2890.2,2507.1,4556.8,383.1,""smooth"",""right"",""right"",""good_move"",9927.4,2479.1,2118.2,7448.3,360.9,""smooth"",""right"",""right"",""good_move""]"
"3133","","<div style=""width:500px;"">
  <p>What determined the result of this run?</p>
  </div>","88","html-slider-response","24","285996","0.0-7.0-1.2","224","1","2025-08-07 06:34:48","36c45c0696341be0efffe67d72a12abb","41.74.177.238","Mozilla/5.0 (Windows NT 10.0; Win64; x64) AppleWebKit/537.36 (KHTML, like Gecko) Chrome/138.0.0.0 Safari/537.36","WebKit","Chrome","138.0.0.0","Windows","10.0","https://app.prolific.com/","en-US,en;q=0.9","6122f45e2e93a3ff9a7b7a5d","6877649eabb845cf142cd221","689448fe4c783100c121ac78","1","6122f45e2e93a3ff9a7b7a5d","1","2025-08-07T06:39:34.956Z","","","","AttribQ","","","","","","","","","","","50","","","","","","","","","","","","","","","","","","","","","","","","","","",""
"3787","","<div style=""width:500px;"">
  <p>How much control did you have over the ball?</p>
  </div>","93","html-slider-response","25","289785","0.0-7.0-2.2","224","1","2025-08-07 06:34:48","36c45c0696341be0efffe67d72a12abb","41.74.177.238","Mozilla/5.0 (Windows NT 10.0; Win64; x64) AppleWebKit/537.36 (KHTML, like Gecko) Chrome/138.0.0.0 Safari/537.36","WebKit","Chrome","138.0.0.0","Windows","10.0","https://app.prolific.com/","en-US,en;q=0.9","6122f45e2e93a3ff9a7b7a5d","6877649eabb845cf142cd221","689448fe4c783100c121ac78","1","6122f45e2e93a3ff9a7b7a5d","1","2025-08-07T06:39:38.745Z","","","","ControlQ","","","","","","","","","","","50","","","","","","","","","","","","","","","","","","","","","","","","","","",""
"4129","","<div style=""width:500px;"">
  <p>How would you describe your current emotional state?</p>
  </div>","20","html-slider-response","26","293919","0.0-7.0-3.2","224","1","2025-08-07 06:34:48","36c45c0696341be0efffe67d72a12abb","41.74.177.238","Mozilla/5.0 (Windows NT 10.0; Win64; x64) AppleWebKit/537.36 (KHTML, like Gecko) Chrome/138.0.0.0 Safari/537.36","WebKit","Chrome","138.0.0.0","Windows","10.0","https://app.prolific.com/","en-US,en;q=0.9","6122f45e2e93a3ff9a7b7a5d","6877649eabb845cf142cd221","689448fe4c783100c121ac78","1","6122f45e2e93a3ff9a7b7a5d","1","2025-08-07T06:39:42.880Z","","","","StressQ","","","","","","","","","","","50","","","","","","","","","","","","","","","","","","","","","","","","","","",""
"3104","","<div style=""width:500px;"">
  <p>What best describes how you currently feel?</p>
  </div>","21","html-slider-response","27","297026","0.0-7.0-4.2","224","1","2025-08-07 06:34:48","36c45c0696341be0efffe67d72a12abb","41.74.177.238","Mozilla/5.0 (Windows NT 10.0; Win64; x64) AppleWebKit/537.36 (KHTML, like Gecko) Chrome/138.0.0.0 Safari/537.36","WebKit","Chrome","138.0.0.0","Windows","10.0","https://app.prolific.com/","en-US,en;q=0.9","6122f45e2e93a3ff9a7b7a5d","6877649eabb845cf142cd221","689448fe4c783100c121ac78","1","6122f45e2e93a3ff9a7b7a5d","1","2025-08-07T06:39:45.986Z","","","","MotivationQ","","","","","","","","","","","50","","","","","","","","","","","","","","","","","","","","","","","","","","",""
"","","","","ctl-task-cpt","28","342430","0.0-7.0-0.3","224","1","2025-08-07 06:34:48","36c45c0696341be0efffe67d72a12abb","41.74.177.238","Mozilla/5.0 (Windows NT 10.0; Win64; x64) AppleWebKit/537.36 (KHTML, like Gecko) Chrome/138.0.0.0 Safari/537.36","WebKit","Chrome","138.0.0.0","Windows","10.0","https://app.prolific.com/","en-US,en;q=0.9","6122f45e2e93a3ff9a7b7a5d","6877649eabb845cf142cd221","689448fe4c783100c121ac78","1","6122f45e2e93a3ff9a7b7a5d","1","2025-08-07T06:40:31.390Z","","","","","","","","","","","","","","","","win-only","3","g1:SW,g2:NE","0.7","4","0","298745.2","5477.4","10480.9","42381.1","1","4","8","6","2","-8","-8","0","1","0","1973","3000","-2710","[""up"",""right""]","{""num_key_presses"":5,""num_perfect"":4,""num_errors"":0,""num_randdir"":1,""num_randdir_good_moves"":0,""num_whilered"":0,""num_whileblue"":0,""num_blue"":4,""num_good_moves"":4}","[413.57142857142856,413.1808016640799,0.2,413.57142857142856,413.1808016640799,100,413.57142857142856,413.1808016640799,203.7,413.57142857142856,413.1808016640799,316.6,412.07142857142856,414.6808016640799,423,412.07142857142856,416.1808016640799,523,412.07142857142856,416.1808016640799,625.1,416.57142857142856,426.6808016640799,729,416.57142857142856,428.1808016640799,832.9,460.07142857142856,390.6808016640799,936,701.5714285714286,170.18080166407992,1038.4,703.0714285714286,170.18080166407992,1138.6,716.5714285714286,185.18080166407992,1238.7,734.5714285714286,200.18080166407992,1344.2,719.5714285714286,231.68080166407992,1446.1,719.5714285714286,231.68080166407992,1559.3,719.5714285714286,230.18080166407992,1659.8,752.5714285714286,101.18080166407994,1762.2,752.5714285714286,69.68080166407994,1863.6,754.0714285714286,69.68080166407994,1976.8,754.0714285714286,69.68080166407994,2080.3,754.0714285714286,113.18080166407994,2188.4,763.0714285714286,293.1808016640799,2293.9,868.0714285714286,453.6808016640799,2401.9,941.5714285714286,512.1808016640799,2502,1019.5714285714286,543.6808016640799,2602,1136.5714285714287,603.6808016640799,2702,1136.5714285714287,603.6808016640799,2802,1136.5714285714287,603.6808016640799,2905.2,1136.5714285714287,603.6808016640799,3008.8,1136.5714285714287,603.6808016640799,3117.8,1136.5714285714287,603.6808016640799,3218,1136.5714285714287,603.6808016640799,3318.7,1136.5714285714287,603.6808016640799,3419.1,1136.5714285714287,603.6808016640799,3523.4,1136.5714285714287,603.6808016640799,3623.5,1136.5714285714287,603.6808016640799,3734.2,1136.5714285714287,603.6808016640799,3835.2,1136.5714285714287,603.6808016640799,3937.4,1136.5714285714287,603.6808016640799,4038.8,1136.5714285714287,603.6808016640799,4139.8,1136.5714285714287,603.6808016640799,4243.4,1136.5714285714287,603.6808016640799,4351.8,1138.0714285714287,602.1808016640799,4451.8,1138.0714285714287,602.1808016640799,4553.3,1138.0714285714287,602.1808016640799,4653.9,1138.0714285714287,602.1808016640799,4759.9,1138.0714285714287,602.1808016640799,4863.2,1138.0714285714287,602.1808016640799,4968.4]","[4576.9,4576.9,2119.1,2005.4,452.4,""smooth"",""up"",""up"",""good_move"",12117.5,7538.4,2285.6,8748.2,1083.8,""smooth"",""up"",""up"",""good_move"",15485.5,3367.8,2961.8,12117.7,406,""smooth"",""up"",""up"",""good_move"",18080.6,2594.7,2155.1,15485.9,439.6,""smooth"",""right"",""right"",""good_move"",21886.2,3805.2,3010.9,18081,794.3,""oops"",""right"",""left"",""bad_move""]"
"7687","","<div style=""width:500px;"">
  <p>What determined the result of this run?</p>
  </div>","85","html-slider-response","29","350119","0.0-7.0-1.3","224","1","2025-08-07 06:34:48","36c45c0696341be0efffe67d72a12abb","41.74.177.238","Mozilla/5.0 (Windows NT 10.0; Win64; x64) AppleWebKit/537.36 (KHTML, like Gecko) Chrome/138.0.0.0 Safari/537.36","WebKit","Chrome","138.0.0.0","Windows","10.0","https://app.prolific.com/","en-US,en;q=0.9","6122f45e2e93a3ff9a7b7a5d","6877649eabb845cf142cd221","689448fe4c783100c121ac78","1","6122f45e2e93a3ff9a7b7a5d","1","2025-08-07T06:40:39.079Z","","","","AttribQ","","","","","","","","","","","50","","","","","","","","","","","","","","","","","","","","","","","","","","",""
"7463","","<div style=""width:500px;"">
  <p>How much control did you have over the ball?</p>
  </div>","86","html-slider-response","30","357584","0.0-7.0-2.3","224","1","2025-08-07 06:34:48","36c45c0696341be0efffe67d72a12abb","41.74.177.238","Mozilla/5.0 (Windows NT 10.0; Win64; x64) AppleWebKit/537.36 (KHTML, like Gecko) Chrome/138.0.0.0 Safari/537.36","WebKit","Chrome","138.0.0.0","Windows","10.0","https://app.prolific.com/","en-US,en;q=0.9","6122f45e2e93a3ff9a7b7a5d","6877649eabb845cf142cd221","689448fe4c783100c121ac78","1","6122f45e2e93a3ff9a7b7a5d","1","2025-08-07T06:40:46.544Z","","","","ControlQ","","","","","","","","","","","50","","","","","","","","","","","","","","","","","","","","","","","","","","",""
"3364","","<div style=""width:500px;"">
  <p>How would you describe your current emotional state?</p>
  </div>","24","html-slider-response","31","360949","0.0-7.0-3.3","224","1","2025-08-07 06:34:48","36c45c0696341be0efffe67d72a12abb","41.74.177.238","Mozilla/5.0 (Windows NT 10.0; Win64; x64) AppleWebKit/537.36 (KHTML, like Gecko) Chrome/138.0.0.0 Safari/537.36","WebKit","Chrome","138.0.0.0","Windows","10.0","https://app.prolific.com/","en-US,en;q=0.9","6122f45e2e93a3ff9a7b7a5d","6877649eabb845cf142cd221","689448fe4c783100c121ac78","1","6122f45e2e93a3ff9a7b7a5d","1","2025-08-07T06:40:49.909Z","","","","StressQ","","","","","","","","","","","50","","","","","","","","","","","","","","","","","","","","","","","","","","",""
"3004","","<div style=""width:500px;"">
  <p>What best describes how you currently feel?</p>
  </div>","21","html-slider-response","32","363955","0.0-7.0-4.3","224","1","2025-08-07 06:34:48","36c45c0696341be0efffe67d72a12abb","41.74.177.238","Mozilla/5.0 (Windows NT 10.0; Win64; x64) AppleWebKit/537.36 (KHTML, like Gecko) Chrome/138.0.0.0 Safari/537.36","WebKit","Chrome","138.0.0.0","Windows","10.0","https://app.prolific.com/","en-US,en;q=0.9","6122f45e2e93a3ff9a7b7a5d","6877649eabb845cf142cd221","689448fe4c783100c121ac78","1","6122f45e2e93a3ff9a7b7a5d","1","2025-08-07T06:40:52.915Z","","","","MotivationQ","","","","","","","","","","","50","","","","","","","","","","","","","","","","","","","","","","","","","","",""
"","","","","ctl-task-cpt","33","390651","0.0-7.0-0.4","224","1","2025-08-07 06:34:48","36c45c0696341be0efffe67d72a12abb","41.74.177.238","Mozilla/5.0 (Windows NT 10.0; Win64; x64) AppleWebKit/537.36 (KHTML, like Gecko) Chrome/138.0.0.0 Safari/537.36","WebKit","Chrome","138.0.0.0","Windows","10.0","https://app.prolific.com/","en-US,en;q=0.9","6122f45e2e93a3ff9a7b7a5d","6877649eabb845cf142cd221","689448fe4c783100c121ac78","1","6122f45e2e93a3ff9a7b7a5d","1","2025-08-07T06:41:19.611Z","","","","","","","","","","","","","","","","win-only","1","g1:NE,g2:SW","0.6","5","0","365670.5","1635.3","6636.6","23676.2","1","4","4","6","1","1","1","1","0","0.007575757575757576","1000.1","3000","1605","[""up"",""right""]","{""num_key_presses"":4,""num_perfect"":4,""num_errors"":0,""num_randdir"":0,""num_randdir_good_moves"":0,""num_whilered"":0,""num_whileblue"":0,""num_blue"":2,""num_good_moves"":4}","[419.57142857142856,422.1808016640799,0.3,419.57142857142856,422.1808016640799,101.7,419.57142857142856,422.1808016640799,206,419.57142857142856,422.1808016640799,311.1,419.57142857142856,422.1808016640799,418.4,476.57142857142856,383.1808016640799,518.6,596.5714285714286,272.1808016640799,620.6,668.5714285714286,155.18080166407992,720.7,706.0714285714286,102.68080166407994,825.8,730.0714285714286,84.68080166407994,926,731.5714285714286,84.68080166407994,1035.3,731.5714285714286,84.68080166407994,1140.4,749.5714285714286,104.18080166407994,1241.6,925.0714285714286,204.68080166407992,1346.8,1136.5714285714287,288.6808016640799,1451,1217.5714285714287,324.6808016640799,1555.9,1219.0714285714287,323.1808016640799,1660.8,1219.0714285714287,323.1808016640799,1768.3,1219.0714285714287,323.1808016640799,1868.3,1219.0714285714287,323.1808016640799,1969,1219.0714285714287,323.1808016640799,2070,1219.0714285714287,323.1808016640799,2170.3,1219.0714285714287,323.1808016640799,2270.8,1219.0714285714287,323.1808016640799,2370.9,1219.0714285714287,323.1808016640799,2470.9,1219.0714285714287,323.1808016640799,2571.6,1219.0714285714287,323.1808016640799,2675.7,1219.0714285714287,323.1808016640799,2785.1,1219.0714285714287,323.1808016640799,2885.6,1219.0714285714287,323.1808016640799,2990.8,1219.0714285714287,323.1808016640799,3091.1,1219.0714285714287,323.1808016640799,3200.8,1219.0714285714287,323.1808016640799,3300.9,1219.0714285714287,323.1808016640799,3401,1219.0714285714287,323.1808016640799,3506.9,1219.0714285714287,323.1808016640799,3610.1,1219.0714285714287,323.1808016640799,3718.7,1219.0714285714287,323.1808016640799,3819.9,1219.0714285714287,323.1808016640799,3920.4,1219.0714285714287,323.1808016640799,4026,1219.0714285714287,323.1808016640799,4126.3,1219.0714285714287,323.1808016640799,4235.5,1219.0714285714287,323.1808016640799,4340.5,1219.0714285714287,323.1808016640799,4440.9,1219.0714285714287,323.1808016640799,4545.3,1219.0714285714287,323.1808016640799,4652.2,1219.0714285714287,323.1808016640799,4756.2,1219.0714285714287,323.1808016640799,4860.7,1219.0714285714287,323.1808016640799,4968.3]","[8317.8,8317.8,2403.2,5516.8,397.8,""smooth"",""up"",""up"",""good_move"",11534.8,3216.6,2764.4,8318.2,452.2,""smooth"",""up"",""up"",""good_move"",14596.3,3061.3,2681.4,11535,379.9,""smooth"",""right"",""right"",""good_move"",16936.1,2339,1933.5,14597.1,405.5,""smooth"",""right"",""right"",""good_move""]"
"2288","","<div style=""width:500px;"">
  <p>What determined the result of this run?</p>
  </div>","90","html-slider-response","34","392941","0.0-7.0-1.4","224","1","2025-08-07 06:34:48","36c45c0696341be0efffe67d72a12abb","41.74.177.238","Mozilla/5.0 (Windows NT 10.0; Win64; x64) AppleWebKit/537.36 (KHTML, like Gecko) Chrome/138.0.0.0 Safari/537.36","WebKit","Chrome","138.0.0.0","Windows","10.0","https://app.prolific.com/","en-US,en;q=0.9","6122f45e2e93a3ff9a7b7a5d","6877649eabb845cf142cd221","689448fe4c783100c121ac78","1","6122f45e2e93a3ff9a7b7a5d","1","2025-08-07T06:41:21.901Z","","","","AttribQ","","","","","","","","","","","50","","","","","","","","","","","","","","","","","","","","","","","","","","",""
"4024","","<div style=""width:500px;"">
  <p>How much control did you have over the ball?</p>
  </div>","100","html-slider-response","35","396965","0.0-7.0-2.4","224","1","2025-08-07 06:34:48","36c45c0696341be0efffe67d72a12abb","41.74.177.238","Mozilla/5.0 (Windows NT 10.0; Win64; x64) AppleWebKit/537.36 (KHTML, like Gecko) Chrome/138.0.0.0 Safari/537.36","WebKit","Chrome","138.0.0.0","Windows","10.0","https://app.prolific.com/","en-US,en;q=0.9","6122f45e2e93a3ff9a7b7a5d","6877649eabb845cf142cd221","689448fe4c783100c121ac78","1","6122f45e2e93a3ff9a7b7a5d","1","2025-08-07T06:41:25.926Z","","","","ControlQ","","","","","","","","","","","50","","","","","","","","","","","","","","","","","","","","","","","","","","",""
"2500","","<div style=""width:500px;"">
  <p>How would you describe your current emotional state?</p>
  </div>","19","html-slider-response","36","399467","0.0-7.0-3.4","224","1","2025-08-07 06:34:48","36c45c0696341be0efffe67d72a12abb","41.74.177.238","Mozilla/5.0 (Windows NT 10.0; Win64; x64) AppleWebKit/537.36 (KHTML, like Gecko) Chrome/138.0.0.0 Safari/537.36","WebKit","Chrome","138.0.0.0","Windows","10.0","https://app.prolific.com/","en-US,en;q=0.9","6122f45e2e93a3ff9a7b7a5d","6877649eabb845cf142cd221","689448fe4c783100c121ac78","1","6122f45e2e93a3ff9a7b7a5d","1","2025-08-07T06:41:28.428Z","","","","StressQ","","","","","","","","","","","50","","","","","","","","","","","","","","","","","","","","","","","","","","",""
"2707","","<div style=""width:500px;"">
  <p>What best describes how you currently feel?</p>
  </div>","18","html-slider-response","37","402177","0.0-7.0-4.4","224","1","2025-08-07 06:34:48","36c45c0696341be0efffe67d72a12abb","41.74.177.238","Mozilla/5.0 (Windows NT 10.0; Win64; x64) AppleWebKit/537.36 (KHTML, like Gecko) Chrome/138.0.0.0 Safari/537.36","WebKit","Chrome","138.0.0.0","Windows","10.0","https://app.prolific.com/","en-US,en;q=0.9","6122f45e2e93a3ff9a7b7a5d","6877649eabb845cf142cd221","689448fe4c783100c121ac78","1","6122f45e2e93a3ff9a7b7a5d","1","2025-08-07T06:41:31.137Z","","","","MotivationQ","","","","","","","","","","","50","","","","","","","","","","","","","","","","","","","","","","","","","","",""
"","","","","ctl-task-cpt","38","447627","0.0-7.0-0.5","224","1","2025-08-07 06:34:48","36c45c0696341be0efffe67d72a12abb","41.74.177.238","Mozilla/5.0 (Windows NT 10.0; Win64; x64) AppleWebKit/537.36 (KHTML, like Gecko) Chrome/138.0.0.0 Safari/537.36","WebKit","Chrome","138.0.0.0","Windows","10.0","https://app.prolific.com/","en-US,en;q=0.9","6122f45e2e93a3ff9a7b7a5d","6877649eabb845cf142cd221","689448fe4c783100c121ac78","1","6122f45e2e93a3ff9a7b7a5d","1","2025-08-07T06:42:16.587Z","","","","","","","","","","","","","","","","win-only","3","g1:SW,g2:NE","0.5","6","0","403892.1","962.2","5965.7","42436.1","1","4","8","6","1","-1","-1","0","1","0","1872.6","3000","-2655","[""down"",""left""]","{""num_key_presses"":7,""num_perfect"":4,""num_errors"":0,""num_randdir"":3,""num_randdir_good_moves"":1,""num_whilered"":0,""num_whileblue"":0,""num_blue"":4,""num_good_moves"":5}","[418.07142857142856,408.6808016640799,0.2,418.07142857142856,408.6808016640799,100.7,418.07142857142856,408.6808016640799,204.7,418.07142857142856,408.6808016640799,308,410.57142857142856,420.6808016640799,408.5,388.07142857142856,428.1808016640799,509.2,388.07142857142856,428.1808016640799,613,464.57142857142856,384.6808016640799,713.2,512.5714285714286,341.1808016640799,820.4,647.5714285714286,233.18080166407992,923.4,688.0714285714286,170.18080166407992,1028.9,688.0714285714286,165.68080166407992,1136.2,704.5714285714286,119.18080166407994,1238.2,710.5714285714286,104.18080166407994,1338.2,610.0714285714286,197.18080166407992,1443.6,44.57142857142857,720.6808016640799,1553.1,32.57142857142857,773.1808016640799,1653.2,46.07142857142857,789.6808016640799,1754.1,59.57142857142857,768.6808016640799,1859.3,59.57142857142857,768.6808016640799,1963,106.07142857142857,776.1808016640799,2068.5,434.57142857142856,909.6808016640799,2169.8,646.0714285714286,960.6808016640799,2274.9,884.5714285714286,960.6808016640799,2385.7,985.0714285714286,960.6808016640799,2486.2,985.0714285714286,960.6808016640799,2589,985.0714285714286,960.6808016640799,2693.7,985.0714285714286,960.6808016640799,2793.8,985.0714285714286,960.6808016640799,2903.2,985.0714285714286,960.6808016640799,3003.9,985.0714285714286,960.6808016640799,3108.2,985.0714285714286,960.6808016640799,3213.5,985.0714285714286,960.6808016640799,3320.2,985.0714285714286,960.6808016640799,3423.6,985.0714285714286,960.6808016640799,3523.7,985.0714285714286,960.6808016640799,3623.9,985.0714285714286,960.6808016640799,3728.9,985.0714285714286,960.6808016640799,3829,985.0714285714286,960.6808016640799,3936.3,985.0714285714286,960.6808016640799,4038.3,985.0714285714286,960.6808016640799,4143.9,985.0714285714286,960.6808016640799,4253.1,985.0714285714286,960.6808016640799,4353.1,985.0714285714286,960.6808016640799,4458.6,985.0714285714286,960.6808016640799,4563.4,985.0714285714286,960.6808016640799,4663.4,985.0714285714286,960.6808016640799,4771.1,985.0714285714286,960.6808016640799,4873.1,985.0714285714286,960.6808016640799,4974]","[12414,12414,2348.7,9635.8,429.5,""smooth"",""down"",""down"",""good_move"",15529.6,3115.2,2537.4,12414.4,577.8,""smooth"",""down"",""down"",""good_move"",21855,6325.2,2320.7,19081.5,452.8,""smooth"",""left"",""left"",""good_move"",25280.2,3425,2935.4,21855.2,489.6,""oops"",""left"",""up"",""bad_move"",28264.8,2984.2,2459,25280.6,525.2,""oops"",""left"",""down"",""good_move"",30538,2273,1862.3,28265,410.7,""oops"",""left"",""right"",""bad_move"",33453.5,2915.2,2516.8,30538.3,398.4,""smooth"",""left"",""left"",""good_move""]"
"8786","","<div style=""width:500px;"">
  <p>What determined the result of this run?</p>
  </div>","93","html-slider-response","39","456414","0.0-7.0-1.5","224","1","2025-08-07 06:34:48","36c45c0696341be0efffe67d72a12abb","41.74.177.238","Mozilla/5.0 (Windows NT 10.0; Win64; x64) AppleWebKit/537.36 (KHTML, like Gecko) Chrome/138.0.0.0 Safari/537.36","WebKit","Chrome","138.0.0.0","Windows","10.0","https://app.prolific.com/","en-US,en;q=0.9","6122f45e2e93a3ff9a7b7a5d","6877649eabb845cf142cd221","689448fe4c783100c121ac78","1","6122f45e2e93a3ff9a7b7a5d","1","2025-08-07T06:42:25.374Z","","","","AttribQ","","","","","","","","","","","50","","","","","","","","","","","","","","","","","","","","","","","","","","",""
"3565","","<div style=""width:500px;"">
  <p>How much control did you have over the ball?</p>
  </div>","75","html-slider-response","40","459981","0.0-7.0-2.5","224","1","2025-08-07 06:34:48","36c45c0696341be0efffe67d72a12abb","41.74.177.238","Mozilla/5.0 (Windows NT 10.0; Win64; x64) AppleWebKit/537.36 (KHTML, like Gecko) Chrome/138.0.0.0 Safari/537.36","WebKit","Chrome","138.0.0.0","Windows","10.0","https://app.prolific.com/","en-US,en;q=0.9","6122f45e2e93a3ff9a7b7a5d","6877649eabb845cf142cd221","689448fe4c783100c121ac78","1","6122f45e2e93a3ff9a7b7a5d","1","2025-08-07T06:42:28.941Z","","","","ControlQ","","","","","","","","","","","50","","","","","","","","","","","","","","","","","","","","","","","","","","",""
"2880","","<div style=""width:500px;"">
  <p>How would you describe your current emotional state?</p>
  </div>","21","html-slider-response","41","462861","0.0-7.0-3.5","224","1","2025-08-07 06:34:48","36c45c0696341be0efffe67d72a12abb","41.74.177.238","Mozilla/5.0 (Windows NT 10.0; Win64; x64) AppleWebKit/537.36 (KHTML, like Gecko) Chrome/138.0.0.0 Safari/537.36","WebKit","Chrome","138.0.0.0","Windows","10.0","https://app.prolific.com/","en-US,en;q=0.9","6122f45e2e93a3ff9a7b7a5d","6877649eabb845cf142cd221","689448fe4c783100c121ac78","1","6122f45e2e93a3ff9a7b7a5d","1","2025-08-07T06:42:31.821Z","","","","StressQ","","","","","","","","","","","50","","","","","","","","","","","","","","","","","","","","","","","","","","",""
"2482","","<div style=""width:500px;"">
  <p>What best describes how you currently feel?</p>
  </div>","18","html-slider-response","42","465344","0.0-7.0-4.5","224","1","2025-08-07 06:34:48","36c45c0696341be0efffe67d72a12abb","41.74.177.238","Mozilla/5.0 (Windows NT 10.0; Win64; x64) AppleWebKit/537.36 (KHTML, like Gecko) Chrome/138.0.0.0 Safari/537.36","WebKit","Chrome","138.0.0.0","Windows","10.0","https://app.prolific.com/","en-US,en;q=0.9","6122f45e2e93a3ff9a7b7a5d","6877649eabb845cf142cd221","689448fe4c783100c121ac78","1","6122f45e2e93a3ff9a7b7a5d","1","2025-08-07T06:42:34.304Z","","","","MotivationQ","","","","","","","","","","","50","","","","","","","","","","","","","","","","","","","","","","","","","","",""
"","","","","ctl-task-cpt","43","495994","0.0-7.0-0.6","224","1","2025-08-07 06:34:48","36c45c0696341be0efffe67d72a12abb","41.74.177.238","Mozilla/5.0 (Windows NT 10.0; Win64; x64) AppleWebKit/537.36 (KHTML, like Gecko) Chrome/138.0.0.0 Safari/537.36","WebKit","Chrome","138.0.0.0","Windows","10.0","https://app.prolific.com/","en-US,en;q=0.9","6122f45e2e93a3ff9a7b7a5d","6877649eabb845cf142cd221","689448fe4c783100c121ac78","1","6122f45e2e93a3ff9a7b7a5d","1","2025-08-07T06:43:04.954Z","","","","","","","","","","","","","","","","win-only","1","g1:NE,g2:SW","0.4","7","0","467058.3","1019.4","6021.8","27643.5","1","4","8","6","2","-8","-8","0","0","0","1722.5","3000","-2540","[""down"",""left""]","{""num_key_presses"":7,""num_perfect"":2,""num_errors"":0,""num_randdir"":5,""num_randdir_good_moves"":2,""num_whilered"":0,""num_whileblue"":0,""num_blue"":0,""num_good_moves"":4}","[413.57142857142856,416.1808016640799,0.2,413.57142857142856,416.1808016640799,106.9,413.57142857142856,416.1808016640799,208.4,413.57142857142856,416.1808016640799,309.4,413.57142857142856,416.1808016640799,409.6,412.07142857142856,416.1808016640799,511.1,401.57142857142856,407.1808016640799,612,401.57142857142856,407.1808016640799,716.1,410.57142857142856,407.1808016640799,816.4,470.57142857142856,390.6808016640799,919.5,545.5714285714286,321.6808016640799,1021.2,304.07142857142856,557.1808016640799,1121.5,-25.92857142857143,848.1808016640799,1224.9,-18.42857142857143,849.6808016640799,1325.4,20.57142857142857,815.1808016640799,1430,67.07142857142857,779.1808016640799,1531.2,80.57142857142857,770.1808016640799,1632.3,80.57142857142857,770.1808016640799,1737.9,80.57142857142857,770.1808016640799,1839.9,80.57142857142857,770.1808016640799,1942.2,137.57142857142856,779.1808016640799,2042.7,776.5714285714286,896.1808016640799,2143.6,982.0714285714286,951.6808016640799,2246.2,1016.5714285714286,924.6808016640799,2346.9,1049.5714285714287,903.6808016640799,2451.1,1085.5714285714287,896.1808016640799,2551.6,1094.5714285714287,882.6808016640799,2652.1,1094.5714285714287,879.6808016640799,2758,1094.5714285714287,879.6808016640799,2862,1094.5714285714287,879.6808016640799,2962.2,1094.5714285714287,879.6808016640799,3066.4,1094.5714285714287,879.6808016640799,3166.5,1094.5714285714287,879.6808016640799,3273.4,1094.5714285714287,879.6808016640799,3375.4,1094.5714285714287,879.6808016640799,3477,1094.5714285714287,879.6808016640799,3580.3,1094.5714285714287,879.6808016640799,3681.7,1094.5714285714287,879.6808016640799,3782,1094.5714285714287,879.6808016640799,3888,1094.5714285714287,879.6808016640799,3988.6,1094.5714285714287,879.6808016640799,4092.7,1094.5714285714287,879.6808016640799,4192.9,1094.5714285714287,879.6808016640799,4296.8,1094.5714285714287,879.6808016640799,4396.9,1094.5714285714287,879.6808016640799,4500.9,1094.5714285714287,879.6808016640799,4601.5,1094.5714285714287,879.6808016640799,4702.5,1094.5714285714287,879.6808016640799,4809.8,1094.5714285714287,879.6808016640799,4914.4]","[1470.5,1470.5,1000,0,470.5,""oops"",""down"",""up"",""bad_move"",4994.5,3523.7,3138.6,1470.8,385.1,""oops"",""down"",""left"",""good_move"",8252.7,3258,2866.4,4994.7,391.6,""oops"",""left"",""right"",""bad_move"",10758.2,2505.1,2169.7,8253.1,335.4,""smooth"",""down"",""down"",""good_move"",13582.3,2823.8,2374,10758.5,449.8,""oops"",""down"",""left"",""good_move"",16272.3,2689.8,2125.8,13582.5,564,""smooth"",""down"",""down"",""good_move"",19097.7,2825.3,2421.4,16272.4,403.9,""oops"",""down"",""right"",""bad_move""]"
"2800","","<div style=""width:500px;"">
  <p>What determined the result of this run?</p>
  </div>","90","html-slider-response","44","498795","0.0-7.0-1.6","224","1","2025-08-07 06:34:48","36c45c0696341be0efffe67d72a12abb","41.74.177.238","Mozilla/5.0 (Windows NT 10.0; Win64; x64) AppleWebKit/537.36 (KHTML, like Gecko) Chrome/138.0.0.0 Safari/537.36","WebKit","Chrome","138.0.0.0","Windows","10.0","https://app.prolific.com/","en-US,en;q=0.9","6122f45e2e93a3ff9a7b7a5d","6877649eabb845cf142cd221","689448fe4c783100c121ac78","1","6122f45e2e93a3ff9a7b7a5d","1","2025-08-07T06:43:07.755Z","","","","AttribQ","","","","","","","","","","","50","","","","","","","","","","","","","","","","","","","","","","","","","","",""
"3284","","<div style=""width:500px;"">
  <p>How much control did you have over the ball?</p>
  </div>","67","html-slider-response","45","502080","0.0-7.0-2.6","224","1","2025-08-07 06:34:48","36c45c0696341be0efffe67d72a12abb","41.74.177.238","Mozilla/5.0 (Windows NT 10.0; Win64; x64) AppleWebKit/537.36 (KHTML, like Gecko) Chrome/138.0.0.0 Safari/537.36","WebKit","Chrome","138.0.0.0","Windows","10.0","https://app.prolific.com/","en-US,en;q=0.9","6122f45e2e93a3ff9a7b7a5d","6877649eabb845cf142cd221","689448fe4c783100c121ac78","1","6122f45e2e93a3ff9a7b7a5d","1","2025-08-07T06:43:11.040Z","","","","ControlQ","","","","","","","","","","","50","","","","","","","","","","","","","","","","","","","","","","","","","","",""
"3410","","<div style=""width:500px;"">
  <p>How would you describe your current emotional state?</p>
  </div>","21","html-slider-response","46","505490","0.0-7.0-3.6","224","1","2025-08-07 06:34:48","36c45c0696341be0efffe67d72a12abb","41.74.177.238","Mozilla/5.0 (Windows NT 10.0; Win64; x64) AppleWebKit/537.36 (KHTML, like Gecko) Chrome/138.0.0.0 Safari/537.36","WebKit","Chrome","138.0.0.0","Windows","10.0","https://app.prolific.com/","en-US,en;q=0.9","6122f45e2e93a3ff9a7b7a5d","6877649eabb845cf142cd221","689448fe4c783100c121ac78","1","6122f45e2e93a3ff9a7b7a5d","1","2025-08-07T06:43:14.450Z","","","","StressQ","","","","","","","","","","","50","","","","","","","","","","","","","","","","","","","","","","","","","","",""
"2502","","<div style=""width:500px;"">
  <p>What best describes how you currently feel?</p>
  </div>","16","html-slider-response","47","507994","0.0-7.0-4.6","224","1","2025-08-07 06:34:48","36c45c0696341be0efffe67d72a12abb","41.74.177.238","Mozilla/5.0 (Windows NT 10.0; Win64; x64) AppleWebKit/537.36 (KHTML, like Gecko) Chrome/138.0.0.0 Safari/537.36","WebKit","Chrome","138.0.0.0","Windows","10.0","https://app.prolific.com/","en-US,en;q=0.9","6122f45e2e93a3ff9a7b7a5d","6877649eabb845cf142cd221","689448fe4c783100c121ac78","1","6122f45e2e93a3ff9a7b7a5d","1","2025-08-07T06:43:16.954Z","","","","MotivationQ","","","","","","","","","","","50","","","","","","","","","","","","","","","","","","","","","","","","","","",""
"","","","","ctl-task-cpt","48","533979","0.0-7.0-0.7","224","1","2025-08-07 06:34:48","36c45c0696341be0efffe67d72a12abb","41.74.177.238","Mozilla/5.0 (Windows NT 10.0; Win64; x64) AppleWebKit/537.36 (KHTML, like Gecko) Chrome/138.0.0.0 Safari/537.36","WebKit","Chrome","138.0.0.0","Windows","10.0","https://app.prolific.com/","en-US,en;q=0.9","6122f45e2e93a3ff9a7b7a5d","6877649eabb845cf142cd221","689448fe4c783100c121ac78","1","6122f45e2e93a3ff9a7b7a5d","1","2025-08-07T06:43:42.939Z","","","","","","","","","","","","","","","","win-only","1","g1:NE,g2:SW","0.3","8","0","509712.4","1095.8","6097.2","22962.4","1","4","4","6","1","1","1","1","0","0.007575757575757576","1077.3","3000","1565","[""up"",""right""]","{""num_key_presses"":4,""num_perfect"":1,""num_errors"":0,""num_randdir"":3,""num_randdir_good_moves"":3,""num_whilered"":0,""num_whileblue"":0,""num_blue"":2,""num_good_moves"":4}","[409.07142857142856,408.6808016640799,0.3,409.07142857142856,408.6808016640799,105,409.07142857142856,408.6808016640799,206.9,409.07142857142856,408.6808016640799,312.1,409.07142857142856,410.1808016640799,415.4,410.57142857142856,410.1808016640799,520.1,694.0714285714286,218.18080166407992,627.9,865.0714285714286,113.18080166407994,730.6,857.5714285714286,99.68080166407994,835.9,770.5714285714286,99.68080166407994,940.4,775.0714285714286,96.68080166407994,1043.8,775.0714285714286,96.68080166407994,1146.7,775.0714285714286,102.68080166407994,1251,784.0714285714286,161.18080166407992,1356.9,1046.5714285714287,291.6808016640799,1462.2,1100.5714285714287,344.1808016640799,1562.3,1192.0714285714287,407.1808016640799,1664.9,1219.0714285714287,423.6808016640799,1765.5,1244.5714285714287,443.1808016640799,1865.5,1246.0714285714287,443.1808016640799,1965.5,1246.0714285714287,443.1808016640799,2069.9,1246.0714285714287,443.1808016640799,2170.2,1246.0714285714287,443.1808016640799,2271.3,1246.0714285714287,443.1808016640799,2375,1246.0714285714287,443.1808016640799,2478.8,1246.0714285714287,443.1808016640799,2580.1,1246.0714285714287,443.1808016640799,2680.4,1246.0714285714287,443.1808016640799,2786.4,1246.0714285714287,443.1808016640799,2890,1246.0714285714287,443.1808016640799,2992.8,1246.0714285714287,443.1808016640799,3098.7,1246.0714285714287,443.1808016640799,3200,1246.0714285714287,443.1808016640799,3304.5,1246.0714285714287,443.1808016640799,3406.9,1246.0714285714287,443.1808016640799,3510.1,1246.0714285714287,443.1808016640799,3611.9,1246.0714285714287,443.1808016640799,3712.2,1246.0714285714287,443.1808016640799,3815.4,1246.0714285714287,443.1808016640799,3920.7,1246.0714285714287,443.1808016640799,4029,1246.0714285714287,443.1808016640799,4130.8,1246.0714285714287,443.1808016640799,4234.5,1246.0714285714287,443.1808016640799,4335.9,1246.0714285714287,443.1808016640799,4440.5,1246.0714285714287,443.1808016640799,4543.2,1246.0714285714287,443.1808016640799,4645.2,1246.0714285714287,443.1808016640799,4745.7,1246.0714285714287,443.1808016640799,4850.3,1246.0714285714287,443.1808016640799,4957.3]","[1448.1,1448.1,1000,0,448.1,""oops"",""up"",""up"",""good_move"",3921.1,2472.9,2090.8,1448.3,382,""oops"",""up"",""up"",""good_move"",10211.8,6290.4,2786.1,7019,406.7,""oops"",""right"",""right"",""good_move"",16747,6534.9,2944.1,13361,441.9,""smooth"",""right"",""right"",""good_move""]"
"2457","","<div style=""width:500px;"">
  <p>What determined the result of this run?</p>
  </div>","87","html-slider-response","49","536437","0.0-7.0-1.7","224","1","2025-08-07 06:34:48","36c45c0696341be0efffe67d72a12abb","41.74.177.238","Mozilla/5.0 (Windows NT 10.0; Win64; x64) AppleWebKit/537.36 (KHTML, like Gecko) Chrome/138.0.0.0 Safari/537.36","WebKit","Chrome","138.0.0.0","Windows","10.0","https://app.prolific.com/","en-US,en;q=0.9","6122f45e2e93a3ff9a7b7a5d","6877649eabb845cf142cd221","689448fe4c783100c121ac78","1","6122f45e2e93a3ff9a7b7a5d","1","2025-08-07T06:43:45.397Z","","","","AttribQ","","","","","","","","","","","50","","","","","","","","","","","","","","","","","","","","","","","","","","",""
"3682","","<div style=""width:500px;"">
  <p>How much control did you have over the ball?</p>
  </div>","88","html-slider-response","50","540121","0.0-7.0-2.7","224","1","2025-08-07 06:34:48","36c45c0696341be0efffe67d72a12abb","41.74.177.238","Mozilla/5.0 (Windows NT 10.0; Win64; x64) AppleWebKit/537.36 (KHTML, like Gecko) Chrome/138.0.0.0 Safari/537.36","WebKit","Chrome","138.0.0.0","Windows","10.0","https://app.prolific.com/","en-US,en;q=0.9","6122f45e2e93a3ff9a7b7a5d","6877649eabb845cf142cd221","689448fe4c783100c121ac78","1","6122f45e2e93a3ff9a7b7a5d","1","2025-08-07T06:43:49.081Z","","","","ControlQ","","","","","","","","","","","50","","","","","","","","","","","","","","","","","","","","","","","","","","",""
"3815","","<div style=""width:500px;"">
  <p>How would you describe your current emotional state?</p>
  </div>","16","html-slider-response","51","543938","0.0-7.0-3.7","224","1","2025-08-07 06:34:48","36c45c0696341be0efffe67d72a12abb","41.74.177.238","Mozilla/5.0 (Windows NT 10.0; Win64; x64) AppleWebKit/537.36 (KHTML, like Gecko) Chrome/138.0.0.0 Safari/537.36","WebKit","Chrome","138.0.0.0","Windows","10.0","https://app.prolific.com/","en-US,en;q=0.9","6122f45e2e93a3ff9a7b7a5d","6877649eabb845cf142cd221","689448fe4c783100c121ac78","1","6122f45e2e93a3ff9a7b7a5d","1","2025-08-07T06:43:52.898Z","","","","StressQ","","","","","","","","","","","50","","","","","","","","","","","","","","","","","","","","","","","","","","",""
"3022","","<div style=""width:500px;"">
  <p>What best describes how you currently feel?</p>
  </div>","16","html-slider-response","52","546961","0.0-7.0-4.7","224","1","2025-08-07 06:34:48","36c45c0696341be0efffe67d72a12abb","41.74.177.238","Mozilla/5.0 (Windows NT 10.0; Win64; x64) AppleWebKit/537.36 (KHTML, like Gecko) Chrome/138.0.0.0 Safari/537.36","WebKit","Chrome","138.0.0.0","Windows","10.0","https://app.prolific.com/","en-US,en;q=0.9","6122f45e2e93a3ff9a7b7a5d","6877649eabb845cf142cd221","689448fe4c783100c121ac78","1","6122f45e2e93a3ff9a7b7a5d","1","2025-08-07T06:43:55.921Z","","","","MotivationQ","","","","","","","","","","","50","","","","","","","","","","","","","","","","","","","","","","","","","","",""
"","","","","ctl-task-cpt","53","588951","0.0-7.0-0.8","224","1","2025-08-07 06:34:48","36c45c0696341be0efffe67d72a12abb","41.74.177.238","Mozilla/5.0 (Windows NT 10.0; Win64; x64) AppleWebKit/537.36 (KHTML, like Gecko) Chrome/138.0.0.0 Safari/537.36","WebKit","Chrome","138.0.0.0","Windows","10.0","https://app.prolific.com/","en-US,en;q=0.9","6122f45e2e93a3ff9a7b7a5d","6877649eabb845cf142cd221","689448fe4c783100c121ac78","1","6122f45e2e93a3ff9a7b7a5d","1","2025-08-07T06:44:37.911Z","","","","","","","","","","","","","","","","win-only","1","g1:NE,g2:SW","0.4","9","0","548676.2","1868.8","6871.6","38970.9","1","4","4","6","2","-4","-4","0","1","0","958.5","3000","-2400","[""down"",""left""]","{""num_key_presses"":8,""num_perfect"":3,""num_errors"":0,""num_randdir"":5,""num_randdir_good_moves"":3,""num_whilered"":0,""num_whileblue"":0,""num_blue"":2,""num_good_moves"":6}","[413.57142857142856,411.6808016640799,0.7,413.57142857142856,411.6808016640799,106.9,413.57142857142856,411.6808016640799,210.6,413.57142857142856,411.6808016640799,311.2,413.57142857142856,411.6808016640799,413.3,386.57142857142856,441.6808016640799,515.1,134.57142857142856,626.1808016640799,617.1,37.07142857142857,752.1808016640799,723.7,47.57142857142857,762.6808016640799,825.3,70.07142857142857,758.1808016640799,930.8,70.07142857142857,758.1808016640799,1031.5,76.07142857142857,761.1808016640799,1132.1,500.57142857142856,756.6808016640799,1245.2,965.5714285714286,786.6808016640799,1345.8,1208.5714285714287,834.6808016640799,1447.1,1295.5714285714287,812.1808016640799,1560.8,1304.5714285714287,806.1808016640799,1661.5,1304.5714285714287,806.1808016640799,1767.6,1304.5714285714287,806.1808016640799,1875.7,1304.5714285714287,806.1808016640799,1977.3,1304.5714285714287,806.1808016640799,2082,1304.5714285714287,806.1808016640799,2186.9,1304.5714285714287,806.1808016640799,2286.9,1304.5714285714287,806.1808016640799,2388.8,1304.5714285714287,806.1808016640799,2492.9,1304.5714285714287,806.1808016640799,2593.8,1304.5714285714287,806.1808016640799,2697.3,1304.5714285714287,806.1808016640799,2801.3,1304.5714285714287,806.1808016640799,2901.5,1304.5714285714287,806.1808016640799,3010.6,1304.5714285714287,806.1808016640799,3111.5,1304.5714285714287,806.1808016640799,3213.7,1304.5714285714287,806.1808016640799,3316.5,1304.5714285714287,806.1808016640799,3416.5,1304.5714285714287,806.1808016640799,3516.7,1304.5714285714287,806.1808016640799,3617.2,1304.5714285714287,806.1808016640799,3722,1304.5714285714287,806.1808016640799,3829.6,1304.5714285714287,806.1808016640799,3932.2,1304.5714285714287,806.1808016640799,4032.2,1304.5714285714287,806.1808016640799,4145.4,1304.5714285714287,806.1808016640799,4247.8,1304.5714285714287,806.1808016640799,4351.7,1304.5714285714287,806.1808016640799,4452.4,1304.5714285714287,806.1808016640799,4560.7,1304.5714285714287,806.1808016640799,4661.3,1304.5714285714287,806.1808016640799,4761.3,1304.5714285714287,806.1808016640799,4861.6,1304.5714285714287,806.1808016640799,4962.3]","[1456.9,1456.9,1000,0,456.9,""oops"",""down"",""down"",""good_move"",4564.7,3107.4,2646.4,1457.3,461,""smooth"",""down"",""down"",""good_move"",11190.6,6625.7,2458,8195,537.6,""oops"",""down"",""left"",""good_move"",13694.3,2503.4,2027.2,11191,476.2,""smooth"",""left"",""left"",""good_move"",16548.1,2853.6,2451.8,13694.5,401.8,""oops"",""left"",""up"",""bad_move"",19824.7,3276.3,2918.2,16548.4,358.1,""smooth"",""down"",""down"",""good_move"",22871.4,3046.5,2620.9,19824.9,425.6,""oops"",""down"",""down"",""good_move"",29205.9,6334.2,2268.6,26543.7,393.6,""oops"",""left"",""right"",""bad_move""]"
"7430","","<div style=""width:500px;"">
  <p>What determined the result of this run?</p>
  </div>","79","html-slider-response","54","596382","0.0-7.0-1.8","224","1","2025-08-07 06:34:48","36c45c0696341be0efffe67d72a12abb","41.74.177.238","Mozilla/5.0 (Windows NT 10.0; Win64; x64) AppleWebKit/537.36 (KHTML, like Gecko) Chrome/138.0.0.0 Safari/537.36","WebKit","Chrome","138.0.0.0","Windows","10.0","https://app.prolific.com/","en-US,en;q=0.9","6122f45e2e93a3ff9a7b7a5d","6877649eabb845cf142cd221","689448fe4c783100c121ac78","1","6122f45e2e93a3ff9a7b7a5d","1","2025-08-07T06:44:45.342Z","","","","AttribQ","","","","","","","","","","","50","","","","","","","","","","","","","","","","","","","","","","","","","","",""
"5500","","<div style=""width:500px;"">
  <p>How much control did you have over the ball?</p>
  </div>","17","html-slider-response","55","601884","0.0-7.0-2.8","224","1","2025-08-07 06:34:48","36c45c0696341be0efffe67d72a12abb","41.74.177.238","Mozilla/5.0 (Windows NT 10.0; Win64; x64) AppleWebKit/537.36 (KHTML, like Gecko) Chrome/138.0.0.0 Safari/537.36","WebKit","Chrome","138.0.0.0","Windows","10.0","https://app.prolific.com/","en-US,en;q=0.9","6122f45e2e93a3ff9a7b7a5d","6877649eabb845cf142cd221","689448fe4c783100c121ac78","1","6122f45e2e93a3ff9a7b7a5d","1","2025-08-07T06:44:50.844Z","","","","ControlQ","","","","","","","","","","","50","","","","","","","","","","","","","","","","","","","","","","","","","","",""
"2803","","<div style=""width:500px;"">
  <p>How would you describe your current emotional state?</p>
  </div>","19","html-slider-response","56","604688","0.0-7.0-3.8","224","1","2025-08-07 06:34:48","36c45c0696341be0efffe67d72a12abb","41.74.177.238","Mozilla/5.0 (Windows NT 10.0; Win64; x64) AppleWebKit/537.36 (KHTML, like Gecko) Chrome/138.0.0.0 Safari/537.36","WebKit","Chrome","138.0.0.0","Windows","10.0","https://app.prolific.com/","en-US,en;q=0.9","6122f45e2e93a3ff9a7b7a5d","6877649eabb845cf142cd221","689448fe4c783100c121ac78","1","6122f45e2e93a3ff9a7b7a5d","1","2025-08-07T06:44:53.648Z","","","","StressQ","","","","","","","","","","","50","","","","","","","","","","","","","","","","","","","","","","","","","","",""
"1984","","<div style=""width:500px;"">
  <p>What best describes how you currently feel?</p>
  </div>","20","html-slider-response","57","606673","0.0-7.0-4.8","224","1","2025-08-07 06:34:48","36c45c0696341be0efffe67d72a12abb","41.74.177.238","Mozilla/5.0 (Windows NT 10.0; Win64; x64) AppleWebKit/537.36 (KHTML, like Gecko) Chrome/138.0.0.0 Safari/537.36","WebKit","Chrome","138.0.0.0","Windows","10.0","https://app.prolific.com/","en-US,en;q=0.9","6122f45e2e93a3ff9a7b7a5d","6877649eabb845cf142cd221","689448fe4c783100c121ac78","1","6122f45e2e93a3ff9a7b7a5d","1","2025-08-07T06:44:55.633Z","","","","MotivationQ","","","","","","","","","","","50","","","","","","","","","","","","","","","","","","","","","","","","","","",""
"","","","","ctl-task-cpt","58","651958","0.0-7.0-0.9","224","1","2025-08-07 06:34:48","36c45c0696341be0efffe67d72a12abb","41.74.177.238","Mozilla/5.0 (Windows NT 10.0; Win64; x64) AppleWebKit/537.36 (KHTML, like Gecko) Chrome/138.0.0.0 Safari/537.36","WebKit","Chrome","138.0.0.0","Windows","10.0","https://app.prolific.com/","en-US,en;q=0.9","6122f45e2e93a3ff9a7b7a5d","6877649eabb845cf142cd221","689448fe4c783100c121ac78","1","6122f45e2e93a3ff9a7b7a5d","1","2025-08-07T06:45:40.918Z","","","","","","","","","","","","","","","","win-only","1","g1:NE,g2:SW","0.5","10","0","608390.9","1220.2","6222.2","42256.3","1","4","8","6","1","-1","-2","0","0","0","1415.2","3000","-2760","[""up"",""right""]","{""num_key_presses"":10,""num_perfect"":4,""num_errors"":1,""num_randdir"":5,""num_randdir_good_moves"":2,""num_whilered"":0,""num_whileblue"":0,""num_blue"":1,""num_good_moves"":6}","[416.57142857142856,416.1808016640799,0.2,416.57142857142856,416.1808016640799,101.5,416.57142857142856,416.1808016640799,206.4,416.57142857142856,416.1808016640799,306.9,416.57142857142856,416.1808016640799,413.1,416.57142857142856,416.1808016640799,515.9,419.57142857142856,416.1808016640799,629.9,449.57142857142856,441.6808016640799,729.9,449.57142857142856,441.6808016640799,831,532.0714285714286,311.1808016640799,946.2,611.5714285714286,143.18080166407992,1046.7,635.5714285714286,119.18080166407994,1150.2,701.5714285714286,119.18080166407994,1254.7,710.5714285714286,125.18080166407994,1365.3,710.5714285714286,125.18080166407994,1467.1,710.5714285714286,125.18080166407994,1571.1,697.0714285714286,141.68080166407992,1677.8,728.5714285714286,245.18080166407992,1779.1,728.5714285714286,245.18080166407992,1884.5,779.5714285714286,266.1808016640799,1987.7,988.0714285714286,387.6808016640799,2090.2,1007.5714285714286,395.1808016640799,2197.5,1007.5714285714286,395.1808016640799,2298.3,1007.5714285714286,395.1808016640799,2402.5,1007.5714285714286,395.1808016640799,2510,1007.5714285714286,395.1808016640799,2623.2,1007.5714285714286,395.1808016640799,2730.3,1007.5714285714286,395.1808016640799,2833.2,1007.5714285714286,395.1808016640799,2936.7,1007.5714285714286,395.1808016640799,3051.4,1007.5714285714286,395.1808016640799,3154.3,1007.5714285714286,395.1808016640799,3256.1,1007.5714285714286,395.1808016640799,3357.6,1007.5714285714286,395.1808016640799,3465.5,1007.5714285714286,395.1808016640799,3567.4,1007.5714285714286,395.1808016640799,3675.6,1007.5714285714286,395.1808016640799,3784.7,1007.5714285714286,395.1808016640799,3888.4,1007.5714285714286,395.1808016640799,3990.9,1007.5714285714286,395.1808016640799,4091.6,1007.5714285714286,395.1808016640799,4199.2,1007.5714285714286,395.1808016640799,4301.1,1007.5714285714286,395.1808016640799,4404.7,1007.5714285714286,395.1808016640799,4509.4,1007.5714285714286,395.1808016640799,4612.9,1007.5714285714286,395.1808016640799,4717.9,1007.5714285714286,395.1808016640799,4821.8,1007.5714285714286,395.1808016640799,4923]","[1606.1,1606.2,1000,0,606.2,""smooth"",""up"",""up"",""good_move"",4991.7,3384.8,2964,1606.9,420.8,""smooth"",""up"",""up"",""good_move"",7575.7,2583.7,2125.6,4992,458.1,""oops"",""right"",""down"",""bad_move"",10848.9,3272.9,2906.6,7576,366.3,""oops"",""up"",""left"",""bad_move"",13760.9,2911.7,2486,10849.2,425.7,""oops"",""right"",""right"",""good_move"",16723.7,2962.4,2565.1,13761.4,397.3,""smooth"",""right"",""right"",""good_move"",19832.9,3108.9,2766.3,16724.1,342.5,""oops"",""right"",""right"",""good_move"",23106.6,3273.6,2875.4,19833,398.2,""oops"",""up"",""down"",""bad_move"",26665,3558.2,3191.2,23106.8,367,""smooth"",""up"",""up"",""good_move"",28892.5,2227.2,2682.1,26665.3,-454.9,""error"",""-"",""-"",""no_move""]"
"3696","","<div style=""width:500px;"">
  <p>What determined the result of this run?</p>
  </div>","85","html-slider-response","59","655655","0.0-7.0-1.9","224","1","2025-08-07 06:34:48","36c45c0696341be0efffe67d72a12abb","41.74.177.238","Mozilla/5.0 (Windows NT 10.0; Win64; x64) AppleWebKit/537.36 (KHTML, like Gecko) Chrome/138.0.0.0 Safari/537.36","WebKit","Chrome","138.0.0.0","Windows","10.0","https://app.prolific.com/","en-US,en;q=0.9","6122f45e2e93a3ff9a7b7a5d","6877649eabb845cf142cd221","689448fe4c783100c121ac78","1","6122f45e2e93a3ff9a7b7a5d","1","2025-08-07T06:45:44.615Z","","","","AttribQ","","","","","","","","","","","50","","","","","","","","","","","","","","","","","","","","","","","","","","",""
"4070","","<div style=""width:500px;"">
  <p>How much control did you have over the ball?</p>
  </div>","18","html-slider-response","60","659727","0.0-7.0-2.9","224","1","2025-08-07 06:34:48","36c45c0696341be0efffe67d72a12abb","41.74.177.238","Mozilla/5.0 (Windows NT 10.0; Win64; x64) AppleWebKit/537.36 (KHTML, like Gecko) Chrome/138.0.0.0 Safari/537.36","WebKit","Chrome","138.0.0.0","Windows","10.0","https://app.prolific.com/","en-US,en;q=0.9","6122f45e2e93a3ff9a7b7a5d","6877649eabb845cf142cd221","689448fe4c783100c121ac78","1","6122f45e2e93a3ff9a7b7a5d","1","2025-08-07T06:45:48.687Z","","","","ControlQ","","","","","","","","","","","50","","","","","","","","","","","","","","","","","","","","","","","","","","",""
"2229","","<div style=""width:500px;"">
  <p>How would you describe your current emotional state?</p>
  </div>","20","html-slider-response","61","661957","0.0-7.0-3.9","224","1","2025-08-07 06:34:48","36c45c0696341be0efffe67d72a12abb","41.74.177.238","Mozilla/5.0 (Windows NT 10.0; Win64; x64) AppleWebKit/537.36 (KHTML, like Gecko) Chrome/138.0.0.0 Safari/537.36","WebKit","Chrome","138.0.0.0","Windows","10.0","https://app.prolific.com/","en-US,en;q=0.9","6122f45e2e93a3ff9a7b7a5d","6877649eabb845cf142cd221","689448fe4c783100c121ac78","1","6122f45e2e93a3ff9a7b7a5d","1","2025-08-07T06:45:50.918Z","","","","StressQ","","","","","","","","","","","50","","","","","","","","","","","","","","","","","","","","","","","","","","",""
"2123","","<div style=""width:500px;"">
  <p>What best describes how you currently feel?</p>
  </div>","19","html-slider-response","62","664082","0.0-7.0-4.9","224","1","2025-08-07 06:34:48","36c45c0696341be0efffe67d72a12abb","41.74.177.238","Mozilla/5.0 (Windows NT 10.0; Win64; x64) AppleWebKit/537.36 (KHTML, like Gecko) Chrome/138.0.0.0 Safari/537.36","WebKit","Chrome","138.0.0.0","Windows","10.0","https://app.prolific.com/","en-US,en;q=0.9","6122f45e2e93a3ff9a7b7a5d","6877649eabb845cf142cd221","689448fe4c783100c121ac78","1","6122f45e2e93a3ff9a7b7a5d","1","2025-08-07T06:45:53.042Z","","","","MotivationQ","","","","","","","","","","","50","","","","","","","","","","","","","","","","","","","","","","","","","","",""
"","","","","ctl-task-cpt","63","686953","0.0-7.0-0.10","224","1","2025-08-07 06:34:48","36c45c0696341be0efffe67d72a12abb","41.74.177.238","Mozilla/5.0 (Windows NT 10.0; Win64; x64) AppleWebKit/537.36 (KHTML, like Gecko) Chrome/138.0.0.0 Safari/537.36","WebKit","Chrome","138.0.0.0","Windows","10.0","https://app.prolific.com/","en-US,en;q=0.9","6122f45e2e93a3ff9a7b7a5d","6877649eabb845cf142cd221","689448fe4c783100c121ac78","1","6122f45e2e93a3ff9a7b7a5d","1","2025-08-07T06:46:15.913Z","","","","","","","","","","","","","","","","win-only","1","g1:NE,g2:SW","0.6","11","0","665797.4","956.4","5958.7","19845.5","1","4","8","6","1","1","1","1","0","0.007575757575757576","1264.5","3000","1575","[""up"",""right""]","{""num_key_presses"":4,""num_perfect"":3,""num_errors"":0,""num_randdir"":1,""num_randdir_good_moves"":1,""num_whilered"":0,""num_whileblue"":0,""num_blue"":1,""num_good_moves"":4}","[410.57142857142856,410.1808016640799,0.4,410.57142857142856,410.1808016640799,104.5,410.57142857142856,410.1808016640799,205.7,410.57142857142856,410.1808016640799,319.8,410.57142857142856,410.1808016640799,429.8,410.57142857142856,410.1808016640799,534.5,410.57142857142856,410.1808016640799,635.7,410.57142857142856,410.1808016640799,740.1,815.5714285714286,104.18080166407994,845.1,842.5714285714286,56.18080166407994,952.4,812.5714285714286,71.18080166407994,1055,767.5714285714286,93.68080166407994,1155,767.5714285714286,93.68080166407994,1269.1,767.5714285714286,93.68080166407994,1375,802.0714285714286,122.18080166407994,1484.3,923.5714285714286,140.18080166407992,1584.5,1127.5714285714287,230.18080166407992,1685,1160.5714285714287,248.18080166407992,1789,1160.5714285714287,248.18080166407992,1890.1,1160.5714285714287,248.18080166407992,1993.6,1160.5714285714287,248.18080166407992,2103.5,1160.5714285714287,248.18080166407992,2212.1,1160.5714285714287,248.18080166407992,2323.3,1160.5714285714287,248.18080166407992,2424.7,1160.5714285714287,248.18080166407992,2530.9,1160.5714285714287,248.18080166407992,2631.5,1160.5714285714287,248.18080166407992,2734.4,1160.5714285714287,248.18080166407992,2835,1160.5714285714287,248.18080166407992,2935.5,1160.5714285714287,248.18080166407992,3039.2,1160.5714285714287,248.18080166407992,3146.3,1160.5714285714287,248.18080166407992,3252.3,1160.5714285714287,248.18080166407992,3353.9,1160.5714285714287,248.18080166407992,3454.2,1160.5714285714287,248.18080166407992,3554.4,1160.5714285714287,248.18080166407992,3668.3,1160.5714285714287,248.18080166407992,3768.8,1160.5714285714287,248.18080166407992,3869.4,1160.5714285714287,248.18080166407992,3975,1160.5714285714287,248.18080166407992,4084.1,1160.5714285714287,248.18080166407992,4186,1160.5714285714287,248.18080166407992,4289.3,1160.5714285714287,248.18080166407992,4389.7,1160.5714285714287,248.18080166407992,4489.8,1160.5714285714287,248.18080166407992,4594.4,1160.5714285714287,248.18080166407992,4698.9,1160.5714285714287,248.18080166407992,4802,1160.5714285714287,248.18080166407992,4902.1]","[4830.4,4830.4,2430.8,2002.4,397.2,""oops"",""up"",""right"",""good_move"",7563.9,2733.3,2181.1,4830.6,552.3,""smooth"",""up"",""up"",""good_move"",9841.2,2277,1882.1,7564.3,394.8,""smooth"",""up"",""up"",""good_move"",13779.3,3937.8,3409.9,9841.5,527.9,""smooth"",""right"",""right"",""good_move""]"
"2143","","<div style=""width:500px;"">
  <p>What determined the result of this run?</p>
  </div>","86","html-slider-response","64","689098","0.0-7.0-1.10","224","1","2025-08-07 06:34:48","36c45c0696341be0efffe67d72a12abb","41.74.177.238","Mozilla/5.0 (Windows NT 10.0; Win64; x64) AppleWebKit/537.36 (KHTML, like Gecko) Chrome/138.0.0.0 Safari/537.36","WebKit","Chrome","138.0.0.0","Windows","10.0","https://app.prolific.com/","en-US,en;q=0.9","6122f45e2e93a3ff9a7b7a5d","6877649eabb845cf142cd221","689448fe4c783100c121ac78","1","6122f45e2e93a3ff9a7b7a5d","1","2025-08-07T06:46:18.059Z","","","","AttribQ","","","","","","","","","","","50","","","","","","","","","","","","","","","","","","","","","","","","","","",""
"4566","","<div style=""width:500px;"">
  <p>How much control did you have over the ball?</p>
  </div>","97","html-slider-response","65","693667","0.0-7.0-2.10","224","1","2025-08-07 06:34:48","36c45c0696341be0efffe67d72a12abb","41.74.177.238","Mozilla/5.0 (Windows NT 10.0; Win64; x64) AppleWebKit/537.36 (KHTML, like Gecko) Chrome/138.0.0.0 Safari/537.36","WebKit","Chrome","138.0.0.0","Windows","10.0","https://app.prolific.com/","en-US,en;q=0.9","6122f45e2e93a3ff9a7b7a5d","6877649eabb845cf142cd221","689448fe4c783100c121ac78","1","6122f45e2e93a3ff9a7b7a5d","1","2025-08-07T06:46:22.627Z","","","","ControlQ","","","","","","","","","","","50","","","","","","","","","","","","","","","","","","","","","","","","","","",""
"3149","","<div style=""width:500px;"">
  <p>How would you describe your current emotional state?</p>
  </div>","18","html-slider-response","66","696816","0.0-7.0-3.10","224","1","2025-08-07 06:34:48","36c45c0696341be0efffe67d72a12abb","41.74.177.238","Mozilla/5.0 (Windows NT 10.0; Win64; x64) AppleWebKit/537.36 (KHTML, like Gecko) Chrome/138.0.0.0 Safari/537.36","WebKit","Chrome","138.0.0.0","Windows","10.0","https://app.prolific.com/","en-US,en;q=0.9","6122f45e2e93a3ff9a7b7a5d","6877649eabb845cf142cd221","689448fe4c783100c121ac78","1","6122f45e2e93a3ff9a7b7a5d","1","2025-08-07T06:46:25.777Z","","","","StressQ","","","","","","","","","","","50","","","","","","","","","","","","","","","","","","","","","","","","","","",""
"2317","","<div style=""width:500px;"">
  <p>What best describes how you currently feel?</p>
  </div>","17","html-slider-response","67","699135","0.0-7.0-4.10","224","1","2025-08-07 06:34:48","36c45c0696341be0efffe67d72a12abb","41.74.177.238","Mozilla/5.0 (Windows NT 10.0; Win64; x64) AppleWebKit/537.36 (KHTML, like Gecko) Chrome/138.0.0.0 Safari/537.36","WebKit","Chrome","138.0.0.0","Windows","10.0","https://app.prolific.com/","en-US,en;q=0.9","6122f45e2e93a3ff9a7b7a5d","6877649eabb845cf142cd221","689448fe4c783100c121ac78","1","6122f45e2e93a3ff9a7b7a5d","1","2025-08-07T06:46:28.095Z","","","","MotivationQ","","","","","","","","","","","50","","","","","","","","","","","","","","","","","","","","","","","","","","",""
"","","","","ctl-task-cpt","68","730907","0.0-7.0-0.11","224","1","2025-08-07 06:34:48","36c45c0696341be0efffe67d72a12abb","41.74.177.238","Mozilla/5.0 (Windows NT 10.0; Win64; x64) AppleWebKit/537.36 (KHTML, like Gecko) Chrome/138.0.0.0 Safari/537.36","WebKit","Chrome","138.0.0.0","Windows","10.0","https://app.prolific.com/","en-US,en;q=0.9","6122f45e2e93a3ff9a7b7a5d","6877649eabb845cf142cd221","689448fe4c783100c121ac78","1","6122f45e2e93a3ff9a7b7a5d","1","2025-08-07T06:46:59.867Z","","","","","","","","","","","","","","","","win-only","3","g1:SW,g2:NE","0.7","12","0","700849.8","861.4","5871.2","28755.5","1","4","4","6","1","1","1","2","1","0.015151515151515152","1474.3","3000","900","[""down"",""left""]","{""num_key_presses"":6,""num_perfect"":4,""num_errors"":0,""num_randdir"":2,""num_randdir_good_moves"":1,""num_whilered"":0,""num_whileblue"":0,""num_blue"":2,""num_good_moves"":5}","[418.07142857142856,416.1808016640799,0.2,418.07142857142856,416.1808016640799,104.7,418.07142857142856,416.1808016640799,208,418.07142857142856,416.1808016640799,310,418.07142857142856,416.1808016640799,415,383.57142857142856,465.6808016640799,515.3,305.57142857142856,557.1808016640799,621.1,221.57142857142856,668.1808016640799,722.3,209.57142857142856,692.1808016640799,826.4,191.57142857142856,701.1808016640799,927.1,146.57142857142856,689.1808016640799,1029.2,110.57142857142857,731.1808016640799,1130,112.07142857142857,731.1808016640799,1243.4,107.57142857142857,740.1808016640799,1350,109.07142857142857,740.1808016640799,1450.6,112.07142857142857,740.1808016640799,1557.7,113.57142857142857,740.1808016640799,1663.1,130.07142857142856,743.1808016640799,1769.3,743.5714285714286,668.1808016640799,1878.6,1174.0714285714287,584.1808016640799,1979,1223.5714285714287,558.6808016640799,2079.7,1223.5714285714287,552.6808016640799,2184.8,1225.0714285714287,548.1808016640799,2290.5,1225.0714285714287,548.1808016640799,2392.9,1226.5714285714287,548.1808016640799,2493.7,1226.5714285714287,548.1808016640799,2594.3,1226.5714285714287,548.1808016640799,2699.5,1226.5714285714287,548.1808016640799,2809.9,1226.5714285714287,548.1808016640799,2910,1226.5714285714287,548.1808016640799,3010,1226.5714285714287,548.1808016640799,3114.1,1226.5714285714287,548.1808016640799,3215,1226.5714285714287,548.1808016640799,3328,1226.5714285714287,548.1808016640799,3429.9,1226.5714285714287,548.1808016640799,3531.1,1226.5714285714287,548.1808016640799,3631.4,1226.5714285714287,548.1808016640799,3738,1226.5714285714287,548.1808016640799,3848.9,1226.5714285714287,548.1808016640799,3955.3,1226.5714285714287,548.1808016640799,4055.9,1226.5714285714287,548.1808016640799,4159.8,1226.5714285714287,548.1808016640799,4265,1226.5714285714287,548.1808016640799,4375.1,1226.5714285714287,548.1808016640799,4475.9,1226.5714285714287,548.1808016640799,4580.3,1226.5714285714287,548.1808016640799,4681.2,1226.5714285714287,548.1808016640799,4787.4,1226.5714285714287,548.1808016640799,4887.9,1226.5714285714287,548.1808016640799,4989.7]","[1461.9,1461.9,1000,0,461.9,""oops"",""down"",""down"",""good_move"",7520.9,6058.6,1992.3,5110.9,417.7,""smooth"",""down"",""down"",""good_move"",14312.4,6791.2,3034.6,10705.3,572.5,""smooth"",""left"",""left"",""good_move"",17252.4,2939.5,2522.8,14312.9,416.7,""oops"",""left"",""right"",""bad_move"",19815.1,2562.4,2112.8,17252.7,449.6,""smooth"",""left"",""left"",""good_move"",22768.4,2953.1,2562.4,19815.3,390.7,""smooth"",""left"",""left"",""good_move""]"
"2508","","<div style=""width:500px;"">
  <p>What determined the result of this run?</p>
  </div>","84","html-slider-response","69","733416","0.0-7.0-1.11","224","1","2025-08-07 06:34:48","36c45c0696341be0efffe67d72a12abb","41.74.177.238","Mozilla/5.0 (Windows NT 10.0; Win64; x64) AppleWebKit/537.36 (KHTML, like Gecko) Chrome/138.0.0.0 Safari/537.36","WebKit","Chrome","138.0.0.0","Windows","10.0","https://app.prolific.com/","en-US,en;q=0.9","6122f45e2e93a3ff9a7b7a5d","6877649eabb845cf142cd221","689448fe4c783100c121ac78","1","6122f45e2e93a3ff9a7b7a5d","1","2025-08-07T06:47:02.376Z","","","","AttribQ","","","","","","","","","","","50","","","","","","","","","","","","","","","","","","","","","","","","","","",""
"4843","","<div style=""width:500px;"">
  <p>How much control did you have over the ball?</p>
  </div>","91","html-slider-response","70","738260","0.0-7.0-2.11","224","1","2025-08-07 06:34:48","36c45c0696341be0efffe67d72a12abb","41.74.177.238","Mozilla/5.0 (Windows NT 10.0; Win64; x64) AppleWebKit/537.36 (KHTML, like Gecko) Chrome/138.0.0.0 Safari/537.36","WebKit","Chrome","138.0.0.0","Windows","10.0","https://app.prolific.com/","en-US,en;q=0.9","6122f45e2e93a3ff9a7b7a5d","6877649eabb845cf142cd221","689448fe4c783100c121ac78","1","6122f45e2e93a3ff9a7b7a5d","1","2025-08-07T06:47:07.220Z","","","","ControlQ","","","","","","","","","","","50","","","","","","","","","","","","","","","","","","","","","","","","","","",""
"2531","","<div style=""width:500px;"">
  <p>How would you describe your current emotional state?</p>
  </div>","17","html-slider-response","71","740794","0.0-7.0-3.11","224","1","2025-08-07 06:34:48","36c45c0696341be0efffe67d72a12abb","41.74.177.238","Mozilla/5.0 (Windows NT 10.0; Win64; x64) AppleWebKit/537.36 (KHTML, like Gecko) Chrome/138.0.0.0 Safari/537.36","WebKit","Chrome","138.0.0.0","Windows","10.0","https://app.prolific.com/","en-US,en;q=0.9","6122f45e2e93a3ff9a7b7a5d","6877649eabb845cf142cd221","689448fe4c783100c121ac78","1","6122f45e2e93a3ff9a7b7a5d","1","2025-08-07T06:47:09.754Z","","","","StressQ","","","","","","","","","","","50","","","","","","","","","","","","","","","","","","","","","","","","","","",""
"2115","","<div style=""width:500px;"">
  <p>What best describes how you currently feel?</p>
  </div>","15","html-slider-response","72","742910","0.0-7.0-4.11","224","1","2025-08-07 06:34:48","36c45c0696341be0efffe67d72a12abb","41.74.177.238","Mozilla/5.0 (Windows NT 10.0; Win64; x64) AppleWebKit/537.36 (KHTML, like Gecko) Chrome/138.0.0.0 Safari/537.36","WebKit","Chrome","138.0.0.0","Windows","10.0","https://app.prolific.com/","en-US,en;q=0.9","6122f45e2e93a3ff9a7b7a5d","6877649eabb845cf142cd221","689448fe4c783100c121ac78","1","6122f45e2e93a3ff9a7b7a5d","1","2025-08-07T06:47:11.870Z","","","","MotivationQ","","","","","","","","","","","50","","","","","","","","","","","","","","","","","","","","","","","","","","",""
"","","","","ctl-task-cpt","73","761241","0.0-7.0-0.12","224","1","2025-08-07 06:34:48","36c45c0696341be0efffe67d72a12abb","41.74.177.238","Mozilla/5.0 (Windows NT 10.0; Win64; x64) AppleWebKit/537.36 (KHTML, like Gecko) Chrome/138.0.0.0 Safari/537.36","WebKit","Chrome","138.0.0.0","Windows","10.0","https://app.prolific.com/","en-US,en;q=0.9","6122f45e2e93a3ff9a7b7a5d","6877649eabb845cf142cd221","689448fe4c783100c121ac78","1","6122f45e2e93a3ff9a7b7a5d","1","2025-08-07T06:47:30.202Z","","","","","","","","","","","","","","","","win-only","1","g1:NE,g2:SW","0.8","13","0","744624.8","1001.7","6011.8","15306.6","1","4","8","6","1","1","0","2","2","0.015151515151515152","1181.2","3000","1950","[""up"",""right""]","{""num_key_presses"":4,""num_perfect"":2,""num_errors"":1,""num_randdir"":1,""num_randdir_good_moves"":1,""num_whilered"":0,""num_whileblue"":1,""num_blue"":1,""num_good_moves"":4}","[416.57142857142856,404.1808016640799,0.4,416.57142857142856,404.1808016640799,106.6,416.57142857142856,404.1808016640799,222.8,416.57142857142856,404.1808016640799,323,413.57142857142856,404.1808016640799,427.4,449.57142857142856,408.6808016640799,530.1,602.5714285714286,182.18080166407992,641.4,653.5714285714286,89.18080166407994,746,671.5714285714286,77.18080166407994,852.1,694.0714285714286,95.18080166407994,959.5,719.5714285714286,96.68080166407994,1067.1,719.5714285714286,96.68080166407994,1171.4,719.5714285714286,96.68080166407994,1273.6,719.5714285714286,96.68080166407994,1381,767.5714285714286,153.68080166407992,1485.1,1210.0714285714287,293.1808016640799,1594.4,1337.5714285714287,345.6808016640799,1702.6,1331.5714285714287,347.1808016640799,1805.5,1331.5714285714287,344.1808016640799,1910.3,1331.5714285714287,344.1808016640799,2016.1,1331.5714285714287,344.1808016640799,2120.3,1331.5714285714287,344.1808016640799,2229.2,1331.5714285714287,344.1808016640799,2334.2,1331.5714285714287,344.1808016640799,2435,1331.5714285714287,344.1808016640799,2545.1,1331.5714285714287,344.1808016640799,2645.4,1331.5714285714287,344.1808016640799,2749.8,1331.5714285714287,344.1808016640799,2850.3,1331.5714285714287,344.1808016640799,2957.5,1331.5714285714287,344.1808016640799,3061.7,1331.5714285714287,344.1808016640799,3162.5,1331.5714285714287,344.1808016640799,3263.3,1331.5714285714287,344.1808016640799,3363.9,1331.5714285714287,344.1808016640799,3464.1,1331.5714285714287,344.1808016640799,3564.7,1331.5714285714287,344.1808016640799,3680.5,1331.5714285714287,344.1808016640799,3785.1,1331.5714285714287,344.1808016640799,3894.7,1331.5714285714287,344.1808016640799,4000.3,1331.5714285714287,344.1808016640799,4113.8,1331.5714285714287,344.1808016640799,4220.1,1331.5714285714287,344.1808016640799,4327.3,1331.5714285714287,344.1808016640799,4428,1331.5714285714287,344.1808016640799,4530,1331.5714285714287,344.1808016640799,4635.7,1331.5714285714287,344.1808016640799,4744.6,1331.5714285714287,344.1808016640799,4850.4,1331.5714285714287,344.1808016640799,4956.9]","[1609.8,1609.8,1000,0,609.8,""smooth"",""up"",""up"",""good_move"",4348.7,2737.4,2318.9,1611.4,418.5,""smooth"",""up"",""up"",""good_move"",6217.1,1868.1,1453.5,4349,414.6,""oops"",""right"",""right"",""good_move"",9177.8,2960.5,2601.8,6217.3,358.7,""while_blue"",""right"",""right"",""good_move""]"
"3481","","<div style=""width:500px;"">
  <p>What determined the result of this run?</p>
  </div>","94","html-slider-response","74","764724","0.0-7.0-1.12","224","1","2025-08-07 06:34:48","36c45c0696341be0efffe67d72a12abb","41.74.177.238","Mozilla/5.0 (Windows NT 10.0; Win64; x64) AppleWebKit/537.36 (KHTML, like Gecko) Chrome/138.0.0.0 Safari/537.36","WebKit","Chrome","138.0.0.0","Windows","10.0","https://app.prolific.com/","en-US,en;q=0.9","6122f45e2e93a3ff9a7b7a5d","6877649eabb845cf142cd221","689448fe4c783100c121ac78","1","6122f45e2e93a3ff9a7b7a5d","1","2025-08-07T06:47:33.684Z","","","","AttribQ","","","","","","","","","","","50","","","","","","","","","","","","","","","","","","","","","","","","","","",""
"5751","","<div style=""width:500px;"">
  <p>How much control did you have over the ball?</p>
  </div>","89","html-slider-response","75","770476","0.0-7.0-2.12","224","1","2025-08-07 06:34:48","36c45c0696341be0efffe67d72a12abb","41.74.177.238","Mozilla/5.0 (Windows NT 10.0; Win64; x64) AppleWebKit/537.36 (KHTML, like Gecko) Chrome/138.0.0.0 Safari/537.36","WebKit","Chrome","138.0.0.0","Windows","10.0","https://app.prolific.com/","en-US,en;q=0.9","6122f45e2e93a3ff9a7b7a5d","6877649eabb845cf142cd221","689448fe4c783100c121ac78","1","6122f45e2e93a3ff9a7b7a5d","1","2025-08-07T06:47:39.436Z","","","","ControlQ","","","","","","","","","","","50","","","","","","","","","","","","","","","","","","","","","","","","","","",""
"2576","","<div style=""width:500px;"">
  <p>How would you describe your current emotional state?</p>
  </div>","17","html-slider-response","76","773053","0.0-7.0-3.12","224","1","2025-08-07 06:34:48","36c45c0696341be0efffe67d72a12abb","41.74.177.238","Mozilla/5.0 (Windows NT 10.0; Win64; x64) AppleWebKit/537.36 (KHTML, like Gecko) Chrome/138.0.0.0 Safari/537.36","WebKit","Chrome","138.0.0.0","Windows","10.0","https://app.prolific.com/","en-US,en;q=0.9","6122f45e2e93a3ff9a7b7a5d","6877649eabb845cf142cd221","689448fe4c783100c121ac78","1","6122f45e2e93a3ff9a7b7a5d","1","2025-08-07T06:47:42.013Z","","","","StressQ","","","","","","","","","","","50","","","","","","","","","","","","","","","","","","","","","","","","","","",""
"3151","","<div style=""width:500px;"">
  <p>What best describes how you currently feel?</p>
  </div>","14","html-slider-response","77","776205","0.0-7.0-4.12","224","1","2025-08-07 06:34:48","36c45c0696341be0efffe67d72a12abb","41.74.177.238","Mozilla/5.0 (Windows NT 10.0; Win64; x64) AppleWebKit/537.36 (KHTML, like Gecko) Chrome/138.0.0.0 Safari/537.36","WebKit","Chrome","138.0.0.0","Windows","10.0","https://app.prolific.com/","en-US,en;q=0.9","6122f45e2e93a3ff9a7b7a5d","6877649eabb845cf142cd221","689448fe4c783100c121ac78","1","6122f45e2e93a3ff9a7b7a5d","1","2025-08-07T06:47:45.165Z","","","","MotivationQ","","","","","","","","","","","50","","","","","","","","","","","","","","","","","","","","","","","","","","",""
"","","","","ctl-task-cpt","78","809628","0.0-7.0-0.13","224","1","2025-08-07 06:34:48","36c45c0696341be0efffe67d72a12abb","41.74.177.238","Mozilla/5.0 (Windows NT 10.0; Win64; x64) AppleWebKit/537.36 (KHTML, like Gecko) Chrome/138.0.0.0 Safari/537.36","WebKit","Chrome","138.0.0.0","Windows","10.0","https://app.prolific.com/","en-US,en;q=0.9","6122f45e2e93a3ff9a7b7a5d","6877649eabb845cf142cd221","689448fe4c783100c121ac78","1","6122f45e2e93a3ff9a7b7a5d","1","2025-08-07T06:48:18.588Z","","","","","","","","","","","","","","","","win-only","3","g1:SW,g2:NE","0.9","14","0","777920.2","1100.8","6106.6","30400.4","1","4","4","6","2","4","4","6","2","0.045454545454545456","1348.3","3000","950","[""up"",""right""]","{""num_key_presses"":6,""num_perfect"":6,""num_errors"":0,""num_randdir"":0,""num_randdir_good_moves"":0,""num_whilered"":0,""num_whileblue"":0,""num_blue"":2,""num_good_moves"":6}","[413.57142857142856,408.6808016640799,0.2,413.57142857142856,408.6808016640799,101.3,413.57142857142856,408.6808016640799,201.6,413.57142857142856,408.6808016640799,304.9,413.57142857142856,410.1808016640799,405.3,413.57142857142856,410.1808016640799,507.4,430.07142857142856,389.1808016640799,608.7,469.07142857142856,359.1808016640799,714.3,628.0714285714286,224.18080166407992,818.3,733.0714285714286,93.68080166407994,926.1,731.5714285714286,93.68080166407994,1029.8,730.0714285714286,93.68080166407994,1133.2,730.0714285714286,93.68080166407994,1236.4,730.0714285714286,93.68080166407994,1341.4,728.5714285714286,96.68080166407994,1445.1,728.5714285714286,96.68080166407994,1549.4,784.0714285714286,159.68080166407992,1654.7,1120.0714285714287,230.18080166407992,1755.7,1303.0714285714287,278.1808016640799,1862.1,1304.5714285714287,276.6808016640799,1966.2,1304.5714285714287,276.6808016640799,2069.1,1304.5714285714287,276.6808016640799,2171.7,1304.5714285714287,276.6808016640799,2277.2,1304.5714285714287,276.6808016640799,2383,1304.5714285714287,276.6808016640799,2484.7,1304.5714285714287,276.6808016640799,2586.5,1304.5714285714287,276.6808016640799,2692.1,1304.5714285714287,276.6808016640799,2801,1304.5714285714287,276.6808016640799,2901.1,1304.5714285714287,276.6808016640799,3001.2,1304.5714285714287,276.6808016640799,3102.6,1304.5714285714287,276.6808016640799,3204.8,1304.5714285714287,276.6808016640799,3304.9,1304.5714285714287,276.6808016640799,3406.9,1304.5714285714287,276.6808016640799,3511.3,1304.5714285714287,276.6808016640799,3612.2,1304.5714285714287,276.6808016640799,3712.7,1304.5714285714287,276.6808016640799,3812.7,1304.5714285714287,276.6808016640799,3915.7,1304.5714285714287,276.6808016640799,4017.5,1304.5714285714287,276.6808016640799,4120.9,1304.5714285714287,276.6808016640799,4234.8,1304.5714285714287,276.6808016640799,4334.8,1304.5714285714287,276.6808016640799,4435.1,1304.5714285714287,276.6808016640799,4537.4,1304.5714285714287,276.6808016640799,4651.5,1304.5714285714287,276.6808016640799,4756.7,1304.5714285714287,276.6808016640799,4873.8,1304.5714285714287,276.6808016640799,4981.3]","[1714.4,1714.4,1000,0,714.5,""smooth"",""up"",""up"",""good_move"",5126.4,3411.6,2940.4,1714.8,471.2,""smooth"",""up"",""up"",""good_move"",11882.3,6755.5,2665.4,8749.1,467.8,""smooth"",""up"",""up"",""good_move"",14976.1,3093.6,2637.1,11882.5,456.5,""smooth"",""right"",""right"",""good_move"",20793.4,5816.9,2156.3,18160.5,476.6,""smooth"",""right"",""right"",""good_move"",24161.5,3367.7,2909,20793.8,458.7,""smooth"",""right"",""right"",""good_move""]"
"2487","","<div style=""width:500px;"">
  <p>What determined the result of this run?</p>
