"rt","response_timestamp","stimulus","response","trial_type","trial_index","time_elapsed","internal_node_id","run_id","condition","recorded_at","source_code_version","ip","user_agent","device","browser","browser_version","platform","platform_version","referer","accept_language","PROLIFIC_PID","STUDY_ID","SESSION_ID","BATCH","prolific_id","batch","realtime","success","question_order","question_id","eventType","responses","item_order","radio_event_ids","radio_event_times","key_event_times","mouse_event_times","straightlining","zigzagging","honeypot","view_history","slider_start","which_type","canvas_config","goals_layout","control_level","trial_number","tutorial_trial_number","trial_start_time","phase1_start_time","phase2_start_time","phase3_start_time","goal_1_value","goal_1_distance","goal_2_value","goal_2_distance","goal_selected","outcome","outcome_total","participant_final_score","participant_initial_score","participant_final_score_prop","goal_choice_rt","allocated_time","allocated_time_remaining","goal_direction","counts","mouse_movements","key_presses"
"70972","1753891791625","<p style='font-size:40px;line-height:1.25'><strong>Welcome to the experiment!</strong></p><p style='font-size:1.1em;line-height:1.25'>Thank you for participanting in our experiment again! You will be asked to play the Dysfunctional Ball Game again. We will briefly recap the rules before we start.</p><p style='font-size:1.1em;line-height:1.25'>Press <strong>Next</strong> to continue.</p>","0","custom-html-button-response","0","70974","0.0-0.0","101","1","2025-07-30 16:08:40","36c45c0696341be0efffe67d72a12abb","102.39.105.40","Mozilla/5.0 (Windows NT 10.0; Win64; x64) AppleWebKit/537.36 (KHTML, like Gecko) Chrome/138.0.0.0 Safari/537.36","WebKit","Chrome","138.0.0.0","Windows","10.0","https://app.prolific.com/","en-ZA,en-GB;q=0.9,en-US;q=0.8,en;q=0.7","61248a51eefb6797024ecb85","683dba9a53627eb9ab41b36a","688a437cea34918a29f7ba38","0","61248a51eefb6797024ecb85","0","2025-07-30T16:09:51.626Z","","","","","","","","","","","","","","","","","","","","","","","","","","","","","","","","","","","","","","","","","",""
"10943","","","","fullscreen","1","82922","0.0-1.0","101","1","2025-07-30 16:08:40","36c45c0696341be0efffe67d72a12abb","102.39.105.40","Mozilla/5.0 (Windows NT 10.0; Win64; x64) AppleWebKit/537.36 (KHTML, like Gecko) Chrome/138.0.0.0 Safari/537.36","WebKit","Chrome","138.0.0.0","Windows","10.0","https://app.prolific.com/","en-ZA,en-GB;q=0.9,en-US;q=0.8,en;q=0.7","61248a51eefb6797024ecb85","683dba9a53627eb9ab41b36a","688a437cea34918a29f7ba38","0","61248a51eefb6797024ecb85","0","","true","","","","","","","","","","","","","","","","","","","","","","","","","","","","","","","","","","","","","","","","",""
"1872","1753891805447"," <p style='font-size:1.1em;line-height:1.25'>Thank you for closing all other tabs.</p><p style='font-size:1.1em;line-height:1.25'>We will now invite you to fill in some questionnaires, before starting the game.<br>This will take about 5 minutes.<br></p><p style='font-size:1.1em;line-height:1.25'>Press the <strong>Next</strong> button to continue.</p>","0","custom-html-button-response","2","84795","0.0-2.0","101","1","2025-07-30 16:08:40","36c45c0696341be0efffe67d72a12abb","102.39.105.40","Mozilla/5.0 (Windows NT 10.0; Win64; x64) AppleWebKit/537.36 (KHTML, like Gecko) Chrome/138.0.0.0 Safari/537.36","WebKit","Chrome","138.0.0.0","Windows","10.0","https://app.prolific.com/","en-ZA,en-GB;q=0.9,en-US;q=0.8,en;q=0.7","61248a51eefb6797024ecb85","683dba9a53627eb9ab41b36a","688a437cea34918a29f7ba38","0","61248a51eefb6797024ecb85","0","2025-07-30T16:10:05.447Z","","","","","","","","","","","","","","","","","","","","","","","","","","","","","","","","","","","","","","","","","",""
"2443","","","{""assigned_sex"":""female""}","survey-multi-choice","3","87244","0.0-3.0-0.0","101","1","2025-07-30 16:08:40","36c45c0696341be0efffe67d72a12abb","102.39.105.40","Mozilla/5.0 (Windows NT 10.0; Win64; x64) AppleWebKit/537.36 (KHTML, like Gecko) Chrome/138.0.0.0 Safari/537.36","WebKit","Chrome","138.0.0.0","Windows","10.0","https://app.prolific.com/","en-ZA,en-GB;q=0.9,en-US;q=0.8,en;q=0.7","61248a51eefb6797024ecb85","683dba9a53627eb9ab41b36a","688a437cea34918a29f7ba38","0","61248a51eefb6797024ecb85","0","","","[0]","0","demographics","","","","","","","","","","","","","","","","","","","","","","","","","","","","","","","","","","","","","",""
"2982","1753891810880","<p style='font-size:1.1em;line-height:1.25'>In the following, we will perform a baseline assessment. This means that we will ask you a few questions relating to your experiences over the past month.<br></p><p style='font-size:1.1em;line-height:1.25'>Press the <strong>Next</strong> button to continue.</p>","0","custom-html-button-response","4","90228","0.0-4.0-0.0","101","1","2025-07-30 16:08:40","36c45c0696341be0efffe67d72a12abb","102.39.105.40","Mozilla/5.0 (Windows NT 10.0; Win64; x64) AppleWebKit/537.36 (KHTML, like Gecko) Chrome/138.0.0.0 Safari/537.36","WebKit","Chrome","138.0.0.0","Windows","10.0","https://app.prolific.com/","en-ZA,en-GB;q=0.9,en-US;q=0.8,en;q=0.7","61248a51eefb6797024ecb85","683dba9a53627eb9ab41b36a","688a437cea34918a29f7ba38","0","61248a51eefb6797024ecb85","0","2025-07-30T16:10:10.880Z","","","","","","","","","","","","","","","","","","","","","","","","","","","","","","","","","","","","","","","","","",""
"49368.60000002384","","","","survey-template","5","139605","0.0-4.0-1.0","101","1","2025-07-30 16:08:40","36c45c0696341be0efffe67d72a12abb","102.39.105.40","Mozilla/5.0 (Windows NT 10.0; Win64; x64) AppleWebKit/537.36 (KHTML, like Gecko) Chrome/138.0.0.0 Safari/537.36","WebKit","Chrome","138.0.0.0","Windows","10.0","https://app.prolific.com/","en-ZA,en-GB;q=0.9,en-US;q=0.8,en;q=0.7","61248a51eefb6797024ecb85","683dba9a53627eb9ab41b36a","688a437cea34918a29f7ba38","0","61248a51eefb6797024ecb85","0","2025-07-30T16:11:00.257Z","","","","pss","{""Q01"":""4"",""Q02"":""4"",""Q03"":""4"",""Q04"":""3"",""Q05"":""3"",""Q06"":""4"",""Q07"":""4"",""Q08"":""4"",""Q09"":""4"",""Q10"":""4""}","[0,1,2,3,4,5,6,7,8,9]","[""Q01"",""Q02"",""Q03"",""Q04"",""Q05"",""Q06"",""Q06"",""Q07"",""Q08"",""Q09"",""Q10""]","[4393.600000023842,8080.900000035763,9660.5,16678.600000023842,20074.5,28315.30000001192,30327.600000023842,35873.90000003576,39765.90000003576,43974,48719.90000003576]","[]","[0,4393.600000023842,8080.900000035763,9660.5,15020.900000035763,16678.600000023842,20074.5,28315.30000001192,30327.600000023842,34695.80000001192,35487.60000002384,35873.90000003576,39765.90000003576,43974,48719.90000003576,49361.69999998808]","0.6","0.2222222222222222","0","","","","","","","","","","","","","","","","","","","","","","","","","","","","",""
"1358","1753891861616","<p style='font-size:1.1em;line-height:1.25'>Thank you for your answers! Now we will ask you a few more questions relating to your feelings in the last 24 hours.<br></p><p style='font-size:1.1em;line-height:1.25'>Press the <strong>Next</strong> button to continue.</p>","0","custom-html-button-response","6","140965","0.0-4.0-2.0","101","1","2025-07-30 16:08:40","36c45c0696341be0efffe67d72a12abb","102.39.105.40","Mozilla/5.0 (Windows NT 10.0; Win64; x64) AppleWebKit/537.36 (KHTML, like Gecko) Chrome/138.0.0.0 Safari/537.36","WebKit","Chrome","138.0.0.0","Windows","10.0","https://app.prolific.com/","en-ZA,en-GB;q=0.9,en-US;q=0.8,en;q=0.7","61248a51eefb6797024ecb85","683dba9a53627eb9ab41b36a","688a437cea34918a29f7ba38","0","61248a51eefb6797024ecb85","0","2025-07-30T16:11:01.617Z","","","","","","","","","","","","","","","","","","","","","","","","","","","","","","","","","","","","","","","","","",""
"116113.69999998808","","","","survey-template","7","257083","0.0-4.0-3.0","101","1","2025-07-30 16:08:40","36c45c0696341be0efffe67d72a12abb","102.39.105.40","Mozilla/5.0 (Windows NT 10.0; Win64; x64) AppleWebKit/537.36 (KHTML, like Gecko) Chrome/138.0.0.0 Safari/537.36","WebKit","Chrome","138.0.0.0","Windows","10.0","https://app.prolific.com/","en-ZA,en-GB;q=0.9,en-US;q=0.8,en;q=0.7","61248a51eefb6797024ecb85","683dba9a53627eb9ab41b36a","688a437cea34918a29f7ba38","0","61248a51eefb6797024ecb85","0","2025-07-30T16:12:57.737Z","","","","drsp","{""Q01"":""2"",""Q02"":""5"",""Q03"":""2"",""Q04"":""5"",""Q05"":""0"",""Q06"":""5"",""Q07"":""4"",""Q08"":""1"",""Q09"":""4"",""Q10"":""3"",""Q11"":""4"",""Q12"":""5"",""Q13"":""5"",""Q14"":""0"",""Q15"":""4"",""Q16"":""0"",""Q17"":""4"",""Q18"":""4"",""Q19"":""0"",""Q20"":""3"",""Q21"":""5"",""Q22"":""4""}","[0,1,2,3,4,5,6,7,8,9,10,11,12,13,14,15,16,17,18,19,20,21]","[""Q01"",""Q02"",""Q03"",""Q04"",""Q05"",""Q01"",""Q02"",""Q02"",""Q03"",""Q05"",""Q06"",""Q07"",""Q08"",""Q09"",""Q10"",""Q11"",""Q12"",""Q13"",""Q14"",""Q15"",""Q16"",""Q17"",""Q18"",""Q20"",""Q21"",""Q22"",""Q19""]","[28989.5,30431.80000001192,31218.899999976158,32402,33539.39999997616,40336.09999996424,42467.59999996424,44126.30000001192,45928.5,50264.09999996424,53683.19999998808,55141.5,61110.30000001192,64611.5,67216.39999997616,69235.39999997616,72056.39999997616,74467.89999997616,76702.19999998808,79714.30000001192,83810.39999997616,86083.69999998808,87726,100948.30000001192,103890.19999998808,108375.80000001192,113037.80000001192]","[]","[0.09999996423721313,6950.800000011921,7111.099999964237,7303.5,8302.899999976158,28989.5,30431.80000001192,31218.899999976158,32402,33076.30000001192,33539.39999997616,40336.09999996424,42467.59999996424,44126.30000001192,45928.5,50264.09999996424,52704.5,53683.19999998808,54580.19999998808,55141.5,61110.30000001192,64611.5,67216.39999997616,69235.39999997616,72056.39999997616,74467.89999997616,76702.19999998808,79714.30000001192,83810.39999997616,85525,86083.69999998808,87726,92013.59999996424,100948.30000001192,103890.19999998808,108375.80000001192,109051.69999998808,113037.80000001192,116106.5]","0.3181818181818182","0.38095238095238093","0","","","","","","","","","","","","","","","","","","","","","","","","","","","","",""
"14925.099999964237","","","","survey-template","8","272012","0.0-4.0-4.0","101","1","2025-07-30 16:08:40","36c45c0696341be0efffe67d72a12abb","102.39.105.40","Mozilla/5.0 (Windows NT 10.0; Win64; x64) AppleWebKit/537.36 (KHTML, like Gecko) Chrome/138.0.0.0 Safari/537.36","WebKit","Chrome","138.0.0.0","Windows","10.0","https://app.prolific.com/","en-ZA,en-GB;q=0.9,en-US;q=0.8,en;q=0.7","61248a51eefb6797024ecb85","683dba9a53627eb9ab41b36a","688a437cea34918a29f7ba38","0","61248a51eefb6797024ecb85","0","2025-07-30T16:13:12.664Z","","","","stress","{""Q01"":""5"",""Q02"":""5"",""Q03"":""1""}","[0,1,2]","[""Q01"",""Q02"",""Q03"",""Q03""]","[7336.899999976158,9116.099999964237,11960.5,14188.699999988079]","[]","[7336.899999976158,9116.099999964237,11960.5,14188.699999988079,14924.300000011921]","0.3333333333333333","1","0","","","","","","","","","","","","","","","","","","","","","","","","","","","","",""
"5161","","","","instructions","9","277174","0.0-5.0-0.0","101","1","2025-07-30 16:08:40","36c45c0696341be0efffe67d72a12abb","102.39.105.40","Mozilla/5.0 (Windows NT 10.0; Win64; x64) AppleWebKit/537.36 (KHTML, like Gecko) Chrome/138.0.0.0 Safari/537.36","WebKit","Chrome","138.0.0.0","Windows","10.0","https://app.prolific.com/","en-ZA,en-GB;q=0.9,en-US;q=0.8,en;q=0.7","61248a51eefb6797024ecb85","683dba9a53627eb9ab41b36a","688a437cea34918a29f7ba38","0","61248a51eefb6797024ecb85","0","","","","","","","","","","","","","","","[{""page_index"":0,""viewing_time"":5161}]","","","","","","","","","","","","","","","","","","","","","","","","","","","",""
"46060","","<p>Before you start with this game please answer the following three questions yourself. </p>
  <p>Through this game, we measure several aspects of your cognitive performance, such as reaction times, multi-tasking capabilities </p>
  <p>and the ability to assess the situation you are in.</p>
  <p></p>
  <p><b>How good do you usually are in such tasks?</b></p>","30","html-slider-response","10","323237","0.0-6.0-0.0","101","1","2025-07-30 16:08:40","36c45c0696341be0efffe67d72a12abb","102.39.105.40","Mozilla/5.0 (Windows NT 10.0; Win64; x64) AppleWebKit/537.36 (KHTML, like Gecko) Chrome/138.0.0.0 Safari/537.36","WebKit","Chrome","138.0.0.0","Windows","10.0","https://app.prolific.com/","en-ZA,en-GB;q=0.9,en-US;q=0.8,en;q=0.7","61248a51eefb6797024ecb85","683dba9a53627eb9ab41b36a","688a437cea34918a29f7ba38","0","61248a51eefb6797024ecb85","0","2025-07-30T16:14:03.889Z","","","","PreSkillQ","","","","","","","","","","","50","","","","","","","","","","","","","","","","","","","","","","","","","","",""
"4882","","<div style=""width:500px;"">
  <p>How well do you think you will perform in this task compared to other participants?</p>
  </div>","78","html-slider-response","11","328121","0.0-6.0-1.0","101","1","2025-07-30 16:08:40","36c45c0696341be0efffe67d72a12abb","102.39.105.40","Mozilla/5.0 (Windows NT 10.0; Win64; x64) AppleWebKit/537.36 (KHTML, like Gecko) Chrome/138.0.0.0 Safari/537.36","WebKit","Chrome","138.0.0.0","Windows","10.0","https://app.prolific.com/","en-ZA,en-GB;q=0.9,en-US;q=0.8,en;q=0.7","61248a51eefb6797024ecb85","683dba9a53627eb9ab41b36a","688a437cea34918a29f7ba38","0","61248a51eefb6797024ecb85","0","2025-07-30T16:14:08.773Z","","","","PrePerfQ","","","","","","","","","","","50","","","","","","","","","","","","","","","","","","","","","","","","","","",""
"3179","","<div style=""width:500px;"">
  <p>What best describes how you currently feel?</p>
  </div>","62","html-slider-response","12","331301","0.0-6.0-2.0","101","1","2025-07-30 16:08:40","36c45c0696341be0efffe67d72a12abb","102.39.105.40","Mozilla/5.0 (Windows NT 10.0; Win64; x64) AppleWebKit/537.36 (KHTML, like Gecko) Chrome/138.0.0.0 Safari/537.36","WebKit","Chrome","138.0.0.0","Windows","10.0","https://app.prolific.com/","en-ZA,en-GB;q=0.9,en-US;q=0.8,en;q=0.7","61248a51eefb6797024ecb85","683dba9a53627eb9ab41b36a","688a437cea34918a29f7ba38","0","61248a51eefb6797024ecb85","0","2025-07-30T16:14:11.953Z","","","","PreMotivationQ","","","","","","","","","","","50","","","","","","","","","","","","","","","","","","","","","","","","","","",""
"","","","","ctl-task-cpt","13","357912","0.0-7.0-0.0","101","1","2025-07-30 16:08:40","36c45c0696341be0efffe67d72a12abb","102.39.105.40","Mozilla/5.0 (Windows NT 10.0; Win64; x64) AppleWebKit/537.36 (KHTML, like Gecko) Chrome/138.0.0.0 Safari/537.36","WebKit","Chrome","138.0.0.0","Windows","10.0","https://app.prolific.com/","en-ZA,en-GB;q=0.9,en-US;q=0.8,en;q=0.7","61248a51eefb6797024ecb85","683dba9a53627eb9ab41b36a","688a437cea34918a29f7ba38","0","61248a51eefb6797024ecb85","0","2025-07-30T16:14:38.564Z","","","","","","","","","","","","","","","","win-only","1","g1:NE,g2:SW","1","1","0","334501.5","1901.5","6901.8","23599.3","1","4","8","6","2","-8","-8","0","0","0","1945.9","3000","-3005","[""down"",""left""]","{""num_key_presses"":4,""num_perfect"":4,""num_errors"":0,""num_randdir"":0,""num_randdir_good_moves"":0,""num_whilered"":0,""num_whileblue"":0,""num_blue"":1,""num_good_moves"":4}","[412.8214133126395,416.57142761775424,0.6,412.8214133126395,416.57142761775424,100.5,412.8214133126395,416.57142761775424,204.7,412.8214133126395,416.57142761775424,305,419.0714133126395,426.57142761775424,404.9,447.8214133126395,420.32142761775424,504.9,506.5714133126395,366.57142761775424,605.1,536.5714133126395,314.07142761775424,710.2,525.3214133126395,304.07142761775424,815,501.5714133126395,312.82142761775424,920.7,481.5714133126395,329.07142761775424,1024.7,476.5714133126395,346.57142761775424,1124.9,476.5714133126395,346.57142761775424,1224.9,476.5714133126395,346.57142761775424,1329.9,476.5714133126395,346.57142761775424,1430.4,410.3214133126395,415.32142761775424,1534.8,191.5714133126395,677.8214276177542,1639.6,166.5714133126395,721.5714276177542,1740.2,119.0714133126395,755.3214276177542,1840.6,96.5714133126395,755.3214276177542,1945.6,95.3214133126395,755.3214276177542,2050.7,95.3214133126395,755.3214276177542,2150.7,95.3214133126395,755.3214276177542,2255.1,95.3214133126395,755.3214276177542,2360.1,95.3214133126395,755.3214276177542,2461.4,95.3214133126395,755.3214276177542,2565.4,95.3214133126395,755.3214276177542,2670.1,95.3214133126395,755.3214276177542,2770.3,95.3214133126395,752.8214276177542,2870.7,96.5714133126395,746.5714276177542,2975.8,97.8214133126395,745.3214276177542,3079.9,97.8214133126395,745.3214276177542,3180.8,97.8214133126395,745.3214276177542,3281.4,99.0714133126395,744.0714276177542,3389.2,99.0714133126395,744.0714276177542,3490.1,99.0714133126395,744.0714276177542,3590.6,100.3214133126395,742.8214276177542,3695,101.5714133126395,741.5714276177542,3795.1,101.5714133126395,741.5714276177542,3895.5,101.5714133126395,741.5714276177542,4000.4,102.8214133126395,739.0714276177542,4105.3,102.8214133126395,739.0714276177542,4210.7,102.8214133126395,739.0714276177542,4314.7,102.8214133126395,739.0714276177542,4415.4,102.8214133126395,739.0714276177542,4519.9,104.0714133126395,739.0714276177542,4625.1,104.0714133126395,739.0714276177542,4731.2,104.0714133126395,739.0714276177542,4835,104.0714133126395,739.0714276177542,4940.7]","[2587.7,2587.7,1000,0,1587.7,""smooth"",""down"",""down"",""good_move"",8699,6110.9,1835.6,6404.5,458.9,""smooth"",""down"",""down"",""good_move"",11484.3,2785,2216.3,8699.3,568.7,""smooth"",""down"",""down"",""good_move"",14328,2843.5,2441.9,11484.6,401.6,""smooth"",""left"",""left"",""good_move""]"
"4093","","<div style=""width:500px;"">
  <p>What determined the result of this run?</p>
  </div>","61","html-slider-response","14","362006","0.0-7.0-1.0","101","1","2025-07-30 16:08:40","36c45c0696341be0efffe67d72a12abb","102.39.105.40","Mozilla/5.0 (Windows NT 10.0; Win64; x64) AppleWebKit/537.36 (KHTML, like Gecko) Chrome/138.0.0.0 Safari/537.36","WebKit","Chrome","138.0.0.0","Windows","10.0","https://app.prolific.com/","en-ZA,en-GB;q=0.9,en-US;q=0.8,en;q=0.7","61248a51eefb6797024ecb85","683dba9a53627eb9ab41b36a","688a437cea34918a29f7ba38","0","61248a51eefb6797024ecb85","0","2025-07-30T16:14:42.658Z","","","","AttribQ","","","","","","","","","","","50","","","","","","","","","","","","","","","","","","","","","","","","","","",""
"5479","","<div style=""width:500px;"">
  <p>How much control did you have over the ball?</p>
  </div>","100","html-slider-response","15","367486","0.0-7.0-2.0","101","1","2025-07-30 16:08:40","36c45c0696341be0efffe67d72a12abb","102.39.105.40","Mozilla/5.0 (Windows NT 10.0; Win64; x64) AppleWebKit/537.36 (KHTML, like Gecko) Chrome/138.0.0.0 Safari/537.36","WebKit","Chrome","138.0.0.0","Windows","10.0","https://app.prolific.com/","en-ZA,en-GB;q=0.9,en-US;q=0.8,en;q=0.7","61248a51eefb6797024ecb85","683dba9a53627eb9ab41b36a","688a437cea34918a29f7ba38","0","61248a51eefb6797024ecb85","0","2025-07-30T16:14:48.138Z","","","","ControlQ","","","","","","","","","","","50","","","","","","","","","","","","","","","","","","","","","","","","","","",""
"3357","","<div style=""width:500px;"">
  <p>How would you describe your current emotional state?</p>
  </div>","0","html-slider-response","16","370844","0.0-7.0-3.0","101","1","2025-07-30 16:08:40","36c45c0696341be0efffe67d72a12abb","102.39.105.40","Mozilla/5.0 (Windows NT 10.0; Win64; x64) AppleWebKit/537.36 (KHTML, like Gecko) Chrome/138.0.0.0 Safari/537.36","WebKit","Chrome","138.0.0.0","Windows","10.0","https://app.prolific.com/","en-ZA,en-GB;q=0.9,en-US;q=0.8,en;q=0.7","61248a51eefb6797024ecb85","683dba9a53627eb9ab41b36a","688a437cea34918a29f7ba38","0","61248a51eefb6797024ecb85","0","2025-07-30T16:14:51.496Z","","","","StressQ","","","","","","","","","","","50","","","","","","","","","","","","","","","","","","","","","","","","","","",""
"2873","","<div style=""width:500px;"">
  <p>What best describes how you currently feel?</p>
  </div>","57","html-slider-response","17","373718","0.0-7.0-4.0","101","1","2025-07-30 16:08:40","36c45c0696341be0efffe67d72a12abb","102.39.105.40","Mozilla/5.0 (Windows NT 10.0; Win64; x64) AppleWebKit/537.36 (KHTML, like Gecko) Chrome/138.0.0.0 Safari/537.36","WebKit","Chrome","138.0.0.0","Windows","10.0","https://app.prolific.com/","en-ZA,en-GB;q=0.9,en-US;q=0.8,en;q=0.7","61248a51eefb6797024ecb85","683dba9a53627eb9ab41b36a","688a437cea34918a29f7ba38","0","61248a51eefb6797024ecb85","0","2025-07-30T16:14:54.370Z","","","","MotivationQ","","","","","","","","","","","50","","","","","","","","","","","","","","","","","","","","","","","","","","",""
"","","","","ctl-task-cpt","18","391639","0.0-7.0-0.1","101","1","2025-07-30 16:08:40","36c45c0696341be0efffe67d72a12abb","102.39.105.40","Mozilla/5.0 (Windows NT 10.0; Win64; x64) AppleWebKit/537.36 (KHTML, like Gecko) Chrome/138.0.0.0 Safari/537.36","WebKit","Chrome","138.0.0.0","Windows","10.0","https://app.prolific.com/","en-ZA,en-GB;q=0.9,en-US;q=0.8,en;q=0.7","61248a51eefb6797024ecb85","683dba9a53627eb9ab41b36a","688a437cea34918a29f7ba38","0","61248a51eefb6797024ecb85","0","2025-07-30T16:15:12.291Z","","","","","","","","","","","","","","","","win-only","0","g1:NW,g2:SE","0.9","2","0","376912.3","921.1","5921.7","14906.1","1","4","4","6","1","1","1","1","0","0.007575757575757576","1617.7","3000","1740","[""left"",""up""]","{""num_key_presses"":4,""num_perfect"":4,""num_errors"":0,""num_randdir"":0,""num_randdir_good_moves"":0,""num_whilered"":0,""num_whileblue"":0,""num_blue"":0,""num_good_moves"":4}","[407.8214133126395,419.07142761775424,0.2,407.8214133126395,419.07142761775424,100,407.8214133126395,419.07142761775424,206.2,407.8214133126395,419.07142761775424,309.8,407.8214133126395,419.07142761775424,414.4,407.8214133126395,419.07142761775424,520.1,407.8214133126395,419.07142761775424,624.5,407.8214133126395,419.07142761775424,724.6,407.8214133126395,419.07142761775424,826.9,407.8214133126395,419.07142761775424,930.1,405.3214133126395,417.82142761775424,1034.5,306.5714133126395,350.32142761775424,1134.7,231.5714133126395,231.57142761775424,1234.7,71.5714133126395,122.82142761775425,1334.8,71.5714133126395,114.07142761775425,1435.1,84.0714133126395,104.07142761775425,1540.3,84.0714133126395,104.07142761775425,1645.3,84.0714133126395,104.07142761775425,1749.9,84.0714133126395,104.07142761775425,1854.8,84.0714133126395,104.07142761775425,1955.1,179.0714133126395,186.57142761775424,2056,642.8214133126395,292.82142761775424,2156,706.5714133126395,301.57142761775424,2256,706.5714133126395,301.57142761775424,2359.9,706.5714133126395,301.57142761775424,2464.3,706.5714133126395,301.57142761775424,2565.4,706.5714133126395,301.57142761775424,2669.1,706.5714133126395,301.57142761775424,2770.4,706.5714133126395,301.57142761775424,2874.9,706.5714133126395,301.57142761775424,2980.5,706.5714133126395,301.57142761775424,3084.9,706.5714133126395,301.57142761775424,3185.5,706.5714133126395,301.57142761775424,3290.3,706.5714133126395,301.57142761775424,3394.3,706.5714133126395,301.57142761775424,3494.5,706.5714133126395,301.57142761775424,3595.1,706.5714133126395,301.57142761775424,3700.5,706.5714133126395,301.57142761775424,3805,706.5714133126395,301.57142761775424,3905,706.5714133126395,301.57142761775424,4006,706.5714133126395,301.57142761775424,4110.4,706.5714133126395,301.57142761775424,4210.5,706.5714133126395,301.57142761775424,4314.5,706.5714133126395,301.57142761775424,4420.1,706.5714133126395,301.57142761775424,4524.6,706.5714133126395,301.57142761775424,4624.8,706.5714133126395,301.57142761775424,4726.2,706.5714133126395,301.57142761775424,4830.2,706.5714133126395,301.57142761775424,4930.3]","[1304.2,1304.2,1000,0,304.2,""smooth"",""left"",""left"",""good_move"",3838,2533.4,2224.7,1304.6,308.8,""smooth"",""up"",""up"",""good_move"",5913.2,2074.3,1711.7,3838.9,362.6,""smooth"",""left"",""left"",""good_move"",8900.5,2987.1,2676.8,5913.4,310.3,""smooth"",""up"",""up"",""good_move""]"
"3829","","<div style=""width:500px;"">
  <p>What determined the result of this run?</p>
  </div>","100","html-slider-response","19","395470","0.0-7.0-1.1","101","1","2025-07-30 16:08:40","36c45c0696341be0efffe67d72a12abb","102.39.105.40","Mozilla/5.0 (Windows NT 10.0; Win64; x64) AppleWebKit/537.36 (KHTML, like Gecko) Chrome/138.0.0.0 Safari/537.36","WebKit","Chrome","138.0.0.0","Windows","10.0","https://app.prolific.com/","en-ZA,en-GB;q=0.9,en-US;q=0.8,en;q=0.7","61248a51eefb6797024ecb85","683dba9a53627eb9ab41b36a","688a437cea34918a29f7ba38","0","61248a51eefb6797024ecb85","0","2025-07-30T16:15:16.122Z","","","","AttribQ","","","","","","","","","","","50","","","","","","","","","","","","","","","","","","","","","","","","","","",""
"6875","","<div style=""width:500px;"">
  <p>How much control did you have over the ball?</p>
  </div>","100","html-slider-response","20","402346","0.0-7.0-2.1","101","1","2025-07-30 16:08:40","36c45c0696341be0efffe67d72a12abb","102.39.105.40","Mozilla/5.0 (Windows NT 10.0; Win64; x64) AppleWebKit/537.36 (KHTML, like Gecko) Chrome/138.0.0.0 Safari/537.36","WebKit","Chrome","138.0.0.0","Windows","10.0","https://app.prolific.com/","en-ZA,en-GB;q=0.9,en-US;q=0.8,en;q=0.7","61248a51eefb6797024ecb85","683dba9a53627eb9ab41b36a","688a437cea34918a29f7ba38","0","61248a51eefb6797024ecb85","0","2025-07-30T16:15:22.998Z","","","","ControlQ","","","","","","","","","","","50","","","","","","","","","","","","","","","","","","","","","","","","","","",""
"2803","","<div style=""width:500px;"">
  <p>How would you describe your current emotional state?</p>
  </div>","17","html-slider-response","21","405151","0.0-7.0-3.1","101","1","2025-07-30 16:08:40","36c45c0696341be0efffe67d72a12abb","102.39.105.40","Mozilla/5.0 (Windows NT 10.0; Win64; x64) AppleWebKit/537.36 (KHTML, like Gecko) Chrome/138.0.0.0 Safari/537.36","WebKit","Chrome","138.0.0.0","Windows","10.0","https://app.prolific.com/","en-ZA,en-GB;q=0.9,en-US;q=0.8,en;q=0.7","61248a51eefb6797024ecb85","683dba9a53627eb9ab41b36a","688a437cea34918a29f7ba38","0","61248a51eefb6797024ecb85","0","2025-07-30T16:15:25.803Z","","","","StressQ","","","","","","","","","","","50","","","","","","","","","","","","","","","","","","","","","","","","","","",""
"3378","","<div style=""width:500px;"">
  <p>What best describes how you currently feel?</p>
  </div>","67","html-slider-response","22","408530","0.0-7.0-4.1","101","1","2025-07-30 16:08:40","36c45c0696341be0efffe67d72a12abb","102.39.105.40","Mozilla/5.0 (Windows NT 10.0; Win64; x64) AppleWebKit/537.36 (KHTML, like Gecko) Chrome/138.0.0.0 Safari/537.36","WebKit","Chrome","138.0.0.0","Windows","10.0","https://app.prolific.com/","en-ZA,en-GB;q=0.9,en-US;q=0.8,en;q=0.7","61248a51eefb6797024ecb85","683dba9a53627eb9ab41b36a","688a437cea34918a29f7ba38","0","61248a51eefb6797024ecb85","0","2025-07-30T16:15:29.182Z","","","","MotivationQ","","","","","","","","","","","50","","","","","","","","","","","","","","","","","","","","","","","","","","",""
"","","","","ctl-task-cpt","23","432945","0.0-7.0-0.2","101","1","2025-07-30 16:08:40","36c45c0696341be0efffe67d72a12abb","102.39.105.40","Mozilla/5.0 (Windows NT 10.0; Win64; x64) AppleWebKit/537.36 (KHTML, like Gecko) Chrome/138.0.0.0 Safari/537.36","WebKit","Chrome","138.0.0.0","Windows","10.0","https://app.prolific.com/","en-ZA,en-GB;q=0.9,en-US;q=0.8,en;q=0.7","61248a51eefb6797024ecb85","683dba9a53627eb9ab41b36a","688a437cea34918a29f7ba38","0","61248a51eefb6797024ecb85","0","2025-07-30T16:15:53.597Z","","","","","","","","","","","","","","","","win-only","0","g1:NW,g2:SE","0.8","3","0","411725.5","986.3","5990.9","21396.4","1","4","8","6","2","8","7","8","1","0.06060606060606061","865.1","3000","1170","[""down"",""right""]","{""num_key_presses"":6,""num_perfect"":4,""num_errors"":1,""num_randdir"":1,""num_randdir_good_moves"":1,""num_whilered"":0,""num_whileblue"":1,""num_blue"":1,""num_good_moves"":6}","[407.8214133126395,415.32142761775424,0.2,407.8214133126395,415.32142761775424,100.2,407.8214133126395,415.32142761775424,200.2,410.3214133126395,421.57142761775424,300.3,471.5714133126395,507.82142761775424,404.2,591.5714133126395,586.5714276177542,504.4,720.3214133126395,699.0714276177542,609.9,796.5714133126395,741.5714276177542,715.9,802.8214133126395,746.5714276177542,815.9,802.8214133126395,746.5714276177542,920.1,802.8214133126395,746.5714276177542,1026.1,802.8214133126395,746.5714276177542,1130.2,802.8214133126395,746.5714276177542,1234.4,802.8214133126395,746.5714276177542,1339.6,802.8214133126395,746.5714276177542,1439.6,802.8214133126395,746.5714276177542,1544.6,802.8214133126395,746.5714276177542,1646.7,802.8214133126395,747.8214276177542,1750.1,802.8214133126395,747.8214276177542,1850.1,802.8214133126395,747.8214276177542,1950.1,802.8214133126395,747.8214276177542,2055,802.8214133126395,747.8214276177542,2160.8,802.8214133126395,747.8214276177542,2261.6,802.8214133126395,747.8214276177542,2365.5,802.8214133126395,747.8214276177542,2470.2,802.8214133126395,747.8214276177542,2574.1,802.8214133126395,747.8214276177542,2675,802.8214133126395,747.8214276177542,2781.4,802.8214133126395,747.8214276177542,2884.2,802.8214133126395,747.8214276177542,2984.7,802.8214133126395,747.8214276177542,3084.8,802.8214133126395,747.8214276177542,3185.1,802.8214133126395,747.8214276177542,3289.8,802.8214133126395,747.8214276177542,3395.1,802.8214133126395,747.8214276177542,3496,802.8214133126395,747.8214276177542,3600.1,802.8214133126395,747.8214276177542,3704.2,802.8214133126395,747.8214276177542,3805.8,802.8214133126395,747.8214276177542,3909.6,802.8214133126395,747.8214276177542,4009.7,802.8214133126395,747.8214276177542,4109.8,802.8214133126395,747.8214276177542,4210.7,802.8214133126395,747.8214276177542,4315.5,802.8214133126395,747.8214276177542,4419.6,802.8214133126395,747.8214276177542,4519.6,802.8214133126395,747.8214276177542,4624.1,802.8214133126395,747.8214276177542,4724.2,802.8214133126395,747.8214276177542,4824.8,802.8214133126395,747.8214276177542,4929.4]","[1311.1,1311.1,1000,0,311.1,""smooth"",""down"",""down"",""good_move"",4323.9,3012.6,2639.3,1311.3,373.4,""smooth"",""down"",""down"",""good_move"",6773.6,2449.4,2069.6,4324.3,379.8,""oops"",""down"",""right"",""good_move"",9543.1,2768.7,2364.9,6774.5,403.8,""smooth"",""down"",""down"",""good_move"",12271.6,2728.2,2316.6,9543.4,411.6,""smooth"",""right"",""right"",""good_move"",15318.1,3046.1,2692.5,12272,353.6,""while_blue"",""right"",""right"",""good_move""]"
"14715","","<div style=""width:500px;"">
  <p>What determined the result of this run?</p>
  </div>","62","html-slider-response","24","447660","0.0-7.0-1.2","101","1","2025-07-30 16:08:40","36c45c0696341be0efffe67d72a12abb","102.39.105.40","Mozilla/5.0 (Windows NT 10.0; Win64; x64) AppleWebKit/537.36 (KHTML, like Gecko) Chrome/138.0.0.0 Safari/537.36","WebKit","Chrome","138.0.0.0","Windows","10.0","https://app.prolific.com/","en-ZA,en-GB;q=0.9,en-US;q=0.8,en;q=0.7","61248a51eefb6797024ecb85","683dba9a53627eb9ab41b36a","688a437cea34918a29f7ba38","0","61248a51eefb6797024ecb85","0","2025-07-30T16:16:08.312Z","","","","AttribQ","","","","","","","","","","","50","","","","","","","","","","","","","","","","","","","","","","","","","","",""
"39055","","<div style=""width:500px;"">
  <p>How much control did you have over the ball?</p>
  </div>","63","html-slider-response","25","486717","0.0-7.0-2.2","101","1","2025-07-30 16:08:40","36c45c0696341be0efffe67d72a12abb","102.39.105.40","Mozilla/5.0 (Windows NT 10.0; Win64; x64) AppleWebKit/537.36 (KHTML, like Gecko) Chrome/138.0.0.0 Safari/537.36","WebKit","Chrome","138.0.0.0","Windows","10.0","https://app.prolific.com/","en-ZA,en-GB;q=0.9,en-US;q=0.8,en;q=0.7","61248a51eefb6797024ecb85","683dba9a53627eb9ab41b36a","688a437cea34918a29f7ba38","0","61248a51eefb6797024ecb85","0","2025-07-30T16:16:47.369Z","","","","ControlQ","","","","","","","","","","","50","","","","","","","","","","","","","","","","","","","","","","","","","","",""
"27847","","<div style=""width:500px;"">
  <p>How would you describe your current emotional state?</p>
  </div>","38","html-slider-response","26","514566","0.0-7.0-3.2","101","1","2025-07-30 16:08:40","36c45c0696341be0efffe67d72a12abb","102.39.105.40","Mozilla/5.0 (Windows NT 10.0; Win64; x64) AppleWebKit/537.36 (KHTML, like Gecko) Chrome/138.0.0.0 Safari/537.36","WebKit","Chrome","138.0.0.0","Windows","10.0","https://app.prolific.com/","en-ZA,en-GB;q=0.9,en-US;q=0.8,en;q=0.7","61248a51eefb6797024ecb85","683dba9a53627eb9ab41b36a","688a437cea34918a29f7ba38","0","61248a51eefb6797024ecb85","0","2025-07-30T16:17:15.218Z","","","","StressQ","","","","","","","","","","","50","","","","","","","","","","","","","","","","","","","","","","","","","","",""
"11095","","<div style=""width:500px;"">
  <p>What best describes how you currently feel?</p>
  </div>","64","html-slider-response","27","525662","0.0-7.0-4.2","101","1","2025-07-30 16:08:40","36c45c0696341be0efffe67d72a12abb","102.39.105.40","Mozilla/5.0 (Windows NT 10.0; Win64; x64) AppleWebKit/537.36 (KHTML, like Gecko) Chrome/138.0.0.0 Safari/537.36","WebKit","Chrome","138.0.0.0","Windows","10.0","https://app.prolific.com/","en-ZA,en-GB;q=0.9,en-US;q=0.8,en;q=0.7","61248a51eefb6797024ecb85","683dba9a53627eb9ab41b36a","688a437cea34918a29f7ba38","0","61248a51eefb6797024ecb85","0","2025-07-30T16:17:26.314Z","","","","MotivationQ","","","","","","","","","","","50","","","","","","","","","","","","","","","","","","","","","","","","","","",""
"","","","","ctl-task-cpt","28","555009","0.0-7.0-0.3","101","1","2025-07-30 16:08:40","36c45c0696341be0efffe67d72a12abb","102.39.105.40","Mozilla/5.0 (Windows NT 10.0; Win64; x64) AppleWebKit/537.36 (KHTML, like Gecko) Chrome/138.0.0.0 Safari/537.36","WebKit","Chrome","138.0.0.0","Windows","10.0","https://app.prolific.com/","en-ZA,en-GB;q=0.9,en-US;q=0.8,en;q=0.7","61248a51eefb6797024ecb85","683dba9a53627eb9ab41b36a","688a437cea34918a29f7ba38","0","61248a51eefb6797024ecb85","0","2025-07-30T16:17:55.661Z","","","","","","","","","","","","","","","","win-only","0","g1:NW,g2:SE","0.7","4","0","528859.7","1259.1","6260.6","26324.8","1","4","4","6","2","4","4","12","8","0.09090909090909091","1578.6","3000","590","[""down"",""right""]","{""num_key_presses"":6,""num_perfect"":5,""num_errors"":0,""num_randdir"":1,""num_randdir_good_moves"":1,""num_whilered"":0,""num_whileblue"":0,""num_blue"":1,""num_good_moves"":6}","[416.5714133126395,424.07142761775424,0.1,416.5714133126395,424.07142761775424,102.9,416.5714133126395,424.07142761775424,206.3,416.5714133126395,424.07142761775424,307.2,416.5714133126395,424.07142761775424,407.5,416.5714133126395,424.07142761775424,512.3,384.0714133126395,424.07142761775424,616.8,376.5714133126395,411.57142761775424,723.5,391.5714133126395,371.57142761775424,826.1,391.5714133126395,357.82142761775424,926.8,396.5714133126395,404.07142761775424,1032,684.0714133126395,864.0714276177542,1132.3,796.5714133126395,955.3214276177542,1236.6,790.3214133126395,911.5714276177542,1337.4,770.3214133126395,841.5714276177542,1442.2,757.8214133126395,772.8214276177542,1546.7,757.8214133126395,770.3214276177542,1652.4,757.8214133126395,770.3214276177542,1752.5,757.8214133126395,770.3214276177542,1859.7,757.8214133126395,770.3214276177542,1962.5,757.8214133126395,770.3214276177542,2066.9,757.8214133126395,770.3214276177542,2175.6,757.8214133126395,770.3214276177542,2276.2,757.8214133126395,770.3214276177542,2376.6,757.8214133126395,770.3214276177542,2482.5,757.8214133126395,770.3214276177542,2582.7,757.8214133126395,770.3214276177542,2686.7,757.8214133126395,770.3214276177542,2792.8,757.8214133126395,770.3214276177542,2892.8,757.8214133126395,770.3214276177542,2997,757.8214133126395,770.3214276177542,3097.1,757.8214133126395,770.3214276177542,3201.2,757.8214133126395,770.3214276177542,3302.3,757.8214133126395,770.3214276177542,3406.5,757.8214133126395,770.3214276177542,3507.2,757.8214133126395,770.3214276177542,3612.2,757.8214133126395,770.3214276177542,3713.1,757.8214133126395,770.3214276177542,3816.1,757.8214133126395,770.3214276177542,3916.5,757.8214133126395,770.3214276177542,4016.7,757.8214133126395,770.3214276177542,4117.2,757.8214133126395,770.3214276177542,4225,757.8214133126395,770.3214276177542,4326.7,757.8214133126395,770.3214276177542,4433,757.8214133126395,770.3214276177542,4538.9,757.8214133126395,770.3214276177542,4642.7,757.8214133126395,770.3214276177542,4743,757.8214133126395,770.3214276177542,4846.4,757.8214133126395,770.3214276177542,4951.7]","[1454.5,1454.6,1000,0,454.6,""smooth"",""down"",""down"",""good_move"",4756.7,3301.3,2917.7,1455.4,383.6,""smooth"",""down"",""down"",""good_move"",8220.6,3463.6,3027.1,4757,436.5,""oops"",""down"",""right"",""good_move"",14398.7,6177.6,2333.8,11568.6,496.3,""smooth"",""down"",""down"",""good_move"",17271.2,2872.3,2393.4,14398.9,478.9,""smooth"",""right"",""right"",""good_move"",19967.6,2696.2,2290.6,17271.4,405.6,""smooth"",""right"",""right"",""good_move""]"
"4694","","<div style=""width:500px;"">
  <p>What determined the result of this run?</p>
  </div>","30","html-slider-response","29","559704","0.0-7.0-1.3","101","1","2025-07-30 16:08:40","36c45c0696341be0efffe67d72a12abb","102.39.105.40","Mozilla/5.0 (Windows NT 10.0; Win64; x64) AppleWebKit/537.36 (KHTML, like Gecko) Chrome/138.0.0.0 Safari/537.36","WebKit","Chrome","138.0.0.0","Windows","10.0","https://app.prolific.com/","en-ZA,en-GB;q=0.9,en-US;q=0.8,en;q=0.7","61248a51eefb6797024ecb85","683dba9a53627eb9ab41b36a","688a437cea34918a29f7ba38","0","61248a51eefb6797024ecb85","0","2025-07-30T16:18:00.357Z","","","","AttribQ","","","","","","","","","","","50","","","","","","","","","","","","","","","","","","","","","","","","","","",""
"3049","","<div style=""width:500px;"">
  <p>How much control did you have over the ball?</p>
  </div>","76","html-slider-response","30","562756","0.0-7.0-2.3","101","1","2025-07-30 16:08:40","36c45c0696341be0efffe67d72a12abb","102.39.105.40","Mozilla/5.0 (Windows NT 10.0; Win64; x64) AppleWebKit/537.36 (KHTML, like Gecko) Chrome/138.0.0.0 Safari/537.36","WebKit","Chrome","138.0.0.0","Windows","10.0","https://app.prolific.com/","en-ZA,en-GB;q=0.9,en-US;q=0.8,en;q=0.7","61248a51eefb6797024ecb85","683dba9a53627eb9ab41b36a","688a437cea34918a29f7ba38","0","61248a51eefb6797024ecb85","0","2025-07-30T16:18:03.408Z","","","","ControlQ","","","","","","","","","","","50","","","","","","","","","","","","","","","","","","","","","","","","","","",""
"3557","","<div style=""width:500px;"">
  <p>How would you describe your current emotional state?</p>
  </div>","28","html-slider-response","31","566314","0.0-7.0-3.3","101","1","2025-07-30 16:08:40","36c45c0696341be0efffe67d72a12abb","102.39.105.40","Mozilla/5.0 (Windows NT 10.0; Win64; x64) AppleWebKit/537.36 (KHTML, like Gecko) Chrome/138.0.0.0 Safari/537.36","WebKit","Chrome","138.0.0.0","Windows","10.0","https://app.prolific.com/","en-ZA,en-GB;q=0.9,en-US;q=0.8,en;q=0.7","61248a51eefb6797024ecb85","683dba9a53627eb9ab41b36a","688a437cea34918a29f7ba38","0","61248a51eefb6797024ecb85","0","2025-07-30T16:18:06.966Z","","","","StressQ","","","","","","","","","","","50","","","","","","","","","","","","","","","","","","","","","","","","","","",""
"2954","","<div style=""width:500px;"">
  <p>What best describes how you currently feel?</p>
  </div>","72","html-slider-response","32","569269","0.0-7.0-4.3","101","1","2025-07-30 16:08:40","36c45c0696341be0efffe67d72a12abb","102.39.105.40","Mozilla/5.0 (Windows NT 10.0; Win64; x64) AppleWebKit/537.36 (KHTML, like Gecko) Chrome/138.0.0.0 Safari/537.36","WebKit","Chrome","138.0.0.0","Windows","10.0","https://app.prolific.com/","en-ZA,en-GB;q=0.9,en-US;q=0.8,en;q=0.7","61248a51eefb6797024ecb85","683dba9a53627eb9ab41b36a","688a437cea34918a29f7ba38","0","61248a51eefb6797024ecb85","0","2025-07-30T16:18:09.921Z","","","","MotivationQ","","","","","","","","","","","50","","","","","","","","","","","","","","","","","","","","","","","","","","",""
"","","","","ctl-task-cpt","33","598516","0.0-7.0-0.4","101","1","2025-07-30 16:08:40","36c45c0696341be0efffe67d72a12abb","102.39.105.40","Mozilla/5.0 (Windows NT 10.0; Win64; x64) AppleWebKit/537.36 (KHTML, like Gecko) Chrome/138.0.0.0 Safari/537.36","WebKit","Chrome","138.0.0.0","Windows","10.0","https://app.prolific.com/","en-ZA,en-GB;q=0.9,en-US;q=0.8,en;q=0.7","61248a51eefb6797024ecb85","683dba9a53627eb9ab41b36a","688a437cea34918a29f7ba38","0","61248a51eefb6797024ecb85","0","2025-07-30T16:18:39.168Z","","","","","","","","","","","","","","","","win-only","3","g1:SW,g2:NE","0.6","5","0","572465.7","1295.7","6296.6","26226.2","1","4","4","6","2","-4","-4","8","12","0.06060606060606061","1362.3","3000","-2915","[""up"",""right""]","{""num_key_presses"":6,""num_perfect"":3,""num_errors"":0,""num_randdir"":3,""num_randdir_good_moves"":1,""num_whilered"":0,""num_whileblue"":0,""num_blue"":0,""num_good_moves"":4}","[406.5714133126395,416.57142761775424,0.2,406.5714133126395,416.57142761775424,100.6,406.5714133126395,416.57142761775424,204.9,406.5714133126395,416.57142761775424,312.6,399.0714133126395,420.32142761775424,415.8,371.5714133126395,469.07142761775424,516.1,364.0714133126395,494.07142761775424,617,476.5714133126395,335.32142761775424,720.5,621.5714133126395,185.32142761775424,825.4,639.0714133126395,164.07142761775424,935.1,637.8214133126395,164.07142761775424,1035.8,656.5714133126395,151.57142761775424,1140,721.5714133126395,107.82142761775425,1245.8,726.5714133126395,102.82142761775425,1347.1,726.5714133126395,102.82142761775425,1450.1,726.5714133126395,102.82142761775425,1551.5,726.5714133126395,102.82142761775425,1655.8,726.5714133126395,102.82142761775425,1760.6,726.5714133126395,102.82142761775425,1864.6,726.5714133126395,102.82142761775425,1965.6,726.5714133126395,102.82142761775425,2069.7,726.5714133126395,102.82142761775425,2170.5,726.5714133126395,102.82142761775425,2275.9,726.5714133126395,102.82142761775425,2376,726.5714133126395,102.82142761775425,2476.1,726.5714133126395,102.82142761775425,2581,726.5714133126395,102.82142761775425,2681.4,726.5714133126395,102.82142761775425,2784.7,726.5714133126395,102.82142761775425,2889.5,726.5714133126395,102.82142761775425,2990.2,726.5714133126395,102.82142761775425,3098.4,726.5714133126395,102.82142761775425,3199.9,726.5714133126395,102.82142761775425,3304.9,726.5714133126395,102.82142761775425,3410.7,726.5714133126395,102.82142761775425,3512.5,726.5714133126395,102.82142761775425,3614.1,726.5714133126395,102.82142761775425,3714.7,726.5714133126395,102.82142761775425,3820,726.5714133126395,102.82142761775425,3920.4,726.5714133126395,102.82142761775425,4026.2,726.5714133126395,102.82142761775425,4126.7,726.5714133126395,102.82142761775425,4227.5,726.5714133126395,102.82142761775425,4330.3,726.5714133126395,102.82142761775425,4430.8,726.5714133126395,102.82142761775425,4534.7,726.5714133126395,102.82142761775425,4639.6,726.5714133126395,102.82142761775425,4740.2,726.5714133126395,102.82142761775425,4845.2,726.5714133126395,102.82142761775425,4945.2]","[1400.1,1400.1,1000,0,400.1,""oops"",""right"",""up"",""good_move"",5448.5,4048,3628.7,1400.5,419.3,""smooth"",""right"",""right"",""good_move"",8132.1,2683.1,2202.6,5449,480.5,""smooth"",""up"",""up"",""good_move"",11511.4,3379.1,2940.8,8132.3,438.3,""oops"",""up"",""down"",""bad_move"",14256.1,2744.2,2308.8,11511.9,435.4,""oops"",""right"",""down"",""bad_move"",16531.2,2274.9,1740,14256.3,534.9,""smooth"",""right"",""right"",""good_move""]"
"14583","","<div style=""width:500px;"">
  <p>What determined the result of this run?</p>
  </div>","75","html-slider-response","34","613100","0.0-7.0-1.4","101","1","2025-07-30 16:08:40","36c45c0696341be0efffe67d72a12abb","102.39.105.40","Mozilla/5.0 (Windows NT 10.0; Win64; x64) AppleWebKit/537.36 (KHTML, like Gecko) Chrome/138.0.0.0 Safari/537.36","WebKit","Chrome","138.0.0.0","Windows","10.0","https://app.prolific.com/","en-ZA,en-GB;q=0.9,en-US;q=0.8,en;q=0.7","61248a51eefb6797024ecb85","683dba9a53627eb9ab41b36a","688a437cea34918a29f7ba38","0","61248a51eefb6797024ecb85","0","2025-07-30T16:18:53.752Z","","","","AttribQ","","","","","","","","","","","50","","","","","","","","","","","","","","","","","","","","","","","","","","",""
"3459","","<div style=""width:500px;"">
  <p>How much control did you have over the ball?</p>
  </div>","54","html-slider-response","35","616560","0.0-7.0-2.4","101","1","2025-07-30 16:08:40","36c45c0696341be0efffe67d72a12abb","102.39.105.40","Mozilla/5.0 (Windows NT 10.0; Win64; x64) AppleWebKit/537.36 (KHTML, like Gecko) Chrome/138.0.0.0 Safari/537.36","WebKit","Chrome","138.0.0.0","Windows","10.0","https://app.prolific.com/","en-ZA,en-GB;q=0.9,en-US;q=0.8,en;q=0.7","61248a51eefb6797024ecb85","683dba9a53627eb9ab41b36a","688a437cea34918a29f7ba38","0","61248a51eefb6797024ecb85","0","2025-07-30T16:18:57.212Z","","","","ControlQ","","","","","","","","","","","50","","","","","","","","","","","","","","","","","","","","","","","","","","",""
"3044","","<div style=""width:500px;"">
  <p>How would you describe your current emotional state?</p>
  </div>","5","html-slider-response","36","619604","0.0-7.0-3.4","101","1","2025-07-30 16:08:40","36c45c0696341be0efffe67d72a12abb","102.39.105.40","Mozilla/5.0 (Windows NT 10.0; Win64; x64) AppleWebKit/537.36 (KHTML, like Gecko) Chrome/138.0.0.0 Safari/537.36","WebKit","Chrome","138.0.0.0","Windows","10.0","https://app.prolific.com/","en-ZA,en-GB;q=0.9,en-US;q=0.8,en;q=0.7","61248a51eefb6797024ecb85","683dba9a53627eb9ab41b36a","688a437cea34918a29f7ba38","0","61248a51eefb6797024ecb85","0","2025-07-30T16:19:00.256Z","","","","StressQ","","","","","","","","","","","50","","","","","","","","","","","","","","","","","","","","","","","","","","",""
"4534","","<div style=""width:500px;"">
  <p>What best describes how you currently feel?</p>
  </div>","78","html-slider-response","37","624139","0.0-7.0-4.4","101","1","2025-07-30 16:08:40","36c45c0696341be0efffe67d72a12abb","102.39.105.40","Mozilla/5.0 (Windows NT 10.0; Win64; x64) AppleWebKit/537.36 (KHTML, like Gecko) Chrome/138.0.0.0 Safari/537.36","WebKit","Chrome","138.0.0.0","Windows","10.0","https://app.prolific.com/","en-ZA,en-GB;q=0.9,en-US;q=0.8,en;q=0.7","61248a51eefb6797024ecb85","683dba9a53627eb9ab41b36a","688a437cea34918a29f7ba38","0","61248a51eefb6797024ecb85","0","2025-07-30T16:19:04.792Z","","","","MotivationQ","","","","","","","","","","","50","","","","","","","","","","","","","","","","","","","","","","","","","","",""
"","","","","ctl-task-cpt","38","661243","0.0-7.0-0.5","101","1","2025-07-30 16:08:40","36c45c0696341be0efffe67d72a12abb","102.39.105.40","Mozilla/5.0 (Windows NT 10.0; Win64; x64) AppleWebKit/537.36 (KHTML, like Gecko) Chrome/138.0.0.0 Safari/537.36","WebKit","Chrome","138.0.0.0","Windows","10.0","https://app.prolific.com/","en-ZA,en-GB;q=0.9,en-US;q=0.8,en;q=0.7","61248a51eefb6797024ecb85","683dba9a53627eb9ab41b36a","688a437cea34918a29f7ba38","0","61248a51eefb6797024ecb85","0","2025-07-30T16:19:41.895Z","","","","","","","","","","","","","","","","win-only","0","g1:NW,g2:SE","0.5","6","0","627334.7","1271.1","6275.4","34085.3","1","4","8","6","2","-8","-8","0","8","0","1553.8","3000","-2870","[""down"",""right""]","{""num_key_presses"":7,""num_perfect"":4,""num_errors"":0,""num_randdir"":3,""num_randdir_good_moves"":1,""num_whilered"":0,""num_whileblue"":0,""num_blue"":2,""num_good_moves"":5}","[419.0714133126395,416.57142761775424,0.2,419.0714133126395,416.57142761775424,105.3,419.0714133126395,416.57142761775424,205.9,419.0714133126395,416.57142761775424,306.1,406.5714133126395,416.57142761775424,412.9,340.3214133126395,390.32142761775424,515.5,316.5714133126395,351.57142761775424,619.4,390.3214133126395,357.82142761775424,719.5,550.3214133126395,505.32142761775424,820.1,642.8214133126395,629.0714276177542,920.1,766.5714133126395,761.5714276177542,1025.5,841.5714133126395,812.8214276177542,1125.8,856.5714133126395,816.5714276177542,1230.3,856.5714133126395,816.5714276177542,1343.4,827.8214133126395,800.3214276177542,1445,749.0714133126395,767.8214276177542,1548.4,749.0714133126395,767.8214276177542,1649.6,749.0714133126395,767.8214276177542,1751.8,749.0714133126395,767.8214276177542,1855,749.0714133126395,767.8214276177542,1955.4,767.8214133126395,760.3214276177542,2060.8,801.5714133126395,746.5714276177542,2163.4,835.3214133126395,734.0714276177542,2265.5,856.5714133126395,730.3214276177542,2369.6,856.5714133126395,730.3214276177542,2470,856.5714133126395,730.3214276177542,2570.1,856.5714133126395,730.3214276177542,2670.1,856.5714133126395,730.3214276177542,2776.7,856.5714133126395,730.3214276177542,2880.1,856.5714133126395,730.3214276177542,2984.8,856.5714133126395,730.3214276177542,3086.1,856.5714133126395,730.3214276177542,3191.2,856.5714133126395,730.3214276177542,3295.4,856.5714133126395,730.3214276177542,3395.4,856.5714133126395,730.3214276177542,3495.4,856.5714133126395,730.3214276177542,3600.9,856.5714133126395,730.3214276177542,3705.1,856.5714133126395,730.3214276177542,3814.7,856.5714133126395,730.3214276177542,3915.5,856.5714133126395,730.3214276177542,4019.7,856.5714133126395,730.3214276177542,4125,856.5714133126395,730.3214276177542,4228.7,856.5714133126395,730.3214276177542,4330.3,856.5714133126395,730.3214276177542,4434.5,856.5714133126395,730.3214276177542,4534.5,856.5714133126395,730.3214276177542,4634.7,856.5714133126395,730.3214276177542,4740,856.5714133126395,730.3214276177542,4842.1,856.5714133126395,730.3214276177542,4946.4]","[1487.7,1487.7,1000,0,487.7,""smooth"",""right"",""right"",""good_move"",3740.4,2252.1,1769.5,1488.3,482.6,""smooth"",""down"",""down"",""good_move"",6900.3,3159.6,2769.6,3740.7,390,""oops"",""down"",""right"",""good_move"",12021,5120,1870.6,9861,289.4,""oops"",""right"",""left"",""bad_move"",14996.8,2975.5,2599.5,12021.3,376,""smooth"",""down"",""down"",""good_move"",17854.2,2856.9,2469.5,14997.3,387.4,""smooth"",""down"",""down"",""good_move"",21078.1,3223.7,2683.2,17854.4,540.5,""oops"",""right"",""up"",""bad_move""]"
"58363","","<div style=""width:500px;"">
  <p>What determined the result of this run?</p>
  </div>","27","html-slider-response","39","719607","0.0-7.0-1.5","101","1","2025-07-30 16:08:40","36c45c0696341be0efffe67d72a12abb","102.39.105.40","Mozilla/5.0 (Windows NT 10.0; Win64; x64) AppleWebKit/537.36 (KHTML, like Gecko) Chrome/138.0.0.0 Safari/537.36","WebKit","Chrome","138.0.0.0","Windows","10.0","https://app.prolific.com/","en-ZA,en-GB;q=0.9,en-US;q=0.8,en;q=0.7","61248a51eefb6797024ecb85","683dba9a53627eb9ab41b36a","688a437cea34918a29f7ba38","0","61248a51eefb6797024ecb85","0","2025-07-30T16:20:40.259Z","","","","AttribQ","","","","","","","","","","","50","","","","","","","","","","","","","","","","","","","","","","","","","","",""
"6281","","<div style=""width:500px;"">
  <p>How much control did you have over the ball?</p>
  </div>","7","html-slider-response","40","725889","0.0-7.0-2.5","101","1","2025-07-30 16:08:40","36c45c0696341be0efffe67d72a12abb","102.39.105.40","Mozilla/5.0 (Windows NT 10.0; Win64; x64) AppleWebKit/537.36 (KHTML, like Gecko) Chrome/138.0.0.0 Safari/537.36","WebKit","Chrome","138.0.0.0","Windows","10.0","https://app.prolific.com/","en-ZA,en-GB;q=0.9,en-US;q=0.8,en;q=0.7","61248a51eefb6797024ecb85","683dba9a53627eb9ab41b36a","688a437cea34918a29f7ba38","0","61248a51eefb6797024ecb85","0","2025-07-30T16:20:46.541Z","","","","ControlQ","","","","","","","","","","","50","","","","","","","","","","","","","","","","","","","","","","","","","","",""
"3878","","<div style=""width:500px;"">
  <p>How would you describe your current emotional state?</p>
  </div>","19","html-slider-response","41","729767","0.0-7.0-3.5","101","1","2025-07-30 16:08:40","36c45c0696341be0efffe67d72a12abb","102.39.105.40","Mozilla/5.0 (Windows NT 10.0; Win64; x64) AppleWebKit/537.36 (KHTML, like Gecko) Chrome/138.0.0.0 Safari/537.36","WebKit","Chrome","138.0.0.0","Windows","10.0","https://app.prolific.com/","en-ZA,en-GB;q=0.9,en-US;q=0.8,en;q=0.7","61248a51eefb6797024ecb85","683dba9a53627eb9ab41b36a","688a437cea34918a29f7ba38","0","61248a51eefb6797024ecb85","0","2025-07-30T16:20:50.420Z","","","","StressQ","","","","","","","","","","","50","","","","","","","","","","","","","","","","","","","","","","","","","","",""
"5110","","<div style=""width:500px;"">
  <p>What best describes how you currently feel?</p>
  </div>","65","html-slider-response","42","734879","0.0-7.0-4.5","101","1","2025-07-30 16:08:40","36c45c0696341be0efffe67d72a12abb","102.39.105.40","Mozilla/5.0 (Windows NT 10.0; Win64; x64) AppleWebKit/537.36 (KHTML, like Gecko) Chrome/138.0.0.0 Safari/537.36","WebKit","Chrome","138.0.0.0","Windows","10.0","https://app.prolific.com/","en-ZA,en-GB;q=0.9,en-US;q=0.8,en;q=0.7","61248a51eefb6797024ecb85","683dba9a53627eb9ab41b36a","688a437cea34918a29f7ba38","0","61248a51eefb6797024ecb85","0","2025-07-30T16:20:55.531Z","","","","MotivationQ","","","","","","","","","","","50","","","","","","","","","","","","","","","","","","","","","","","","","","",""
"","","","","ctl-task-cpt","43","754585","0.0-7.0-0.6","101","1","2025-07-30 16:08:40","36c45c0696341be0efffe67d72a12abb","102.39.105.40","Mozilla/5.0 (Windows NT 10.0; Win64; x64) AppleWebKit/537.36 (KHTML, like Gecko) Chrome/138.0.0.0 Safari/537.36","WebKit","Chrome","138.0.0.0","Windows","10.0","https://app.prolific.com/","en-ZA,en-GB;q=0.9,en-US;q=0.8,en;q=0.7","61248a51eefb6797024ecb85","683dba9a53627eb9ab41b36a","688a437cea34918a29f7ba38","0","61248a51eefb6797024ecb85","0","2025-07-30T16:21:15.238Z","","","","","","","","","","","","","","","","win-only","0","g1:NW,g2:SE","0.4","7","0","738074.8","1293","6296.7","16686.5","1","4","8","6","1","1","1","1","0","0.007575757575757576","1287.2","3000","1440","[""left"",""up""]","{""num_key_presses"":4,""num_perfect"":3,""num_errors"":0,""num_randdir"":1,""num_randdir_good_moves"":1,""num_whilered"":0,""num_whileblue"":0,""num_blue"":0,""num_good_moves"":4}","[406.5714133126395,415.32142761775424,0.2,406.5714133126395,415.32142761775424,101.7,406.5714133126395,415.32142761775424,203.3,406.5714133126395,415.32142761775424,303.6,402.8214133126395,415.32142761775424,409.4,321.5714133126395,406.57142761775424,513.8,309.0714133126395,309.07142761775424,621.5,311.5714133126395,300.32142761775424,722.3,291.5714133126395,280.32142761775424,828.6,125.3214133126395,190.32142761775424,937.8,77.8214133126395,126.57142761775425,1038.8,81.5714133126395,92.82142761775425,1139.6,81.5714133126395,89.07142761775425,1243.4,81.5714133126395,87.82142761775425,1354.2,81.5714133126395,87.82142761775425,1458.1,81.5714133126395,87.82142761775425,1558.8,81.5714133126395,87.82142761775425,1658.9,81.5714133126395,87.82142761775425,1762.8,81.5714133126395,87.82142761775425,1865,154.0714133126395,117.82142761775425,1967.5,395.3214133126395,139.07142761775424,2069.7,450.3214133126395,139.07142761775424,2174,450.3214133126395,139.07142761775424,2277.5,450.3214133126395,139.07142761775424,2378.3,450.3214133126395,139.07142761775424,2484.2,450.3214133126395,139.07142761775424,2588.8,450.3214133126395,139.07142761775424,2693.2,450.3214133126395,139.07142761775424,2793.3,450.3214133126395,139.07142761775424,2901.3,450.3214133126395,139.07142761775424,3003.8,450.3214133126395,139.07142761775424,3107.8,450.3214133126395,139.07142761775424,3209.2,450.3214133126395,139.07142761775424,3315.6,450.3214133126395,139.07142761775424,3420.5,450.3214133126395,139.07142761775424,3523.3,450.3214133126395,139.07142761775424,3623.4,450.3214133126395,139.07142761775424,3728.1,450.3214133126395,139.07142761775424,3828.6,450.3214133126395,139.07142761775424,3935.4,450.3214133126395,139.07142761775424,4038.7,450.3214133126395,139.07142761775424,4143,450.3214133126395,139.07142761775424,4243.4,450.3214133126395,139.07142761775424,4352.4,450.3214133126395,139.07142761775424,4453.3,450.3214133126395,139.07142761775424,4558.4,450.3214133126395,139.07142761775424,4665,450.3214133126395,139.07142761775424,4768.8,450.3214133126395,139.07142761775424,4872.4,450.3214133126395,139.07142761775424,4973.5]","[1637.9,1637.9,1000,0,637.9,""oops"",""up"",""left"",""good_move"",4921.6,3283.4,2873.7,1638.2,409.7,""smooth"",""up"",""up"",""good_move"",7589.2,2667.4,2283.4,4921.8,384,""smooth"",""up"",""up"",""good_move"",10274.4,2684.6,2354.4,7589.8,330.2,""smooth"",""left"",""left"",""good_move""]"
"9879","","<div style=""width:500px;"">
  <p>What determined the result of this run?</p>
  </div>","100","html-slider-response","44","764466","0.0-7.0-1.6","101","1","2025-07-30 16:08:40","36c45c0696341be0efffe67d72a12abb","102.39.105.40","Mozilla/5.0 (Windows NT 10.0; Win64; x64) AppleWebKit/537.36 (KHTML, like Gecko) Chrome/138.0.0.0 Safari/537.36","WebKit","Chrome","138.0.0.0","Windows","10.0","https://app.prolific.com/","en-ZA,en-GB;q=0.9,en-US;q=0.8,en;q=0.7","61248a51eefb6797024ecb85","683dba9a53627eb9ab41b36a","688a437cea34918a29f7ba38","0","61248a51eefb6797024ecb85","0","2025-07-30T16:21:25.118Z","","","","AttribQ","","","","","","","","","","","50","","","","","","","","","","","","","","","","","","","","","","","","","","",""
"3243","","<div style=""width:500px;"">
  <p>How much control did you have over the ball?</p>
  </div>","100","html-slider-response","45","767710","0.0-7.0-2.6","101","1","2025-07-30 16:08:40","36c45c0696341be0efffe67d72a12abb","102.39.105.40","Mozilla/5.0 (Windows NT 10.0; Win64; x64) AppleWebKit/537.36 (KHTML, like Gecko) Chrome/138.0.0.0 Safari/537.36","WebKit","Chrome","138.0.0.0","Windows","10.0","https://app.prolific.com/","en-ZA,en-GB;q=0.9,en-US;q=0.8,en;q=0.7","61248a51eefb6797024ecb85","683dba9a53627eb9ab41b36a","688a437cea34918a29f7ba38","0","61248a51eefb6797024ecb85","0","2025-07-30T16:21:28.362Z","","","","ControlQ","","","","","","","","","","","50","","","","","","","","","","","","","","","","","","","","","","","","","","",""
"3933","","<div style=""width:500px;"">
  <p>How would you describe your current emotional state?</p>
  </div>","33","html-slider-response","46","771644","0.0-7.0-3.6","101","1","2025-07-30 16:08:40","36c45c0696341be0efffe67d72a12abb","102.39.105.40","Mozilla/5.0 (Windows NT 10.0; Win64; x64) AppleWebKit/537.36 (KHTML, like Gecko) Chrome/138.0.0.0 Safari/537.36","WebKit","Chrome","138.0.0.0","Windows","10.0","https://app.prolific.com/","en-ZA,en-GB;q=0.9,en-US;q=0.8,en;q=0.7","61248a51eefb6797024ecb85","683dba9a53627eb9ab41b36a","688a437cea34918a29f7ba38","0","61248a51eefb6797024ecb85","0","2025-07-30T16:21:32.296Z","","","","StressQ","","","","","","","","","","","50","","","","","","","","","","","","","","","","","","","","","","","","","","",""
"4518","","<div style=""width:500px;"">
  <p>What best describes how you currently feel?</p>
  </div>","74","html-slider-response","47","776164","0.0-7.0-4.6","101","1","2025-07-30 16:08:40","36c45c0696341be0efffe67d72a12abb","102.39.105.40","Mozilla/5.0 (Windows NT 10.0; Win64; x64) AppleWebKit/537.36 (KHTML, like Gecko) Chrome/138.0.0.0 Safari/537.36","WebKit","Chrome","138.0.0.0","Windows","10.0","https://app.prolific.com/","en-ZA,en-GB;q=0.9,en-US;q=0.8,en;q=0.7","61248a51eefb6797024ecb85","683dba9a53627eb9ab41b36a","688a437cea34918a29f7ba38","0","61248a51eefb6797024ecb85","0","2025-07-30T16:21:36.816Z","","","","MotivationQ","","","","","","","","","","","50","","","","","","","","","","","","","","","","","","","","","","","","","","",""
"","","","","ctl-task-cpt","48","808478","0.0-7.0-0.7","101","1","2025-07-30 16:08:40","36c45c0696341be0efffe67d72a12abb","102.39.105.40","Mozilla/5.0 (Windows NT 10.0; Win64; x64) AppleWebKit/537.36 (KHTML, like Gecko) Chrome/138.0.0.0 Safari/537.36","WebKit","Chrome","138.0.0.0","Windows","10.0","https://app.prolific.com/","en-ZA,en-GB;q=0.9,en-US;q=0.8,en;q=0.7","61248a51eefb6797024ecb85","683dba9a53627eb9ab41b36a","688a437cea34918a29f7ba38","0","61248a51eefb6797024ecb85","0","2025-07-30T16:22:09.130Z","","","","","","","","","","","","","","","","win-only","3","g1:SW,g2:NE","0.3","8","0","779359.2","1126.7","6130.8","29295.3","1","4","4","6","2","-4","-4","0","1","0","1057.2","3000","-2805","[""up"",""right""]","{""num_key_presses"":6,""num_perfect"":2,""num_errors"":0,""num_randdir"":4,""num_randdir_good_moves"":1,""num_whilered"":0,""num_whileblue"":0,""num_blue"":1,""num_good_moves"":3}","[411.5714133126395,410.32142761775424,0.4,411.5714133126395,410.32142761775424,104.3,411.5714133126395,410.32142761775424,209.9,410.3214133126395,410.32142761775424,314.8,407.8214133126395,410.32142761775424,419.7,346.5714133126395,451.57142761775424,524.1,361.5714133126395,444.07142761775424,624.2,659.0714133126395,117.82142761775425,729.2,681.5714133126395,91.57142761775425,834.5,727.8214133126395,66.57142761775425,939.3,737.8214133126395,59.07142761775425,1044,737.8214133126395,59.07142761775425,1150.2,737.8214133126395,59.07142761775425,1253.9,740.3214133126395,65.32142761775425,1359.7,761.5714133126395,95.32142761775425,1459.8,866.5714133126395,157.82142761775424,1566.6,924.0714133126395,266.57142761775424,1670.7,896.5714133126395,397.82142761775424,1774.6,896.5714133126395,446.57142761775424,1884,896.5714133126395,446.57142761775424,1984.9,896.5714133126395,446.57142761775424,2088.9,896.5714133126395,446.57142761775424,2189.5,896.5714133126395,446.57142761775424,2295,896.5714133126395,446.57142761775424,2396.2,896.5714133126395,446.57142761775424,2502.4,896.5714133126395,446.57142761775424,2604.8,896.5714133126395,446.57142761775424,2709.6,896.5714133126395,446.57142761775424,2810.1,896.5714133126395,446.57142761775424,2913.5,896.5714133126395,446.57142761775424,3014.6,896.5714133126395,446.57142761775424,3119.7,896.5714133126395,446.57142761775424,3224.4,896.5714133126395,446.57142761775424,3328.7,896.5714133126395,446.57142761775424,3430.4,896.5714133126395,446.57142761775424,3534.2,896.5714133126395,446.57142761775424,3634.6,896.5714133126395,446.57142761775424,3734.6,896.5714133126395,446.57142761775424,3839.3,896.5714133126395,446.57142761775424,3944.1,896.5714133126395,446.57142761775424,4044.3,896.5714133126395,446.57142761775424,4148.3,896.5714133126395,446.57142761775424,4249.2,896.5714133126395,446.57142761775424,4349.5,896.5714133126395,446.57142761775424,4454.2,896.5714133126395,446.57142761775424,4554.5,896.5714133126395,446.57142761775424,4659.5,896.5714133126395,446.57142761775424,4764.7,896.5714133126395,446.57142761775424,4868.9,896.5714133126395,446.57142761775424,4970.9]","[1372.1,1372.1,1000,0,372.1,""smooth"",""up"",""up"",""good_move"",8675.3,7302.8,3157.8,5085,432.5,""oops"",""up"",""down"",""bad_move"",11419.3,2743.5,2277.4,8675.8,466.1,""smooth"",""right"",""right"",""good_move"",14194.6,2774.8,2278.3,11419.8,496.5,""oops"",""up"",""up"",""good_move"",17654.5,3459.4,3052.6,14195.2,406.8,""oops"",""up"",""down"",""bad_move"",20780.9,3125.9,2614.7,17655,511.2,""oops"",""right"",""left"",""bad_move""]"
"5796","","<div style=""width:500px;"">
  <p>What determined the result of this run?</p>
  </div>","0","html-slider-response","49","814275","0.0-7.0-1.7","101","1","2025-07-30 16:08:40","36c45c0696341be0efffe67d72a12abb","102.39.105.40","Mozilla/5.0 (Windows NT 10.0; Win64; x64) AppleWebKit/537.36 (KHTML, like Gecko) Chrome/138.0.0.0 Safari/537.36","WebKit","Chrome","138.0.0.0","Windows","10.0","https://app.prolific.com/","en-ZA,en-GB;q=0.9,en-US;q=0.8,en;q=0.7","61248a51eefb6797024ecb85","683dba9a53627eb9ab41b36a","688a437cea34918a29f7ba38","0","61248a51eefb6797024ecb85","0","2025-07-30T16:22:14.928Z","","","","AttribQ","","","","","","","","","","","50","","","","","","","","","","","","","","","","","","","","","","","","","","",""
"5262","","<div style=""width:500px;"">
  <p>How much control did you have over the ball?</p>
  </div>","35","html-slider-response","50","819539","0.0-7.0-2.7","101","1","2025-07-30 16:08:40","36c45c0696341be0efffe67d72a12abb","102.39.105.40","Mozilla/5.0 (Windows NT 10.0; Win64; x64) AppleWebKit/537.36 (KHTML, like Gecko) Chrome/138.0.0.0 Safari/537.36","WebKit","Chrome","138.0.0.0","Windows","10.0","https://app.prolific.com/","en-ZA,en-GB;q=0.9,en-US;q=0.8,en;q=0.7","61248a51eefb6797024ecb85","683dba9a53627eb9ab41b36a","688a437cea34918a29f7ba38","0","61248a51eefb6797024ecb85","0","2025-07-30T16:22:20.191Z","","","","ControlQ","","","","","","","","","","","50","","","","","","","","","","","","","","","","","","","","","","","","","","",""
"2664","","<div style=""width:500px;"">
  <p>How would you describe your current emotional state?</p>
  </div>","34","html-slider-response","51","822204","0.0-7.0-3.7","101","1","2025-07-30 16:08:40","36c45c0696341be0efffe67d72a12abb","102.39.105.40","Mozilla/5.0 (Windows NT 10.0; Win64; x64) AppleWebKit/537.36 (KHTML, like Gecko) Chrome/138.0.0.0 Safari/537.36","WebKit","Chrome","138.0.0.0","Windows","10.0","https://app.prolific.com/","en-ZA,en-GB;q=0.9,en-US;q=0.8,en;q=0.7","61248a51eefb6797024ecb85","683dba9a53627eb9ab41b36a","688a437cea34918a29f7ba38","0","61248a51eefb6797024ecb85","0","2025-07-30T16:22:22.856Z","","","","StressQ","","","","","","","","","","","50","","","","","","","","","","","","","","","","","","","","","","","","","","",""
"3317","","<div style=""width:500px;"">
  <p>What best describes how you currently feel?</p>
  </div>","60","html-slider-response","52","825522","0.0-7.0-4.7","101","1","2025-07-30 16:08:40","36c45c0696341be0efffe67d72a12abb","102.39.105.40","Mozilla/5.0 (Windows NT 10.0; Win64; x64) AppleWebKit/537.36 (KHTML, like Gecko) Chrome/138.0.0.0 Safari/537.36","WebKit","Chrome","138.0.0.0","Windows","10.0","https://app.prolific.com/","en-ZA,en-GB;q=0.9,en-US;q=0.8,en;q=0.7","61248a51eefb6797024ecb85","683dba9a53627eb9ab41b36a","688a437cea34918a29f7ba38","0","61248a51eefb6797024ecb85","0","2025-07-30T16:22:26.174Z","","","","MotivationQ","","","","","","","","","","","50","","","","","","","","","","","","","","","","","","","","","","","","","","",""
"","","","","ctl-task-cpt","53","849053","0.0-7.0-0.8","101","1","2025-07-30 16:08:40","36c45c0696341be0efffe67d72a12abb","102.39.105.40","Mozilla/5.0 (Windows NT 10.0; Win64; x64) AppleWebKit/537.36 (KHTML, like Gecko) Chrome/138.0.0.0 Safari/537.36","WebKit","Chrome","138.0.0.0","Windows","10.0","https://app.prolific.com/","en-ZA,en-GB;q=0.9,en-US;q=0.8,en;q=0.7","61248a51eefb6797024ecb85","683dba9a53627eb9ab41b36a","688a437cea34918a29f7ba38","0","61248a51eefb6797024ecb85","0","2025-07-30T16:22:49.705Z","","","","","","","","","","","","","","","","win-only","2","g1:SE,g2:NW","0.4","9","0","828717.2","1656.5","6664.6","20512","1","4","8","6","1","1","1","1","0","0.007575757575757576","1923.2","3000","1605","[""down"",""right""]","{""num_key_presses"":4,""num_perfect"":3,""num_errors"":0,""num_randdir"":1,""num_randdir_good_moves"":1,""num_whilered"":0,""num_whileblue"":0,""num_blue"":1,""num_good_moves"":4}","[419.0714133126395,412.82142761775424,0.3,419.0714133126395,412.82142761775424,106.7,419.0714133126395,412.82142761775424,208.3,419.0714133126395,412.82142761775424,312.8,419.0714133126395,412.82142761775424,414.3,419.0714133126395,412.82142761775424,524.4,419.0714133126395,412.82142761775424,630.8,419.0714133126395,412.82142761775424,732.5,407.8214133126395,415.32142761775424,834.9,341.5714133126395,434.07142761775424,944.3,402.8214133126395,467.82142761775424,1049,572.8214133126395,495.32142761775424,1149,651.5714133126395,516.5714276177542,1260.8,689.0714133126395,616.5714276177542,1363,706.5714133126395,726.5714276177542,1465,732.8214133126395,774.0714276177542,1579.1,751.5714133126395,791.5714276177542,1679.2,755.3214133126395,792.8214276177542,1780,755.3214133126395,792.8214276177542,1880,755.3214133126395,792.8214276177542,1980.6,755.3214133126395,792.8214276177542,2089.3,755.3214133126395,792.8214276177542,2194.3,755.3214133126395,792.8214276177542,2295.3,755.3214133126395,792.8214276177542,2398.7,755.3214133126395,792.8214276177542,2500.4,755.3214133126395,792.8214276177542,2611.5,755.3214133126395,792.8214276177542,2714.6,755.3214133126395,792.8214276177542,2819.6,755.3214133126395,792.8214276177542,2923.7,755.3214133126395,792.8214276177542,3024.6,755.3214133126395,792.8214276177542,3126.3,755.3214133126395,792.8214276177542,3229.3,755.3214133126395,792.8214276177542,3329.3,755.3214133126395,792.8214276177542,3429.3,755.3214133126395,792.8214276177542,3529.5,755.3214133126395,792.8214276177542,3634.2,755.3214133126395,792.8214276177542,3735.4,755.3214133126395,792.8214276177542,3837.7,755.3214133126395,792.8214276177542,3937.9,755.3214133126395,792.8214276177542,4039.5,755.3214133126395,792.8214276177542,4139.7,755.3214133126395,792.8214276177542,4244,755.3214133126395,792.8214276177542,4344.9,755.3214133126395,792.8214276177542,4449.4,755.3214133126395,792.8214276177542,4558.5,755.3214133126395,792.8214276177542,4659.1,755.3214133126395,792.8214276177542,4764.8,755.3214133126395,792.8214276177542,4872.8,755.3214133126395,792.8214276177542,4975.3]","[1478.1,1478.1,1000,0,478.1,""oops"",""down"",""right"",""good_move"",4371.7,2893.1,2498.1,1478.7,395,""smooth"",""down"",""down"",""good_move"",10478,6105.9,2246.2,7667.2,564.6,""smooth"",""down"",""down"",""good_move"",13724.3,3246,2879.9,10478.3,366.1,""smooth"",""right"",""right"",""good_move""]"
"3677","","<div style=""width:500px;"">
  <p>What determined the result of this run?</p>
  </div>","97","html-slider-response","54","852732","0.0-7.0-1.8","101","1","2025-07-30 16:08:40","36c45c0696341be0efffe67d72a12abb","102.39.105.40","Mozilla/5.0 (Windows NT 10.0; Win64; x64) AppleWebKit/537.36 (KHTML, like Gecko) Chrome/138.0.0.0 Safari/537.36","WebKit","Chrome","138.0.0.0","Windows","10.0","https://app.prolific.com/","en-ZA,en-GB;q=0.9,en-US;q=0.8,en;q=0.7","61248a51eefb6797024ecb85","683dba9a53627eb9ab41b36a","688a437cea34918a29f7ba38","0","61248a51eefb6797024ecb85","0","2025-07-30T16:22:53.384Z","","","","AttribQ","","","","","","","","","","","50","","","","","","","","","","","","","","","","","","","","","","","","","","",""
"16323","","<div style=""width:500px;"">
  <p>How much control did you have over the ball?</p>
  </div>","100","html-slider-response","55","869056","0.0-7.0-2.8","101","1","2025-07-30 16:08:40","36c45c0696341be0efffe67d72a12abb","102.39.105.40","Mozilla/5.0 (Windows NT 10.0; Win64; x64) AppleWebKit/537.36 (KHTML, like Gecko) Chrome/138.0.0.0 Safari/537.36","WebKit","Chrome","138.0.0.0","Windows","10.0","https://app.prolific.com/","en-ZA,en-GB;q=0.9,en-US;q=0.8,en;q=0.7","61248a51eefb6797024ecb85","683dba9a53627eb9ab41b36a","688a437cea34918a29f7ba38","0","61248a51eefb6797024ecb85","0","2025-07-30T16:23:09.708Z","","","","ControlQ","","","","","","","","","","","50","","","","","","","","","","","","","","","","","","","","","","","","","","",""
"4677","","<div style=""width:500px;"">
  <p>How would you describe your current emotional state?</p>
  </div>","11","html-slider-response","56","873735","0.0-7.0-3.8","101","1","2025-07-30 16:08:40","36c45c0696341be0efffe67d72a12abb","102.39.105.40","Mozilla/5.0 (Windows NT 10.0; Win64; x64) AppleWebKit/537.36 (KHTML, like Gecko) Chrome/138.0.0.0 Safari/537.36","WebKit","Chrome","138.0.0.0","Windows","10.0","https://app.prolific.com/","en-ZA,en-GB;q=0.9,en-US;q=0.8,en;q=0.7","61248a51eefb6797024ecb85","683dba9a53627eb9ab41b36a","688a437cea34918a29f7ba38","0","61248a51eefb6797024ecb85","0","2025-07-30T16:23:14.388Z","","","","StressQ","","","","","","","","","","","50","","","","","","","","","","","","","","","","","","","","","","","","","","",""
"6411","","<div style=""width:500px;"">
  <p>What best describes how you currently feel?</p>
  </div>","68","html-slider-response","57","880147","0.0-7.0-4.8","101","1","2025-07-30 16:08:40","36c45c0696341be0efffe67d72a12abb","102.39.105.40","Mozilla/5.0 (Windows NT 10.0; Win64; x64) AppleWebKit/537.36 (KHTML, like Gecko) Chrome/138.0.0.0 Safari/537.36","WebKit","Chrome","138.0.0.0","Windows","10.0","https://app.prolific.com/","en-ZA,en-GB;q=0.9,en-US;q=0.8,en;q=0.7","61248a51eefb6797024ecb85","683dba9a53627eb9ab41b36a","688a437cea34918a29f7ba38","0","61248a51eefb6797024ecb85","0","2025-07-30T16:23:20.800Z","","","","MotivationQ","","","","","","","","","","","50","","","","","","","","","","","","","","","","","","","","","","","","","","",""
"","","","","ctl-task-cpt","58","934678","0.0-7.0-0.9","101","1","2025-07-30 16:08:40","36c45c0696341be0efffe67d72a12abb","102.39.105.40","Mozilla/5.0 (Windows NT 10.0; Win64; x64) AppleWebKit/537.36 (KHTML, like Gecko) Chrome/138.0.0.0 Safari/537.36","WebKit","Chrome","138.0.0.0","Windows","10.0","https://app.prolific.com/","en-ZA,en-GB;q=0.9,en-US;q=0.8,en;q=0.7","61248a51eefb6797024ecb85","683dba9a53627eb9ab41b36a","688a437cea34918a29f7ba38","0","61248a51eefb6797024ecb85","0","2025-07-30T16:24:15.330Z","","","","","","","","","","","","","","","","win-only","0","g1:NW,g2:SE","0.5","10","0","883343.6","4852.4","9862.4","51510.9","1","4","4","6","2","-4","-7","0","1","0","1395.5","3000","-2560","[""down"",""right""]","{""num_key_presses"":10,""num_perfect"":3,""num_errors"":3,""num_randdir"":4,""num_randdir_good_moves"":3,""num_whilered"":0,""num_whileblue"":0,""num_blue"":4,""num_good_moves"":6}","[411.5714133126395,414.07142761775424,0.3,411.5714133126395,414.07142761775424,102.8,411.5714133126395,414.07142761775424,206.6,411.5714133126395,414.07142761775424,315.5,411.5714133126395,414.07142761775424,416.9,411.5714133126395,414.07142761775424,518.8,411.5714133126395,414.07142761775424,623.6,411.5714133126395,414.07142761775424,725.2,417.8214133126395,421.57142761775424,828.4,536.5714133126395,544.0714276177542,929.8,641.5714133126395,655.3214276177542,1029.8,701.5714133126395,710.3214276177542,1130.6,740.3214133126395,727.8214276177542,1233.2,740.3214133126395,727.8214276177542,1333.6,740.3214133126395,727.8214276177542,1434,740.3214133126395,727.8214276177542,1539.8,740.3214133126395,727.8214276177542,1648.1,740.3214133126395,727.8214276177542,1749,740.3214133126395,727.8214276177542,1853.7,791.5714133126395,716.5714276177542,1959.6,956.5714133126395,614.0714276177542,2063.2,969.0714133126395,601.5714276177542,2165.8,969.0714133126395,601.5714276177542,2266.5,969.0714133126395,601.5714276177542,2368,969.0714133126395,601.5714276177542,2468.7,969.0714133126395,601.5714276177542,2581.8,969.0714133126395,601.5714276177542,2683,969.0714133126395,601.5714276177542,2791.1,969.0714133126395,601.5714276177542,2894.7,969.0714133126395,601.5714276177542,2997.6,969.0714133126395,601.5714276177542,3100.8,969.0714133126395,601.5714276177542,3203.2,969.0714133126395,601.5714276177542,3304.5,969.0714133126395,601.5714276177542,3409.1,969.0714133126395,601.5714276177542,3511.1,969.0714133126395,601.5714276177542,3614.8,969.0714133126395,601.5714276177542,3718.1,969.0714133126395,601.5714276177542,3818.8,969.0714133126395,601.5714276177542,3932.1,969.0714133126395,601.5714276177542,4035.9,969.0714133126395,601.5714276177542,4139.6,969.0714133126395,601.5714276177542,4239.9,969.0714133126395,601.5714276177542,4343.4,969.0714133126395,601.5714276177542,4445,969.0714133126395,601.5714276177542,4548.9,969.0714133126395,601.5714276177542,4659.8,969.0714133126395,601.5714276177542,4763.3,969.0714133126395,601.5714276177542,4863.3,969.0714133126395,601.5714276177542,4963.6]","[7747.2,7747.3,1689.4,4998,1059.9,""oops"",""down"",""down"",""good_move"",14467.2,6719.5,2604.7,11332,530.5,""smooth"",""down"",""down"",""good_move"",17066.4,2598.9,2074.5,14467.5,524.4,""oops"",""down"",""up"",""bad_move"",23416,6349.2,1720.6,21294.6,400.8,""oops"",""right"",""down"",""good_move"",26212.9,2796.1,2400.3,23416.8,395.8,""smooth"",""right"",""right"",""good_move"",29344.6,3131.3,2711.5,26213.3,419.8,""oops"",""right"",""down"",""good_move"",31984.3,2639.5,2230.9,29344.8,408.6,""smooth"",""right"",""right"",""good_move"",34318,2333.5,2896.9,31984.5,-563.4,""error"",""-"",""-"",""no_move"",35627.2,1308.8,2554.5,35320.3,-2247.6,""error"",""-"",""-"",""no_move"",38523.1,2895,2817.5,36630.2,-924.6,""error"",""-"",""-"",""no_move""]"
"3355","","<div style=""width:500px;"">
  <p>What determined the result of this run?</p>
  </div>","36","html-slider-response","59","938034","0.0-7.0-1.9","101","1","2025-07-30 16:08:40","36c45c0696341be0efffe67d72a12abb","102.39.105.40","Mozilla/5.0 (Windows NT 10.0; Win64; x64) AppleWebKit/537.36 (KHTML, like Gecko) Chrome/138.0.0.0 Safari/537.36","WebKit","Chrome","138.0.0.0","Windows","10.0","https://app.prolific.com/","en-ZA,en-GB;q=0.9,en-US;q=0.8,en;q=0.7","61248a51eefb6797024ecb85","683dba9a53627eb9ab41b36a","688a437cea34918a29f7ba38","0","61248a51eefb6797024ecb85","0","2025-07-30T16:24:18.686Z","","","","AttribQ","","","","","","","","","","","50","","","","","","","","","","","","","","","","","","","","","","","","","","",""
"3873","","<div style=""width:500px;"">
  <p>How much control did you have over the ball?</p>
  </div>","22","html-slider-response","60","941910","0.0-7.0-2.9","101","1","2025-07-30 16:08:40","36c45c0696341be0efffe67d72a12abb","102.39.105.40","Mozilla/5.0 (Windows NT 10.0; Win64; x64) AppleWebKit/537.36 (KHTML, like Gecko) Chrome/138.0.0.0 Safari/537.36","WebKit","Chrome","138.0.0.0","Windows","10.0","https://app.prolific.com/","en-ZA,en-GB;q=0.9,en-US;q=0.8,en;q=0.7","61248a51eefb6797024ecb85","683dba9a53627eb9ab41b36a","688a437cea34918a29f7ba38","0","61248a51eefb6797024ecb85","0","2025-07-30T16:24:22.562Z","","","","ControlQ","","","","","","","","","","","50","","","","","","","","","","","","","","","","","","","","","","","","","","",""
"3565","","<div style=""width:500px;"">
  <p>How would you describe your current emotional state?</p>
  </div>","33","html-slider-response","61","945476","0.0-7.0-3.9","101","1","2025-07-30 16:08:40","36c45c0696341be0efffe67d72a12abb","102.39.105.40","Mozilla/5.0 (Windows NT 10.0; Win64; x64) AppleWebKit/537.36 (KHTML, like Gecko) Chrome/138.0.0.0 Safari/537.36","WebKit","Chrome","138.0.0.0","Windows","10.0","https://app.prolific.com/","en-ZA,en-GB;q=0.9,en-US;q=0.8,en;q=0.7","61248a51eefb6797024ecb85","683dba9a53627eb9ab41b36a","688a437cea34918a29f7ba38","0","61248a51eefb6797024ecb85","0","2025-07-30T16:24:26.129Z","","","","StressQ","","","","","","","","","","","50","","","","","","","","","","","","","","","","","","","","","","","","","","",""
"31555","","<div style=""width:500px;"">
  <p>What best describes how you currently feel?</p>
  </div>","80","html-slider-response","62","977033","0.0-7.0-4.9","101","1","2025-07-30 16:08:40","36c45c0696341be0efffe67d72a12abb","102.39.105.40","Mozilla/5.0 (Windows NT 10.0; Win64; x64) AppleWebKit/537.36 (KHTML, like Gecko) Chrome/138.0.0.0 Safari/537.36","WebKit","Chrome","138.0.0.0","Windows","10.0","https://app.prolific.com/","en-ZA,en-GB;q=0.9,en-US;q=0.8,en;q=0.7","61248a51eefb6797024ecb85","683dba9a53627eb9ab41b36a","688a437cea34918a29f7ba38","0","61248a51eefb6797024ecb85","0","2025-07-30T16:24:57.685Z","","","","MotivationQ","","","","","","","","","","","50","","","","","","","","","","","","","","","","","","","","","","","","","","",""
"","","","","ctl-task-cpt","63","996733","0.0-7.0-0.10","101","1","2025-07-30 16:08:40","36c45c0696341be0efffe67d72a12abb","102.39.105.40","Mozilla/5.0 (Windows NT 10.0; Win64; x64) AppleWebKit/537.36 (KHTML, like Gecko) Chrome/138.0.0.0 Safari/537.36","WebKit","Chrome","138.0.0.0","Windows","10.0","https://app.prolific.com/","en-ZA,en-GB;q=0.9,en-US;q=0.8,en;q=0.7","61248a51eefb6797024ecb85","683dba9a53627eb9ab41b36a","688a437cea34918a29f7ba38","0","61248a51eefb6797024ecb85","0","2025-07-30T16:25:17.385Z","","","","","","","","","","","","","","","","win-only","2","g1:SE,g2:NW","0.6","11","0","980230.3","1568.6","6571.1","16670.2","1","4","8","6","1","1","1","1","0","0.007575757575757576","1920.5","3000","1705","[""down"",""right""]","{""num_key_presses"":4,""num_perfect"":2,""num_errors"":0,""num_randdir"":2,""num_randdir_good_moves"":2,""num_whilered"":0,""num_whileblue"":0,""num_blue"":0,""num_good_moves"":4}","[416.5714133126395,420.32142761775424,0.2,416.5714133126395,420.32142761775424,100.4,414.0714133126395,420.32142761775424,204.8,414.0714133126395,420.32142761775424,307,349.0714133126395,377.82142761775424,407.5,7.821413312639507,201.57142761775424,509,-202.1785866873605,-44.67857238224575,612.9,-138.4285866873605,-44.67857238224575,713.5,21.571413312639507,30.321427617754253,821.3,122.8214133126395,81.57142761775425,922.6,126.5714133126395,84.07142761775425,1023,294.0714133126395,294.07142761775424,1124.4,632.8214133126395,477.82142761775424,1237.5,681.5714133126395,537.8214276177542,1338.4,719.0714133126395,617.8214276177542,1442,731.5714133126395,707.8214276177542,1542,731.5714133126395,731.5714276177542,1642.1,735.3214133126395,757.8214276177542,1749.2,741.5714133126395,771.5714276177542,1849.7,741.5714133126395,771.5714276177542,1952,741.5714133126395,771.5714276177542,2053.7,741.5714133126395,771.5714276177542,2154.9,741.5714133126395,771.5714276177542,2257.4,741.5714133126395,771.5714276177542,2358.1,741.5714133126395,771.5714276177542,2463.1,741.5714133126395,771.5714276177542,2564.1,741.5714133126395,771.5714276177542,2664.7,741.5714133126395,771.5714276177542,2768.5,741.5714133126395,772.8214276177542,2871.6,741.5714133126395,772.8214276177542,2974.7,741.5714133126395,772.8214276177542,3085,741.5714133126395,772.8214276177542,3188.9,741.5714133126395,772.8214276177542,3299.9,741.5714133126395,772.8214276177542,3400,741.5714133126395,772.8214276177542,3502.2,741.5714133126395,772.8214276177542,3604.4,741.5714133126395,772.8214276177542,3707.3,741.5714133126395,772.8214276177542,3807.4,741.5714133126395,772.8214276177542,3908.2,741.5714133126395,772.8214276177542,4014.7,741.5714133126395,772.8214276177542,4117.8,741.5714133126395,772.8214276177542,4222.5,741.5714133126395,772.8214276177542,4323,741.5714133126395,772.8214276177542,4429.3,741.5714133126395,772.8214276177542,4535.1,741.5714133126395,772.8214276177542,4638.2,741.5714133126395,772.8214276177542,4738.2,741.5714133126395,772.8214276177542,4841.7,741.5714133126395,772.8214276177542,4949.9]","[1447.3,1447.4,1000,0,447.4,""oops"",""down"",""down"",""good_move"",3816.4,2368.4,1949.7,1448.1,418.7,""smooth"",""down"",""down"",""good_move"",6875.3,3058.2,2686.5,3817.1,371.7,""smooth"",""right"",""right"",""good_move"",9977,3101.3,2717.2,6875.7,384.1,""oops"",""right"",""right"",""good_move""]"
"3734","","<div style=""width:500px;"">
  <p>What determined the result of this run?</p>
  </div>","65","html-slider-response","64","1000468","0.0-7.0-1.10","101","1","2025-07-30 16:08:40","36c45c0696341be0efffe67d72a12abb","102.39.105.40","Mozilla/5.0 (Windows NT 10.0; Win64; x64) AppleWebKit/537.36 (KHTML, like Gecko) Chrome/138.0.0.0 Safari/537.36","WebKit","Chrome","138.0.0.0","Windows","10.0","https://app.prolific.com/","en-ZA,en-GB;q=0.9,en-US;q=0.8,en;q=0.7","61248a51eefb6797024ecb85","683dba9a53627eb9ab41b36a","688a437cea34918a29f7ba38","0","61248a51eefb6797024ecb85","0","2025-07-30T16:25:21.120Z","","","","AttribQ","","","","","","","","","","","50","","","","","","","","","","","","","","","","","","","","","","","","","","",""
"3940","","<div style=""width:500px;"">
  <p>How much control did you have over the ball?</p>
  </div>","92","html-slider-response","65","1004409","0.0-7.0-2.10","101","1","2025-07-30 16:08:40","36c45c0696341be0efffe67d72a12abb","102.39.105.40","Mozilla/5.0 (Windows NT 10.0; Win64; x64) AppleWebKit/537.36 (KHTML, like Gecko) Chrome/138.0.0.0 Safari/537.36","WebKit","Chrome","138.0.0.0","Windows","10.0","https://app.prolific.com/","en-ZA,en-GB;q=0.9,en-US;q=0.8,en;q=0.7","61248a51eefb6797024ecb85","683dba9a53627eb9ab41b36a","688a437cea34918a29f7ba38","0","61248a51eefb6797024ecb85","0","2025-07-30T16:25:25.062Z","","","","ControlQ","","","","","","","","","","","50","","","","","","","","","","","","","","","","","","","","","","","","","","",""
"7494","","<div style=""width:500px;"">
  <p>How would you describe your current emotional state?</p>
  </div>","28","html-slider-response","66","1011905","0.0-7.0-3.10","101","1","2025-07-30 16:08:40","36c45c0696341be0efffe67d72a12abb","102.39.105.40","Mozilla/5.0 (Windows NT 10.0; Win64; x64) AppleWebKit/537.36 (KHTML, like Gecko) Chrome/138.0.0.0 Safari/537.36","WebKit","Chrome","138.0.0.0","Windows","10.0","https://app.prolific.com/","en-ZA,en-GB;q=0.9,en-US;q=0.8,en;q=0.7","61248a51eefb6797024ecb85","683dba9a53627eb9ab41b36a","688a437cea34918a29f7ba38","0","61248a51eefb6797024ecb85","0","2025-07-30T16:25:32.557Z","","","","StressQ","","","","","","","","","","","50","","","","","","","","","","","","","","","","","","","","","","","","","","",""
"5086","","<div style=""width:500px;"">
  <p>What best describes how you currently feel?</p>
  </div>","73","html-slider-response","67","1016992","0.0-7.0-4.10","101","1","2025-07-30 16:08:40","36c45c0696341be0efffe67d72a12abb","102.39.105.40","Mozilla/5.0 (Windows NT 10.0; Win64; x64) AppleWebKit/537.36 (KHTML, like Gecko) Chrome/138.0.0.0 Safari/537.36","WebKit","Chrome","138.0.0.0","Windows","10.0","https://app.prolific.com/","en-ZA,en-GB;q=0.9,en-US;q=0.8,en;q=0.7","61248a51eefb6797024ecb85","683dba9a53627eb9ab41b36a","688a437cea34918a29f7ba38","0","61248a51eefb6797024ecb85","0","2025-07-30T16:25:37.644Z","","","","MotivationQ","","","","","","","","","","","50","","","","","","","","","","","","","","","","","","","","","","","","","","",""
"","","","","ctl-task-cpt","68","1050981","0.0-7.0-0.11","101","1","2025-07-30 16:08:40","36c45c0696341be0efffe67d72a12abb","102.39.105.40","Mozilla/5.0 (Windows NT 10.0; Win64; x64) AppleWebKit/537.36 (KHTML, like Gecko) Chrome/138.0.0.0 Safari/537.36","WebKit","Chrome","138.0.0.0","Windows","10.0","https://app.prolific.com/","en-ZA,en-GB;q=0.9,en-US;q=0.8,en;q=0.7","61248a51eefb6797024ecb85","683dba9a53627eb9ab41b36a","688a437cea34918a29f7ba38","0","61248a51eefb6797024ecb85","0","2025-07-30T16:26:11.633Z","","","","","","","","","","","","","","","","win-only","0","g1:NW,g2:SE","0.7","12","0","1020187.5","1288.4","6292.2","30968.9","1","4","4","6","2","4","4","5","1","0.03787878787878788","1232","3000","1065","[""down"",""right""]","{""num_key_presses"":6,""num_perfect"":3,""num_errors"":0,""num_randdir"":3,""num_randdir_good_moves"":3,""num_whilered"":0,""num_whileblue"":0,""num_blue"":3,""num_good_moves"":6}","[426.5714133126395,416.57142761775424,0.3,426.5714133126395,416.57142761775424,110.6,426.5714133126395,416.57142761775424,211.3,426.5714133126395,416.57142761775424,311.7,421.5714133126395,419.07142761775424,413,301.5714133126395,411.57142761775424,518.7,371.5714133126395,406.57142761775424,628.6,590.3214133126395,460.32142761775424,732.4,691.5714133126395,589.0714276177542,832.7,699.0714133126395,684.0714276177542,945.8,701.5714133126395,687.8214276177542,1046.1,746.5714133126395,724.0714276177542,1148,766.5714133126395,732.8214276177542,1248.9,766.5714133126395,732.8214276177542,1357.2,766.5714133126395,732.8214276177542,1457.9,819.0714133126395,691.5714276177542,1564.4,1016.5714133126395,534.0714276177542,1669.6,1019.0714133126395,531.5714276177542,1770.2,1019.0714133126395,531.5714276177542,1873.4,1019.0714133126395,531.5714276177542,1977.8,1019.0714133126395,531.5714276177542,2078,1019.0714133126395,531.5714276177542,2182.2,1019.0714133126395,531.5714276177542,2291.9,1019.0714133126395,531.5714276177542,2392.2,1019.0714133126395,531.5714276177542,2492.4,1019.0714133126395,531.5714276177542,2593.5,1019.0714133126395,531.5714276177542,2693.5,1019.0714133126395,531.5714276177542,2793.8,1019.0714133126395,531.5714276177542,2894,1019.0714133126395,531.5714276177542,2997.6,1019.0714133126395,531.5714276177542,3101.6,1019.0714133126395,531.5714276177542,3204.4,1019.0714133126395,531.5714276177542,3305.4,1019.0714133126395,531.5714276177542,3407.3,1019.0714133126395,531.5714276177542,3508.5,1019.0714133126395,531.5714276177542,3613.4,1019.0714133126395,531.5714276177542,3731.3,1019.0714133126395,531.5714276177542,3833,1019.0714133126395,531.5714276177542,3933.1,1019.0714133126395,531.5714276177542,4034.9,1019.0714133126395,531.5714276177542,4144.8,1019.0714133126395,531.5714276177542,4247.3,1019.0714133126395,531.5714276177542,4347.7,1019.0714133126395,531.5714276177542,4447.7,1019.0714133126395,531.5714276177542,4561.5,1019.0714133126395,531.5714276177542,4662.3,1019.0714133126395,531.5714276177542,4763.4,1019.0714133126395,531.5714276177542,4870.5,1019.0714133126395,531.5714276177542,4975.1]","[4861.8,4861.9,2426.3,2006,429.6,""oops"",""down"",""right"",""good_move"",7582,2719.4,2231.8,4862.6,487.6,""smooth"",""down"",""down"",""good_move"",16834,9251.7,1907,14540.7,386.3,""smooth"",""down"",""down"",""good_move"",19998.1,3163.8,2728.6,16834.3,435.2,""oops"",""down"",""right"",""good_move"",22240.3,2241.7,1819.3,19998.6,422.4,""smooth"",""down"",""down"",""good_move"",24570.8,2330.1,1896.8,22240.7,433.3,""oops"",""right"",""right"",""good_move""]"
"5274","","<div style=""width:500px;"">
  <p>What determined the result of this run?</p>
  </div>","61","html-slider-response","69","1056256","0.0-7.0-1.11","101","1","2025-07-30 16:08:40","36c45c0696341be0efffe67d72a12abb","102.39.105.40","Mozilla/5.0 (Windows NT 10.0; Win64; x64) AppleWebKit/537.36 (KHTML, like Gecko) Chrome/138.0.0.0 Safari/537.36","WebKit","Chrome","138.0.0.0","Windows","10.0","https://app.prolific.com/","en-ZA,en-GB;q=0.9,en-US;q=0.8,en;q=0.7","61248a51eefb6797024ecb85","683dba9a53627eb9ab41b36a","688a437cea34918a29f7ba38","0","61248a51eefb6797024ecb85","0","2025-07-30T16:26:16.908Z","","","","AttribQ","","","","","","","","","","","50","","","","","","","","","","","","","","","","","","","","","","","","","","",""
"4501","","<div style=""width:500px;"">
  <p>How much control did you have over the ball?</p>
  </div>","88","html-slider-response","70","1060758","0.0-7.0-2.11","101","1","2025-07-30 16:08:40","36c45c0696341be0efffe67d72a12abb","102.39.105.40","Mozilla/5.0 (Windows NT 10.0; Win64; x64) AppleWebKit/537.36 (KHTML, like Gecko) Chrome/138.0.0.0 Safari/537.36","WebKit","Chrome","138.0.0.0","Windows","10.0","https://app.prolific.com/","en-ZA,en-GB;q=0.9,en-US;q=0.8,en;q=0.7","61248a51eefb6797024ecb85","683dba9a53627eb9ab41b36a","688a437cea34918a29f7ba38","0","61248a51eefb6797024ecb85","0","2025-07-30T16:26:21.410Z","","","","ControlQ","","","","","","","","","","","50","","","","","","","","","","","","","","","","","","","","","","","","","","",""
"5584","","<div style=""width:500px;"">
  <p>How would you describe your current emotional state?</p>
  </div>","30","html-slider-response","71","1066343","0.0-7.0-3.11","101","1","2025-07-30 16:08:40","36c45c0696341be0efffe67d72a12abb","102.39.105.40","Mozilla/5.0 (Windows NT 10.0; Win64; x64) AppleWebKit/537.36 (KHTML, like Gecko) Chrome/138.0.0.0 Safari/537.36","WebKit","Chrome","138.0.0.0","Windows","10.0","https://app.prolific.com/","en-ZA,en-GB;q=0.9,en-US;q=0.8,en;q=0.7","61248a51eefb6797024ecb85","683dba9a53627eb9ab41b36a","688a437cea34918a29f7ba38","0","61248a51eefb6797024ecb85","0","2025-07-30T16:26:26.996Z","","","","StressQ","","","","","","","","","","","50","","","","","","","","","","","","","","","","","","","","","","","","","","",""
"3453","","<div style=""width:500px;"">
  <p>What best describes how you currently feel?</p>
  </div>","76","html-slider-response","72","1069798","0.0-7.0-4.11","101","1","2025-07-30 16:08:40","36c45c0696341be0efffe67d72a12abb","102.39.105.40","Mozilla/5.0 (Windows NT 10.0; Win64; x64) AppleWebKit/537.36 (KHTML, like Gecko) Chrome/138.0.0.0 Safari/537.36","WebKit","Chrome","138.0.0.0","Windows","10.0","https://app.prolific.com/","en-ZA,en-GB;q=0.9,en-US;q=0.8,en;q=0.7","61248a51eefb6797024ecb85","683dba9a53627eb9ab41b36a","688a437cea34918a29f7ba38","0","61248a51eefb6797024ecb85","0","2025-07-30T16:26:30.450Z","","","","MotivationQ","","","","","","","","","","","50","","","","","","","","","","","","","","","","","","","","","","","","","","",""
"","","","","ctl-task-cpt","73","1105760","0.0-7.0-0.12","101","1","2025-07-30 16:08:40","36c45c0696341be0efffe67d72a12abb","102.39.105.40","Mozilla/5.0 (Windows NT 10.0; Win64; x64) AppleWebKit/537.36 (KHTML, like Gecko) Chrome/138.0.0.0 Safari/537.36","WebKit","Chrome","138.0.0.0","Windows","10.0","https://app.prolific.com/","en-ZA,en-GB;q=0.9,en-US;q=0.8,en;q=0.7","61248a51eefb6797024ecb85","683dba9a53627eb9ab41b36a","688a437cea34918a29f7ba38","0","61248a51eefb6797024ecb85","0","2025-07-30T16:27:06.412Z","","","","","","","","","","","","","","","","win-only","1","g1:NE,g2:SW","0.8","13","0","1072996.2","1532.4","6533.2","32940.7","1","4","8","6","1","1","0","5","5","0.03787878787878788","1845.4","3000","935","[""up"",""right""]","{""num_key_presses"":8,""num_perfect"":6,""num_errors"":1,""num_randdir"":1,""num_randdir_good_moves"":0,""num_whilered"":0,""num_whileblue"":1,""num_blue"":2,""num_good_moves"":6}","[412.8214133126395,421.57142761775424,0.2,412.8214133126395,421.57142761775424,102.6,412.8214133126395,421.57142761775424,203.9,412.8214133126395,421.57142761775424,305.3,426.5714133126395,411.57142761775424,406.2,500.3214133126395,316.57142761775424,517.4,501.5714133126395,314.07142761775424,618.3,481.5714133126395,350.32142761775424,719.2,462.8214133126395,407.82142761775424,823.1,461.5714133126395,416.57142761775424,923.1,461.5714133126395,416.57142761775424,1032.7,461.5714133126395,416.57142761775424,1135.1,484.0714133126395,381.57142761775424,1237.8,545.3214133126395,279.07142761775424,1340.3,636.5714133126395,165.32142761775424,1453.9,711.5714133126395,101.57142761775425,1554,715.3214133126395,101.57142761775425,1662.6,749.0714133126395,84.07142761775425,1766.1,757.8214133126395,77.82142761775425,1866.3,757.8214133126395,77.82142761775425,1975.5,757.8214133126395,77.82142761775425,2079.3,757.8214133126395,77.82142761775425,2182.6,757.8214133126395,77.82142761775425,2284.7,757.8214133126395,77.82142761775425,2387.4,757.8214133126395,77.82142761775425,2489.5,757.8214133126395,77.82142761775425,2596.8,757.8214133126395,77.82142761775425,2704.8,757.8214133126395,77.82142761775425,2819.2,757.8214133126395,77.82142761775425,2919.7,757.8214133126395,77.82142761775425,3020.6,757.8214133126395,77.82142761775425,3121.5,757.8214133126395,77.82142761775425,3226.4,757.8214133126395,77.82142761775425,3330.1,757.8214133126395,77.82142761775425,3432.5,757.8214133126395,77.82142761775425,3534.7,757.8214133126395,77.82142761775425,3638.2,757.8214133126395,77.82142761775425,3740.7,757.8214133126395,77.82142761775425,3852.2,757.8214133126395,77.82142761775425,3953.4,757.8214133126395,77.82142761775425,4054,757.8214133126395,77.82142761775425,4154.2,757.8214133126395,77.82142761775425,4255,757.8214133126395,77.82142761775425,4369.5,757.8214133126395,77.82142761775425,4471.7,757.8214133126395,77.82142761775425,4574.6,757.8214133126395,77.82142761775425,4683.6,757.8214133126395,77.82142761775425,4788.8,757.8214133126395,77.82142761775425,4889.1,757.8214133126395,77.82142761775425,4993.2]","[1425.8,1425.8,1000,0,425.8,""smooth"",""up"",""up"",""good_move"",5152.4,3725.8,3292.9,1426.6,432.9,""oops"",""up"",""down"",""bad_move"",11381,6228.2,2565.6,8261.7,553.7,""smooth"",""up"",""up"",""good_move"",14446.3,3065,2699.5,11381.3,365.5,""smooth"",""right"",""right"",""good_move"",16821.9,2375.3,1932.6,14446.6,442.7,""smooth"",""up"",""up"",""good_move"",19988.2,3165.9,2737.8,16822.3,428.1,""while_blue"",""right"",""left"",""bad_move"",22923.6,2935.1,2496.3,19988.7,438.7,""smooth"",""right"",""right"",""good_move"",26289.7,3365.8,3004.2,22923.9,361.6,""smooth"",""right"",""right"",""good_move""]"
"5640","","<div style=""width:500px;"">
  <p>What determined the result of this run?</p>
  </div>","74","html-slider-response","74","1111402","0.0-7.0-1.12","101","1","2025-07-30 16:08:40","36c45c0696341be0efffe67d72a12abb","102.39.105.40","Mozilla/5.0 (Windows NT 10.0; Win64; x64) AppleWebKit/537.36 (KHTML, like Gecko) Chrome/138.0.0.0 Safari/537.36","WebKit","Chrome","138.0.0.0","Windows","10.0","https://app.prolific.com/","en-ZA,en-GB;q=0.9,en-US;q=0.8,en;q=0.7","61248a51eefb6797024ecb85","683dba9a53627eb9ab41b36a","688a437cea34918a29f7ba38","0","61248a51eefb6797024ecb85","0","2025-07-30T16:27:12.054Z","","","","AttribQ","","","","","","","","","","","50","","","","","","","","","","","","","","","","","","","","","","","","","","",""
"5486","","<div style=""width:500px;"">
  <p>How much control did you have over the ball?</p>
  </div>","59","html-slider-response","75","1116889","0.0-7.0-2.12","101","1","2025-07-30 16:08:40","36c45c0696341be0efffe67d72a12abb","102.39.105.40","Mozilla/5.0 (Windows NT 10.0; Win64; x64) AppleWebKit/537.36 (KHTML, like Gecko) Chrome/138.0.0.0 Safari/537.36","WebKit","Chrome","138.0.0.0","Windows","10.0","https://app.prolific.com/","en-ZA,en-GB;q=0.9,en-US;q=0.8,en;q=0.7","61248a51eefb6797024ecb85","683dba9a53627eb9ab41b36a","688a437cea34918a29f7ba38","0","61248a51eefb6797024ecb85","0","2025-07-30T16:27:17.541Z","","","","ControlQ","","","","","","","","","","","50","","","","","","","","","","","","","","","","","","","","","","","","","","",""
"9285","","<div style=""width:500px;"">
  <p>How would you describe your current emotional state?</p>
  </div>","22","html-slider-response","76","1126175","0.0-7.0-3.12","101","1","2025-07-30 16:08:40","36c45c0696341be0efffe67d72a12abb","102.39.105.40","Mozilla/5.0 (Windows NT 10.0; Win64; x64) AppleWebKit/537.36 (KHTML, like Gecko) Chrome/138.0.0.0 Safari/537.36","WebKit","Chrome","138.0.0.0","Windows","10.0","https://app.prolific.com/","en-ZA,en-GB;q=0.9,en-US;q=0.8,en;q=0.7","61248a51eefb6797024ecb85","683dba9a53627eb9ab41b36a","688a437cea34918a29f7ba38","0","61248a51eefb6797024ecb85","0","2025-07-30T16:27:26.827Z","","","","StressQ","","","","","","","","","","","50","","","","","","","","","","","","","","","","","","","","","","","","","","",""
"3187","","<div style=""width:500px;"">
  <p>What best describes how you currently feel?</p>
  </div>","66","html-slider-response","77","1129366","0.0-7.0-4.12","101","1","2025-07-30 16:08:40","36c45c0696341be0efffe67d72a12abb","102.39.105.40","Mozilla/5.0 (Windows NT 10.0; Win64; x64) AppleWebKit/537.36 (KHTML, like Gecko) Chrome/138.0.0.0 Safari/537.36","WebKit","Chrome","138.0.0.0","Windows","10.0","https://app.prolific.com/","en-ZA,en-GB;q=0.9,en-US;q=0.8,en;q=0.7","61248a51eefb6797024ecb85","683dba9a53627eb9ab41b36a","688a437cea34918a29f7ba38","0","61248a51eefb6797024ecb85","0","2025-07-30T16:27:30.018Z","","","","MotivationQ","","","","","","","","","","","50","","","","","","","","","","","","","","","","","","","","","","","","","","",""
