"rt","response_timestamp","stimulus","response","trial_type","trial_index","time_elapsed","internal_node_id","run_id","condition","recorded_at","source_code_version","ip","user_agent","device","browser","browser_version","platform","platform_version","referer","accept_language","PROLIFIC_PID","STUDY_ID","SESSION_ID","BATCH","prolific_id","batch","realtime","success","question_order","question_id","eventType","responses","item_order","radio_event_ids","radio_event_times","key_event_times","mouse_event_times","straightlining","zigzagging","honeypot","view_history","slider_start","which_type","canvas_config","goals_layout","control_level","trial_number","tutorial_trial_number","trial_start_time","phase1_start_time","phase2_start_time","phase3_start_time","goal_1_value","goal_1_distance","goal_2_value","goal_2_distance","goal_selected","outcome","outcome_total","participant_final_score","participant_initial_score","participant_final_score_prop","goal_choice_rt","allocated_time","allocated_time_remaining","goal_direction","counts","mouse_movements","key_presses"
"34276","1753896053341","<p style='font-size:40px;line-height:1.25'><strong>Welcome to the experiment!</strong></p><p style='font-size:1.1em;line-height:1.25'>Thank you for participanting in our experiment again! You will be asked to play the Dysfunctional Ball Game again. We will briefly recap the rules before we start.</p><p style='font-size:1.1em;line-height:1.25'>Press <strong>Next</strong> to continue.</p>","0","custom-html-button-response","0","34280","0.0-0.0","102","1","2025-07-30 17:20:14","36c45c0696341be0efffe67d72a12abb","105.1.48.31","Mozilla/5.0 (Windows NT 10.0; Win64; x64) AppleWebKit/537.36 (KHTML, like Gecko) Chrome/138.0.0.0 Safari/537.36","WebKit","Chrome","138.0.0.0","Windows","10.0","https://app.prolific.com/","en-GB,en;q=0.9,en-US;q=0.8,zu;q=0.7,es;q=0.6","6129dca465e41b5ae1b262da","683dba9a53627eb9ab41b36a","688a543a1ac6289c6e906201","0","6129dca465e41b5ae1b262da","0","2025-07-30T17:20:53.344Z","","","","","","","","","","","","","","","","","","","","","","","","","","","","","","","","","","","","","","","","","",""
"3767","","","","fullscreen","1","39069","0.0-1.0","102","1","2025-07-30 17:20:14","36c45c0696341be0efffe67d72a12abb","105.1.48.31","Mozilla/5.0 (Windows NT 10.0; Win64; x64) AppleWebKit/537.36 (KHTML, like Gecko) Chrome/138.0.0.0 Safari/537.36","WebKit","Chrome","138.0.0.0","Windows","10.0","https://app.prolific.com/","en-GB,en;q=0.9,en-US;q=0.8,zu;q=0.7,es;q=0.6","6129dca465e41b5ae1b262da","683dba9a53627eb9ab41b36a","688a543a1ac6289c6e906201","0","6129dca465e41b5ae1b262da","0","","true","","","","","","","","","","","","","","","","","","","","","","","","","","","","","","","","","","","","","","","","",""
"2044","1753896060177"," <p style='font-size:1.1em;line-height:1.25'>Thank you for closing all other tabs.</p><p style='font-size:1.1em;line-height:1.25'>We will now invite you to fill in some questionnaires, before starting the game.<br>This will take about 5 minutes.<br></p><p style='font-size:1.1em;line-height:1.25'>Press the <strong>Next</strong> button to continue.</p>","0","custom-html-button-response","2","41116","0.0-2.0","102","1","2025-07-30 17:20:14","36c45c0696341be0efffe67d72a12abb","105.1.48.31","Mozilla/5.0 (Windows NT 10.0; Win64; x64) AppleWebKit/537.36 (KHTML, like Gecko) Chrome/138.0.0.0 Safari/537.36","WebKit","Chrome","138.0.0.0","Windows","10.0","https://app.prolific.com/","en-GB,en;q=0.9,en-US;q=0.8,zu;q=0.7,es;q=0.6","6129dca465e41b5ae1b262da","683dba9a53627eb9ab41b36a","688a543a1ac6289c6e906201","0","6129dca465e41b5ae1b262da","0","2025-07-30T17:21:00.179Z","","","","","","","","","","","","","","","","","","","","","","","","","","","","","","","","","","","","","","","","","",""
"3688","","","{""assigned_sex"":""female""}","survey-multi-choice","3","44810","0.0-3.0-0.0","102","1","2025-07-30 17:20:14","36c45c0696341be0efffe67d72a12abb","105.1.48.31","Mozilla/5.0 (Windows NT 10.0; Win64; x64) AppleWebKit/537.36 (KHTML, like Gecko) Chrome/138.0.0.0 Safari/537.36","WebKit","Chrome","138.0.0.0","Windows","10.0","https://app.prolific.com/","en-GB,en;q=0.9,en-US;q=0.8,zu;q=0.7,es;q=0.6","6129dca465e41b5ae1b262da","683dba9a53627eb9ab41b36a","688a543a1ac6289c6e906201","0","6129dca465e41b5ae1b262da","0","","","[0]","0","demographics","","","","","","","","","","","","","","","","","","","","","","","","","","","","","","","","","","","","","",""
"3465","1753896067340","<p style='font-size:1.1em;line-height:1.25'>In the following, we will perform a baseline assessment. This means that we will ask you a few questions relating to your experiences over the past month.<br></p><p style='font-size:1.1em;line-height:1.25'>Press the <strong>Next</strong> button to continue.</p>","0","custom-html-button-response","4","48280","0.0-4.0-0.0","102","1","2025-07-30 17:20:14","36c45c0696341be0efffe67d72a12abb","105.1.48.31","Mozilla/5.0 (Windows NT 10.0; Win64; x64) AppleWebKit/537.36 (KHTML, like Gecko) Chrome/138.0.0.0 Safari/537.36","WebKit","Chrome","138.0.0.0","Windows","10.0","https://app.prolific.com/","en-GB,en;q=0.9,en-US;q=0.8,zu;q=0.7,es;q=0.6","6129dca465e41b5ae1b262da","683dba9a53627eb9ab41b36a","688a543a1ac6289c6e906201","0","6129dca465e41b5ae1b262da","0","2025-07-30T17:21:07.343Z","","","","","","","","","","","","","","","","","","","","","","","","","","","","","","","","","","","","","","","","","",""
"44566.89999997616","","","","survey-template","5","92885","0.0-4.0-1.0","102","1","2025-07-30 17:20:14","36c45c0696341be0efffe67d72a12abb","105.1.48.31","Mozilla/5.0 (Windows NT 10.0; Win64; x64) AppleWebKit/537.36 (KHTML, like Gecko) Chrome/138.0.0.0 Safari/537.36","WebKit","Chrome","138.0.0.0","Windows","10.0","https://app.prolific.com/","en-GB,en;q=0.9,en-US;q=0.8,zu;q=0.7,es;q=0.6","6129dca465e41b5ae1b262da","683dba9a53627eb9ab41b36a","688a543a1ac6289c6e906201","0","6129dca465e41b5ae1b262da","0","2025-07-30T17:21:51.948Z","","","","pss","{""Q01"":""2"",""Q02"":""2"",""Q03"":""2"",""Q04"":""0"",""Q05"":""1"",""Q06"":""1"",""Q07"":""1"",""Q08"":""0"",""Q09"":""2"",""Q10"":""1""}","[0,1,2,3,4,5,6,7,8,9]","[""Q01"",""Q02"",""Q03"",""Q04"",""Q05"",""Q07"",""Q06"",""Q08"",""Q09"",""Q10""]","[6497.5999999940395,10535.09999999404,13758.699999988079,16942,19428.29999998212,27631.899999976158,29543.59999999404,36066.29999998212,39149,42885.29999998212]","[]","[41.39999997615814,6497.5999999940395,10535.09999999404,13758.699999988079,16942,19428.29999998212,23870.399999976158,27631.899999976158,29543.59999999404,36066.29999998212,39149,42885.29999998212,44552.29999998212]","0.4","0.3333333333333333","0","","","","","","","","","","","","","","","","","","","","","","","","","","","","",""
"3752","1753896115705","<p style='font-size:1.1em;line-height:1.25'>Thank you for your answers! Now we will ask you a few more questions relating to your feelings in the last 24 hours.<br></p><p style='font-size:1.1em;line-height:1.25'>Press the <strong>Next</strong> button to continue.</p>","0","custom-html-button-response","6","96643","0.0-4.0-2.0","102","1","2025-07-30 17:20:14","36c45c0696341be0efffe67d72a12abb","105.1.48.31","Mozilla/5.0 (Windows NT 10.0; Win64; x64) AppleWebKit/537.36 (KHTML, like Gecko) Chrome/138.0.0.0 Safari/537.36","WebKit","Chrome","138.0.0.0","Windows","10.0","https://app.prolific.com/","en-GB,en;q=0.9,en-US;q=0.8,zu;q=0.7,es;q=0.6","6129dca465e41b5ae1b262da","683dba9a53627eb9ab41b36a","688a543a1ac6289c6e906201","0","6129dca465e41b5ae1b262da","0","2025-07-30T17:21:55.706Z","","","","","","","","","","","","","","","","","","","","","","","","","","","","","","","","","","","","","","","","","",""
"66769.29999998212","","","","survey-template","7","163421","0.0-4.0-3.0","102","1","2025-07-30 17:20:14","36c45c0696341be0efffe67d72a12abb","105.1.48.31","Mozilla/5.0 (Windows NT 10.0; Win64; x64) AppleWebKit/537.36 (KHTML, like Gecko) Chrome/138.0.0.0 Safari/537.36","WebKit","Chrome","138.0.0.0","Windows","10.0","https://app.prolific.com/","en-GB,en;q=0.9,en-US;q=0.8,zu;q=0.7,es;q=0.6","6129dca465e41b5ae1b262da","683dba9a53627eb9ab41b36a","688a543a1ac6289c6e906201","0","6129dca465e41b5ae1b262da","0","2025-07-30T17:23:02.485Z","","","","drsp","{""Q01"":""0"",""Q02"":""0"",""Q03"":""0"",""Q04"":""0"",""Q05"":""2"",""Q06"":""1"",""Q07"":""1"",""Q08"":""0"",""Q09"":""0"",""Q10"":""1"",""Q11"":""2"",""Q12"":""0"",""Q13"":""5"",""Q14"":""2"",""Q15"":""3"",""Q16"":""3"",""Q17"":""1"",""Q18"":""0"",""Q19"":""1"",""Q20"":""1"",""Q21"":""1"",""Q22"":""0""}","[0,1,2,3,4,5,6,7,8,9,10,11,12,13,14,15,16,17,18,19,20,21]","[""Q01"",""Q02"",""Q03"",""Q04"",""Q05"",""Q06"",""Q07"",""Q08"",""Q09"",""Q10"",""Q11"",""Q12"",""Q13"",""Q14"",""Q15"",""Q16"",""Q17"",""Q18"",""Q19"",""Q20"",""Q19"",""Q20"",""Q21"",""Q22"",""Q22""]","[3296.7999999821186,6395.0999999940395,9472.40000000596,10930.799999982119,12477.90000000596,14802,16478.59999999404,18053.40000000596,24421.59999999404,26038.59999999404,28201.5,29668.69999998808,31887.69999998808,33651.29999998212,35659,38459.59999999404,44813.19999998808,46138.29999998212,49186.19999998808,52511.40000000596,55172.79999998212,56674.5,58395.5,60078.59999999404,63619.29999998212]","[]","[20.599999994039536,3296.7999999821186,6395.0999999940395,7668.799999982119,9472.40000000596,10930.799999982119,12477.90000000596,14802,16478.59999999404,18053.40000000596,24421.59999999404,26038.59999999404,28201.5,29668.69999998808,31887.69999998808,33651.29999998212,35659,38459.59999999404,44813.19999998808,46138.29999998212,49186.19999998808,52511.40000000596,55172.79999998212,56674.5,58395.5,60078.59999999404,63619.29999998212,66750.29999998212]","0.4090909090909091","0.42857142857142855","0","","","","","","","","","","","","","","","","","","","","","","","","","","","","",""
"14326.699999988079","","","","survey-template","8","177755","0.0-4.0-4.0","102","1","2025-07-30 17:20:14","36c45c0696341be0efffe67d72a12abb","105.1.48.31","Mozilla/5.0 (Windows NT 10.0; Win64; x64) AppleWebKit/537.36 (KHTML, like Gecko) Chrome/138.0.0.0 Safari/537.36","WebKit","Chrome","138.0.0.0","Windows","10.0","https://app.prolific.com/","en-GB,en;q=0.9,en-US;q=0.8,zu;q=0.7,es;q=0.6","6129dca465e41b5ae1b262da","683dba9a53627eb9ab41b36a","688a543a1ac6289c6e906201","0","6129dca465e41b5ae1b262da","0","2025-07-30T17:23:16.819Z","","","","stress","{""Q01"":""1"",""Q02"":""0"",""Q03"":""0""}","[0,1,2]","[""Q01"",""Q02"",""Q03""]","[6087.199999988079,9706,12642.5]","[]","[6087.199999988079,8064.5,9706,11391.59999999404,12642.5,14323]","0.3333333333333333","0.5","0","","","","","","","","","","","","","","","","","","","","","","","","","","","","",""
"5935","","","","instructions","9","183695","0.0-5.0-0.0","102","1","2025-07-30 17:20:14","36c45c0696341be0efffe67d72a12abb","105.1.48.31","Mozilla/5.0 (Windows NT 10.0; Win64; x64) AppleWebKit/537.36 (KHTML, like Gecko) Chrome/138.0.0.0 Safari/537.36","WebKit","Chrome","138.0.0.0","Windows","10.0","https://app.prolific.com/","en-GB,en;q=0.9,en-US;q=0.8,zu;q=0.7,es;q=0.6","6129dca465e41b5ae1b262da","683dba9a53627eb9ab41b36a","688a543a1ac6289c6e906201","0","6129dca465e41b5ae1b262da","0","","","","","","","","","","","","","","","[{""page_index"":0,""viewing_time"":5933}]","","","","","","","","","","","","","","","","","","","","","","","","","","","",""
"6656","","<p>Before you start with this game please answer the following three questions yourself. </p>
  <p>Through this game, we measure several aspects of your cognitive performance, such as reaction times, multi-tasking capabilities </p>
  <p>and the ability to assess the situation you are in.</p>
  <p></p>
  <p><b>How good do you usually are in such tasks?</b></p>","100","html-slider-response","10","190402","0.0-6.0-0.0","102","1","2025-07-30 17:20:14","36c45c0696341be0efffe67d72a12abb","105.1.48.31","Mozilla/5.0 (Windows NT 10.0; Win64; x64) AppleWebKit/537.36 (KHTML, like Gecko) Chrome/138.0.0.0 Safari/537.36","WebKit","Chrome","138.0.0.0","Windows","10.0","https://app.prolific.com/","en-GB,en;q=0.9,en-US;q=0.8,zu;q=0.7,es;q=0.6","6129dca465e41b5ae1b262da","683dba9a53627eb9ab41b36a","688a543a1ac6289c6e906201","0","6129dca465e41b5ae1b262da","0","2025-07-30T17:23:29.466Z","","","","PreSkillQ","","","","","","","","","","","50","","","","","","","","","","","","","","","","","","","","","","","","","","",""
"4158","","<div style=""width:500px;"">
  <p>How well do you think you will perform in this task compared to other participants?</p>
  </div>","100","html-slider-response","11","194562","0.0-6.0-1.0","102","1","2025-07-30 17:20:14","36c45c0696341be0efffe67d72a12abb","105.1.48.31","Mozilla/5.0 (Windows NT 10.0; Win64; x64) AppleWebKit/537.36 (KHTML, like Gecko) Chrome/138.0.0.0 Safari/537.36","WebKit","Chrome","138.0.0.0","Windows","10.0","https://app.prolific.com/","en-GB,en;q=0.9,en-US;q=0.8,zu;q=0.7,es;q=0.6","6129dca465e41b5ae1b262da","683dba9a53627eb9ab41b36a","688a543a1ac6289c6e906201","0","6129dca465e41b5ae1b262da","0","2025-07-30T17:23:33.625Z","","","","PrePerfQ","","","","","","","","","","","50","","","","","","","","","","","","","","","","","","","","","","","","","","",""
"4534","","<div style=""width:500px;"">
  <p>What best describes how you currently feel?</p>
  </div>","64","html-slider-response","12","199097","0.0-6.0-2.0","102","1","2025-07-30 17:20:14","36c45c0696341be0efffe67d72a12abb","105.1.48.31","Mozilla/5.0 (Windows NT 10.0; Win64; x64) AppleWebKit/537.36 (KHTML, like Gecko) Chrome/138.0.0.0 Safari/537.36","WebKit","Chrome","138.0.0.0","Windows","10.0","https://app.prolific.com/","en-GB,en;q=0.9,en-US;q=0.8,zu;q=0.7,es;q=0.6","6129dca465e41b5ae1b262da","683dba9a53627eb9ab41b36a","688a543a1ac6289c6e906201","0","6129dca465e41b5ae1b262da","0","2025-07-30T17:23:38.161Z","","","","PreMotivationQ","","","","","","","","","","","50","","","","","","","","","","","","","","","","","","","","","","","","","","",""
"","","","","ctl-task-cpt","13","231643","0.0-7.0-0.0","102","1","2025-07-30 17:20:14","36c45c0696341be0efffe67d72a12abb","105.1.48.31","Mozilla/5.0 (Windows NT 10.0; Win64; x64) AppleWebKit/537.36 (KHTML, like Gecko) Chrome/138.0.0.0 Safari/537.36","WebKit","Chrome","138.0.0.0","Windows","10.0","https://app.prolific.com/","en-GB,en;q=0.9,en-US;q=0.8,zu;q=0.7,es;q=0.6","6129dca465e41b5ae1b262da","683dba9a53627eb9ab41b36a","688a543a1ac6289c6e906201","0","6129dca465e41b5ae1b262da","0","2025-07-30T17:24:10.706Z","","","","","","","","","","","","","","","","win-only","0","g1:NW,g2:SE","1","1","0","203164.5","3732.7","8742.2","29529.8","1","4","4","6","2","4","4","4","0","0.030303030303030304","1865","3000","1275","[""down"",""right""]","{""num_key_presses"":6,""num_perfect"":6,""num_errors"":0,""num_randdir"":0,""num_randdir_good_moves"":0,""num_whilered"":0,""num_whileblue"":0,""num_blue"":1,""num_good_moves"":6}","[294.22232142857143,298.12857142857143,22,294.22232142857143,298.12857142857143,104.3,294.22232142857143,298.12857142857143,208.1,294.22232142857143,298.12857142857143,311.9,294.22232142857143,298.12857142857143,413.1,294.22232142857143,298.12857142857143,524.2,294.22232142857143,298.12857142857143,627.1,294.22232142857143,298.12857142857143,731.4,294.22232142857143,298.12857142857143,837.7,294.22232142857143,298.12857142857143,943.2,365.22232142857143,346.12857142857143,1047.8,444.22232142857143,435.12857142857143,1151.7,488.22232142857143,502.12857142857143,1256,510.22232142857143,532.1285714285714,1361.9,524.2223214285714,535.1285714285714,1465,534.2223214285714,535.1285714285714,1568.3,535.2223214285714,535.1285714285714,1672,535.2223214285714,535.1285714285714,1776.1,535.2223214285714,535.1285714285714,1877.5,535.2223214285714,535.1285714285714,1984.1,535.2223214285714,535.1285714285714,2088.1,535.2223214285714,535.1285714285714,2192.1,535.2223214285714,535.1285714285714,2297.3,535.2223214285714,535.1285714285714,2401.7,535.2223214285714,535.1285714285714,2506.2,535.2223214285714,535.1285714285714,2608.3,535.2223214285714,535.1285714285714,2716,535.2223214285714,535.1285714285714,2820.8,535.2223214285714,535.1285714285714,2924.6,535.2223214285714,535.1285714285714,3025.3,535.2223214285714,535.1285714285714,3127.9,535.2223214285714,535.1285714285714,3229.9,535.2223214285714,535.1285714285714,3337.7,535.2223214285714,535.1285714285714,3440.8,535.2223214285714,535.1285714285714,3546.2,535.2223214285714,535.1285714285714,3649.8,535.2223214285714,535.1285714285714,3755.1,535.2223214285714,535.1285714285714,3856.9,535.2223214285714,535.1285714285714,3960.3,535.2223214285714,535.1285714285714,4068.1,535.2223214285714,535.1285714285714,4169.3,535.2223214285714,535.1285714285714,4273.4,535.2223214285714,535.1285714285714,4379.9,535.2223214285714,535.1285714285714,4483.9,535.2223214285714,535.1285714285714,4587.9,535.2223214285714,535.1285714285714,4690,535.2223214285714,535.1285714285714,4796.3,535.2223214285714,535.1285714285714,4901.9]","[1470.7,1470.7,1000,0,470.7,""smooth"",""right"",""right"",""good_move"",7934.3,6462.7,2424.4,5077.9,432.1,""smooth"",""right"",""right"",""good_move"",11005.8,3069.6,2655.7,7936.2,413.9,""smooth"",""right"",""right"",""good_move"",14472.6,3459.8,3066.5,11012.8,393.3,""smooth"",""down"",""down"",""good_move"",17972,3496.5,3065.3,14475.6,431.2,""smooth"",""down"",""down"",""good_move"",20661.1,2687.3,2216.8,17973.8,470.5,""smooth"",""down"",""down"",""good_move""]"
"18666","","<div style=""width:500px;"">
  <p>What determined the result of this run?</p>
  </div>","100","html-slider-response","14","250311","0.0-7.0-1.0","102","1","2025-07-30 17:20:14","36c45c0696341be0efffe67d72a12abb","105.1.48.31","Mozilla/5.0 (Windows NT 10.0; Win64; x64) AppleWebKit/537.36 (KHTML, like Gecko) Chrome/138.0.0.0 Safari/537.36","WebKit","Chrome","138.0.0.0","Windows","10.0","https://app.prolific.com/","en-GB,en;q=0.9,en-US;q=0.8,zu;q=0.7,es;q=0.6","6129dca465e41b5ae1b262da","683dba9a53627eb9ab41b36a","688a543a1ac6289c6e906201","0","6129dca465e41b5ae1b262da","0","2025-07-30T17:24:29.375Z","","","","AttribQ","","","","","","","","","","","50","","","","","","","","","","","","","","","","","","","","","","","","","","",""
"3590","","<div style=""width:500px;"">
  <p>How much control did you have over the ball?</p>
  </div>","100","html-slider-response","15","253904","0.0-7.0-2.0","102","1","2025-07-30 17:20:14","36c45c0696341be0efffe67d72a12abb","105.1.48.31","Mozilla/5.0 (Windows NT 10.0; Win64; x64) AppleWebKit/537.36 (KHTML, like Gecko) Chrome/138.0.0.0 Safari/537.36","WebKit","Chrome","138.0.0.0","Windows","10.0","https://app.prolific.com/","en-GB,en;q=0.9,en-US;q=0.8,zu;q=0.7,es;q=0.6","6129dca465e41b5ae1b262da","683dba9a53627eb9ab41b36a","688a543a1ac6289c6e906201","0","6129dca465e41b5ae1b262da","0","2025-07-30T17:24:32.967Z","","","","ControlQ","","","","","","","","","","","50","","","","","","","","","","","","","","","","","","","","","","","","","","",""
"4790","","<div style=""width:500px;"">
  <p>How would you describe your current emotional state?</p>
  </div>","0","html-slider-response","16","258698","0.0-7.0-3.0","102","1","2025-07-30 17:20:14","36c45c0696341be0efffe67d72a12abb","105.1.48.31","Mozilla/5.0 (Windows NT 10.0; Win64; x64) AppleWebKit/537.36 (KHTML, like Gecko) Chrome/138.0.0.0 Safari/537.36","WebKit","Chrome","138.0.0.0","Windows","10.0","https://app.prolific.com/","en-GB,en;q=0.9,en-US;q=0.8,zu;q=0.7,es;q=0.6","6129dca465e41b5ae1b262da","683dba9a53627eb9ab41b36a","688a543a1ac6289c6e906201","0","6129dca465e41b5ae1b262da","0","2025-07-30T17:24:37.762Z","","","","StressQ","","","","","","","","","","","50","","","","","","","","","","","","","","","","","","","","","","","","","","",""
"4506","","<div style=""width:500px;"">
  <p>What best describes how you currently feel?</p>
  </div>","100","html-slider-response","17","263209","0.0-7.0-4.0","102","1","2025-07-30 17:20:14","36c45c0696341be0efffe67d72a12abb","105.1.48.31","Mozilla/5.0 (Windows NT 10.0; Win64; x64) AppleWebKit/537.36 (KHTML, like Gecko) Chrome/138.0.0.0 Safari/537.36","WebKit","Chrome","138.0.0.0","Windows","10.0","https://app.prolific.com/","en-GB,en;q=0.9,en-US;q=0.8,zu;q=0.7,es;q=0.6","6129dca465e41b5ae1b262da","683dba9a53627eb9ab41b36a","688a543a1ac6289c6e906201","0","6129dca465e41b5ae1b262da","0","2025-07-30T17:24:42.272Z","","","","MotivationQ","","","","","","","","","","","50","","","","","","","","","","","","","","","","","","","","","","","","","","",""
"","","","","ctl-task-cpt","18","315046","0.0-7.0-0.1","102","1","2025-07-30 17:20:14","36c45c0696341be0efffe67d72a12abb","105.1.48.31","Mozilla/5.0 (Windows NT 10.0; Win64; x64) AppleWebKit/537.36 (KHTML, like Gecko) Chrome/138.0.0.0 Safari/537.36","WebKit","Chrome","138.0.0.0","Windows","10.0","https://app.prolific.com/","en-GB,en;q=0.9,en-US;q=0.8,zu;q=0.7,es;q=0.6","6129dca465e41b5ae1b262da","683dba9a53627eb9ab41b36a","688a543a1ac6289c6e906201","0","6129dca465e41b5ae1b262da","0","2025-07-30T17:25:34.109Z","","","","","","","","","","","","","","","","win-only","3","g1:SW,g2:NE","0.9","2","0","267273","1478","6479.9","48815.5","1","4","8","6","2","-8","-9","0","4","0","1540.3","3000","-2270","[""up"",""right""]","{""num_key_presses"":9,""num_perfect"":7,""num_errors"":1,""num_randdir"":1,""num_randdir_good_moves"":0,""num_whilered"":0,""num_whileblue"":1,""num_blue"":5,""num_good_moves"":7}","[298.22232142857143,301.12857142857143,0.4,298.22232142857143,301.12857142857143,107.1,298.22232142857143,301.12857142857143,216,298.22232142857143,301.12857142857143,319.1,298.22232142857143,301.12857142857143,426.3,298.22232142857143,301.12857142857143,529.3,298.22232142857143,301.12857142857143,629.3,298.22232142857143,301.12857142857143,731.7,383.22232142857143,199.12857142857143,833.1,512.2223214285714,73.12857142857143,938,520.2223214285714,66.12857142857143,1038.5,530.2223214285714,57.128571428571426,1146.6,535.2223214285714,54.128571428571426,1250.5,536.2223214285714,54.128571428571426,1352.3,536.2223214285714,54.128571428571426,1454.5,536.2223214285714,54.128571428571426,1554.6,536.2223214285714,54.128571428571426,1660.3,536.2223214285714,54.128571428571426,1766.7,536.2223214285714,54.128571428571426,1872,536.2223214285714,54.128571428571426,1972.2,536.2223214285714,54.128571428571426,2078.3,536.2223214285714,54.128571428571426,2182,536.2223214285714,54.128571428571426,2284.6,536.2223214285714,54.128571428571426,2395.2,536.2223214285714,54.128571428571426,2501.9,536.2223214285714,54.128571428571426,2602.1,536.2223214285714,54.128571428571426,2705.1,536.2223214285714,54.128571428571426,2805.1,536.2223214285714,54.128571428571426,2910.6,536.2223214285714,54.128571428571426,3013.1,536.2223214285714,54.128571428571426,3116.4,536.2223214285714,54.128571428571426,3220.4,536.2223214285714,54.128571428571426,3321.8,536.2223214285714,54.128571428571426,3427.4,536.2223214285714,54.128571428571426,3531.9,536.2223214285714,54.128571428571426,3637.3,536.2223214285714,54.128571428571426,3744,536.2223214285714,54.128571428571426,3850.1,536.2223214285714,54.128571428571426,3957.6,536.2223214285714,54.128571428571426,4059.7,536.2223214285714,54.128571428571426,4161.2,536.2223214285714,54.128571428571426,4264.8,536.2223214285714,54.128571428571426,4374.1,536.2223214285714,54.128571428571426,4481.4,536.2223214285714,54.128571428571426,4583.1,536.2223214285714,54.128571428571426,4689.5,536.2223214285714,54.128571428571426,4796,536.2223214285714,54.128571428571426,4897.5]","[1398.6,1398.6,1000,0,398.6,""smooth"",""right"",""right"",""good_move"",4604.7,3205.4,2823.8,1399.3,381.6,""while_blue"",""right"",""down"",""bad_move"",7210.6,2603,2097.1,4607.6,505.9,""smooth"",""right"",""right"",""good_move"",10087.8,2876.4,2427.4,7211.4,449,""oops"",""right"",""left"",""bad_move"",19789.4,9700.4,2604.4,16698.3,486.7,""smooth"",""right"",""right"",""good_move"",22545.3,2754.3,2300.3,19791,454,""smooth"",""right"",""right"",""good_move"",29166.5,6619.4,2342.7,26188.6,635.2,""smooth"",""up"",""up"",""good_move"",36014.3,6845.8,2934.8,32593.6,485.9,""smooth"",""up"",""up"",""good_move"",39166.5,3151,2633.3,36015.6,517.6,""smooth"",""up"",""up"",""good_move""]"
"11995","","<div style=""width:500px;"">
  <p>What determined the result of this run?</p>
  </div>","85","html-slider-response","19","327044","0.0-7.0-1.1","102","1","2025-07-30 17:20:14","36c45c0696341be0efffe67d72a12abb","105.1.48.31","Mozilla/5.0 (Windows NT 10.0; Win64; x64) AppleWebKit/537.36 (KHTML, like Gecko) Chrome/138.0.0.0 Safari/537.36","WebKit","Chrome","138.0.0.0","Windows","10.0","https://app.prolific.com/","en-GB,en;q=0.9,en-US;q=0.8,zu;q=0.7,es;q=0.6","6129dca465e41b5ae1b262da","683dba9a53627eb9ab41b36a","688a543a1ac6289c6e906201","0","6129dca465e41b5ae1b262da","0","2025-07-30T17:25:46.107Z","","","","AttribQ","","","","","","","","","","","50","","","","","","","","","","","","","","","","","","","","","","","","","","",""
"4270","","<div style=""width:500px;"">
  <p>How much control did you have over the ball?</p>
  </div>","82","html-slider-response","20","331319","0.0-7.0-2.1","102","1","2025-07-30 17:20:14","36c45c0696341be0efffe67d72a12abb","105.1.48.31","Mozilla/5.0 (Windows NT 10.0; Win64; x64) AppleWebKit/537.36 (KHTML, like Gecko) Chrome/138.0.0.0 Safari/537.36","WebKit","Chrome","138.0.0.0","Windows","10.0","https://app.prolific.com/","en-GB,en;q=0.9,en-US;q=0.8,zu;q=0.7,es;q=0.6","6129dca465e41b5ae1b262da","683dba9a53627eb9ab41b36a","688a543a1ac6289c6e906201","0","6129dca465e41b5ae1b262da","0","2025-07-30T17:25:50.382Z","","","","ControlQ","","","","","","","","","","","50","","","","","","","","","","","","","","","","","","","","","","","","","","",""
"2890","","<div style=""width:500px;"">
  <p>How would you describe your current emotional state?</p>
  </div>","16","html-slider-response","21","334222","0.0-7.0-3.1","102","1","2025-07-30 17:20:14","36c45c0696341be0efffe67d72a12abb","105.1.48.31","Mozilla/5.0 (Windows NT 10.0; Win64; x64) AppleWebKit/537.36 (KHTML, like Gecko) Chrome/138.0.0.0 Safari/537.36","WebKit","Chrome","138.0.0.0","Windows","10.0","https://app.prolific.com/","en-GB,en;q=0.9,en-US;q=0.8,zu;q=0.7,es;q=0.6","6129dca465e41b5ae1b262da","683dba9a53627eb9ab41b36a","688a543a1ac6289c6e906201","0","6129dca465e41b5ae1b262da","0","2025-07-30T17:25:53.285Z","","","","StressQ","","","","","","","","","","","50","","","","","","","","","","","","","","","","","","","","","","","","","","",""
"2798","","<div style=""width:500px;"">
  <p>What best describes how you currently feel?</p>
  </div>","73","html-slider-response","22","337024","0.0-7.0-4.1","102","1","2025-07-30 17:20:14","36c45c0696341be0efffe67d72a12abb","105.1.48.31","Mozilla/5.0 (Windows NT 10.0; Win64; x64) AppleWebKit/537.36 (KHTML, like Gecko) Chrome/138.0.0.0 Safari/537.36","WebKit","Chrome","138.0.0.0","Windows","10.0","https://app.prolific.com/","en-GB,en;q=0.9,en-US;q=0.8,zu;q=0.7,es;q=0.6","6129dca465e41b5ae1b262da","683dba9a53627eb9ab41b36a","688a543a1ac6289c6e906201","0","6129dca465e41b5ae1b262da","0","2025-07-30T17:25:56.087Z","","","","MotivationQ","","","","","","","","","","","50","","","","","","","","","","","","","","","","","","","","","","","","","","",""
"","","","","ctl-task-cpt","23","366711","0.0-7.0-0.2","102","1","2025-07-30 17:20:14","36c45c0696341be0efffe67d72a12abb","105.1.48.31","Mozilla/5.0 (Windows NT 10.0; Win64; x64) AppleWebKit/537.36 (KHTML, like Gecko) Chrome/138.0.0.0 Safari/537.36","WebKit","Chrome","138.0.0.0","Windows","10.0","https://app.prolific.com/","en-GB,en;q=0.9,en-US;q=0.8,zu;q=0.7,es;q=0.6","6129dca465e41b5ae1b262da","683dba9a53627eb9ab41b36a","688a543a1ac6289c6e906201","0","6129dca465e41b5ae1b262da","0","2025-07-30T17:26:25.774Z","","","","","","","","","","","","","","","","win-only","0","g1:NW,g2:SE","0.8","3","0","341090.4","1430.7","6437.7","26666","1","4","8","6","2","8","7","7","0","0.05303030303030303","2189.8","3000","1415","[""down"",""right""]","{""num_key_presses"":6,""num_perfect"":4,""num_errors"":1,""num_randdir"":1,""num_randdir_good_moves"":1,""num_whilered"":0,""num_whileblue"":1,""num_blue"":2,""num_good_moves"":6}","[297.22232142857143,300.12857142857143,0.7,297.22232142857143,300.12857142857143,101.8,297.22232142857143,300.12857142857143,202.3,297.22232142857143,300.12857142857143,306.9,297.22232142857143,300.12857142857143,413.5,297.22232142857143,300.12857142857143,515.2,297.22232142857143,300.12857142857143,617.9,297.22232142857143,300.12857142857143,718.9,297.22232142857143,300.12857142857143,822.9,297.22232142857143,300.12857142857143,925,297.22232142857143,300.12857142857143,1027.5,297.22232142857143,300.12857142857143,1130.3,297.22232142857143,300.12857142857143,1238.6,309.22232142857143,318.12857142857143,1347.1,387.22232142857143,374.12857142857143,1460.1,462.22232142857143,421.12857142857143,1566.7,496.22232142857143,464.12857142857143,1672.5,505.22232142857143,495.12857142857143,1780.3,525.2223214285714,530.1285714285714,1880.4,528.2223214285714,533.1285714285714,1985.7,528.2223214285714,533.1285714285714,2089.1,528.2223214285714,533.1285714285714,2193.4,528.2223214285714,533.1285714285714,2296.4,528.2223214285714,533.1285714285714,2399.9,528.2223214285714,533.1285714285714,2501.9,528.2223214285714,533.1285714285714,2612.5,528.2223214285714,533.1285714285714,2713.4,528.2223214285714,533.1285714285714,2817.2,528.2223214285714,533.1285714285714,2930.9,528.2223214285714,533.1285714285714,3040.4,528.2223214285714,533.1285714285714,3140.7,528.2223214285714,533.1285714285714,3243.2,528.2223214285714,533.1285714285714,3348.6,528.2223214285714,533.1285714285714,3455.7,528.2223214285714,533.1285714285714,3558.1,528.2223214285714,533.1285714285714,3662.2,528.2223214285714,533.1285714285714,3767,528.2223214285714,533.1285714285714,3868.8,528.2223214285714,533.1285714285714,3974,528.2223214285714,533.1285714285714,4074.2,528.2223214285714,533.1285714285714,4174.9,528.2223214285714,533.1285714285714,4279.2,528.2223214285714,533.1285714285714,4391.8,528.2223214285714,533.1285714285714,4501.3,528.2223214285714,533.1285714285714,4606.8,528.2223214285714,533.1285714285714,4711.3,528.2223214285714,533.1285714285714,4814.9,528.2223214285714,533.1285714285714,4917.1]","[1415,1415,1000,0,415,""smooth"",""right"",""right"",""good_move"",4644.3,3224.3,2654.4,1420.1,569.8,""smooth"",""right"",""right"",""good_move"",7860.4,3215.4,2849.9,4645,365.5,""while_blue"",""right"",""down"",""good_move"",10797.9,2935.3,2499.9,7862.6,435.4,""smooth"",""right"",""right"",""good_move"",16712.7,5914.3,1568.7,14656,488,""smooth"",""down"",""down"",""good_move"",20108.4,3395,2976.4,16713.6,418.5,""oops"",""down"",""down"",""good_move""]"
"4652","","<div style=""width:500px;"">
  <p>What determined the result of this run?</p>
  </div>","100","html-slider-response","24","371368","0.0-7.0-1.2","102","1","2025-07-30 17:20:14","36c45c0696341be0efffe67d72a12abb","105.1.48.31","Mozilla/5.0 (Windows NT 10.0; Win64; x64) AppleWebKit/537.36 (KHTML, like Gecko) Chrome/138.0.0.0 Safari/537.36","WebKit","Chrome","138.0.0.0","Windows","10.0","https://app.prolific.com/","en-GB,en;q=0.9,en-US;q=0.8,zu;q=0.7,es;q=0.6","6129dca465e41b5ae1b262da","683dba9a53627eb9ab41b36a","688a543a1ac6289c6e906201","0","6129dca465e41b5ae1b262da","0","2025-07-30T17:26:30.431Z","","","","AttribQ","","","","","","","","","","","50","","","","","","","","","","","","","","","","","","","","","","","","","","",""
"3222","","<div style=""width:500px;"">
  <p>How much control did you have over the ball?</p>
  </div>","100","html-slider-response","25","374595","0.0-7.0-2.2","102","1","2025-07-30 17:20:14","36c45c0696341be0efffe67d72a12abb","105.1.48.31","Mozilla/5.0 (Windows NT 10.0; Win64; x64) AppleWebKit/537.36 (KHTML, like Gecko) Chrome/138.0.0.0 Safari/537.36","WebKit","Chrome","138.0.0.0","Windows","10.0","https://app.prolific.com/","en-GB,en;q=0.9,en-US;q=0.8,zu;q=0.7,es;q=0.6","6129dca465e41b5ae1b262da","683dba9a53627eb9ab41b36a","688a543a1ac6289c6e906201","0","6129dca465e41b5ae1b262da","0","2025-07-30T17:26:33.658Z","","","","ControlQ","","","","","","","","","","","50","","","","","","","","","","","","","","","","","","","","","","","","","","",""
"3705","","<div style=""width:500px;"">
  <p>How would you describe your current emotional state?</p>
  </div>","37","html-slider-response","26","378305","0.0-7.0-3.2","102","1","2025-07-30 17:20:14","36c45c0696341be0efffe67d72a12abb","105.1.48.31","Mozilla/5.0 (Windows NT 10.0; Win64; x64) AppleWebKit/537.36 (KHTML, like Gecko) Chrome/138.0.0.0 Safari/537.36","WebKit","Chrome","138.0.0.0","Windows","10.0","https://app.prolific.com/","en-GB,en;q=0.9,en-US;q=0.8,zu;q=0.7,es;q=0.6","6129dca465e41b5ae1b262da","683dba9a53627eb9ab41b36a","688a543a1ac6289c6e906201","0","6129dca465e41b5ae1b262da","0","2025-07-30T17:26:37.368Z","","","","StressQ","","","","","","","","","","","50","","","","","","","","","","","","","","","","","","","","","","","","","","",""
"2886","","<div style=""width:500px;"">
  <p>What best describes how you currently feel?</p>
  </div>","61","html-slider-response","27","381196","0.0-7.0-4.2","102","1","2025-07-30 17:20:14","36c45c0696341be0efffe67d72a12abb","105.1.48.31","Mozilla/5.0 (Windows NT 10.0; Win64; x64) AppleWebKit/537.36 (KHTML, like Gecko) Chrome/138.0.0.0 Safari/537.36","WebKit","Chrome","138.0.0.0","Windows","10.0","https://app.prolific.com/","en-GB,en;q=0.9,en-US;q=0.8,zu;q=0.7,es;q=0.6","6129dca465e41b5ae1b262da","683dba9a53627eb9ab41b36a","688a543a1ac6289c6e906201","0","6129dca465e41b5ae1b262da","0","2025-07-30T17:26:40.259Z","","","","MotivationQ","","","","","","","","","","","50","","","","","","","","","","","","","","","","","","","","","","","","","","",""
"","","","","ctl-task-cpt","28","413102","0.0-7.0-0.3","102","1","2025-07-30 17:20:14","36c45c0696341be0efffe67d72a12abb","105.1.48.31","Mozilla/5.0 (Windows NT 10.0; Win64; x64) AppleWebKit/537.36 (KHTML, like Gecko) Chrome/138.0.0.0 Safari/537.36","WebKit","Chrome","138.0.0.0","Windows","10.0","https://app.prolific.com/","en-GB,en;q=0.9,en-US;q=0.8,zu;q=0.7,es;q=0.6","6129dca465e41b5ae1b262da","683dba9a53627eb9ab41b36a","688a543a1ac6289c6e906201","0","6129dca465e41b5ae1b262da","0","2025-07-30T17:27:12.165Z","","","","","","","","","","","","","","","","win-only","2","g1:SE,g2:NW","0.7","4","0","385270.5","1485.3","6488.3","28875.8","1","4","4","6","2","4","4","11","7","0.08333333333333333","1479.6","3000","840","[""left"",""up""]","{""num_key_presses"":8,""num_perfect"":6,""num_errors"":0,""num_randdir"":2,""num_randdir_good_moves"":1,""num_whilered"":0,""num_whileblue"":0,""num_blue"":0,""num_good_moves"":7}","[295.22232142857143,299.12857142857143,0.6,295.22232142857143,299.12857142857143,101.3,295.22232142857143,299.12857142857143,205.7,295.22232142857143,299.12857142857143,311.6,295.22232142857143,299.12857142857143,423.5,295.22232142857143,299.12857142857143,532.1,295.22232142857143,299.12857142857143,633.6,295.22232142857143,299.12857142857143,734.3,272.22232142857143,278.12857142857143,835.8,148.22232142857143,151.12857142857143,939.9,83.22232142857143,91.12857142857143,1048.4,72.22232142857143,83.12857142857143,1153.5,64.22232142857143,77.12857142857143,1267.2,64.22232142857143,77.12857142857143,1395.6,64.22232142857143,77.12857142857143,1496.4,64.22232142857143,77.12857142857143,1597.8,64.22232142857143,77.12857142857143,1702.1,64.22232142857143,77.12857142857143,1809.3,64.22232142857143,77.12857142857143,1911.6,64.22232142857143,77.12857142857143,2012.2,64.22232142857143,77.12857142857143,2117.6,64.22232142857143,77.12857142857143,2219.7,64.22232142857143,77.12857142857143,2325.1,64.22232142857143,77.12857142857143,2429.6,64.22232142857143,77.12857142857143,2550.8,64.22232142857143,77.12857142857143,2658.5,64.22232142857143,77.12857142857143,2764.1,64.22232142857143,77.12857142857143,2864.2,64.22232142857143,77.12857142857143,2968.8,64.22232142857143,77.12857142857143,3074.4,64.22232142857143,77.12857142857143,3174.9,64.22232142857143,77.12857142857143,3276.2,64.22232142857143,77.12857142857143,3376.5,64.22232142857143,77.12857142857143,3476.9,64.22232142857143,77.12857142857143,3577.2,64.22232142857143,77.12857142857143,3679.8,64.22232142857143,77.12857142857143,3784.1,64.22232142857143,77.12857142857143,3885.3,64.22232142857143,77.12857142857143,3990,64.22232142857143,77.12857142857143,4099.4,64.22232142857143,77.12857142857143,4200.5,64.22232142857143,77.12857142857143,4306.6,64.22232142857143,77.12857142857143,4407.6,64.22232142857143,77.12857142857143,4509,64.22232142857143,77.12857142857143,4609.9,64.22232142857143,77.12857142857143,4710.8,64.22232142857143,77.12857142857143,4815.3,64.22232142857143,77.12857142857143,4922.7]","[1404.7,1404.7,1000,0,404.7,""oops"",""up"",""left"",""good_move"",4217.7,2812.2,2395.4,1405.5,416.8,""smooth"",""up"",""up"",""good_move"",6806.9,2588.1,2204.1,4218.8,384,""smooth"",""up"",""up"",""good_move"",10288.2,3480.5,3087.4,6807.7,393.1,""smooth"",""up"",""up"",""good_move"",13529.5,3230.7,2799.4,10298.8,431.3,""oops"",""left"",""down"",""bad_move"",16475.7,2944.4,2545.8,13531.3,398.6,""smooth"",""left"",""left"",""good_move"",19359.4,2880.4,2504,16479.1,376.4,""smooth"",""left"",""left"",""good_move"",22254.9,2894.6,2545.8,19360.4,348.7,""smooth"",""up"",""up"",""good_move""]"
"4685","","<div style=""width:500px;"">
  <p>What determined the result of this run?</p>
  </div>","100","html-slider-response","29","417789","0.0-7.0-1.3","102","1","2025-07-30 17:20:14","36c45c0696341be0efffe67d72a12abb","105.1.48.31","Mozilla/5.0 (Windows NT 10.0; Win64; x64) AppleWebKit/537.36 (KHTML, like Gecko) Chrome/138.0.0.0 Safari/537.36","WebKit","Chrome","138.0.0.0","Windows","10.0","https://app.prolific.com/","en-GB,en;q=0.9,en-US;q=0.8,zu;q=0.7,es;q=0.6","6129dca465e41b5ae1b262da","683dba9a53627eb9ab41b36a","688a543a1ac6289c6e906201","0","6129dca465e41b5ae1b262da","0","2025-07-30T17:27:16.852Z","","","","AttribQ","","","","","","","","","","","50","","","","","","","","","","","","","","","","","","","","","","","","","","",""
"3161","","<div style=""width:500px;"">
  <p>How much control did you have over the ball?</p>
  </div>","96","html-slider-response","30","420952","0.0-7.0-2.3","102","1","2025-07-30 17:20:14","36c45c0696341be0efffe67d72a12abb","105.1.48.31","Mozilla/5.0 (Windows NT 10.0; Win64; x64) AppleWebKit/537.36 (KHTML, like Gecko) Chrome/138.0.0.0 Safari/537.36","WebKit","Chrome","138.0.0.0","Windows","10.0","https://app.prolific.com/","en-GB,en;q=0.9,en-US;q=0.8,zu;q=0.7,es;q=0.6","6129dca465e41b5ae1b262da","683dba9a53627eb9ab41b36a","688a543a1ac6289c6e906201","0","6129dca465e41b5ae1b262da","0","2025-07-30T17:27:20.015Z","","","","ControlQ","","","","","","","","","","","50","","","","","","","","","","","","","","","","","","","","","","","","","","",""
"3047","","<div style=""width:500px;"">
  <p>How would you describe your current emotional state?</p>
  </div>","24","html-slider-response","31","424001","0.0-7.0-3.3","102","1","2025-07-30 17:20:14","36c45c0696341be0efffe67d72a12abb","105.1.48.31","Mozilla/5.0 (Windows NT 10.0; Win64; x64) AppleWebKit/537.36 (KHTML, like Gecko) Chrome/138.0.0.0 Safari/537.36","WebKit","Chrome","138.0.0.0","Windows","10.0","https://app.prolific.com/","en-GB,en;q=0.9,en-US;q=0.8,zu;q=0.7,es;q=0.6","6129dca465e41b5ae1b262da","683dba9a53627eb9ab41b36a","688a543a1ac6289c6e906201","0","6129dca465e41b5ae1b262da","0","2025-07-30T17:27:23.064Z","","","","StressQ","","","","","","","","","","","50","","","","","","","","","","","","","","","","","","","","","","","","","","",""
"3623","","<div style=""width:500px;"">
  <p>What best describes how you currently feel?</p>
  </div>","79","html-slider-response","32","427630","0.0-7.0-4.3","102","1","2025-07-30 17:20:14","36c45c0696341be0efffe67d72a12abb","105.1.48.31","Mozilla/5.0 (Windows NT 10.0; Win64; x64) AppleWebKit/537.36 (KHTML, like Gecko) Chrome/138.0.0.0 Safari/537.36","WebKit","Chrome","138.0.0.0","Windows","10.0","https://app.prolific.com/","en-GB,en;q=0.9,en-US;q=0.8,zu;q=0.7,es;q=0.6","6129dca465e41b5ae1b262da","683dba9a53627eb9ab41b36a","688a543a1ac6289c6e906201","0","6129dca465e41b5ae1b262da","0","2025-07-30T17:27:26.694Z","","","","MotivationQ","","","","","","","","","","","50","","","","","","","","","","","","","","","","","","","","","","","","","","",""
"","","","","ctl-task-cpt","33","471043","0.0-7.0-0.4","102","1","2025-07-30 17:20:14","36c45c0696341be0efffe67d72a12abb","105.1.48.31","Mozilla/5.0 (Windows NT 10.0; Win64; x64) AppleWebKit/537.36 (KHTML, like Gecko) Chrome/138.0.0.0 Safari/537.36","WebKit","Chrome","138.0.0.0","Windows","10.0","https://app.prolific.com/","en-GB,en;q=0.9,en-US;q=0.8,zu;q=0.7,es;q=0.6","6129dca465e41b5ae1b262da","683dba9a53627eb9ab41b36a","688a543a1ac6289c6e906201","0","6129dca465e41b5ae1b262da","0","2025-07-30T17:28:10.106Z","","","","","","","","","","","","","","","","win-only","3","g1:SW,g2:NE","0.6","5","0","431697","1352.7","6359.9","40398.3","1","4","8","6","2","8","7","18","11","0.13636363636363635","1489.8","3000","130","[""up"",""right""]","{""num_key_presses"":12,""num_perfect"":7,""num_errors"":1,""num_randdir"":4,""num_randdir_good_moves"":1,""num_whilered"":0,""num_whileblue"":1,""num_blue"":1,""num_good_moves"":9}","[301.22232142857143,295.12857142857143,13.6,301.22232142857143,295.12857142857143,104.5,301.22232142857143,295.12857142857143,206,301.22232142857143,295.12857142857143,312.6,301.22232142857143,295.12857142857143,418.6,301.22232142857143,295.12857142857143,524.5,301.22232142857143,295.12857142857143,629.3,301.22232142857143,295.12857142857143,737.7,472.22232142857143,143.12857142857143,860.1,528.2223214285714,92.12857142857143,963.4,540.2223214285714,79.12857142857143,1067.6,544.2223214285714,75.12857142857143,1175.5,545.2223214285714,74.12857142857143,1282.1,545.2223214285714,74.12857142857143,1387.2,545.2223214285714,74.12857142857143,1492.4,545.2223214285714,74.12857142857143,1594.5,545.2223214285714,74.12857142857143,1694.5,545.2223214285714,74.12857142857143,1803.2,545.2223214285714,74.12857142857143,1910.3,545.2223214285714,74.12857142857143,2018.3,545.2223214285714,74.12857142857143,2123.4,545.2223214285714,74.12857142857143,2228.5,545.2223214285714,74.12857142857143,2344.7,545.2223214285714,74.12857142857143,2447.2,545.2223214285714,74.12857142857143,2548.8,545.2223214285714,74.12857142857143,2654.1,545.2223214285714,74.12857142857143,2758.3,545.2223214285714,74.12857142857143,2868,545.2223214285714,74.12857142857143,2970,545.2223214285714,74.12857142857143,3070.3,545.2223214285714,74.12857142857143,3172.7,545.2223214285714,74.12857142857143,3277.1,545.2223214285714,74.12857142857143,3377.1,545.2223214285714,74.12857142857143,3478.7,545.2223214285714,74.12857142857143,3589.4,545.2223214285714,74.12857142857143,3695.1,545.2223214285714,74.12857142857143,3811.6,545.2223214285714,74.12857142857143,3913.1,545.2223214285714,74.12857142857143,4020.1,545.2223214285714,74.12857142857143,4124.4,545.2223214285714,74.12857142857143,4227.7,545.2223214285714,74.12857142857143,4330.8,545.2223214285714,74.12857142857143,4432.8,545.2223214285714,74.12857142857143,4533.4,545.2223214285714,74.12857142857143,4637,545.2223214285714,74.12857142857143,4739.6,545.2223214285714,74.12857142857143,4843.8,545.2223214285714,74.12857142857143,4950.3]","[1387.2,1387.3,1000,0,387.3,""smooth"",""up"",""up"",""good_move"",3819,2430.9,2005.1,1388.1,425.8,""oops"",""up"",""left"",""bad_move"",7025.5,3203.1,2833.4,3822.5,369.6,""smooth"",""up"",""up"",""good_move"",9902.2,2876,2493.6,7026.3,382.3,""oops"",""up"",""left"",""bad_move"",13253.3,3349.9,3026.9,9903.4,323,""while_blue"",""up"",""right"",""good_move"",16146.2,2890.9,2513.8,13255.3,377.1,""oops"",""up"",""down"",""bad_move"",18653,2505,2062,16148,443,""smooth"",""up"",""up"",""good_move"",22014.9,3360.9,3033.9,18654,327,""oops"",""up"",""up"",""good_move"",25107.3,3091.7,2713.3,22015.6,378.4,""smooth"",""right"",""right"",""good_move"",28104.1,2996,2620.5,25108.1,375.5,""smooth"",""right"",""right"",""good_move"",31302.4,3197.5,2802.9,28104.9,394.6,""smooth"",""right"",""right"",""good_move"",33912.3,2609,2288.4,31303.3,320.6,""smooth"",""right"",""right"",""good_move""]"
"4797","","<div style=""width:500px;"">
  <p>What determined the result of this run?</p>
  </div>","100","html-slider-response","34","475841","0.0-7.0-1.4","102","1","2025-07-30 17:20:14","36c45c0696341be0efffe67d72a12abb","105.1.48.31","Mozilla/5.0 (Windows NT 10.0; Win64; x64) AppleWebKit/537.36 (KHTML, like Gecko) Chrome/138.0.0.0 Safari/537.36","WebKit","Chrome","138.0.0.0","Windows","10.0","https://app.prolific.com/","en-GB,en;q=0.9,en-US;q=0.8,zu;q=0.7,es;q=0.6","6129dca465e41b5ae1b262da","683dba9a53627eb9ab41b36a","688a543a1ac6289c6e906201","0","6129dca465e41b5ae1b262da","0","2025-07-30T17:28:14.905Z","","","","AttribQ","","","","","","","","","","","50","","","","","","","","","","","","","","","","","","","","","","","","","","",""
"3906","","<div style=""width:500px;"">
  <p>How much control did you have over the ball?</p>
  </div>","93","html-slider-response","35","479750","0.0-7.0-2.4","102","1","2025-07-30 17:20:14","36c45c0696341be0efffe67d72a12abb","105.1.48.31","Mozilla/5.0 (Windows NT 10.0; Win64; x64) AppleWebKit/537.36 (KHTML, like Gecko) Chrome/138.0.0.0 Safari/537.36","WebKit","Chrome","138.0.0.0","Windows","10.0","https://app.prolific.com/","en-GB,en;q=0.9,en-US;q=0.8,zu;q=0.7,es;q=0.6","6129dca465e41b5ae1b262da","683dba9a53627eb9ab41b36a","688a543a1ac6289c6e906201","0","6129dca465e41b5ae1b262da","0","2025-07-30T17:28:18.814Z","","","","ControlQ","","","","","","","","","","","50","","","","","","","","","","","","","","","","","","","","","","","","","","",""
"2949","","<div style=""width:500px;"">
  <p>How would you describe your current emotional state?</p>
  </div>","19","html-slider-response","36","482704","0.0-7.0-3.4","102","1","2025-07-30 17:20:14","36c45c0696341be0efffe67d72a12abb","105.1.48.31","Mozilla/5.0 (Windows NT 10.0; Win64; x64) AppleWebKit/537.36 (KHTML, like Gecko) Chrome/138.0.0.0 Safari/537.36","WebKit","Chrome","138.0.0.0","Windows","10.0","https://app.prolific.com/","en-GB,en;q=0.9,en-US;q=0.8,zu;q=0.7,es;q=0.6","6129dca465e41b5ae1b262da","683dba9a53627eb9ab41b36a","688a543a1ac6289c6e906201","0","6129dca465e41b5ae1b262da","0","2025-07-30T17:28:21.767Z","","","","StressQ","","","","","","","","","","","50","","","","","","","","","","","","","","","","","","","","","","","","","","",""
"2939","","<div style=""width:500px;"">
  <p>What best describes how you currently feel?</p>
  </div>","84","html-slider-response","37","485646","0.0-7.0-4.4","102","1","2025-07-30 17:20:14","36c45c0696341be0efffe67d72a12abb","105.1.48.31","Mozilla/5.0 (Windows NT 10.0; Win64; x64) AppleWebKit/537.36 (KHTML, like Gecko) Chrome/138.0.0.0 Safari/537.36","WebKit","Chrome","138.0.0.0","Windows","10.0","https://app.prolific.com/","en-GB,en;q=0.9,en-US;q=0.8,zu;q=0.7,es;q=0.6","6129dca465e41b5ae1b262da","683dba9a53627eb9ab41b36a","688a543a1ac6289c6e906201","0","6129dca465e41b5ae1b262da","0","2025-07-30T17:28:24.709Z","","","","MotivationQ","","","","","","","","","","","50","","","","","","","","","","","","","","","","","","","","","","","","","","",""
"","","","","ctl-task-cpt","38","515937","0.0-7.0-0.5","102","1","2025-07-30 17:20:14","36c45c0696341be0efffe67d72a12abb","105.1.48.31","Mozilla/5.0 (Windows NT 10.0; Win64; x64) AppleWebKit/537.36 (KHTML, like Gecko) Chrome/138.0.0.0 Safari/537.36","WebKit","Chrome","138.0.0.0","Windows","10.0","https://app.prolific.com/","en-GB,en;q=0.9,en-US;q=0.8,zu;q=0.7,es;q=0.6","6129dca465e41b5ae1b262da","683dba9a53627eb9ab41b36a","688a543a1ac6289c6e906201","0","6129dca465e41b5ae1b262da","0","2025-07-30T17:28:55.000Z","","","","","","","","","","","","","","","","win-only","0","g1:NW,g2:SE","0.5","6","0","489710.6","1636.3","6641.1","27267.5","1","4","4","6","2","4","4","22","18","0.16666666666666666","1690.1","3000","890","[""down"",""right""]","{""num_key_presses"":8,""num_perfect"":5,""num_errors"":0,""num_randdir"":3,""num_randdir_good_moves"":2,""num_whilered"":0,""num_whileblue"":0,""num_blue"":0,""num_good_moves"":7}","[295.22232142857143,297.12857142857143,0.6,295.22232142857143,297.12857142857143,104.9,295.22232142857143,297.12857142857143,214.4,295.22232142857143,297.12857142857143,318.1,295.22232142857143,297.12857142857143,428.4,295.22232142857143,297.12857142857143,533.7,295.22232142857143,297.12857142857143,635.8,295.22232142857143,297.12857142857143,736.9,295.22232142857143,297.12857142857143,843.9,411.22232142857143,375.12857142857143,955.4,483.22232142857143,445.12857142857143,1058.8,518.2223214285714,491.12857142857143,1161.3,539.2223214285714,522.1285714285714,1261.5,547.2223214285714,530.1285714285714,1362.6,550.2223214285714,533.1285714285714,1468.7,550.2223214285714,533.1285714285714,1576.9,550.2223214285714,533.1285714285714,1677.3,550.2223214285714,533.1285714285714,1787.1,550.2223214285714,533.1285714285714,1889.7,550.2223214285714,533.1285714285714,1990.9,550.2223214285714,533.1285714285714,2093.2,550.2223214285714,533.1285714285714,2200.9,550.2223214285714,533.1285714285714,2302.7,550.2223214285714,533.1285714285714,2409.8,550.2223214285714,533.1285714285714,2515.3,550.2223214285714,533.1285714285714,2624.4,550.2223214285714,533.1285714285714,2725.5,550.2223214285714,533.1285714285714,2825.9,550.2223214285714,533.1285714285714,2931.6,550.2223214285714,533.1285714285714,3041.5,550.2223214285714,533.1285714285714,3155.9,550.2223214285714,533.1285714285714,3268.5,550.2223214285714,533.1285714285714,3371.5,550.2223214285714,533.1285714285714,3481.7,550.2223214285714,533.1285714285714,3585.7,550.2223214285714,533.1285714285714,3690.6,550.2223214285714,533.1285714285714,3800.1,550.2223214285714,533.1285714285714,3911.3,550.2223214285714,533.1285714285714,4020,550.2223214285714,533.1285714285714,4127,550.2223214285714,533.1285714285714,4235.7,550.2223214285714,533.1285714285714,4341.5,550.2223214285714,533.1285714285714,4449.1,550.2223214285714,533.1285714285714,4549.5,550.2223214285714,533.1285714285714,4651.5,550.2223214285714,533.1285714285714,4755.8,550.2223214285714,533.1285714285714,4866.1,550.2223214285714,533.1285714285714,4968.3]","[1407.5,1407.6,1000,0,407.6,""smooth"",""down"",""down"",""good_move"",4712.1,3303.5,2916.2,1408.6,387.3,""smooth"",""down"",""down"",""good_move"",6924.6,2212.3,1736.4,4712.3,475.9,""oops"",""down"",""right"",""good_move"",9843.7,2917.6,2449.1,6926.1,468.5,""oops"",""down"",""down"",""good_move"",12109.4,2260.3,1883,9849.1,377.3,""smooth"",""right"",""right"",""good_move"",15340.9,3227.9,2730.9,12113,497,""oops"",""right"",""up"",""bad_move"",17626.7,2282.3,1878.5,15344.4,403.8,""smooth"",""right"",""right"",""good_move"",20476.9,2849.3,2512.3,17627.7,336.9,""smooth"",""down"",""down"",""good_move""]"
"5373","","<div style=""width:500px;"">
  <p>What determined the result of this run?</p>
  </div>","100","html-slider-response","39","521312","0.0-7.0-1.5","102","1","2025-07-30 17:20:14","36c45c0696341be0efffe67d72a12abb","105.1.48.31","Mozilla/5.0 (Windows NT 10.0; Win64; x64) AppleWebKit/537.36 (KHTML, like Gecko) Chrome/138.0.0.0 Safari/537.36","WebKit","Chrome","138.0.0.0","Windows","10.0","https://app.prolific.com/","en-GB,en;q=0.9,en-US;q=0.8,zu;q=0.7,es;q=0.6","6129dca465e41b5ae1b262da","683dba9a53627eb9ab41b36a","688a543a1ac6289c6e906201","0","6129dca465e41b5ae1b262da","0","2025-07-30T17:29:00.375Z","","","","AttribQ","","","","","","","","","","","50","","","","","","","","","","","","","","","","","","","","","","","","","","",""
"2729","","<div style=""width:500px;"">
  <p>How much control did you have over the ball?</p>
  </div>","87","html-slider-response","40","524043","0.0-7.0-2.5","102","1","2025-07-30 17:20:14","36c45c0696341be0efffe67d72a12abb","105.1.48.31","Mozilla/5.0 (Windows NT 10.0; Win64; x64) AppleWebKit/537.36 (KHTML, like Gecko) Chrome/138.0.0.0 Safari/537.36","WebKit","Chrome","138.0.0.0","Windows","10.0","https://app.prolific.com/","en-GB,en;q=0.9,en-US;q=0.8,zu;q=0.7,es;q=0.6","6129dca465e41b5ae1b262da","683dba9a53627eb9ab41b36a","688a543a1ac6289c6e906201","0","6129dca465e41b5ae1b262da","0","2025-07-30T17:29:03.107Z","","","","ControlQ","","","","","","","","","","","50","","","","","","","","","","","","","","","","","","","","","","","","","","",""
"3686","","<div style=""width:500px;"">
  <p>How would you describe your current emotional state?</p>
  </div>","21","html-slider-response","41","527733","0.0-7.0-3.5","102","1","2025-07-30 17:20:14","36c45c0696341be0efffe67d72a12abb","105.1.48.31","Mozilla/5.0 (Windows NT 10.0; Win64; x64) AppleWebKit/537.36 (KHTML, like Gecko) Chrome/138.0.0.0 Safari/537.36","WebKit","Chrome","138.0.0.0","Windows","10.0","https://app.prolific.com/","en-GB,en;q=0.9,en-US;q=0.8,zu;q=0.7,es;q=0.6","6129dca465e41b5ae1b262da","683dba9a53627eb9ab41b36a","688a543a1ac6289c6e906201","0","6129dca465e41b5ae1b262da","0","2025-07-30T17:29:06.796Z","","","","StressQ","","","","","","","","","","","50","","","","","","","","","","","","","","","","","","","","","","","","","","",""
"3061","","<div style=""width:500px;"">
  <p>What best describes how you currently feel?</p>
  </div>","81","html-slider-response","42","530797","0.0-7.0-4.5","102","1","2025-07-30 17:20:14","36c45c0696341be0efffe67d72a12abb","105.1.48.31","Mozilla/5.0 (Windows NT 10.0; Win64; x64) AppleWebKit/537.36 (KHTML, like Gecko) Chrome/138.0.0.0 Safari/537.36","WebKit","Chrome","138.0.0.0","Windows","10.0","https://app.prolific.com/","en-GB,en;q=0.9,en-US;q=0.8,zu;q=0.7,es;q=0.6","6129dca465e41b5ae1b262da","683dba9a53627eb9ab41b36a","688a543a1ac6289c6e906201","0","6129dca465e41b5ae1b262da","0","2025-07-30T17:29:09.860Z","","","","MotivationQ","","","","","","","","","","","50","","","","","","","","","","","","","","","","","","","","","","","","","","",""
"","","","","ctl-task-cpt","43","582085","0.0-7.0-0.6","102","1","2025-07-30 17:20:14","36c45c0696341be0efffe67d72a12abb","105.1.48.31","Mozilla/5.0 (Windows NT 10.0; Win64; x64) AppleWebKit/537.36 (KHTML, like Gecko) Chrome/138.0.0.0 Safari/537.36","WebKit","Chrome","138.0.0.0","Windows","10.0","https://app.prolific.com/","en-GB,en;q=0.9,en-US;q=0.8,zu;q=0.7,es;q=0.6","6129dca465e41b5ae1b262da","683dba9a53627eb9ab41b36a","688a543a1ac6289c6e906201","0","6129dca465e41b5ae1b262da","0","2025-07-30T17:30:01.148Z","","","","","","","","","","","","","","","","win-only","1","g1:NE,g2:SW","0.4","7","0","534861.4","4603.3","9615.2","48263.3","1","4","8","6","2","-8","-9","13","22","0.09848484848484848","1608","3000","-1955","[""down"",""left""]","{""num_key_presses"":13,""num_perfect"":4,""num_errors"":1,""num_randdir"":8,""num_randdir_good_moves"":3,""num_whilered"":0,""num_whileblue"":1,""num_blue"":1,""num_good_moves"":7}","[297.22232142857143,298.12857142857143,2.1,297.22232142857143,298.12857142857143,106.8,297.22232142857143,298.12857142857143,211.1,297.22232142857143,298.12857142857143,315.3,297.22232142857143,298.12857142857143,417.1,297.22232142857143,298.12857142857143,523.8,297.22232142857143,298.12857142857143,628.6,297.22232142857143,298.12857142857143,730.4,247.22232142857143,348.12857142857143,830.9,124.22232142857143,447.12857142857143,939.6,93.22232142857143,479.12857142857143,1041,70.22232142857143,510.12857142857143,1146.6,52.222321428571426,535.1285714285714,1254.8,49.222321428571426,539.1285714285714,1358.3,49.222321428571426,539.1285714285714,1460.6,49.222321428571426,539.1285714285714,1562.6,49.222321428571426,539.1285714285714,1663.9,49.222321428571426,539.1285714285714,1770.3,49.222321428571426,539.1285714285714,1878.6,49.222321428571426,539.1285714285714,1980.3,49.222321428571426,539.1285714285714,2086.4,49.222321428571426,539.1285714285714,2188.8,49.222321428571426,539.1285714285714,2288.8,49.222321428571426,539.1285714285714,2392.6,49.222321428571426,539.1285714285714,2492.7,49.222321428571426,539.1285714285714,2600.3,49.222321428571426,539.1285714285714,2709.1,49.222321428571426,539.1285714285714,2809.6,49.222321428571426,539.1285714285714,2914.8,49.222321428571426,539.1285714285714,3028.9,49.222321428571426,539.1285714285714,3128.9,49.222321428571426,539.1285714285714,3229.3,49.222321428571426,539.1285714285714,3330,49.222321428571426,539.1285714285714,3440.2,49.222321428571426,539.1285714285714,3542.7,49.222321428571426,539.1285714285714,3643.8,49.222321428571426,539.1285714285714,3744,49.222321428571426,539.1285714285714,3844.1,49.222321428571426,539.1285714285714,3949.8,49.222321428571426,539.1285714285714,4056.7,49.222321428571426,539.1285714285714,4166.1,49.222321428571426,539.1285714285714,4273.2,49.222321428571426,539.1285714285714,4374.8,49.222321428571426,539.1285714285714,4477.7,49.222321428571426,539.1285714285714,4579.9,49.222321428571426,539.1285714285714,4680.6,49.222321428571426,539.1285714285714,4794.9,49.222321428571426,539.1285714285714,4901.1]","[1408.9,1408.9,1000,0,408.9,""smooth"",""down"",""down"",""good_move"",4318.8,2908.3,2469.1,1410.5,439.2,""smooth"",""down"",""down"",""good_move"",7170.2,2850.2,2487,4320,363.2,""smooth"",""down"",""down"",""good_move"",10503.4,3331.8,2953.6,7171.6,378.2,""oops"",""left"",""right"",""bad_move"",13276.7,2770.1,2380.4,10506.6,389.7,""oops"",""left"",""right"",""bad_move"",15946.9,2668.9,2290.5,13278,378.4,""smooth"",""left"",""left"",""good_move"",18785.6,2836.9,2407.3,15948.7,429.6,""oops"",""left"",""left"",""good_move"",22310.5,3522.4,3041.5,18788.1,480.9,""oops"",""left"",""up"",""bad_move"",25765.4,3443.3,2918.4,22322.1,524.9,""oops"",""left"",""up"",""bad_move"",28161.6,2394.6,1981.6,25767.2,412.9,""oops"",""left"",""down"",""good_move"",30969.2,2801.4,2478.6,28167.8,322.8,""while_blue"",""left"",""right"",""bad_move"",33603.4,2629.6,2284,30973.8,345.6,""oops"",""left"",""right"",""bad_move"",36327.2,2720.5,2341.2,33606.8,379.2,""oops"",""left"",""down"",""good_move""]"
"7045","","<div style=""width:500px;"">
  <p>What determined the result of this run?</p>
  </div>","54","html-slider-response","44","589132","0.0-7.0-1.6","102","1","2025-07-30 17:20:14","36c45c0696341be0efffe67d72a12abb","105.1.48.31","Mozilla/5.0 (Windows NT 10.0; Win64; x64) AppleWebKit/537.36 (KHTML, like Gecko) Chrome/138.0.0.0 Safari/537.36","WebKit","Chrome","138.0.0.0","Windows","10.0","https://app.prolific.com/","en-GB,en;q=0.9,en-US;q=0.8,zu;q=0.7,es;q=0.6","6129dca465e41b5ae1b262da","683dba9a53627eb9ab41b36a","688a543a1ac6289c6e906201","0","6129dca465e41b5ae1b262da","0","2025-07-30T17:30:08.195Z","","","","AttribQ","","","","","","","","","","","50","","","","","","","","","","","","","","","","","","","","","","","","","","",""
"5921","","<div style=""width:500px;"">
  <p>How much control did you have over the ball?</p>
  </div>","20","html-slider-response","45","595055","0.0-7.0-2.6","102","1","2025-07-30 17:20:14","36c45c0696341be0efffe67d72a12abb","105.1.48.31","Mozilla/5.0 (Windows NT 10.0; Win64; x64) AppleWebKit/537.36 (KHTML, like Gecko) Chrome/138.0.0.0 Safari/537.36","WebKit","Chrome","138.0.0.0","Windows","10.0","https://app.prolific.com/","en-GB,en;q=0.9,en-US;q=0.8,zu;q=0.7,es;q=0.6","6129dca465e41b5ae1b262da","683dba9a53627eb9ab41b36a","688a543a1ac6289c6e906201","0","6129dca465e41b5ae1b262da","0","2025-07-30T17:30:14.118Z","","","","ControlQ","","","","","","","","","","","50","","","","","","","","","","","","","","","","","","","","","","","","","","",""
"3435","","<div style=""width:500px;"">
  <p>How would you describe your current emotional state?</p>
  </div>","50","html-slider-response","46","598492","0.0-7.0-3.6","102","1","2025-07-30 17:20:14","36c45c0696341be0efffe67d72a12abb","105.1.48.31","Mozilla/5.0 (Windows NT 10.0; Win64; x64) AppleWebKit/537.36 (KHTML, like Gecko) Chrome/138.0.0.0 Safari/537.36","WebKit","Chrome","138.0.0.0","Windows","10.0","https://app.prolific.com/","en-GB,en;q=0.9,en-US;q=0.8,zu;q=0.7,es;q=0.6","6129dca465e41b5ae1b262da","683dba9a53627eb9ab41b36a","688a543a1ac6289c6e906201","0","6129dca465e41b5ae1b262da","0","2025-07-30T17:30:17.555Z","","","","StressQ","","","","","","","","","","","50","","","","","","","","","","","","","","","","","","","","","","","","","","",""
"3302","","<div style=""width:500px;"">
  <p>What best describes how you currently feel?</p>
  </div>","54","html-slider-response","47","601797","0.0-7.0-4.6","102","1","2025-07-30 17:20:14","36c45c0696341be0efffe67d72a12abb","105.1.48.31","Mozilla/5.0 (Windows NT 10.0; Win64; x64) AppleWebKit/537.36 (KHTML, like Gecko) Chrome/138.0.0.0 Safari/537.36","WebKit","Chrome","138.0.0.0","Windows","10.0","https://app.prolific.com/","en-GB,en;q=0.9,en-US;q=0.8,zu;q=0.7,es;q=0.6","6129dca465e41b5ae1b262da","683dba9a53627eb9ab41b36a","688a543a1ac6289c6e906201","0","6129dca465e41b5ae1b262da","0","2025-07-30T17:30:20.860Z","","","","MotivationQ","","","","","","","","","","","50","","","","","","","","","","","","","","","","","","","","","","","","","","",""
"","","","","ctl-task-cpt","48","656884","0.0-7.0-0.7","102","1","2025-07-30 17:20:14","36c45c0696341be0efffe67d72a12abb","105.1.48.31","Mozilla/5.0 (Windows NT 10.0; Win64; x64) AppleWebKit/537.36 (KHTML, like Gecko) Chrome/138.0.0.0 Safari/537.36","WebKit","Chrome","138.0.0.0","Windows","10.0","https://app.prolific.com/","en-GB,en;q=0.9,en-US;q=0.8,zu;q=0.7,es;q=0.6","6129dca465e41b5ae1b262da","683dba9a53627eb9ab41b36a","688a543a1ac6289c6e906201","0","6129dca465e41b5ae1b262da","0","2025-07-30T17:31:15.947Z","","","","","","","","","","","","","","","","win-only","0","g1:NW,g2:SE","0.3","8","0","605860.6","1709.2","6710.6","52070.8","1","4","4","6","2","-4","-4","9","13","0.06818181818181818","1805.4","3000","-1800","[""down"",""right""]","{""num_key_presses"":12,""num_perfect"":4,""num_errors"":0,""num_randdir"":8,""num_randdir_good_moves"":3,""num_whilered"":0,""num_whileblue"":0,""num_blue"":2,""num_good_moves"":7}","[292.22232142857143,298.12857142857143,0.7,292.22232142857143,298.12857142857143,105.3,292.22232142857143,298.12857142857143,207.7,292.22232142857143,298.12857142857143,316.2,292.22232142857143,298.12857142857143,423,292.22232142857143,298.12857142857143,531.2,292.22232142857143,298.12857142857143,637.6,292.22232142857143,298.12857142857143,744.3,292.22232142857143,298.12857142857143,854,319.22232142857143,321.12857142857143,959.1,405.22232142857143,415.12857142857143,1064.9,478.22232142857143,488.12857142857143,1166.9,510.22232142857143,522.1285714285714,1286.3,535.2223214285714,542.1285714285714,1388.4,546.2223214285714,549.1285714285714,1491.2,549.2223214285714,549.1285714285714,1592.3,549.2223214285714,549.1285714285714,1693.6,549.2223214285714,549.1285714285714,1797.7,549.2223214285714,549.1285714285714,1909.5,549.2223214285714,549.1285714285714,2015.8,549.2223214285714,549.1285714285714,2117.2,549.2223214285714,549.1285714285714,2224.3,549.2223214285714,549.1285714285714,2331.8,549.2223214285714,549.1285714285714,2432,549.2223214285714,549.1285714285714,2532.8,549.2223214285714,549.1285714285714,2639.5,549.2223214285714,549.1285714285714,2741.6,549.2223214285714,549.1285714285714,2845,549.2223214285714,549.1285714285714,2950.4,549.2223214285714,549.1285714285714,3057.6,549.2223214285714,549.1285714285714,3171.5,549.2223214285714,549.1285714285714,3279.3,549.2223214285714,549.1285714285714,3380.5,549.2223214285714,549.1285714285714,3480.7,549.2223214285714,549.1285714285714,3586.4,549.2223214285714,549.1285714285714,3692.7,549.2223214285714,549.1285714285714,3796.1,549.2223214285714,549.1285714285714,3903.2,549.2223214285714,549.1285714285714,4009.1,549.2223214285714,549.1285714285714,4122.3,549.2223214285714,549.1285714285714,4223.1,549.2223214285714,549.1285714285714,4323.8,549.2223214285714,549.1285714285714,4437.6,549.2223214285714,549.1285714285714,4538.8,549.2223214285714,549.1285714285714,4642.5,549.2223214285714,549.1285714285714,4743.6,549.2223214285714,549.1285714285714,4850.3,549.2223214285714,549.1285714285714,4952.4]","[1437,1437,1000,0,437,""oops"",""down"",""up"",""bad_move"",8244.4,6804.7,2523.4,5218.2,502.8,""oops"",""down"",""up"",""bad_move"",10707.7,2462.7,1972,8245.1,490.6,""smooth"",""down"",""down"",""good_move"",18352.7,7642.9,3019.4,14906.1,427.2,""oops"",""down"",""down"",""good_move"",21473.1,3108.9,2718,18364.2,390.9,""oops"",""down"",""left"",""bad_move"",24705.6,3231,2834.8,21474.6,396.2,""oops"",""down"",""down"",""good_move"",27902.4,3195.8,2802.1,24706.7,393.6,""oops"",""down"",""left"",""bad_move"",31006.7,3095.5,2678.1,27911.3,417.3,""smooth"",""down"",""down"",""good_move"",33260.4,2252.7,1855.2,31007.7,397.5,""oops"",""down"",""down"",""good_move"",36199.2,2937.5,2617.9,33261.7,319.6,""smooth"",""right"",""right"",""good_move"",40242.8,4042.2,3718.3,36200.6,323.9,""smooth"",""right"",""right"",""good_move"",43839.9,3595.6,3251,40244.3,344.6,""oops"",""right"",""up"",""bad_move""]"
"5746","","<div style=""width:500px;"">
  <p>What determined the result of this run?</p>
  </div>","0","html-slider-response","49","662632","0.0-7.0-1.7","102","1","2025-07-30 17:20:14","36c45c0696341be0efffe67d72a12abb","105.1.48.31","Mozilla/5.0 (Windows NT 10.0; Win64; x64) AppleWebKit/537.36 (KHTML, like Gecko) Chrome/138.0.0.0 Safari/537.36","WebKit","Chrome","138.0.0.0","Windows","10.0","https://app.prolific.com/","en-GB,en;q=0.9,en-US;q=0.8,zu;q=0.7,es;q=0.6","6129dca465e41b5ae1b262da","683dba9a53627eb9ab41b36a","688a543a1ac6289c6e906201","0","6129dca465e41b5ae1b262da","0","2025-07-30T17:31:21.695Z","","","","AttribQ","","","","","","","","","","","50","","","","","","","","","","","","","","","","","","","","","","","","","","",""
"3387","","<div style=""width:500px;"">
  <p>How much control did you have over the ball?</p>
  </div>","0","html-slider-response","50","666021","0.0-7.0-2.7","102","1","2025-07-30 17:20:14","36c45c0696341be0efffe67d72a12abb","105.1.48.31","Mozilla/5.0 (Windows NT 10.0; Win64; x64) AppleWebKit/537.36 (KHTML, like Gecko) Chrome/138.0.0.0 Safari/537.36","WebKit","Chrome","138.0.0.0","Windows","10.0","https://app.prolific.com/","en-GB,en;q=0.9,en-US;q=0.8,zu;q=0.7,es;q=0.6","6129dca465e41b5ae1b262da","683dba9a53627eb9ab41b36a","688a543a1ac6289c6e906201","0","6129dca465e41b5ae1b262da","0","2025-07-30T17:31:25.085Z","","","","ControlQ","","","","","","","","","","","50","","","","","","","","","","","","","","","","","","","","","","","","","","",""
"3006","","<div style=""width:500px;"">
  <p>How would you describe your current emotional state?</p>
  </div>","50","html-slider-response","51","669032","0.0-7.0-3.7","102","1","2025-07-30 17:20:14","36c45c0696341be0efffe67d72a12abb","105.1.48.31","Mozilla/5.0 (Windows NT 10.0; Win64; x64) AppleWebKit/537.36 (KHTML, like Gecko) Chrome/138.0.0.0 Safari/537.36","WebKit","Chrome","138.0.0.0","Windows","10.0","https://app.prolific.com/","en-GB,en;q=0.9,en-US;q=0.8,zu;q=0.7,es;q=0.6","6129dca465e41b5ae1b262da","683dba9a53627eb9ab41b36a","688a543a1ac6289c6e906201","0","6129dca465e41b5ae1b262da","0","2025-07-30T17:31:28.095Z","","","","StressQ","","","","","","","","","","","50","","","","","","","","","","","","","","","","","","","","","","","","","","",""
"2891","","<div style=""width:500px;"">
  <p>What best describes how you currently feel?</p>
  </div>","50","html-slider-response","52","671925","0.0-7.0-4.7","102","1","2025-07-30 17:20:14","36c45c0696341be0efffe67d72a12abb","105.1.48.31","Mozilla/5.0 (Windows NT 10.0; Win64; x64) AppleWebKit/537.36 (KHTML, like Gecko) Chrome/138.0.0.0 Safari/537.36","WebKit","Chrome","138.0.0.0","Windows","10.0","https://app.prolific.com/","en-GB,en;q=0.9,en-US;q=0.8,zu;q=0.7,es;q=0.6","6129dca465e41b5ae1b262da","683dba9a53627eb9ab41b36a","688a543a1ac6289c6e906201","0","6129dca465e41b5ae1b262da","0","2025-07-30T17:31:30.988Z","","","","MotivationQ","","","","","","","","","","","50","","","","","","","","","","","","","","","","","","","","","","","","","","",""
"","","","","ctl-task-cpt","53","712707","0.0-7.0-0.8","102","1","2025-07-30 17:20:14","36c45c0696341be0efffe67d72a12abb","105.1.48.31","Mozilla/5.0 (Windows NT 10.0; Win64; x64) AppleWebKit/537.36 (KHTML, like Gecko) Chrome/138.0.0.0 Safari/537.36","WebKit","Chrome","138.0.0.0","Windows","10.0","https://app.prolific.com/","en-GB,en;q=0.9,en-US;q=0.8,zu;q=0.7,es;q=0.6","6129dca465e41b5ae1b262da","683dba9a53627eb9ab41b36a","688a543a1ac6289c6e906201","0","6129dca465e41b5ae1b262da","0","2025-07-30T17:32:11.771Z","","","","","","","","","","","","","","","","win-only","1","g1:NE,g2:SW","0.4","9","0","675987.6","1320.5","6325.4","37752.2","1","4","8","6","2","8","8","17","9","0.12878787878787878","1558.2","3000","2075","[""down"",""left""]","{""num_key_presses"":8,""num_perfect"":3,""num_errors"":0,""num_randdir"":5,""num_randdir_good_moves"":4,""num_whilered"":0,""num_whileblue"":0,""num_blue"":2,""num_good_moves"":7}","[296.22232142857143,294.12857142857143,1,296.22232142857143,294.12857142857143,102,296.22232142857143,294.12857142857143,203.8,296.22232142857143,294.12857142857143,312.7,296.22232142857143,294.12857142857143,416.1,296.22232142857143,294.12857142857143,527.8,296.22232142857143,294.12857142857143,635.6,277.22232142857143,319.12857142857143,750.7,184.22232142857143,421.12857142857143,853.6,131.22232142857143,464.12857142857143,963,103.22232142857143,487.12857142857143,1081.1,84.22232142857143,504.12857142857143,1184.9,62.222321428571426,522.1285714285714,1290.7,61.222321428571426,524.1285714285714,1402.3,61.222321428571426,524.1285714285714,1513.3,61.222321428571426,524.1285714285714,1613.5,61.222321428571426,524.1285714285714,1714.7,61.222321428571426,524.1285714285714,1825.2,61.222321428571426,524.1285714285714,1939.2,61.222321428571426,524.1285714285714,2043.8,61.222321428571426,524.1285714285714,2147.9,61.222321428571426,524.1285714285714,2254.2,61.222321428571426,524.1285714285714,2363.2,61.222321428571426,524.1285714285714,2467,61.222321428571426,524.1285714285714,2572.5,61.222321428571426,524.1285714285714,2680.9,61.222321428571426,524.1285714285714,2784,61.222321428571426,524.1285714285714,2894.8,61.222321428571426,524.1285714285714,3000.7,61.222321428571426,524.1285714285714,3101.6,61.222321428571426,524.1285714285714,3209.7,61.222321428571426,524.1285714285714,3309.9,61.222321428571426,524.1285714285714,3414.8,61.222321428571426,524.1285714285714,3525.9,61.222321428571426,524.1285714285714,3626.9,61.222321428571426,524.1285714285714,3730.8,61.222321428571426,524.1285714285714,3840.9,61.222321428571426,524.1285714285714,3941.1,61.222321428571426,524.1285714285714,4042.9,61.222321428571426,524.1285714285714,4149,61.222321428571426,524.1285714285714,4256,61.222321428571426,524.1285714285714,4364.4,61.222321428571426,524.1285714285714,4470.4,61.222321428571426,524.1285714285714,4579.9,61.222321428571426,524.1285714285714,4681.3,61.222321428571426,524.1285714285714,4788.4,61.222321428571426,524.1285714285714,4901.3]","[1377.5,1377.9,1000,0,377.9,""smooth"",""down"",""down"",""good_move"",8563.5,7184.6,2986.4,5171,406.1,""oops"",""down"",""down"",""good_move"",12064.4,3499.1,3045.2,8565.4,453.8,""oops"",""down"",""left"",""good_move"",18201.9,6136.1,1875,15903.7,423.2,""oops"",""down"",""up"",""bad_move"",21784.3,3580.5,2569.7,18203.8,1010.8,""oops"",""down"",""left"",""good_move"",25814.8,4029.5,3133.2,21785.3,896.3,""oops"",""down"",""down"",""good_move"",28181.1,2365.5,1895.6,25815.6,469.9,""smooth"",""down"",""down"",""good_move"",30989.7,2806.6,2392.3,28183.1,414.3,""smooth"",""left"",""left"",""good_move""]"
"5191","","<div style=""width:500px;"">
  <p>What determined the result of this run?</p>
  </div>","58","html-slider-response","54","717903","0.0-7.0-1.8","102","1","2025-07-30 17:20:14","36c45c0696341be0efffe67d72a12abb","105.1.48.31","Mozilla/5.0 (Windows NT 10.0; Win64; x64) AppleWebKit/537.36 (KHTML, like Gecko) Chrome/138.0.0.0 Safari/537.36","WebKit","Chrome","138.0.0.0","Windows","10.0","https://app.prolific.com/","en-GB,en;q=0.9,en-US;q=0.8,zu;q=0.7,es;q=0.6","6129dca465e41b5ae1b262da","683dba9a53627eb9ab41b36a","688a543a1ac6289c6e906201","0","6129dca465e41b5ae1b262da","0","2025-07-30T17:32:16.966Z","","","","AttribQ","","","","","","","","","","","50","","","","","","","","","","","","","","","","","","","","","","","","","","",""
"2888","","<div style=""width:500px;"">
  <p>How much control did you have over the ball?</p>
  </div>","73","html-slider-response","55","720794","0.0-7.0-2.8","102","1","2025-07-30 17:20:14","36c45c0696341be0efffe67d72a12abb","105.1.48.31","Mozilla/5.0 (Windows NT 10.0; Win64; x64) AppleWebKit/537.36 (KHTML, like Gecko) Chrome/138.0.0.0 Safari/537.36","WebKit","Chrome","138.0.0.0","Windows","10.0","https://app.prolific.com/","en-GB,en;q=0.9,en-US;q=0.8,zu;q=0.7,es;q=0.6","6129dca465e41b5ae1b262da","683dba9a53627eb9ab41b36a","688a543a1ac6289c6e906201","0","6129dca465e41b5ae1b262da","0","2025-07-30T17:32:19.857Z","","","","ControlQ","","","","","","","","","","","50","","","","","","","","","","","","","","","","","","","","","","","","","","",""
"2823","","<div style=""width:500px;"">
  <p>How would you describe your current emotional state?</p>
  </div>","50","html-slider-response","56","723621","0.0-7.0-3.8","102","1","2025-07-30 17:20:14","36c45c0696341be0efffe67d72a12abb","105.1.48.31","Mozilla/5.0 (Windows NT 10.0; Win64; x64) AppleWebKit/537.36 (KHTML, like Gecko) Chrome/138.0.0.0 Safari/537.36","WebKit","Chrome","138.0.0.0","Windows","10.0","https://app.prolific.com/","en-GB,en;q=0.9,en-US;q=0.8,zu;q=0.7,es;q=0.6","6129dca465e41b5ae1b262da","683dba9a53627eb9ab41b36a","688a543a1ac6289c6e906201","0","6129dca465e41b5ae1b262da","0","2025-07-30T17:32:22.684Z","","","","StressQ","","","","","","","","","","","50","","","","","","","","","","","","","","","","","","","","","","","","","","",""
"2646","","<div style=""width:500px;"">
  <p>What best describes how you currently feel?</p>
  </div>","59","html-slider-response","57","726271","0.0-7.0-4.8","102","1","2025-07-30 17:20:14","36c45c0696341be0efffe67d72a12abb","105.1.48.31","Mozilla/5.0 (Windows NT 10.0; Win64; x64) AppleWebKit/537.36 (KHTML, like Gecko) Chrome/138.0.0.0 Safari/537.36","WebKit","Chrome","138.0.0.0","Windows","10.0","https://app.prolific.com/","en-GB,en;q=0.9,en-US;q=0.8,zu;q=0.7,es;q=0.6","6129dca465e41b5ae1b262da","683dba9a53627eb9ab41b36a","688a543a1ac6289c6e906201","0","6129dca465e41b5ae1b262da","0","2025-07-30T17:32:25.335Z","","","","MotivationQ","","","","","","","","","","","50","","","","","","","","","","","","","","","","","","","","","","","","","","",""
"","","","","ctl-task-cpt","58","870767","0.0-7.0-0.9","102","1","2025-07-30 17:20:14","36c45c0696341be0efffe67d72a12abb","105.1.48.31","Mozilla/5.0 (Windows NT 10.0; Win64; x64) AppleWebKit/537.36 (KHTML, like Gecko) Chrome/138.0.0.0 Safari/537.36","WebKit","Chrome","138.0.0.0","Windows","10.0","https://app.prolific.com/","en-GB,en;q=0.9,en-US;q=0.8,zu;q=0.7,es;q=0.6","6129dca465e41b5ae1b262da","683dba9a53627eb9ab41b36a","688a543a1ac6289c6e906201","0","6129dca465e41b5ae1b262da","0","2025-07-30T17:34:49.830Z","","","","","","","","","","","","","","","","win-only","1","g1:NE,g2:SW","0.5","10","0","730336.7","1503","6510.2","141428.8","1","4","4","6","2","4","3","20","17","0.15151515151515152","1753.1","3000","1835","[""down"",""left""]","{""num_key_presses"":22,""num_perfect"":11,""num_errors"":1,""num_randdir"":10,""num_randdir_good_moves"":3,""num_whilered"":0,""num_whileblue"":1,""num_blue"":5,""num_good_moves"":14}","[294.22232142857143,296.12857142857143,0.5,294.22232142857143,296.12857142857143,125.9,294.22232142857143,296.12857142857143,235.3,294.22232142857143,296.12857142857143,338.1,294.22232142857143,296.12857142857143,462.1,294.22232142857143,296.12857142857143,564.3,294.22232142857143,296.12857142857143,683.1,225.22232142857143,392.12857142857143,853.7,140.22232142857143,485.12857142857143,1016.2,118.22232142857143,503.12857142857143,1130.9,95.22232142857143,522.1285714285714,1255.8,81.22232142857143,531.1285714285714,1356.8,81.22232142857143,531.1285714285714,1484,81.22232142857143,531.1285714285714,1667,81.22232142857143,531.1285714285714,1772.5,81.22232142857143,531.1285714285714,1898.9,81.22232142857143,531.1285714285714,2021.4,81.22232142857143,531.1285714285714,2141.3,81.22232142857143,531.1285714285714,2261.7,81.22232142857143,531.1285714285714,2374.9,81.22232142857143,531.1285714285714,2493.1,81.22232142857143,531.1285714285714,2609.9,81.22232142857143,531.1285714285714,2723.2,81.22232142857143,531.1285714285714,2838.8,81.22232142857143,531.1285714285714,2949.1,81.22232142857143,531.1285714285714,3062.4,81.22232142857143,531.1285714285714,3180.9,81.22232142857143,531.1285714285714,3294.2,81.22232142857143,531.1285714285714,3405.1,81.22232142857143,531.1285714285714,3522.2,81.22232142857143,531.1285714285714,3635.4,81.22232142857143,531.1285714285714,3749.4,81.22232142857143,531.1285714285714,3865.2,81.22232142857143,531.1285714285714,3975.5,81.22232142857143,531.1285714285714,4090.2,81.22232142857143,531.1285714285714,4204.1,81.22232142857143,531.1285714285714,4313,81.22232142857143,531.1285714285714,4426,81.22232142857143,531.1285714285714,4535.3,81.22232142857143,531.1285714285714,4644.2,81.22232142857143,531.1285714285714,4754.3,81.22232142857143,531.1285714285714,4868.1,81.22232142857143,531.1285714285714,4977]","[1464.8,1464.9,1000,0,464.9,""smooth"",""down"",""down"",""good_move"",8182.6,6717.1,2973.9,4733.4,475.3,""oops"",""down"",""up"",""bad_move"",13895.5,5702.8,2738,8192.7,2964.8,""smooth"",""down"",""down"",""good_move"",16938.2,3042.2,2529.6,13896,512.6,""oops"",""down"",""right"",""bad_move"",20223.5,3284.2,2794.7,16939.3,489.5,""smooth"",""down"",""down"",""good_move"",22834.9,2610.7,2155.7,20224.3,454.9,""oops"",""down"",""up"",""bad_move"",32409.7,9572.4,2263,22837.3,7309.4,""smooth"",""down"",""down"",""good_move"",35195.2,2784,2310.9,32411.2,473.1,""oops"",""down"",""down"",""good_move"",39103.2,3894.6,3441.8,35208.6,452.8,""while_blue"",""left"",""up"",""bad_move"",47563.9,8459.5,2094.3,39104.4,6365.2,""smooth"",""left"",""left"",""good_move"",55821.1,8256.2,2378,47564.9,5878.2,""oops"",""left"",""left"",""good_move"",64214.8,8393.1,2255.3,55821.7,6137.8,""oops"",""left"",""up"",""bad_move"",72754.6,8539.2,2332.5,64215.5,6206.6,""oops"",""left"",""up"",""bad_move"",81246.1,8490.9,2777.3,72755.2,5713.6,""smooth"",""left"",""left"",""good_move"",92482.6,11235.9,1955.6,90047.3,479.7,""smooth"",""left"",""left"",""good_move"",101337.8,8854.7,1641.6,92483.2,7213,""smooth"",""down"",""down"",""good_move"",108204.5,6866.2,2363.4,105263.3,577.8,""oops"",""down"",""right"",""bad_move"",111982.3,3777.1,3250.8,108205.3,526.3,""smooth"",""down"",""down"",""good_move"",114960.6,2977.4,2416.2,111983.2,561.2,""oops"",""down"",""down"",""good_move"",121808.4,6846.3,2343.1,118999.2,466.1,""oops"",""left"",""right"",""bad_move"",125328,3518.9,3040.3,121809.1,478.6,""smooth"",""left"",""left"",""good_move"",134227.6,8898.8,2092.5,125328.8,6806.3,""smooth"",""left"",""left"",""good_move""]"
"5319","","<div style=""width:500px;"">
  <p>What determined the result of this run?</p>
  </div>","50","html-slider-response","59","876092","0.0-7.0-1.9","102","1","2025-07-30 17:20:14","36c45c0696341be0efffe67d72a12abb","105.1.48.31","Mozilla/5.0 (Windows NT 10.0; Win64; x64) AppleWebKit/537.36 (KHTML, like Gecko) Chrome/138.0.0.0 Safari/537.36","WebKit","Chrome","138.0.0.0","Windows","10.0","https://app.prolific.com/","en-GB,en;q=0.9,en-US;q=0.8,zu;q=0.7,es;q=0.6","6129dca465e41b5ae1b262da","683dba9a53627eb9ab41b36a","688a543a1ac6289c6e906201","0","6129dca465e41b5ae1b262da","0","2025-07-30T17:34:55.155Z","","","","AttribQ","","","","","","","","","","","50","","","","","","","","","","","","","","","","","","","","","","","","","","",""
"4439","","<div style=""width:500px;"">
  <p>How much control did you have over the ball?</p>
  </div>","25","html-slider-response","60","880537","0.0-7.0-2.9","102","1","2025-07-30 17:20:14","36c45c0696341be0efffe67d72a12abb","105.1.48.31","Mozilla/5.0 (Windows NT 10.0; Win64; x64) AppleWebKit/537.36 (KHTML, like Gecko) Chrome/138.0.0.0 Safari/537.36","WebKit","Chrome","138.0.0.0","Windows","10.0","https://app.prolific.com/","en-GB,en;q=0.9,en-US;q=0.8,zu;q=0.7,es;q=0.6","6129dca465e41b5ae1b262da","683dba9a53627eb9ab41b36a","688a543a1ac6289c6e906201","0","6129dca465e41b5ae1b262da","0","2025-07-30T17:34:59.601Z","","","","ControlQ","","","","","","","","","","","50","","","","","","","","","","","","","","","","","","","","","","","","","","",""
"3906","","<div style=""width:500px;"">
  <p>How would you describe your current emotional state?</p>
  </div>","44","html-slider-response","61","884470","0.0-7.0-3.9","102","1","2025-07-30 17:20:14","36c45c0696341be0efffe67d72a12abb","105.1.48.31","Mozilla/5.0 (Windows NT 10.0; Win64; x64) AppleWebKit/537.36 (KHTML, like Gecko) Chrome/138.0.0.0 Safari/537.36","WebKit","Chrome","138.0.0.0","Windows","10.0","https://app.prolific.com/","en-GB,en;q=0.9,en-US;q=0.8,zu;q=0.7,es;q=0.6","6129dca465e41b5ae1b262da","683dba9a53627eb9ab41b36a","688a543a1ac6289c6e906201","0","6129dca465e41b5ae1b262da","0","2025-07-30T17:35:03.533Z","","","","StressQ","","","","","","","","","","","50","","","","","","","","","","","","","","","","","","","","","","","","","","",""
"2740","","<div style=""width:500px;"">
  <p>What best describes how you currently feel?</p>
  </div>","57","html-slider-response","62","887215","0.0-7.0-4.9","102","1","2025-07-30 17:20:14","36c45c0696341be0efffe67d72a12abb","105.1.48.31","Mozilla/5.0 (Windows NT 10.0; Win64; x64) AppleWebKit/537.36 (KHTML, like Gecko) Chrome/138.0.0.0 Safari/537.36","WebKit","Chrome","138.0.0.0","Windows","10.0","https://app.prolific.com/","en-GB,en;q=0.9,en-US;q=0.8,zu;q=0.7,es;q=0.6","6129dca465e41b5ae1b262da","683dba9a53627eb9ab41b36a","688a543a1ac6289c6e906201","0","6129dca465e41b5ae1b262da","0","2025-07-30T17:35:06.278Z","","","","MotivationQ","","","","","","","","","","","50","","","","","","","","","","","","","","","","","","","","","","","","","","",""
"","","","","ctl-task-cpt","63","978523","0.0-7.0-0.10","102","1","2025-07-30 17:20:14","36c45c0696341be0efffe67d72a12abb","105.1.48.31","Mozilla/5.0 (Windows NT 10.0; Win64; x64) AppleWebKit/537.36 (KHTML, like Gecko) Chrome/138.0.0.0 Safari/537.36","WebKit","Chrome","138.0.0.0","Windows","10.0","https://app.prolific.com/","en-GB,en;q=0.9,en-US;q=0.8,zu;q=0.7,es;q=0.6","6129dca465e41b5ae1b262da","683dba9a53627eb9ab41b36a","688a543a1ac6289c6e906201","0","6129dca465e41b5ae1b262da","0","2025-07-30T17:36:37.587Z","","","","","","","","","","","","","","","","win-only","3","g1:SW,g2:NE","0.6","11","0","891282.5","1676.2","6707.1","88293","1","4","4","6","2","4","4","24","20","0.18181818181818182","1763.1","3000","2145","[""up"",""right""]","{""num_key_presses"":12,""num_perfect"":7,""num_errors"":0,""num_randdir"":5,""num_randdir_good_moves"":2,""num_whilered"":0,""num_whileblue"":0,""num_blue"":3,""num_good_moves"":9}","[302.22232142857143,289.12857142857143,0.6,302.22232142857143,289.12857142857143,113.1,302.22232142857143,289.12857142857143,231.5,302.22232142857143,289.12857142857143,345.3,302.22232142857143,289.12857142857143,464.3,302.22232142857143,289.12857142857143,576,302.22232142857143,289.12857142857143,690.1,302.22232142857143,289.12857142857143,799.8,302.22232142857143,289.12857142857143,911.7,302.22232142857143,289.12857142857143,1026.6,464.22232142857143,128.12857142857143,1152,511.22232142857143,89.12857142857143,1279.9,535.2223214285714,69.12857142857143,1404.3,538.2223214285714,66.12857142857143,1523.3,539.2223214285714,65.12857142857143,1632.8,539.2223214285714,65.12857142857143,1752.4,539.2223214285714,65.12857142857143,1870.4,539.2223214285714,65.12857142857143,1979.1,539.2223214285714,65.12857142857143,2105.1,539.2223214285714,65.12857142857143,2222.4,539.2223214285714,65.12857142857143,2334.9,539.2223214285714,65.12857142857143,2456.6,539.2223214285714,65.12857142857143,2580,539.2223214285714,65.12857142857143,2703.6,539.2223214285714,65.12857142857143,2819.7,539.2223214285714,65.12857142857143,2947.2,539.2223214285714,65.12857142857143,3073.2,539.2223214285714,65.12857142857143,3203.6,539.2223214285714,65.12857142857143,3334.4,539.2223214285714,65.12857142857143,3463.7,539.2223214285714,65.12857142857143,3587.9,539.2223214285714,65.12857142857143,3716.5,539.2223214285714,65.12857142857143,3889.3,539.2223214285714,65.12857142857143,4020.3,539.2223214285714,65.12857142857143,4150.4,539.2223214285714,65.12857142857143,4278.4,539.2223214285714,65.12857142857143,4403.4,539.2223214285714,65.12857142857143,4526.4,539.2223214285714,65.12857142857143,4649.1,539.2223214285714,65.12857142857143,4780.5,539.2223214285714,65.12857142857143,4902.9]","[8190.4,8190.4,2217.3,5363.4,609.7,""oops"",""up"",""down"",""bad_move"",11110.4,2919.1,2331.3,8191.3,587.8,""smooth"",""up"",""up"",""good_move"",25230.3,14118.8,2915.7,21647.2,667.4,""smooth"",""up"",""up"",""good_move"",36343.7,11112.9,1979.1,25230.8,9133.8,""smooth"",""up"",""up"",""good_move"",46499.3,10154.9,2448.2,36344.4,7706.7,""smooth"",""up"",""up"",""good_move"",60154.3,13654,1901.8,46500.3,11752.2,""smooth"",""right"",""right"",""good_move"",62704.8,2549.7,1846,60155.1,703.7,""smooth"",""right"",""right"",""good_move"",66521.5,3816,3212,62705.6,603.9,""oops"",""right"",""down"",""bad_move"",70684.8,4162.3,3526.8,66522.5,635.5,""oops"",""right"",""up"",""good_move"",74326.3,3640.6,2725.2,70685.7,915.4,""oops"",""right"",""down"",""bad_move"",77921.5,3594.2,3153.6,74327.3,440.7,""oops"",""right"",""up"",""good_move"",80881,2958.5,2532.1,77922.5,426.4,""smooth"",""right"",""right"",""good_move""]"
"5916","","<div style=""width:500px;"">
  <p>What determined the result of this run?</p>
  </div>","68","html-slider-response","64","984442","0.0-7.0-1.10","102","1","2025-07-30 17:20:14","36c45c0696341be0efffe67d72a12abb","105.1.48.31","Mozilla/5.0 (Windows NT 10.0; Win64; x64) AppleWebKit/537.36 (KHTML, like Gecko) Chrome/138.0.0.0 Safari/537.36","WebKit","Chrome","138.0.0.0","Windows","10.0","https://app.prolific.com/","en-GB,en;q=0.9,en-US;q=0.8,zu;q=0.7,es;q=0.6","6129dca465e41b5ae1b262da","683dba9a53627eb9ab41b36a","688a543a1ac6289c6e906201","0","6129dca465e41b5ae1b262da","0","2025-07-30T17:36:43.505Z","","","","AttribQ","","","","","","","","","","","50","","","","","","","","","","","","","","","","","","","","","","","","","","",""
"2963","","<div style=""width:500px;"">
  <p>How much control did you have over the ball?</p>
  </div>","59","html-slider-response","65","987407","0.0-7.0-2.10","102","1","2025-07-30 17:20:14","36c45c0696341be0efffe67d72a12abb","105.1.48.31","Mozilla/5.0 (Windows NT 10.0; Win64; x64) AppleWebKit/537.36 (KHTML, like Gecko) Chrome/138.0.0.0 Safari/537.36","WebKit","Chrome","138.0.0.0","Windows","10.0","https://app.prolific.com/","en-GB,en;q=0.9,en-US;q=0.8,zu;q=0.7,es;q=0.6","6129dca465e41b5ae1b262da","683dba9a53627eb9ab41b36a","688a543a1ac6289c6e906201","0","6129dca465e41b5ae1b262da","0","2025-07-30T17:36:46.470Z","","","","ControlQ","","","","","","","","","","","50","","","","","","","","","","","","","","","","","","","","","","","","","","",""
"3898","","<div style=""width:500px;"">
  <p>How would you describe your current emotional state?</p>
  </div>","45","html-slider-response","66","991308","0.0-7.0-3.10","102","1","2025-07-30 17:20:14","36c45c0696341be0efffe67d72a12abb","105.1.48.31","Mozilla/5.0 (Windows NT 10.0; Win64; x64) AppleWebKit/537.36 (KHTML, like Gecko) Chrome/138.0.0.0 Safari/537.36","WebKit","Chrome","138.0.0.0","Windows","10.0","https://app.prolific.com/","en-GB,en;q=0.9,en-US;q=0.8,zu;q=0.7,es;q=0.6","6129dca465e41b5ae1b262da","683dba9a53627eb9ab41b36a","688a543a1ac6289c6e906201","0","6129dca465e41b5ae1b262da","0","2025-07-30T17:36:50.372Z","","","","StressQ","","","","","","","","","","","50","","","","","","","","","","","","","","","","","","","","","","","","","","",""
"2930","","<div style=""width:500px;"">
  <p>What best describes how you currently feel?</p>
  </div>","56","html-slider-response","67","994242","0.0-7.0-4.10","102","1","2025-07-30 17:20:14","36c45c0696341be0efffe67d72a12abb","105.1.48.31","Mozilla/5.0 (Windows NT 10.0; Win64; x64) AppleWebKit/537.36 (KHTML, like Gecko) Chrome/138.0.0.0 Safari/537.36","WebKit","Chrome","138.0.0.0","Windows","10.0","https://app.prolific.com/","en-GB,en;q=0.9,en-US;q=0.8,zu;q=0.7,es;q=0.6","6129dca465e41b5ae1b262da","683dba9a53627eb9ab41b36a","688a543a1ac6289c6e906201","0","6129dca465e41b5ae1b262da","0","2025-07-30T17:36:53.305Z","","","","MotivationQ","","","","","","","","","","","50","","","","","","","","","","","","","","","","","","","","","","","","","","",""
"","","","","ctl-task-cpt","68","1041815","0.0-7.0-0.11","102","1","2025-07-30 17:20:14","36c45c0696341be0efffe67d72a12abb","105.1.48.31","Mozilla/5.0 (Windows NT 10.0; Win64; x64) AppleWebKit/537.36 (KHTML, like Gecko) Chrome/138.0.0.0 Safari/537.36","WebKit","Chrome","138.0.0.0","Windows","10.0","https://app.prolific.com/","en-GB,en;q=0.9,en-US;q=0.8,zu;q=0.7,es;q=0.6","6129dca465e41b5ae1b262da","683dba9a53627eb9ab41b36a","688a543a1ac6289c6e906201","0","6129dca465e41b5ae1b262da","0","2025-07-30T17:37:40.878Z","","","","","","","","","","","","","","","","win-only","3","g1:SW,g2:NE","0.7","12","0","998305.8","1221.4","6229.9","44539.8","1","4","8","6","2","8","8","32","24","0.24242424242424243","1924","3000","1245","[""up"",""right""]","{""num_key_presses"":12,""num_perfect"":9,""num_errors"":0,""num_randdir"":3,""num_randdir_good_moves"":0,""num_whilered"":0,""num_whileblue"":0,""num_blue"":1,""num_good_moves"":9}","[295.22232142857143,302.12857142857143,0.4,295.22232142857143,302.12857142857143,109.6,295.22232142857143,302.12857142857143,213.4,295.22232142857143,302.12857142857143,318.6,295.22232142857143,302.12857142857143,425.8,295.22232142857143,302.12857142857143,529.3,295.22232142857143,302.12857142857143,642.5,295.22232142857143,302.12857142857143,751.2,295.22232142857143,302.12857142857143,861.2,295.22232142857143,302.12857142857143,974.4,300.22232142857143,295.12857142857143,1086,452.22232142857143,95.12857142857143,1193.7,506.22232142857143,41.128571428571426,1297,521.2223214285714,26.128571428571426,1408.2,531.2223214285714,21.128571428571426,1510.5,556.2223214285714,26.128571428571426,1618.8,564.2223214285714,42.128571428571426,1723.8,564.2223214285714,42.128571428571426,1831.1,564.2223214285714,42.128571428571426,1943.5,564.2223214285714,42.128571428571426,2048.5,564.2223214285714,42.128571428571426,2151.8,564.2223214285714,42.128571428571426,2263.7,564.2223214285714,42.128571428571426,2377.1,564.2223214285714,42.128571428571426,2483.7,564.2223214285714,42.128571428571426,2597.2,564.2223214285714,42.128571428571426,2699.7,564.2223214285714,42.128571428571426,2801.2,564.2223214285714,42.128571428571426,2902.8,564.2223214285714,42.128571428571426,3007.7,564.2223214285714,42.128571428571426,3112,564.2223214285714,42.128571428571426,3214.8,564.2223214285714,42.128571428571426,3329.9,564.2223214285714,42.128571428571426,3430.9,564.2223214285714,42.128571428571426,3533.7,564.2223214285714,42.128571428571426,3634,564.2223214285714,42.128571428571426,3735.2,564.2223214285714,42.128571428571426,3848.8,564.2223214285714,42.128571428571426,3957.6,564.2223214285714,42.128571428571426,4064.9,564.2223214285714,42.128571428571426,4167.6,564.2223214285714,42.128571428571426,4282.8,564.2223214285714,42.128571428571426,4384.7,564.2223214285714,42.128571428571426,4490.9,564.2223214285714,42.128571428571426,4594.1,564.2223214285714,42.128571428571426,4699.6,564.2223214285714,42.128571428571426,4814.6,564.2223214285714,42.128571428571426,4915.7]","[1398.6,1398.6,1000,0,398.6,""smooth"",""up"",""up"",""good_move"",4746.1,3346.2,2589.9,1400,756.3,""smooth"",""up"",""up"",""good_move"",7755.4,3007.7,1964,4747.7,1043.7,""oops"",""up"",""left"",""bad_move"",11356.1,3598.4,3196.1,7757.7,402.3,""oops"",""up"",""down"",""bad_move"",13878.9,2518.3,2088.5,11360.7,429.8,""smooth"",""up"",""up"",""good_move"",17037.1,3156.8,2614.8,13880.3,542,""oops"",""right"",""left"",""bad_move"",20101.8,3063.4,2673.2,17038.4,390.2,""smooth"",""right"",""right"",""good_move"",26200.1,6097.1,2411.4,23315.7,473,""smooth"",""right"",""right"",""good_move"",29465.7,3265.1,2863.7,26200.9,401.1,""smooth"",""right"",""right"",""good_move"",32290.1,2821.8,2400.1,29468.3,421.7,""smooth"",""right"",""right"",""good_move"",35149.9,2858.6,2517.6,32291.3,341,""smooth"",""right"",""right"",""good_move"",37953.1,2802.2,2418.8,35151,383.3,""smooth"",""up"",""up"",""good_move""]"
"4340","","<div style=""width:500px;"">
  <p>What determined the result of this run?</p>
  </div>","60","html-slider-response","69","1046157","0.0-7.0-1.11","102","1","2025-07-30 17:20:14","36c45c0696341be0efffe67d72a12abb","105.1.48.31","Mozilla/5.0 (Windows NT 10.0; Win64; x64) AppleWebKit/537.36 (KHTML, like Gecko) Chrome/138.0.0.0 Safari/537.36","WebKit","Chrome","138.0.0.0","Windows","10.0","https://app.prolific.com/","en-GB,en;q=0.9,en-US;q=0.8,zu;q=0.7,es;q=0.6","6129dca465e41b5ae1b262da","683dba9a53627eb9ab41b36a","688a543a1ac6289c6e906201","0","6129dca465e41b5ae1b262da","0","2025-07-30T17:37:45.221Z","","","","AttribQ","","","","","","","","","","","50","","","","","","","","","","","","","","","","","","","","","","","","","","",""
"2965","","<div style=""width:500px;"">
  <p>How much control did you have over the ball?</p>
  </div>","67","html-slider-response","70","1049126","0.0-7.0-2.11","102","1","2025-07-30 17:20:14","36c45c0696341be0efffe67d72a12abb","105.1.48.31","Mozilla/5.0 (Windows NT 10.0; Win64; x64) AppleWebKit/537.36 (KHTML, like Gecko) Chrome/138.0.0.0 Safari/537.36","WebKit","Chrome","138.0.0.0","Windows","10.0","https://app.prolific.com/","en-GB,en;q=0.9,en-US;q=0.8,zu;q=0.7,es;q=0.6","6129dca465e41b5ae1b262da","683dba9a53627eb9ab41b36a","688a543a1ac6289c6e906201","0","6129dca465e41b5ae1b262da","0","2025-07-30T17:37:48.189Z","","","","ControlQ","","","","","","","","","","","50","","","","","","","","","","","","","","","","","","","","","","","","","","",""
"2697","","<div style=""width:500px;"">
  <p>How would you describe your current emotional state?</p>
  </div>","42","html-slider-response","71","1051827","0.0-7.0-3.11","102","1","2025-07-30 17:20:14","36c45c0696341be0efffe67d72a12abb","105.1.48.31","Mozilla/5.0 (Windows NT 10.0; Win64; x64) AppleWebKit/537.36 (KHTML, like Gecko) Chrome/138.0.0.0 Safari/537.36","WebKit","Chrome","138.0.0.0","Windows","10.0","https://app.prolific.com/","en-GB,en;q=0.9,en-US;q=0.8,zu;q=0.7,es;q=0.6","6129dca465e41b5ae1b262da","683dba9a53627eb9ab41b36a","688a543a1ac6289c6e906201","0","6129dca465e41b5ae1b262da","0","2025-07-30T17:37:50.890Z","","","","StressQ","","","","","","","","","","","50","","","","","","","","","","","","","","","","","","","","","","","","","","",""
"3340","","<div style=""width:500px;"">
  <p>What best describes how you currently feel?</p>
  </div>","55","html-slider-response","72","1055171","0.0-7.0-4.11","102","1","2025-07-30 17:20:14","36c45c0696341be0efffe67d72a12abb","105.1.48.31","Mozilla/5.0 (Windows NT 10.0; Win64; x64) AppleWebKit/537.36 (KHTML, like Gecko) Chrome/138.0.0.0 Safari/537.36","WebKit","Chrome","138.0.0.0","Windows","10.0","https://app.prolific.com/","en-GB,en;q=0.9,en-US;q=0.8,zu;q=0.7,es;q=0.6","6129dca465e41b5ae1b262da","683dba9a53627eb9ab41b36a","688a543a1ac6289c6e906201","0","6129dca465e41b5ae1b262da","0","2025-07-30T17:37:54.234Z","","","","MotivationQ","","","","","","","","","","","50","","","","","","","","","","","","","","","","","","","","","","","","","","",""
"","","","","ctl-task-cpt","73","1112813","0.0-7.0-0.12","102","1","2025-07-30 17:20:14","36c45c0696341be0efffe67d72a12abb","105.1.48.31","Mozilla/5.0 (Windows NT 10.0; Win64; x64) AppleWebKit/537.36 (KHTML, like Gecko) Chrome/138.0.0.0 Safari/537.36","WebKit","Chrome","138.0.0.0","Windows","10.0","https://app.prolific.com/","en-GB,en;q=0.9,en-US;q=0.8,zu;q=0.7,es;q=0.6","6129dca465e41b5ae1b262da","683dba9a53627eb9ab41b36a","688a543a1ac6289c6e906201","0","6129dca465e41b5ae1b262da","0","2025-07-30T17:38:51.876Z","","","","","","","","","","","","","","","","win-only","2","g1:SE,g2:NW","0.8","13","0","1059236.3","1713.4","6725.6","54572.2","1","4","8","6","2","8","8","40","32","0.30303030303030304","1710.3","3000","2645","[""left"",""up""]","{""num_key_presses"":6,""num_perfect"":6,""num_errors"":0,""num_randdir"":0,""num_randdir_good_moves"":0,""num_whilered"":0,""num_whileblue"":0,""num_blue"":3,""num_good_moves"":6}","[295.22232142857143,296.12857142857143,2.1,295.22232142857143,296.12857142857143,123,295.22232142857143,296.12857142857143,224.3,295.22232142857143,296.12857142857143,332.8,295.22232142857143,296.12857142857143,435,295.22232142857143,296.12857142857143,540.1,295.22232142857143,296.12857142857143,672.7,295.22232142857143,296.12857142857143,778.3,295.22232142857143,296.12857142857143,891.1,185.22232142857143,146.12857142857143,1011.8,133.22232142857143,97.12857142857143,1137.8,112.22232142857143,76.12857142857143,1256.8,73.22232142857143,72.12857142857143,1377.6,51.222321428571426,71.12857142857143,1492.8,51.222321428571426,71.12857142857143,1602.9,51.222321428571426,71.12857142857143,1714.8,51.222321428571426,71.12857142857143,1818.9,51.222321428571426,71.12857142857143,1953.1,51.222321428571426,71.12857142857143,2095,51.222321428571426,71.12857142857143,2195.6,51.222321428571426,71.12857142857143,2295.7,51.222321428571426,71.12857142857143,2395.7,51.222321428571426,71.12857142857143,2499.2,51.222321428571426,71.12857142857143,2608.6,51.222321428571426,71.12857142857143,2713.8,51.222321428571426,71.12857142857143,2817.7,51.222321428571426,71.12857142857143,2917.8,51.222321428571426,71.12857142857143,3019.9,51.222321428571426,71.12857142857143,3126.6,51.222321428571426,71.12857142857143,3258.5,51.222321428571426,71.12857142857143,3386.4,51.222321428571426,71.12857142857143,3517.7,51.222321428571426,71.12857142857143,3647,51.222321428571426,71.12857142857143,3778.1,51.222321428571426,71.12857142857143,3909.7,51.222321428571426,71.12857142857143,4037.3,51.222321428571426,71.12857142857143,4148.3,51.222321428571426,71.12857142857143,4249.6,51.222321428571426,71.12857142857143,4353,51.222321428571426,71.12857142857143,4457.3,51.222321428571426,71.12857142857143,4592,51.222321428571426,71.12857142857143,4697.1,51.222321428571426,71.12857142857143,4802.5,51.222321428571426,71.12857142857143,4905.3]","[1486,1486,1000,0,486,""smooth"",""left"",""left"",""good_move"",7700.7,6213.2,2303.2,1487.5,3910,""smooth"",""left"",""left"",""good_move"",17749.7,10048.5,2495.2,14796.1,458.4,""smooth"",""left"",""left"",""good_move"",24473.6,6723.3,3064.6,17750.3,3658.8,""smooth"",""up"",""up"",""good_move"",35373.4,10899.1,3037.3,31847.8,488.3,""smooth"",""up"",""up"",""good_move"",46791.5,11417.5,1979.9,44201.8,609.8,""smooth"",""up"",""up"",""good_move""]"
"5427","","<div style=""width:500px;"">
  <p>What determined the result of this run?</p>
  </div>","60","html-slider-response","74","1118245","0.0-7.0-1.12","102","1","2025-07-30 17:20:14","36c45c0696341be0efffe67d72a12abb","105.1.48.31","Mozilla/5.0 (Windows NT 10.0; Win64; x64) AppleWebKit/537.36 (KHTML, like Gecko) Chrome/138.0.0.0 Safari/537.36","WebKit","Chrome","138.0.0.0","Windows","10.0","https://app.prolific.com/","en-GB,en;q=0.9,en-US;q=0.8,zu;q=0.7,es;q=0.6","6129dca465e41b5ae1b262da","683dba9a53627eb9ab41b36a","688a543a1ac6289c6e906201","0","6129dca465e41b5ae1b262da","0","2025-07-30T17:38:57.308Z","","","","AttribQ","","","","","","","","","","","50","","","","","","","","","","","","","","","","","","","","","","","","","","",""
"3765","","<div style=""width:500px;"">
  <p>How much control did you have over the ball?</p>
