"rt","response_timestamp","stimulus","response","trial_type","trial_index","time_elapsed","internal_node_id","run_id","condition","recorded_at","source_code_version","ip","user_agent","device","browser","browser_version","platform","platform_version","referer","accept_language","PROLIFIC_PID","STUDY_ID","SESSION_ID","BATCH","prolific_id","batch","realtime","success","question_order","question_id","eventType","responses","item_order","radio_event_ids","radio_event_times","key_event_times","mouse_event_times","straightlining","zigzagging","honeypot","view_history","slider_start","which_type","canvas_config","goals_layout","control_level","trial_number","tutorial_trial_number","trial_start_time","phase1_start_time","phase2_start_time","phase3_start_time","goal_1_value","goal_1_distance","goal_2_value","goal_2_distance","goal_selected","outcome","outcome_total","participant_final_score","participant_initial_score","participant_final_score_prop","goal_choice_rt","allocated_time","allocated_time_remaining","goal_direction","counts","mouse_movements","key_presses"
"10648","1753864716722","<p style='font-size:40px;line-height:1.25'><strong>Welcome to the experiment!</strong></p><p style='font-size:1.1em;line-height:1.25'>Thank you for participanting in our experiment again! You will be asked to play the Dysfunctional Ball Game again. We will briefly recap the rules before we start.</p><p style='font-size:1.1em;line-height:1.25'>Press <strong>Next</strong> to continue.</p>","0","custom-html-button-response","0","10649","0.0-0.0","11","1","2025-07-30 08:38:25","36c45c0696341be0efffe67d72a12abb","93.108.112.26","Mozilla/5.0 (Windows NT 10.0; Win64; x64) AppleWebKit/537.36 (KHTML, like Gecko) Chrome/138.0.0.0 Safari/537.36","WebKit","Chrome","138.0.0.0","Windows","10.0","https://app.prolific.com/","en-US,en;q=0.9","6140ef8d27499e70e8740918","683dba9a53627eb9ab41b36a","6889d9c7508422fe97094867","0","6140ef8d27499e70e8740918","0","2025-07-30T08:38:36.723Z","","","","","","","","","","","","","","","","","","","","","","","","","","","","","","","","","","","","","","","","","",""
"5736","","","","fullscreen","1","17395","0.0-1.0","11","1","2025-07-30 08:38:25","36c45c0696341be0efffe67d72a12abb","93.108.112.26","Mozilla/5.0 (Windows NT 10.0; Win64; x64) AppleWebKit/537.36 (KHTML, like Gecko) Chrome/138.0.0.0 Safari/537.36","WebKit","Chrome","138.0.0.0","Windows","10.0","https://app.prolific.com/","en-US,en;q=0.9","6140ef8d27499e70e8740918","683dba9a53627eb9ab41b36a","6889d9c7508422fe97094867","0","6140ef8d27499e70e8740918","0","","true","","","","","","","","","","","","","","","","","","","","","","","","","","","","","","","","","","","","","","","","",""
"4664","1753864728133"," <p style='font-size:1.1em;line-height:1.25'>Thank you for closing all other tabs.</p><p style='font-size:1.1em;line-height:1.25'>We will now invite you to fill in some questionnaires, before starting the game.<br>This will take about 5 minutes.<br></p><p style='font-size:1.1em;line-height:1.25'>Press the <strong>Next</strong> button to continue.</p>","0","custom-html-button-response","2","22059","0.0-2.0","11","1","2025-07-30 08:38:25","36c45c0696341be0efffe67d72a12abb","93.108.112.26","Mozilla/5.0 (Windows NT 10.0; Win64; x64) AppleWebKit/537.36 (KHTML, like Gecko) Chrome/138.0.0.0 Safari/537.36","WebKit","Chrome","138.0.0.0","Windows","10.0","https://app.prolific.com/","en-US,en;q=0.9","6140ef8d27499e70e8740918","683dba9a53627eb9ab41b36a","6889d9c7508422fe97094867","0","6140ef8d27499e70e8740918","0","2025-07-30T08:38:48.133Z","","","","","","","","","","","","","","","","","","","","","","","","","","","","","","","","","","","","","","","","","",""
"1907","","","{""assigned_sex"":""female""}","survey-multi-choice","3","23967","0.0-3.0-0.0","11","1","2025-07-30 08:38:25","36c45c0696341be0efffe67d72a12abb","93.108.112.26","Mozilla/5.0 (Windows NT 10.0; Win64; x64) AppleWebKit/537.36 (KHTML, like Gecko) Chrome/138.0.0.0 Safari/537.36","WebKit","Chrome","138.0.0.0","Windows","10.0","https://app.prolific.com/","en-US,en;q=0.9","6140ef8d27499e70e8740918","683dba9a53627eb9ab41b36a","6889d9c7508422fe97094867","0","6140ef8d27499e70e8740918","0","","","[0]","0","demographics","","","","","","","","","","","","","","","","","","","","","","","","","","","","","","","","","","","","","",""
"4683","1753864734725","<p style='font-size:1.1em;line-height:1.25'>In the following, we will perform a baseline assessment. This means that we will ask you a few questions relating to your experiences over the past month.<br></p><p style='font-size:1.1em;line-height:1.25'>Press the <strong>Next</strong> button to continue.</p>","0","custom-html-button-response","4","28651","0.0-4.0-0.0","11","1","2025-07-30 08:38:25","36c45c0696341be0efffe67d72a12abb","93.108.112.26","Mozilla/5.0 (Windows NT 10.0; Win64; x64) AppleWebKit/537.36 (KHTML, like Gecko) Chrome/138.0.0.0 Safari/537.36","WebKit","Chrome","138.0.0.0","Windows","10.0","https://app.prolific.com/","en-US,en;q=0.9","6140ef8d27499e70e8740918","683dba9a53627eb9ab41b36a","6889d9c7508422fe97094867","0","6140ef8d27499e70e8740918","0","2025-07-30T08:38:54.725Z","","","","","","","","","","","","","","","","","","","","","","","","","","","","","","","","","","","","","","","","","",""
"69678.19999998808","","","","survey-template","5","98331","0.0-4.0-1.0","11","1","2025-07-30 08:38:25","36c45c0696341be0efffe67d72a12abb","93.108.112.26","Mozilla/5.0 (Windows NT 10.0; Win64; x64) AppleWebKit/537.36 (KHTML, like Gecko) Chrome/138.0.0.0 Safari/537.36","WebKit","Chrome","138.0.0.0","Windows","10.0","https://app.prolific.com/","en-US,en;q=0.9","6140ef8d27499e70e8740918","683dba9a53627eb9ab41b36a","6889d9c7508422fe97094867","0","6140ef8d27499e70e8740918","0","2025-07-30T08:40:04.405Z","","","","pss","{""Q01"":""2"",""Q02"":""1"",""Q03"":""2"",""Q04"":""2"",""Q05"":""1"",""Q06"":""1"",""Q07"":""1"",""Q08"":""1"",""Q09"":""0"",""Q10"":""1""}","[0,1,2,3,4,5,6,7,8,9]","[""Q01"",""Q02"",""Q03"",""Q04"",""Q05"",""Q06"",""Q07"",""Q08"",""Q09"",""Q10""]","[9634.800000011921,13900.800000011921,23550.69999998808,25119.600000023842,31594.69999998808,36598.69999998808,47058.69999998808,50131.90000003576,63362.60000002384,68994.69999998808]","[]","[0.10000002384185791,9634.800000011921,13900.800000011921,17876.69999998808,23550.69999998808,24223.80000001192,25119.600000023842,31135.69999998808,31594.69999998808,36598.69999998808,47058.69999998808,50131.90000003576,63362.60000002384,68114.69999998808,68994.69999998808,69676.69999998808]","0.3","0.4444444444444444","0","","","","","","","","","","","","","","","","","","","","","","","","","","","","",""
"3099","1753864807505","<p style='font-size:1.1em;line-height:1.25'>Thank you for your answers! Now we will ask you a few more questions relating to your feelings in the last 24 hours.<br></p><p style='font-size:1.1em;line-height:1.25'>Press the <strong>Next</strong> button to continue.</p>","0","custom-html-button-response","6","101431","0.0-4.0-2.0","11","1","2025-07-30 08:38:25","36c45c0696341be0efffe67d72a12abb","93.108.112.26","Mozilla/5.0 (Windows NT 10.0; Win64; x64) AppleWebKit/537.36 (KHTML, like Gecko) Chrome/138.0.0.0 Safari/537.36","WebKit","Chrome","138.0.0.0","Windows","10.0","https://app.prolific.com/","en-US,en;q=0.9","6140ef8d27499e70e8740918","683dba9a53627eb9ab41b36a","6889d9c7508422fe97094867","0","6140ef8d27499e70e8740918","0","2025-07-30T08:40:07.505Z","","","","","","","","","","","","","","","","","","","","","","","","","","","","","","","","","","","","","","","","","",""
"68866.80000001192","","","","survey-template","7","170300","0.0-4.0-3.0","11","1","2025-07-30 08:38:25","36c45c0696341be0efffe67d72a12abb","93.108.112.26","Mozilla/5.0 (Windows NT 10.0; Win64; x64) AppleWebKit/537.36 (KHTML, like Gecko) Chrome/138.0.0.0 Safari/537.36","WebKit","Chrome","138.0.0.0","Windows","10.0","https://app.prolific.com/","en-US,en;q=0.9","6140ef8d27499e70e8740918","683dba9a53627eb9ab41b36a","6889d9c7508422fe97094867","0","6140ef8d27499e70e8740918","0","2025-07-30T08:41:16.374Z","","","","drsp","{""Q01"":""0"",""Q02"":""0"",""Q03"":""0"",""Q04"":""0"",""Q05"":""1"",""Q06"":""1"",""Q07"":""0"",""Q08"":""0"",""Q09"":""1"",""Q10"":""2"",""Q11"":""2"",""Q12"":""1"",""Q13"":""5"",""Q14"":""2"",""Q15"":""3"",""Q16"":""3"",""Q17"":""0"",""Q18"":""0"",""Q19"":""2"",""Q20"":""2"",""Q21"":""2"",""Q22"":""0""}","[0,1,2,3,4,5,6,7,8,9,10,11,12,13,14,15,16,17,18,19,20,21]","[""Q01"",""Q02"",""Q03"",""Q04"",""Q05"",""Q06"",""Q07"",""Q08"",""Q09"",""Q10"",""Q11"",""Q12"",""Q12"",""Q13"",""Q14"",""Q15"",""Q16"",""Q17"",""Q18"",""Q19"",""Q20"",""Q21"",""Q22""]","[2715.800000011921,3703.800000011921,4947.600000023842,6166.800000011921,9916.699999988079,10858.5,11917.5,13088.699999988079,15533.199999988079,18134.600000023842,21191.600000023842,22519.600000023842,24061.600000023842,26856.600000023842,29486.600000023842,35327.40000003576,39120.60000002384,43924.90000003576,46149.5,54995.5,60875.5,65034.69999998808,68057.5]","[]","[0,2715.800000011921,3703.800000011921,4947.600000023842,6166.800000011921,8480.699999988079,9916.699999988079,10858.5,11917.5,13088.699999988079,15533.199999988079,18134.600000023842,20650.69999998808,21191.600000023842,22519.600000023842,24061.600000023842,26856.600000023842,29486.600000023842,35327.40000003576,39120.60000002384,43924.90000003576,46149.5,54995.5,60875.5,65034.69999998808,68057.5,68864.60000002384]","0.4090909090909091","0.2857142857142857","0","","","","","","","","","","","","","","","","","","","","","","","","","","","","",""
"15348.699999988079","","","","survey-template","8","185649","0.0-4.0-4.0","11","1","2025-07-30 08:38:25","36c45c0696341be0efffe67d72a12abb","93.108.112.26","Mozilla/5.0 (Windows NT 10.0; Win64; x64) AppleWebKit/537.36 (KHTML, like Gecko) Chrome/138.0.0.0 Safari/537.36","WebKit","Chrome","138.0.0.0","Windows","10.0","https://app.prolific.com/","en-US,en;q=0.9","6140ef8d27499e70e8740918","683dba9a53627eb9ab41b36a","6889d9c7508422fe97094867","0","6140ef8d27499e70e8740918","0","2025-07-30T08:41:31.723Z","","","","stress","{""Q01"":""0"",""Q02"":""3"",""Q03"":""0""}","[0,1,2]","[""Q01"",""Q02"",""Q03""]","[5121.199999988079,7681.100000023842,12767.100000023842]","[]","[5121.199999988079,7681.100000023842,11751.199999988079,12767.100000023842,15348.199999988079]","0.6666666666666666","0","0","","","","","","","","","","","","","","","","","","","","","","","","","","","","",""
"16436","","","","instructions","9","202086","0.0-5.0-0.0","11","1","2025-07-30 08:38:25","36c45c0696341be0efffe67d72a12abb","93.108.112.26","Mozilla/5.0 (Windows NT 10.0; Win64; x64) AppleWebKit/537.36 (KHTML, like Gecko) Chrome/138.0.0.0 Safari/537.36","WebKit","Chrome","138.0.0.0","Windows","10.0","https://app.prolific.com/","en-US,en;q=0.9","6140ef8d27499e70e8740918","683dba9a53627eb9ab41b36a","6889d9c7508422fe97094867","0","6140ef8d27499e70e8740918","0","","","","","","","","","","","","","","","[{""page_index"":0,""viewing_time"":16436}]","","","","","","","","","","","","","","","","","","","","","","","","","","","",""
"4694","","<p>Before you start with this game please answer the following three questions yourself. </p>
  <p>Through this game, we measure several aspects of your cognitive performance, such as reaction times, multi-tasking capabilities </p>
  <p>and the ability to assess the situation you are in.</p>
  <p></p>
  <p><b>How good do you usually are in such tasks?</b></p>","40","html-slider-response","10","206781","0.0-6.0-0.0","11","1","2025-07-30 08:38:25","36c45c0696341be0efffe67d72a12abb","93.108.112.26","Mozilla/5.0 (Windows NT 10.0; Win64; x64) AppleWebKit/537.36 (KHTML, like Gecko) Chrome/138.0.0.0 Safari/537.36","WebKit","Chrome","138.0.0.0","Windows","10.0","https://app.prolific.com/","en-US,en;q=0.9","6140ef8d27499e70e8740918","683dba9a53627eb9ab41b36a","6889d9c7508422fe97094867","0","6140ef8d27499e70e8740918","0","2025-07-30T08:41:52.855Z","","","","PreSkillQ","","","","","","","","","","","50","","","","","","","","","","","","","","","","","","","","","","","","","","",""
"3073","","<div style=""width:500px;"">
  <p>How well do you think you will perform in this task compared to other participants?</p>
  </div>","31","html-slider-response","11","209855","0.0-6.0-1.0","11","1","2025-07-30 08:38:25","36c45c0696341be0efffe67d72a12abb","93.108.112.26","Mozilla/5.0 (Windows NT 10.0; Win64; x64) AppleWebKit/537.36 (KHTML, like Gecko) Chrome/138.0.0.0 Safari/537.36","WebKit","Chrome","138.0.0.0","Windows","10.0","https://app.prolific.com/","en-US,en;q=0.9","6140ef8d27499e70e8740918","683dba9a53627eb9ab41b36a","6889d9c7508422fe97094867","0","6140ef8d27499e70e8740918","0","2025-07-30T08:41:55.929Z","","","","PrePerfQ","","","","","","","","","","","50","","","","","","","","","","","","","","","","","","","","","","","","","","",""
"3169","","<div style=""width:500px;"">
  <p>What best describes how you currently feel?</p>
  </div>","57","html-slider-response","12","213025","0.0-6.0-2.0","11","1","2025-07-30 08:38:25","36c45c0696341be0efffe67d72a12abb","93.108.112.26","Mozilla/5.0 (Windows NT 10.0; Win64; x64) AppleWebKit/537.36 (KHTML, like Gecko) Chrome/138.0.0.0 Safari/537.36","WebKit","Chrome","138.0.0.0","Windows","10.0","https://app.prolific.com/","en-US,en;q=0.9","6140ef8d27499e70e8740918","683dba9a53627eb9ab41b36a","6889d9c7508422fe97094867","0","6140ef8d27499e70e8740918","0","2025-07-30T08:41:59.099Z","","","","PreMotivationQ","","","","","","","","","","","50","","","","","","","","","","","","","","","","","","","","","","","","","","",""
"","","","","ctl-task-cpt","13","238682","0.0-7.0-0.0","11","1","2025-07-30 08:38:25","36c45c0696341be0efffe67d72a12abb","93.108.112.26","Mozilla/5.0 (Windows NT 10.0; Win64; x64) AppleWebKit/537.36 (KHTML, like Gecko) Chrome/138.0.0.0 Safari/537.36","WebKit","Chrome","138.0.0.0","Windows","10.0","https://app.prolific.com/","en-US,en;q=0.9","6140ef8d27499e70e8740918","683dba9a53627eb9ab41b36a","6889d9c7508422fe97094867","0","6140ef8d27499e70e8740918","0","2025-07-30T08:42:24.756Z","","","","","","","","","","","","","","","","win-only","0","g1:NW,g2:SE","1","1","0","214197.8","2479.7","7481.1","22652","1","4","4","6","2","4","4","4","0","0.030303030303030304","1124","3000","1190","[""down"",""right""]","{""num_key_presses"":6,""num_perfect"":6,""num_errors"":0,""num_randdir"":0,""num_randdir_good_moves"":0,""num_whilered"":0,""num_whileblue"":0,""num_blue"":0,""num_good_moves"":6}","[412.57142857142856,425.47767857142856,0.1,412.57142857142856,425.47767857142856,101.6,412.57142857142856,425.47767857142856,207,383.57142857142856,407.47767857142856,310.9,344.57142857142856,384.47767857142856,411.6,335.57142857142856,385.47767857142856,515.6,329.57142857142856,381.47767857142856,615.9,400.57142857142856,431.47767857142856,716,634.5714285714286,649.4776785714286,816.1,692.5714285714286,689.4776785714286,920.7,715.5714285714286,710.4776785714286,1021.1,727.5714285714286,731.4776785714286,1121.4,730.5714285714286,729.4776785714286,1226.8,1048.5714285714287,652.4776785714286,1330.6,1375.5714285714287,552.4776785714286,1431.6,1375.5714285714287,552.4776785714286,1536,1375.5714285714287,552.4776785714286,1636.5,1375.5714285714287,552.4776785714286,1741.4,1375.5714285714287,552.4776785714286,1841.5,1375.5714285714287,552.4776785714286,1945.4,1375.5714285714287,552.4776785714286,2046,1375.5714285714287,552.4776785714286,2146,1375.5714285714287,552.4776785714286,2246,1375.5714285714287,552.4776785714286,2346.1,1375.5714285714287,552.4776785714286,2451.2,1375.5714285714287,552.4776785714286,2555.9,1375.5714285714287,552.4776785714286,2657.3,1375.5714285714287,552.4776785714286,2760.5,1375.5714285714287,552.4776785714286,2860.6,1375.5714285714287,552.4776785714286,2961.2,1375.5714285714287,552.4776785714286,3061.2,1375.5714285714287,552.4776785714286,3165.7,1375.5714285714287,552.4776785714286,3265.9,1375.5714285714287,552.4776785714286,3371.2,1375.5714285714287,552.4776785714286,3476.3,1375.5714285714287,552.4776785714286,3581.3,1375.5714285714287,552.4776785714286,3686,1375.5714285714287,552.4776785714286,3786.5,1375.5714285714287,552.4776785714286,3890.5,1375.5714285714287,552.4776785714286,3990.8,1375.5714285714287,552.4776785714286,4091,1375.5714285714287,552.4776785714286,4191.3,1375.5714285714287,552.4776785714286,4295.4,1375.5714285714287,552.4776785714286,4396,1375.5714285714287,552.4776785714286,4501.1,1375.5714285714287,552.4776785714286,4601.2,1375.5714285714287,552.4776785714286,4701.2,1375.5714285714287,552.4776785714286,4801.4,1375.5714285714287,552.4776785714286,4905.8]","[1322.3,1322.3,1000,0,322.3,""smooth"",""down"",""down"",""good_move"",4274.2,2951.6,2652.6,1322.6,299,""smooth"",""down"",""down"",""good_move"",7242.1,2967.9,2655.8,4274.2,312.1,""smooth"",""right"",""right"",""good_move"",9954,2711.7,2410.9,7242.3,300.8,""smooth"",""down"",""down"",""good_move"",12418.3,2464.3,2164,9954,300.3,""smooth"",""right"",""right"",""good_move"",15081.9,2663.5,2351.6,12418.4,311.9,""smooth"",""right"",""right"",""good_move""]"
"4366","","<div style=""width:500px;"">
  <p>What determined the result of this run?</p>
  </div>","100","html-slider-response","14","243049","0.0-7.0-1.0","11","1","2025-07-30 08:38:25","36c45c0696341be0efffe67d72a12abb","93.108.112.26","Mozilla/5.0 (Windows NT 10.0; Win64; x64) AppleWebKit/537.36 (KHTML, like Gecko) Chrome/138.0.0.0 Safari/537.36","WebKit","Chrome","138.0.0.0","Windows","10.0","https://app.prolific.com/","en-US,en;q=0.9","6140ef8d27499e70e8740918","683dba9a53627eb9ab41b36a","6889d9c7508422fe97094867","0","6140ef8d27499e70e8740918","0","2025-07-30T08:42:29.123Z","","","","AttribQ","","","","","","","","","","","50","","","","","","","","","","","","","","","","","","","","","","","","","","",""
"1991","","<div style=""width:500px;"">
  <p>How much control did you have over the ball?</p>
  </div>","100","html-slider-response","15","245041","0.0-7.0-2.0","11","1","2025-07-30 08:38:25","36c45c0696341be0efffe67d72a12abb","93.108.112.26","Mozilla/5.0 (Windows NT 10.0; Win64; x64) AppleWebKit/537.36 (KHTML, like Gecko) Chrome/138.0.0.0 Safari/537.36","WebKit","Chrome","138.0.0.0","Windows","10.0","https://app.prolific.com/","en-US,en;q=0.9","6140ef8d27499e70e8740918","683dba9a53627eb9ab41b36a","6889d9c7508422fe97094867","0","6140ef8d27499e70e8740918","0","2025-07-30T08:42:31.115Z","","","","ControlQ","","","","","","","","","","","50","","","","","","","","","","","","","","","","","","","","","","","","","","",""
"2428","","<div style=""width:500px;"">
  <p>How would you describe your current emotional state?</p>
  </div>","17","html-slider-response","16","247470","0.0-7.0-3.0","11","1","2025-07-30 08:38:25","36c45c0696341be0efffe67d72a12abb","93.108.112.26","Mozilla/5.0 (Windows NT 10.0; Win64; x64) AppleWebKit/537.36 (KHTML, like Gecko) Chrome/138.0.0.0 Safari/537.36","WebKit","Chrome","138.0.0.0","Windows","10.0","https://app.prolific.com/","en-US,en;q=0.9","6140ef8d27499e70e8740918","683dba9a53627eb9ab41b36a","6889d9c7508422fe97094867","0","6140ef8d27499e70e8740918","0","2025-07-30T08:42:33.544Z","","","","StressQ","","","","","","","","","","","50","","","","","","","","","","","","","","","","","","","","","","","","","","",""
"2703","","<div style=""width:500px;"">
  <p>What best describes how you currently feel?</p>
  </div>","60","html-slider-response","17","250174","0.0-7.0-4.0","11","1","2025-07-30 08:38:25","36c45c0696341be0efffe67d72a12abb","93.108.112.26","Mozilla/5.0 (Windows NT 10.0; Win64; x64) AppleWebKit/537.36 (KHTML, like Gecko) Chrome/138.0.0.0 Safari/537.36","WebKit","Chrome","138.0.0.0","Windows","10.0","https://app.prolific.com/","en-US,en;q=0.9","6140ef8d27499e70e8740918","683dba9a53627eb9ab41b36a","6889d9c7508422fe97094867","0","6140ef8d27499e70e8740918","0","2025-07-30T08:42:36.248Z","","","","MotivationQ","","","","","","","","","","","50","","","","","","","","","","","","","","","","","","","","","","","","","","",""
"","","","","ctl-task-cpt","18","280867","0.0-7.0-0.1","11","1","2025-07-30 08:38:25","36c45c0696341be0efffe67d72a12abb","93.108.112.26","Mozilla/5.0 (Windows NT 10.0; Win64; x64) AppleWebKit/537.36 (KHTML, like Gecko) Chrome/138.0.0.0 Safari/537.36","WebKit","Chrome","138.0.0.0","Windows","10.0","https://app.prolific.com/","en-US,en;q=0.9","6140ef8d27499e70e8740918","683dba9a53627eb9ab41b36a","6889d9c7508422fe97094867","0","6140ef8d27499e70e8740918","0","2025-07-30T08:43:06.941Z","","","","","","","","","","","","","","","","win-only","2","g1:SE,g2:NW","0.9","2","0","251345.9","3275.4","8280.5","27676.7","1","4","8","6","2","8","8","12","4","0.09090909090909091","955.2","3000","960","[""left"",""up""]","{""num_key_presses"":6,""num_perfect"":6,""num_errors"":0,""num_randdir"":0,""num_randdir_good_moves"":0,""num_whilered"":0,""num_whileblue"":0,""num_blue"":1,""num_good_moves"":6}","[419.57142857142856,408.47767857142856,0.2,419.57142857142856,408.47767857142856,100.4,419.57142857142856,408.47767857142856,205.2,419.57142857142856,408.47767857142856,305.4,348.57142857142856,356.47767857142856,409.7,144.57142857142856,223.47767857142856,514.9,69.57142857142857,125.47767857142857,615.6,64.57142857142857,94.47767857142857,715.8,50.57142857142857,70.47767857142857,819.8,36.57142857142857,51.47767857142857,920.3,36.57142857142857,51.47767857142857,1020.4,126.57142857142857,95.47767857142857,1120.4,881.5714285714286,288.47767857142856,1224.9,996.5714285714286,301.47767857142856,1324.9,996.5714285714286,301.47767857142856,1425.3,996.5714285714286,301.47767857142856,1531.1,996.5714285714286,301.47767857142856,1631.4,996.5714285714286,301.47767857142856,1735.4,996.5714285714286,301.47767857142856,1835.5,996.5714285714286,301.47767857142856,1935.5,996.5714285714286,301.47767857142856,2040.1,996.5714285714286,301.47767857142856,2140.1,996.5714285714286,301.47767857142856,2240.1,996.5714285714286,301.47767857142856,2340.2,996.5714285714286,301.47767857142856,2445.5,996.5714285714286,301.47767857142856,2550.1,996.5714285714286,301.47767857142856,2651.1,996.5714285714286,301.47767857142856,2755.1,996.5714285714286,301.47767857142856,2855.4,996.5714285714286,301.47767857142856,2956.3,996.5714285714286,301.47767857142856,3056.3,996.5714285714286,301.47767857142856,3160.9,996.5714285714286,301.47767857142856,3264.8,996.5714285714286,301.47767857142856,3365.6,996.5714285714286,301.47767857142856,3470,996.5714285714286,301.47767857142856,3575.3,996.5714285714286,301.47767857142856,3675.3,996.5714285714286,301.47767857142856,3775.3,996.5714285714286,301.47767857142856,3875.5,996.5714285714286,301.47767857142856,3980.3,996.5714285714286,301.47767857142856,4085.3,996.5714285714286,301.47767857142856,4185.6,996.5714285714286,301.47767857142856,4291.5,996.5714285714286,301.47767857142856,4395.2,996.5714285714286,301.47767857142856,4495.3,996.5714285714286,301.47767857142856,4595.4,996.5714285714286,301.47767857142856,4695.5,996.5714285714286,301.47767857142856,4800.3,996.5714285714286,301.47767857142856,4901]","[1358.4,1358.4,1000,0,358.4,""smooth"",""up"",""up"",""good_move"",3854.1,2495.6,2162,1358.5,333.6,""smooth"",""up"",""up"",""good_move"",6790.1,2935.8,2579.8,3854.3,356,""smooth"",""up"",""up"",""good_move"",8558.2,1768,1421.6,6790.2,346.4,""smooth"",""left"",""left"",""good_move"",16374.3,7816,3477.6,12564.9,331.8,""smooth"",""left"",""left"",""good_move"",19310.1,2935.7,2577.2,16374.4,358.5,""smooth"",""left"",""left"",""good_move""]"
"9380","","<div style=""width:500px;"">
  <p>What determined the result of this run?</p>
  </div>","100","html-slider-response","19","290248","0.0-7.0-1.1","11","1","2025-07-30 08:38:25","36c45c0696341be0efffe67d72a12abb","93.108.112.26","Mozilla/5.0 (Windows NT 10.0; Win64; x64) AppleWebKit/537.36 (KHTML, like Gecko) Chrome/138.0.0.0 Safari/537.36","WebKit","Chrome","138.0.0.0","Windows","10.0","https://app.prolific.com/","en-US,en;q=0.9","6140ef8d27499e70e8740918","683dba9a53627eb9ab41b36a","6889d9c7508422fe97094867","0","6140ef8d27499e70e8740918","0","2025-07-30T08:43:16.322Z","","","","AttribQ","","","","","","","","","","","50","","","","","","","","","","","","","","","","","","","","","","","","","","",""
"1708","","<div style=""width:500px;"">
  <p>How much control did you have over the ball?</p>
  </div>","100","html-slider-response","20","291957","0.0-7.0-2.1","11","1","2025-07-30 08:38:25","36c45c0696341be0efffe67d72a12abb","93.108.112.26","Mozilla/5.0 (Windows NT 10.0; Win64; x64) AppleWebKit/537.36 (KHTML, like Gecko) Chrome/138.0.0.0 Safari/537.36","WebKit","Chrome","138.0.0.0","Windows","10.0","https://app.prolific.com/","en-US,en;q=0.9","6140ef8d27499e70e8740918","683dba9a53627eb9ab41b36a","6889d9c7508422fe97094867","0","6140ef8d27499e70e8740918","0","2025-07-30T08:43:18.031Z","","","","ControlQ","","","","","","","","","","","50","","","","","","","","","","","","","","","","","","","","","","","","","","",""
"3209","","<div style=""width:500px;"">
  <p>How would you describe your current emotional state?</p>
  </div>","24","html-slider-response","21","295166","0.0-7.0-3.1","11","1","2025-07-30 08:38:25","36c45c0696341be0efffe67d72a12abb","93.108.112.26","Mozilla/5.0 (Windows NT 10.0; Win64; x64) AppleWebKit/537.36 (KHTML, like Gecko) Chrome/138.0.0.0 Safari/537.36","WebKit","Chrome","138.0.0.0","Windows","10.0","https://app.prolific.com/","en-US,en;q=0.9","6140ef8d27499e70e8740918","683dba9a53627eb9ab41b36a","6889d9c7508422fe97094867","0","6140ef8d27499e70e8740918","0","2025-07-30T08:43:21.241Z","","","","StressQ","","","","","","","","","","","50","","","","","","","","","","","","","","","","","","","","","","","","","","",""
"2238","","<div style=""width:500px;"">
  <p>What best describes how you currently feel?</p>
  </div>","62","html-slider-response","22","297405","0.0-7.0-4.1","11","1","2025-07-30 08:38:25","36c45c0696341be0efffe67d72a12abb","93.108.112.26","Mozilla/5.0 (Windows NT 10.0; Win64; x64) AppleWebKit/537.36 (KHTML, like Gecko) Chrome/138.0.0.0 Safari/537.36","WebKit","Chrome","138.0.0.0","Windows","10.0","https://app.prolific.com/","en-US,en;q=0.9","6140ef8d27499e70e8740918","683dba9a53627eb9ab41b36a","6889d9c7508422fe97094867","0","6140ef8d27499e70e8740918","0","2025-07-30T08:43:23.480Z","","","","MotivationQ","","","","","","","","","","","50","","","","","","","","","","","","","","","","","","","","","","","","","","",""
"","","","","ctl-task-cpt","23","326883","0.0-7.0-0.2","11","1","2025-07-30 08:38:25","36c45c0696341be0efffe67d72a12abb","93.108.112.26","Mozilla/5.0 (Windows NT 10.0; Win64; x64) AppleWebKit/537.36 (KHTML, like Gecko) Chrome/138.0.0.0 Safari/537.36","WebKit","Chrome","138.0.0.0","Windows","10.0","https://app.prolific.com/","en-US,en;q=0.9","6140ef8d27499e70e8740918","683dba9a53627eb9ab41b36a","6889d9c7508422fe97094867","0","6140ef8d27499e70e8740918","0","2025-07-30T08:43:52.957Z","","","","","","","","","","","","","","","","win-only","2","g1:SE,g2:NW","0.8","3","0","298578.3","763.8","5766.2","26460.3","1","4","8","6","2","8","8","20","12","0.15151515151515152","859.2","3000","505","[""left"",""up""]","{""num_key_presses"":8,""num_perfect"":6,""num_errors"":0,""num_randdir"":2,""num_randdir_good_moves"":1,""num_whilered"":0,""num_whileblue"":0,""num_blue"":0,""num_good_moves"":7}","[415.57142857142856,406.47767857142856,0.1,414.57142857142856,406.47767857142856,101.4,407.57142857142856,409.47767857142856,202.2,401.57142857142856,410.47767857142856,306.7,388.57142857142856,406.47767857142856,411.5,281.57142857142856,327.47767857142856,512.5,146.57142857142856,171.47767857142856,616.5,99.57142857142857,119.47767857142857,716.5,78.57142857142857,99.47767857142857,816.5,75.57142857142857,95.47767857142857,921.5,226.57142857142856,115.47767857142857,1021.5,1133.5714285714287,216.47767857142856,1122.2,1237.5714285714287,226.47767857142856,1222.2,1237.5714285714287,226.47767857142856,1326.4,1237.5714285714287,226.47767857142856,1426.6,1237.5714285714287,226.47767857142856,1532.3,1237.5714285714287,226.47767857142856,1632.5,1237.5714285714287,226.47767857142856,1736.8,1237.5714285714287,226.47767857142856,1842.4,1237.5714285714287,226.47767857142856,1946.9,1237.5714285714287,226.47767857142856,2051.7,1237.5714285714287,226.47767857142856,2152.4,1237.5714285714287,226.47767857142856,2256.5,1237.5714285714287,226.47767857142856,2356.7,1237.5714285714287,226.47767857142856,2457.1,1237.5714285714287,226.47767857142856,2562.2,1237.5714285714287,226.47767857142856,2666.8,1237.5714285714287,226.47767857142856,2766.8,1237.5714285714287,226.47767857142856,2872,1237.5714285714287,226.47767857142856,2972.4,1237.5714285714287,226.47767857142856,3076.5,1237.5714285714287,226.47767857142856,3182.5,1237.5714285714287,226.47767857142856,3286.5,1237.5714285714287,226.47767857142856,3386.8,1237.5714285714287,226.47767857142856,3492.4,1237.5714285714287,226.47767857142856,3592.5,1237.5714285714287,226.47767857142856,3696.5,1237.5714285714287,226.47767857142856,3796.9,1237.5714285714287,226.47767857142856,3903,1237.5714285714287,226.47767857142856,4007.1,1237.5714285714287,226.47767857142856,4111.5,1237.5714285714287,226.47767857142856,4211.6,1237.5714285714287,226.47767857142856,4316.7,1237.5714285714287,226.47767857142856,4416.7,1237.5714285714287,226.47767857142856,4522.1,1237.5714285714287,226.47767857142856,4622.2,1237.5714285714287,226.47767857142856,4722.2,1237.5714285714287,226.47767857142856,4826.4,1237.5714285714287,226.47767857142856,4926.4]","[1367.7,1367.7,1000,0,367.7,""oops"",""up"",""left"",""good_move"",3927.6,2559.7,2226.6,1367.9,333.1,""smooth"",""up"",""up"",""good_move"",6415.8,2487.9,2142.4,3927.9,345.5,""smooth"",""up"",""up"",""good_move"",9751.6,3335.6,2967.2,6416,368.4,""smooth"",""up"",""up"",""good_move"",11887.6,2135.8,1834.1,9751.8,301.7,""oops"",""left"",""right"",""bad_move"",14687.5,2799.7,2515.3,11887.8,284.4,""smooth"",""left"",""left"",""good_move"",17439.8,2752.2,2489.6,14687.6,262.6,""smooth"",""left"",""left"",""good_move"",20607.8,3167.9,2884.8,17440,283.1,""smooth"",""left"",""left"",""good_move""]"
"2763","","<div style=""width:500px;"">
  <p>What determined the result of this run?</p>
  </div>","59","html-slider-response","24","329646","0.0-7.0-1.2","11","1","2025-07-30 08:38:25","36c45c0696341be0efffe67d72a12abb","93.108.112.26","Mozilla/5.0 (Windows NT 10.0; Win64; x64) AppleWebKit/537.36 (KHTML, like Gecko) Chrome/138.0.0.0 Safari/537.36","WebKit","Chrome","138.0.0.0","Windows","10.0","https://app.prolific.com/","en-US,en;q=0.9","6140ef8d27499e70e8740918","683dba9a53627eb9ab41b36a","6889d9c7508422fe97094867","0","6140ef8d27499e70e8740918","0","2025-07-30T08:43:55.720Z","","","","AttribQ","","","","","","","","","","","50","","","","","","","","","","","","","","","","","","","","","","","","","","",""
"1878","","<div style=""width:500px;"">
  <p>How much control did you have over the ball?</p>
  </div>","58","html-slider-response","25","331525","0.0-7.0-2.2","11","1","2025-07-30 08:38:25","36c45c0696341be0efffe67d72a12abb","93.108.112.26","Mozilla/5.0 (Windows NT 10.0; Win64; x64) AppleWebKit/537.36 (KHTML, like Gecko) Chrome/138.0.0.0 Safari/537.36","WebKit","Chrome","138.0.0.0","Windows","10.0","https://app.prolific.com/","en-US,en;q=0.9","6140ef8d27499e70e8740918","683dba9a53627eb9ab41b36a","6889d9c7508422fe97094867","0","6140ef8d27499e70e8740918","0","2025-07-30T08:43:57.599Z","","","","ControlQ","","","","","","","","","","","50","","","","","","","","","","","","","","","","","","","","","","","","","","",""
"2413","","<div style=""width:500px;"">
  <p>How would you describe your current emotional state?</p>
  </div>","25","html-slider-response","26","333939","0.0-7.0-3.2","11","1","2025-07-30 08:38:25","36c45c0696341be0efffe67d72a12abb","93.108.112.26","Mozilla/5.0 (Windows NT 10.0; Win64; x64) AppleWebKit/537.36 (KHTML, like Gecko) Chrome/138.0.0.0 Safari/537.36","WebKit","Chrome","138.0.0.0","Windows","10.0","https://app.prolific.com/","en-US,en;q=0.9","6140ef8d27499e70e8740918","683dba9a53627eb9ab41b36a","6889d9c7508422fe97094867","0","6140ef8d27499e70e8740918","0","2025-07-30T08:44:00.013Z","","","","StressQ","","","","","","","","","","","50","","","","","","","","","","","","","","","","","","","","","","","","","","",""
"1809","","<div style=""width:500px;"">
  <p>What best describes how you currently feel?</p>
  </div>","70","html-slider-response","27","335748","0.0-7.0-4.2","11","1","2025-07-30 08:38:25","36c45c0696341be0efffe67d72a12abb","93.108.112.26","Mozilla/5.0 (Windows NT 10.0; Win64; x64) AppleWebKit/537.36 (KHTML, like Gecko) Chrome/138.0.0.0 Safari/537.36","WebKit","Chrome","138.0.0.0","Windows","10.0","https://app.prolific.com/","en-US,en;q=0.9","6140ef8d27499e70e8740918","683dba9a53627eb9ab41b36a","6889d9c7508422fe97094867","0","6140ef8d27499e70e8740918","0","2025-07-30T08:44:01.822Z","","","","MotivationQ","","","","","","","","","","","50","","","","","","","","","","","","","","","","","","","","","","","","","","",""
"","","","","ctl-task-cpt","28","359368","0.0-7.0-0.3","11","1","2025-07-30 08:38:25","36c45c0696341be0efffe67d72a12abb","93.108.112.26","Mozilla/5.0 (Windows NT 10.0; Win64; x64) AppleWebKit/537.36 (KHTML, like Gecko) Chrome/138.0.0.0 Safari/537.36","WebKit","Chrome","138.0.0.0","Windows","10.0","https://app.prolific.com/","en-US,en;q=0.9","6140ef8d27499e70e8740918","683dba9a53627eb9ab41b36a","6889d9c7508422fe97094867","0","6140ef8d27499e70e8740918","0","2025-07-30T08:44:25.442Z","","","","","","","","","","","","","","","","win-only","3","g1:SW,g2:NE","0.7","4","0","336921.3","991.9","5995.6","20601.4","1","4","4","6","1","1","1","21","20","0.1590909090909091","845.9","3000","1110","[""down"",""left""]","{""num_key_presses"":6,""num_perfect"":5,""num_errors"":0,""num_randdir"":1,""num_randdir_good_moves"":0,""num_whilered"":0,""num_whileblue"":0,""num_blue"":0,""num_good_moves"":5}","[416.57142857142856,418.47767857142856,0.1,416.57142857142856,418.47767857142856,104.1,416.57142857142856,418.47767857142856,208.4,416.57142857142856,418.47767857142856,309.3,389.57142857142856,440.47767857142856,413.5,203.57142857142856,599.4776785714286,513.6,129.57142857142856,682.4776785714286,613.6,103.57142857142857,723.4776785714286,713.7,90.57142857142857,747.4776785714286,818.5,91.57142857142857,747.4776785714286,918.7,436.57142857142856,648.4776785714286,1023.6,1024.5714285714287,525.4776785714286,1128.4,1068.5714285714287,505.47767857142856,1228.5,1068.5714285714287,505.47767857142856,1333.2,1068.5714285714287,505.47767857142856,1434.2,1068.5714285714287,505.47767857142856,1538.3,1068.5714285714287,505.47767857142856,1639.5,1068.5714285714287,505.47767857142856,1744,1068.5714285714287,505.47767857142856,1848.5,1068.5714285714287,505.47767857142856,1948.6,1068.5714285714287,505.47767857142856,2054,1068.5714285714287,505.47767857142856,2159.4,1068.5714285714287,505.47767857142856,2264.2,1068.5714285714287,505.47767857142856,2364.3,1068.5714285714287,505.47767857142856,2469.2,1068.5714285714287,505.47767857142856,2573.8,1068.5714285714287,505.47767857142856,2674.1,1068.5714285714287,505.47767857142856,2778.3,1068.5714285714287,505.47767857142856,2878.4,1068.5714285714287,505.47767857142856,2978.4,1068.5714285714287,505.47767857142856,3078.4,1068.5714285714287,505.47767857142856,3178.4,1068.5714285714287,505.47767857142856,3279.5,1068.5714285714287,505.47767857142856,3384,1068.5714285714287,505.47767857142856,3488.2,1068.5714285714287,505.47767857142856,3588.4,1068.5714285714287,505.47767857142856,3688.4,1068.5714285714287,505.47767857142856,3793.4,1068.5714285714287,505.47767857142856,3893.5,1068.5714285714287,505.47767857142856,3993.5,1068.5714285714287,505.47767857142856,4093.6,1068.5714285714287,505.47767857142856,4198.2,1068.5714285714287,505.47767857142856,4298.7,1068.5714285714287,505.47767857142856,4403.2,1068.5714285714287,505.47767857142856,4503.4,1068.5714285714287,505.47767857142856,4603.4,1068.5714285714287,505.47767857142856,4703.4,1068.5714285714287,505.47767857142856,4803.9,1068.5714285714287,505.47767857142856,4908.5]","[1339.1,1339.1,1000,0,339.1,""smooth"",""down"",""down"",""good_move"",4627,3287.8,2941.7,1339.2,346.1,""smooth"",""down"",""down"",""good_move"",7402.8,2775.6,2478.5,4627.2,297.1,""oops"",""left"",""right"",""bad_move"",10147,2744,2424.1,7403,319.9,""smooth"",""left"",""left"",""good_move"",12146.8,1999.5,1673.9,10147.3,325.6,""smooth"",""left"",""left"",""good_move"",14514.8,2367.8,2070.8,12147,297,""smooth"",""left"",""left"",""good_move""]"
"2822","","<div style=""width:500px;"">
  <p>What determined the result of this run?</p>
  </div>","59","html-slider-response","29","362190","0.0-7.0-1.3","11","1","2025-07-30 08:38:25","36c45c0696341be0efffe67d72a12abb","93.108.112.26","Mozilla/5.0 (Windows NT 10.0; Win64; x64) AppleWebKit/537.36 (KHTML, like Gecko) Chrome/138.0.0.0 Safari/537.36","WebKit","Chrome","138.0.0.0","Windows","10.0","https://app.prolific.com/","en-US,en;q=0.9","6140ef8d27499e70e8740918","683dba9a53627eb9ab41b36a","6889d9c7508422fe97094867","0","6140ef8d27499e70e8740918","0","2025-07-30T08:44:28.264Z","","","","AttribQ","","","","","","","","","","","50","","","","","","","","","","","","","","","","","","","","","","","","","","",""
"1592","","<div style=""width:500px;"">
  <p>How much control did you have over the ball?</p>
  </div>","63","html-slider-response","30","363783","0.0-7.0-2.3","11","1","2025-07-30 08:38:25","36c45c0696341be0efffe67d72a12abb","93.108.112.26","Mozilla/5.0 (Windows NT 10.0; Win64; x64) AppleWebKit/537.36 (KHTML, like Gecko) Chrome/138.0.0.0 Safari/537.36","WebKit","Chrome","138.0.0.0","Windows","10.0","https://app.prolific.com/","en-US,en;q=0.9","6140ef8d27499e70e8740918","683dba9a53627eb9ab41b36a","6889d9c7508422fe97094867","0","6140ef8d27499e70e8740918","0","2025-07-30T08:44:29.857Z","","","","ControlQ","","","","","","","","","","","50","","","","","","","","","","","","","","","","","","","","","","","","","","",""
"1948","","<div style=""width:500px;"">
  <p>How would you describe your current emotional state?</p>
  </div>","25","html-slider-response","31","365732","0.0-7.0-3.3","11","1","2025-07-30 08:38:25","36c45c0696341be0efffe67d72a12abb","93.108.112.26","Mozilla/5.0 (Windows NT 10.0; Win64; x64) AppleWebKit/537.36 (KHTML, like Gecko) Chrome/138.0.0.0 Safari/537.36","WebKit","Chrome","138.0.0.0","Windows","10.0","https://app.prolific.com/","en-US,en;q=0.9","6140ef8d27499e70e8740918","683dba9a53627eb9ab41b36a","6889d9c7508422fe97094867","0","6140ef8d27499e70e8740918","0","2025-07-30T08:44:31.806Z","","","","StressQ","","","","","","","","","","","50","","","","","","","","","","","","","","","","","","","","","","","","","","",""
"1742","","<div style=""width:500px;"">
  <p>What best describes how you currently feel?</p>
  </div>","74","html-slider-response","32","367474","0.0-7.0-4.3","11","1","2025-07-30 08:38:25","36c45c0696341be0efffe67d72a12abb","93.108.112.26","Mozilla/5.0 (Windows NT 10.0; Win64; x64) AppleWebKit/537.36 (KHTML, like Gecko) Chrome/138.0.0.0 Safari/537.36","WebKit","Chrome","138.0.0.0","Windows","10.0","https://app.prolific.com/","en-US,en;q=0.9","6140ef8d27499e70e8740918","683dba9a53627eb9ab41b36a","6889d9c7508422fe97094867","0","6140ef8d27499e70e8740918","0","2025-07-30T08:44:33.548Z","","","","MotivationQ","","","","","","","","","","","50","","","","","","","","","","","","","","","","","","","","","","","","","","",""
"","","","","ctl-task-cpt","33","394507","0.0-7.0-0.4","11","1","2025-07-30 08:38:25","36c45c0696341be0efffe67d72a12abb","93.108.112.26","Mozilla/5.0 (Windows NT 10.0; Win64; x64) AppleWebKit/537.36 (KHTML, like Gecko) Chrome/138.0.0.0 Safari/537.36","WebKit","Chrome","138.0.0.0","Windows","10.0","https://app.prolific.com/","en-US,en;q=0.9","6140ef8d27499e70e8740918","683dba9a53627eb9ab41b36a","6889d9c7508422fe97094867","0","6140ef8d27499e70e8740918","0","2025-07-30T08:45:00.581Z","","","","","","","","","","","","","","","","win-only","3","g1:SW,g2:NE","0.6","5","0","368647.1","900.1","5901.1","24015.9","1","4","8","6","1","1","1","22","21","0.16666666666666666","693.8","3000","1035","[""down"",""left""]","{""num_key_presses"":6,""num_perfect"":5,""num_errors"":0,""num_randdir"":1,""num_randdir_good_moves"":0,""num_whilered"":0,""num_whileblue"":0,""num_blue"":1,""num_good_moves"":5}","[420.57142857142856,420.47767857142856,0.2,420.57142857142856,420.47767857142856,100.1,420.57142857142856,420.47767857142856,200.1,420.57142857142856,420.47767857142856,300.1,259.57142857142856,555.4776785714286,400.2,128.57142857142856,696.4776785714286,500.2,120.57142857142857,736.4776785714286,600.5,114.57142857142857,743.4776785714286,705.5,121.57142857142857,737.4776785714286,806.1,212.57142857142856,714.4776785714286,910.8,601.5714285714286,647.4776785714286,1011.2,1046.5714285714287,562.4776785714286,1115.3,1204.5714285714287,545.4776785714286,1216.1,1204.5714285714287,545.4776785714286,1316.1,1202.5714285714287,545.4776785714286,1420.1,1202.5714285714287,545.4776785714286,1520.7,1202.5714285714287,545.4776785714286,1625.3,1202.5714285714287,545.4776785714286,1726,1202.5714285714287,545.4776785714286,1830.2,1202.5714285714287,545.4776785714286,1930.6,1202.5714285714287,545.4776785714286,2030.7,1202.5714285714287,545.4776785714286,2130.8,1202.5714285714287,545.4776785714286,2236,1202.5714285714287,545.4776785714286,2340.1,1202.5714285714287,545.4776785714286,2441.1,1202.5714285714287,545.4776785714286,2545.2,1202.5714285714287,545.4776785714286,2650.2,1202.5714285714287,545.4776785714286,2755.3,1202.5714285714287,545.4776785714286,2855.4,1202.5714285714287,545.4776785714286,2955.6,1202.5714285714287,545.4776785714286,3060.3,1202.5714285714287,545.4776785714286,3160.7,1202.5714285714287,545.4776785714286,3260.7,1202.5714285714287,545.4776785714286,3365.2,1202.5714285714287,545.4776785714286,3465.3,1202.5714285714287,545.4776785714286,3565.4,1202.5714285714287,545.4776785714286,3665.9,1202.5714285714287,545.4776785714286,3770.9,1202.5714285714287,545.4776785714286,3871,1202.5714285714287,545.4776785714286,3975.8,1202.5714285714287,545.4776785714286,4080.5,1202.5714285714287,545.4776785714286,4185.3,1202.5714285714287,545.4776785714286,4285.3,1202.5714285714287,545.4776785714286,4390.9,1202.5714285714287,545.4776785714286,4495.2,1202.5714285714287,545.4776785714286,4595.9,1202.5714285714287,545.4776785714286,4700.1,1202.5714285714287,545.4776785714286,4800.1,1202.5714285714287,545.4776785714286,4900.1]","[1315.5,1315.5,1000,0,315.5,""smooth"",""down"",""down"",""good_move"",7499.4,6183.6,2542.2,4639.8,317.4,""smooth"",""down"",""down"",""good_move"",10427.1,2927.5,2548.8,7499.6,378.7,""oops"",""left"",""up"",""bad_move"",13067.1,2639.8,2331.6,10427.3,308.2,""smooth"",""left"",""left"",""good_move"",15907.1,2839.8,2510.2,13067.3,329.6,""smooth"",""down"",""down"",""good_move"",18027.1,2119.8,1780.5,15907.3,339.3,""smooth"",""left"",""left"",""good_move""]"
"4175","","<div style=""width:500px;"">
  <p>What determined the result of this run?</p>
  </div>","59","html-slider-response","34","398682","0.0-7.0-1.4","11","1","2025-07-30 08:38:25","36c45c0696341be0efffe67d72a12abb","93.108.112.26","Mozilla/5.0 (Windows NT 10.0; Win64; x64) AppleWebKit/537.36 (KHTML, like Gecko) Chrome/138.0.0.0 Safari/537.36","WebKit","Chrome","138.0.0.0","Windows","10.0","https://app.prolific.com/","en-US,en;q=0.9","6140ef8d27499e70e8740918","683dba9a53627eb9ab41b36a","6889d9c7508422fe97094867","0","6140ef8d27499e70e8740918","0","2025-07-30T08:45:04.756Z","","","","AttribQ","","","","","","","","","","","50","","","","","","","","","","","","","","","","","","","","","","","","","","",""
"1463","","<div style=""width:500px;"">
  <p>How much control did you have over the ball?</p>
  </div>","69","html-slider-response","35","400146","0.0-7.0-2.4","11","1","2025-07-30 08:38:25","36c45c0696341be0efffe67d72a12abb","93.108.112.26","Mozilla/5.0 (Windows NT 10.0; Win64; x64) AppleWebKit/537.36 (KHTML, like Gecko) Chrome/138.0.0.0 Safari/537.36","WebKit","Chrome","138.0.0.0","Windows","10.0","https://app.prolific.com/","en-US,en;q=0.9","6140ef8d27499e70e8740918","683dba9a53627eb9ab41b36a","6889d9c7508422fe97094867","0","6140ef8d27499e70e8740918","0","2025-07-30T08:45:06.220Z","","","","ControlQ","","","","","","","","","","","50","","","","","","","","","","","","","","","","","","","","","","","","","","",""
"2500","","<div style=""width:500px;"">
  <p>How would you describe your current emotional state?</p>
  </div>","22","html-slider-response","36","402647","0.0-7.0-3.4","11","1","2025-07-30 08:38:25","36c45c0696341be0efffe67d72a12abb","93.108.112.26","Mozilla/5.0 (Windows NT 10.0; Win64; x64) AppleWebKit/537.36 (KHTML, like Gecko) Chrome/138.0.0.0 Safari/537.36","WebKit","Chrome","138.0.0.0","Windows","10.0","https://app.prolific.com/","en-US,en;q=0.9","6140ef8d27499e70e8740918","683dba9a53627eb9ab41b36a","6889d9c7508422fe97094867","0","6140ef8d27499e70e8740918","0","2025-07-30T08:45:08.721Z","","","","StressQ","","","","","","","","","","","50","","","","","","","","","","","","","","","","","","","","","","","","","","",""
"2901","","<div style=""width:500px;"">
  <p>What best describes how you currently feel?</p>
  </div>","75","html-slider-response","37","405549","0.0-7.0-4.4","11","1","2025-07-30 08:38:25","36c45c0696341be0efffe67d72a12abb","93.108.112.26","Mozilla/5.0 (Windows NT 10.0; Win64; x64) AppleWebKit/537.36 (KHTML, like Gecko) Chrome/138.0.0.0 Safari/537.36","WebKit","Chrome","138.0.0.0","Windows","10.0","https://app.prolific.com/","en-US,en;q=0.9","6140ef8d27499e70e8740918","683dba9a53627eb9ab41b36a","6889d9c7508422fe97094867","0","6140ef8d27499e70e8740918","0","2025-07-30T08:45:11.623Z","","","","MotivationQ","","","","","","","","","","","50","","","","","","","","","","","","","","","","","","","","","","","","","","",""
"","","","","ctl-task-cpt","38","442352","0.0-7.0-0.5","11","1","2025-07-30 08:38:25","36c45c0696341be0efffe67d72a12abb","93.108.112.26","Mozilla/5.0 (Windows NT 10.0; Win64; x64) AppleWebKit/537.36 (KHTML, like Gecko) Chrome/138.0.0.0 Safari/537.36","WebKit","Chrome","138.0.0.0","Windows","10.0","https://app.prolific.com/","en-US,en;q=0.9","6140ef8d27499e70e8740918","683dba9a53627eb9ab41b36a","6889d9c7508422fe97094867","0","6140ef8d27499e70e8740918","0","2025-07-30T08:45:48.426Z","","","","","","","","","","","","","","","","win-only","0","g1:NW,g2:SE","0.5","6","0","406722.2","1196.9","6201.1","33785.4","1","4","4","6","2","4","4","26","22","0.19696969696969696","1641","3000","1080","[""down"",""right""]","{""num_key_presses"":6,""num_perfect"":4,""num_errors"":0,""num_randdir"":2,""num_randdir_good_moves"":2,""num_whilered"":0,""num_whileblue"":0,""num_blue"":3,""num_good_moves"":6}","[419.57142857142856,422.47767857142856,0,419.57142857142856,422.47767857142856,103.3,419.57142857142856,422.47767857142856,204.1,419.57142857142856,422.47767857142856,308.3,419.57142857142856,422.47767857142856,408.3,419.57142857142856,422.47767857142856,509.1,419.57142857142856,422.47767857142856,613.7,419.57142857142856,422.47767857142856,718.4,411.57142857142856,418.47767857142856,818.7,367.57142857142856,400.47767857142856,923.5,347.57142857142856,390.47767857142856,1023.8,343.57142857142856,397.47767857142856,1128.3,540.5714285714286,551.4776785714286,1228.4,708.5714285714286,649.4776785714286,1328.4,736.5714285714286,688.4776785714286,1433.7,753.5714285714286,715.4776785714286,1534.2,754.5714285714286,719.4776785714286,1638.5,782.5714285714286,728.4776785714286,1738.7,1170.5714285714287,710.4776785714286,1843.4,1331.5714285714287,675.4776785714286,1949.1,1331.5714285714287,675.4776785714286,2053.4,1331.5714285714287,675.4776785714286,2153.5,1331.5714285714287,675.4776785714286,2253.7,1331.5714285714287,675.4776785714286,2359.3,1331.5714285714287,675.4776785714286,2464.1,1331.5714285714287,675.4776785714286,2564.1,1331.5714285714287,675.4776785714286,2668.3,1331.5714285714287,675.4776785714286,2769,1331.5714285714287,675.4776785714286,2873.6,1331.5714285714287,675.4776785714286,2978.3,1331.5714285714287,675.4776785714286,3083.4,1331.5714285714287,675.4776785714286,3188.4,1331.5714285714287,675.4776785714286,3288.5,1331.5714285714287,675.4776785714286,3388.5,1331.5714285714287,675.4776785714286,3488.6,1331.5714285714287,675.4776785714286,3588.8,1331.5714285714287,675.4776785714286,3689.1,1331.5714285714287,675.4776785714286,3793.2,1331.5714285714287,675.4776785714286,3893.5,1331.5714285714287,675.4776785714286,3993.5,1331.5714285714287,675.4776785714286,4093.5,1331.5714285714287,675.4776785714286,4193.9,1331.5714285714287,675.4776785714286,4298.7,1331.5714285714287,675.4776785714286,4398.9,1331.5714285714287,675.4776785714286,4499.1,1331.5714285714287,675.4776785714286,4603.5,1331.5714285714287,675.4776785714286,4703.9,1331.5714285714287,675.4776785714286,4808.4,1331.5714285714287,675.4776785714286,4908.8]","[5180.2,5180.2,2895.8,2005,279.4,""smooth"",""down"",""down"",""good_move"",8179.8,2999.4,2707.6,5180.4,291.8,""oops"",""down"",""down"",""good_move"",15211.8,7031.8,3160.8,11594.1,456.9,""smooth"",""right"",""right"",""good_move"",18403.8,3191.8,2867.7,15212,324.1,""smooth"",""down"",""down"",""good_move"",24267.6,5863.7,2366.9,21614.6,286.1,""smooth"",""right"",""right"",""good_move"",27499.7,3231.9,2917,24267.8,314.9,""oops"",""right"",""right"",""good_move""]"
"2471","","<div style=""width:500px;"">
  <p>What determined the result of this run?</p>
  </div>","65","html-slider-response","39","444824","0.0-7.0-1.5","11","1","2025-07-30 08:38:25","36c45c0696341be0efffe67d72a12abb","93.108.112.26","Mozilla/5.0 (Windows NT 10.0; Win64; x64) AppleWebKit/537.36 (KHTML, like Gecko) Chrome/138.0.0.0 Safari/537.36","WebKit","Chrome","138.0.0.0","Windows","10.0","https://app.prolific.com/","en-US,en;q=0.9","6140ef8d27499e70e8740918","683dba9a53627eb9ab41b36a","6889d9c7508422fe97094867","0","6140ef8d27499e70e8740918","0","2025-07-30T08:45:50.898Z","","","","AttribQ","","","","","","","","","","","50","","","","","","","","","","","","","","","","","","","","","","","","","","",""
"5282","","<div style=""width:500px;"">
  <p>How much control did you have over the ball?</p>
  </div>","63","html-slider-response","40","450107","0.0-7.0-2.5","11","1","2025-07-30 08:38:25","36c45c0696341be0efffe67d72a12abb","93.108.112.26","Mozilla/5.0 (Windows NT 10.0; Win64; x64) AppleWebKit/537.36 (KHTML, like Gecko) Chrome/138.0.0.0 Safari/537.36","WebKit","Chrome","138.0.0.0","Windows","10.0","https://app.prolific.com/","en-US,en;q=0.9","6140ef8d27499e70e8740918","683dba9a53627eb9ab41b36a","6889d9c7508422fe97094867","0","6140ef8d27499e70e8740918","0","2025-07-30T08:45:56.181Z","","","","ControlQ","","","","","","","","","","","50","","","","","","","","","","","","","","","","","","","","","","","","","","",""
"1831","","<div style=""width:500px;"">
  <p>How would you describe your current emotional state?</p>
  </div>","23","html-slider-response","41","451938","0.0-7.0-3.5","11","1","2025-07-30 08:38:25","36c45c0696341be0efffe67d72a12abb","93.108.112.26","Mozilla/5.0 (Windows NT 10.0; Win64; x64) AppleWebKit/537.36 (KHTML, like Gecko) Chrome/138.0.0.0 Safari/537.36","WebKit","Chrome","138.0.0.0","Windows","10.0","https://app.prolific.com/","en-US,en;q=0.9","6140ef8d27499e70e8740918","683dba9a53627eb9ab41b36a","6889d9c7508422fe97094867","0","6140ef8d27499e70e8740918","0","2025-07-30T08:45:58.012Z","","","","StressQ","","","","","","","","","","","50","","","","","","","","","","","","","","","","","","","","","","","","","","",""
"2045","","<div style=""width:500px;"">
  <p>What best describes how you currently feel?</p>
  </div>","74","html-slider-response","42","453984","0.0-7.0-4.5","11","1","2025-07-30 08:38:25","36c45c0696341be0efffe67d72a12abb","93.108.112.26","Mozilla/5.0 (Windows NT 10.0; Win64; x64) AppleWebKit/537.36 (KHTML, like Gecko) Chrome/138.0.0.0 Safari/537.36","WebKit","Chrome","138.0.0.0","Windows","10.0","https://app.prolific.com/","en-US,en;q=0.9","6140ef8d27499e70e8740918","683dba9a53627eb9ab41b36a","6889d9c7508422fe97094867","0","6140ef8d27499e70e8740918","0","2025-07-30T08:46:00.058Z","","","","MotivationQ","","","","","","","","","","","50","","","","","","","","","","","","","","","","","","","","","","","","","","",""
"","","","","ctl-task-cpt","43","486257","0.0-7.0-0.6","11","1","2025-07-30 08:38:25","36c45c0696341be0efffe67d72a12abb","93.108.112.26","Mozilla/5.0 (Windows NT 10.0; Win64; x64) AppleWebKit/537.36 (KHTML, like Gecko) Chrome/138.0.0.0 Safari/537.36","WebKit","Chrome","138.0.0.0","Windows","10.0","https://app.prolific.com/","en-US,en;q=0.9","6140ef8d27499e70e8740918","683dba9a53627eb9ab41b36a","6889d9c7508422fe97094867","0","6140ef8d27499e70e8740918","0","2025-07-30T08:46:32.331Z","","","","","","","","","","","","","","","","win-only","0","g1:NW,g2:SE","0.4","7","0","455157.1","1814.9","6815.5","29255.7","1","4","8","6","1","1","1","27","26","0.20454545454545456","727.2","3000","1185","[""left"",""up""]","{""num_key_presses"":6,""num_perfect"":4,""num_errors"":0,""num_randdir"":2,""num_randdir_good_moves"":1,""num_whilered"":0,""num_whileblue"":0,""num_blue"":2,""num_good_moves"":5}","[414.57142857142856,410.47767857142856,0.1,414.57142857142856,410.47767857142856,101.2,414.57142857142856,410.47767857142856,205.9,414.57142857142856,410.47767857142856,306,208.57142857142856,250.47767857142856,406.1,99.57142857142857,152.47767857142856,510.5,85.57142857142857,119.47767857142857,615.5,84.57142857142857,79.47767857142857,721,87.57142857142857,80.47767857142857,825.7,471.57142857142856,147.47767857142856,925.8,1110.5714285714287,257.47767857142856,1031.1,1229.5714285714287,276.47767857142856,1135.7,1229.5714285714287,276.47767857142856,1240.3,1229.5714285714287,276.47767857142856,1340.3,1229.5714285714287,276.47767857142856,1440.3,1229.5714285714287,276.47767857142856,1545.5,1229.5714285714287,276.47767857142856,1650.9,1229.5714285714287,276.47767857142856,1755.4,1229.5714285714287,276.47767857142856,1855.9,1229.5714285714287,276.47767857142856,1955.9,1229.5714285714287,276.47767857142856,2060.9,1229.5714285714287,276.47767857142856,2165.5,1229.5714285714287,276.47767857142856,2271,1229.5714285714287,276.47767857142856,2376.1,1229.5714285714287,276.47767857142856,2480.7,1229.5714285714287,276.47767857142856,2580.9,1229.5714285714287,276.47767857142856,2680.9,1229.5714285714287,276.47767857142856,2785.6,1229.5714285714287,276.47767857142856,2890.5,1229.5714285714287,276.47767857142856,2995.4,1229.5714285714287,276.47767857142856,3100.8,1229.5714285714287,276.47767857142856,3200.9,1229.5714285714287,276.47767857142856,3305.2,1229.5714285714287,276.47767857142856,3405.8,1229.5714285714287,276.47767857142856,3505.8,1229.5714285714287,276.47767857142856,3610.8,1229.5714285714287,276.47767857142856,3710.9,1229.5714285714287,276.47767857142856,3815.5,1229.5714285714287,276.47767857142856,3920.3,1229.5714285714287,276.47767857142856,4020.4,1229.5714285714287,276.47767857142856,4120.5,1229.5714285714287,276.47767857142856,4220.9,1229.5714285714287,276.47767857142856,4325.2,1229.5714285714287,276.47767857142856,4430.2,1229.5714285714287,276.47767857142856,4530.2,1229.5714285714287,276.47767857142856,4631.1,1229.5714285714287,276.47767857142856,4731.2,1229.5714285714287,276.47767857142856,4835.4,1229.5714285714287,276.47767857142856,4935.5]","[1306.2,1306.2,1000,0,306.2,""smooth"",""up"",""up"",""good_move"",3755,2448.7,2168.7,1306.3,280,""smooth"",""up"",""up"",""good_move"",9794.1,6038.8,2706.8,6794.9,292.4,""oops"",""left"",""right"",""bad_move"",12794,2999.8,2635.7,9794.2,364.1,""smooth"",""left"",""left"",""good_move"",16122,3327.8,3036.4,12794.2,291.4,""oops"",""left"",""left"",""good_move"",22354,6231.9,2706.4,19320.3,327.3,""smooth"",""left"",""left"",""good_move""]"
"5433","","<div style=""width:500px;"">
  <p>What determined the result of this run?</p>
  </div>","47","html-slider-response","44","491691","0.0-7.0-1.6","11","1","2025-07-30 08:38:25","36c45c0696341be0efffe67d72a12abb","93.108.112.26","Mozilla/5.0 (Windows NT 10.0; Win64; x64) AppleWebKit/537.36 (KHTML, like Gecko) Chrome/138.0.0.0 Safari/537.36","WebKit","Chrome","138.0.0.0","Windows","10.0","https://app.prolific.com/","en-US,en;q=0.9","6140ef8d27499e70e8740918","683dba9a53627eb9ab41b36a","6889d9c7508422fe97094867","0","6140ef8d27499e70e8740918","0","2025-07-30T08:46:37.765Z","","","","AttribQ","","","","","","","","","","","50","","","","","","","","","","","","","","","","","","","","","","","","","","",""
"2506","","<div style=""width:500px;"">
  <p>How much control did you have over the ball?</p>
  </div>","49","html-slider-response","45","494197","0.0-7.0-2.6","11","1","2025-07-30 08:38:25","36c45c0696341be0efffe67d72a12abb","93.108.112.26","Mozilla/5.0 (Windows NT 10.0; Win64; x64) AppleWebKit/537.36 (KHTML, like Gecko) Chrome/138.0.0.0 Safari/537.36","WebKit","Chrome","138.0.0.0","Windows","10.0","https://app.prolific.com/","en-US,en;q=0.9","6140ef8d27499e70e8740918","683dba9a53627eb9ab41b36a","6889d9c7508422fe97094867","0","6140ef8d27499e70e8740918","0","2025-07-30T08:46:40.271Z","","","","ControlQ","","","","","","","","","","","50","","","","","","","","","","","","","","","","","","","","","","","","","","",""
"2030","","<div style=""width:500px;"">
  <p>How would you describe your current emotional state?</p>
  </div>","29","html-slider-response","46","496228","0.0-7.0-3.6","11","1","2025-07-30 08:38:25","36c45c0696341be0efffe67d72a12abb","93.108.112.26","Mozilla/5.0 (Windows NT 10.0; Win64; x64) AppleWebKit/537.36 (KHTML, like Gecko) Chrome/138.0.0.0 Safari/537.36","WebKit","Chrome","138.0.0.0","Windows","10.0","https://app.prolific.com/","en-US,en;q=0.9","6140ef8d27499e70e8740918","683dba9a53627eb9ab41b36a","6889d9c7508422fe97094867","0","6140ef8d27499e70e8740918","0","2025-07-30T08:46:42.302Z","","","","StressQ","","","","","","","","","","","50","","","","","","","","","","","","","","","","","","","","","","","","","","",""
"2123","","<div style=""width:500px;"">
  <p>What best describes how you currently feel?</p>
  </div>","77","html-slider-response","47","498352","0.0-7.0-4.6","11","1","2025-07-30 08:38:25","36c45c0696341be0efffe67d72a12abb","93.108.112.26","Mozilla/5.0 (Windows NT 10.0; Win64; x64) AppleWebKit/537.36 (KHTML, like Gecko) Chrome/138.0.0.0 Safari/537.36","WebKit","Chrome","138.0.0.0","Windows","10.0","https://app.prolific.com/","en-US,en;q=0.9","6140ef8d27499e70e8740918","683dba9a53627eb9ab41b36a","6889d9c7508422fe97094867","0","6140ef8d27499e70e8740918","0","2025-07-30T08:46:44.426Z","","","","MotivationQ","","","","","","","","","","","50","","","","","","","","","","","","","","","","","","","","","","","","","","",""
"","","","","ctl-task-cpt","48","552560","0.0-7.0-0.7","11","1","2025-07-30 08:38:25","36c45c0696341be0efffe67d72a12abb","93.108.112.26","Mozilla/5.0 (Windows NT 10.0; Win64; x64) AppleWebKit/537.36 (KHTML, like Gecko) Chrome/138.0.0.0 Safari/537.36","WebKit","Chrome","138.0.0.0","Windows","10.0","https://app.prolific.com/","en-US,en;q=0.9","6140ef8d27499e70e8740918","683dba9a53627eb9ab41b36a","6889d9c7508422fe97094867","0","6140ef8d27499e70e8740918","0","2025-07-30T08:47:38.634Z","","","","","","","","","","","","","","","","win-only","1","g1:NE,g2:SW","0.3","8","0","499524.9","1124.2","6125.5","51190.7","1","4","4","6","2","-4","-5","22","27","0.16666666666666666","1031.7","3000","-3015","[""down"",""left""]","{""num_key_presses"":10,""num_perfect"":3,""num_errors"":1,""num_randdir"":6,""num_randdir_good_moves"":4,""num_whilered"":0,""num_whileblue"":0,""num_blue"":4,""num_good_moves"":7}","[415.57142857142856,413.47767857142856,0.1,415.57142857142856,413.47767857142856,101.1,415.57142857142856,413.47767857142856,201.3,415.57142857142856,413.47767857142856,306.3,415.57142857142856,413.47767857142856,406.3,415.57142857142856,413.47767857142856,506.3,346.57142857142856,522.4776785714286,611.3,188.57142857142856,687.4776785714286,716.8,154.57142857142856,706.4776785714286,822.1,119.57142857142857,722.4776785714286,926.4,101.57142857142857,734.4776785714286,1026.4,98.57142857142857,736.4776785714286,1126.9,566.5714285714286,628.4776785714286,1230.9,1145.5714285714287,535.4776785714286,1331,1180.5714285714287,522.4776785714286,1431.2,1180.5714285714287,522.4776785714286,1531.3,1180.5714285714287,522.4776785714286,1631.3,1180.5714285714287,522.4776785714286,1736.8,1180.5714285714287,522.4776785714286,1841.8,1180.5714285714287,522.4776785714286,1941.8,1180.5714285714287,522.4776785714286,2046.3,1180.5714285714287,522.4776785714286,2151,1180.5714285714287,522.4776785714286,2251.4,1180.5714285714287,522.4776785714286,2356.4,1180.5714285714287,522.4776785714286,2456.5,1180.5714285714287,522.4776785714286,2561,1180.5714285714287,522.4776785714286,2661.6,1180.5714285714287,522.4776785714286,2761.7,1180.5714285714287,522.4776785714286,2866.5,1180.5714285714287,522.4776785714286,2971.6,1180.5714285714287,522.4776785714286,3071.7,1180.5714285714287,522.4776785714286,3171.8,1180.5714285714287,522.4776785714286,3276.2,1180.5714285714287,522.4776785714286,3376.3,1180.5714285714287,522.4776785714286,3476.5,1180.5714285714287,522.4776785714286,3581.3,1180.5714285714287,522.4776785714286,3686.9,1180.5714285714287,522.4776785714286,3791.5,1180.5714285714287,522.4776785714286,3896.5,1180.5714285714287,522.4776785714286,4001.5,1180.5714285714287,522.4776785714286,4106.4,1180.5714285714287,522.4776785714286,4211.8,1180.5714285714287,522.4776785714286,4316.3,1180.5714285714287,522.4776785714286,4421.8,1180.5714285714287,522.4776785714286,4526.3,1180.5714285714287,522.4776785714286,4631.1,1180.5714285714287,522.4776785714286,4731.3,1180.5714285714287,522.4776785714286,4831.3,1180.5714285714287,522.4776785714286,4936.9]","[1316.2,1316.2,1000,0,316.2,""oops"",""down"",""up"",""bad_move"",7883.8,6567.4,3112.8,4465.6,305.4,""oops"",""left"",""right"",""bad_move"",10628,2744.1,2356.3,7883.9,387.8,""oops"",""left"",""down"",""good_move"",21244,10615.8,3277.6,17690.4,276,""oops"",""left"",""left"",""good_move"",25043.8,3799.7,3472.7,21244.1,327,""oops"",""down"",""left"",""good_move"",32019.6,6975.7,2355.3,29415,249.3,""smooth"",""down"",""down"",""good_move"",35043.5,3023.8,2591.8,32019.7,432,""smooth"",""down"",""down"",""good_move"",37235.4,2191.8,1884.2,35043.7,307.6,""oops"",""left"",""left"",""good_move"",39651.6,2416,2152,37235.6,264,""smooth"",""down"",""down"",""good_move"",41803.4,2151.6,2191.9,39651.8,-40.3,""error"",""-"",""-"",""no_move""]"
"3508","","<div style=""width:500px;"">
  <p>What determined the result of this run?</p>
  </div>","30","html-slider-response","49","556069","0.0-7.0-1.7","11","1","2025-07-30 08:38:25","36c45c0696341be0efffe67d72a12abb","93.108.112.26","Mozilla/5.0 (Windows NT 10.0; Win64; x64) AppleWebKit/537.36 (KHTML, like Gecko) Chrome/138.0.0.0 Safari/537.36","WebKit","Chrome","138.0.0.0","Windows","10.0","https://app.prolific.com/","en-US,en;q=0.9","6140ef8d27499e70e8740918","683dba9a53627eb9ab41b36a","6889d9c7508422fe97094867","0","6140ef8d27499e70e8740918","0","2025-07-30T08:47:42.143Z","","","","AttribQ","","","","","","","","","","","50","","","","","","","","","","","","","","","","","","","","","","","","","","",""
"1867","","<div style=""width:500px;"">
  <p>How much control did you have over the ball?</p>
  </div>","32","html-slider-response","50","557937","0.0-7.0-2.7","11","1","2025-07-30 08:38:25","36c45c0696341be0efffe67d72a12abb","93.108.112.26","Mozilla/5.0 (Windows NT 10.0; Win64; x64) AppleWebKit/537.36 (KHTML, like Gecko) Chrome/138.0.0.0 Safari/537.36","WebKit","Chrome","138.0.0.0","Windows","10.0","https://app.prolific.com/","en-US,en;q=0.9","6140ef8d27499e70e8740918","683dba9a53627eb9ab41b36a","6889d9c7508422fe97094867","0","6140ef8d27499e70e8740918","0","2025-07-30T08:47:44.011Z","","","","ControlQ","","","","","","","","","","","50","","","","","","","","","","","","","","","","","","","","","","","","","","",""
"2101","","<div style=""width:500px;"">
  <p>How would you describe your current emotional state?</p>
  </div>","42","html-slider-response","51","560039","0.0-7.0-3.7","11","1","2025-07-30 08:38:25","36c45c0696341be0efffe67d72a12abb","93.108.112.26","Mozilla/5.0 (Windows NT 10.0; Win64; x64) AppleWebKit/537.36 (KHTML, like Gecko) Chrome/138.0.0.0 Safari/537.36","WebKit","Chrome","138.0.0.0","Windows","10.0","https://app.prolific.com/","en-US,en;q=0.9","6140ef8d27499e70e8740918","683dba9a53627eb9ab41b36a","6889d9c7508422fe97094867","0","6140ef8d27499e70e8740918","0","2025-07-30T08:47:46.113Z","","","","StressQ","","","","","","","","","","","50","","","","","","","","","","","","","","","","","","","","","","","","","","",""
"2298","","<div style=""width:500px;"">
  <p>What best describes how you currently feel?</p>
  </div>","77","html-slider-response","52","562338","0.0-7.0-4.7","11","1","2025-07-30 08:38:25","36c45c0696341be0efffe67d72a12abb","93.108.112.26","Mozilla/5.0 (Windows NT 10.0; Win64; x64) AppleWebKit/537.36 (KHTML, like Gecko) Chrome/138.0.0.0 Safari/537.36","WebKit","Chrome","138.0.0.0","Windows","10.0","https://app.prolific.com/","en-US,en;q=0.9","6140ef8d27499e70e8740918","683dba9a53627eb9ab41b36a","6889d9c7508422fe97094867","0","6140ef8d27499e70e8740918","0","2025-07-30T08:47:48.412Z","","","","MotivationQ","","","","","","","","","","","50","","","","","","","","","","","","","","","","","","","","","","","","","","",""
"","","","","ctl-task-cpt","53","596295","0.0-7.0-0.8","11","1","2025-07-30 08:38:25","36c45c0696341be0efffe67d72a12abb","93.108.112.26","Mozilla/5.0 (Windows NT 10.0; Win64; x64) AppleWebKit/537.36 (KHTML, like Gecko) Chrome/138.0.0.0 Safari/537.36","WebKit","Chrome","138.0.0.0","Windows","10.0","https://app.prolific.com/","en-US,en;q=0.9","6140ef8d27499e70e8740918","683dba9a53627eb9ab41b36a","6889d9c7508422fe97094867","0","6140ef8d27499e70e8740918","0","2025-07-30T08:48:22.369Z","","","","","","","","","","","","","","","","win-only","1","g1:NE,g2:SW","0.4","9","0","563510.8","766.7","5770.4","30940.2","1","4","8","6","1","1","1","23","22","0.17424242424242425","777.2","3000","285","[""up"",""right""]","{""num_key_presses"":8,""num_perfect"":4,""num_errors"":0,""num_randdir"":4,""num_randdir_good_moves"":2,""num_whilered"":0,""num_whileblue"":0,""num_blue"":1,""num_good_moves"":6}","[412.57142857142856,411.47767857142856,0.1,412.57142857142856,411.47767857142856,104.6,412.57142857142856,411.47767857142856,204.8,404.57142857142856,421.47767857142856,308.8,403.57142857142856,433.47767857142856,414.5,608.5714285714286,220.47767857142856,518.8,702.5714285714286,138.47767857142856,623.8,786.5714285714286,103.47767857142857,723.8,790.5714285714286,93.47767857142857,828.6,833.5714285714286,145.47767857142856,929.1,1095.5714285714287,261.47767857142856,1034.5,1127.5714285714287,280.47767857142856,1139.2,1127.5714285714287,280.47767857142856,1244.2,1127.5714285714287,280.47767857142856,1348.6,1127.5714285714287,280.47767857142856,1448.6,1127.5714285714287,280.47767857142856,1548.6,1127.5714285714287,280.47767857142856,1648.6,1127.5714285714287,280.47767857142856,1754.2,1127.5714285714287,280.47767857142856,1854.3,1127.5714285714287,280.47767857142856,1959.3,1127.5714285714287,280.47767857142856,2063.6,1127.5714285714287,280.47767857142856,2164.2,1127.5714285714287,280.47767857142856,2264.5,1127.5714285714287,280.47767857142856,2364.5,1127.5714285714287,280.47767857142856,2468.7,1127.5714285714287,280.47767857142856,2568.9,1127.5714285714287,280.47767857142856,2673.6,1127.5714285714287,280.47767857142856,2778.5,1127.5714285714287,280.47767857142856,2878.9,1127.5714285714287,280.47767857142856,2979,1127.5714285714287,280.47767857142856,3079.2,1127.5714285714287,280.47767857142856,3184.2,1127.5714285714287,280.47767857142856,3289.2,1127.5714285714287,280.47767857142856,3394.2,1127.5714285714287,280.47767857142856,3494.2,1127.5714285714287,280.47767857142856,3594.4,1127.5714285714287,280.47767857142856,3698.7,1127.5714285714287,280.47767857142856,3798.8,1127.5714285714287,280.47767857142856,3904.2,1127.5714285714287,280.47767857142856,4004.7,1127.5714285714287,280.47767857142856,4108.9,1127.5714285714287,280.47767857142856,4209.1,1127.5714285714287,280.47767857142856,4313.5,1127.5714285714287,280.47767857142856,4414.3,1127.5714285714287,280.47767857142856,4518.8,1127.5714285714287,280.47767857142856,4618.9,1127.5714285714287,280.47767857142856,4723.6,1127.5714285714287,280.47767857142856,4823.6,1127.5714285714287,280.47767857142856,4924.1]","[1348.5,1348.5,1000,0,348.5,""oops"",""up"",""left"",""bad_move"",4468.6,3119.9,2771.7,1348.7,348.2,""oops"",""up"",""up"",""good_move"",7188.3,2719.5,2384.3,4468.8,335.2,""oops"",""up"",""right"",""good_move"",10140.3,2951.7,2628.8,7188.6,322.9,""smooth"",""up"",""up"",""good_move"",16836.3,6695.9,1993.8,14470.8,371.7,""oops"",""right"",""down"",""bad_move"",19172.2,2335.7,1978.6,16836.5,357.1,""smooth"",""right"",""right"",""good_move"",22500.1,3327.7,3019.3,19172.4,308.4,""smooth"",""up"",""up"",""good_move"",25084.1,2583.7,2217.5,22500.4,366.2,""smooth"",""right"",""right"",""good_move""]"
"3506","","<div style=""width:500px;"">
  <p>What determined the result of this run?</p>
  </div>","63","html-slider-response","54","599802","0.0-7.0-1.8","11","1","2025-07-30 08:38:25","36c45c0696341be0efffe67d72a12abb","93.108.112.26","Mozilla/5.0 (Windows NT 10.0; Win64; x64) AppleWebKit/537.36 (KHTML, like Gecko) Chrome/138.0.0.0 Safari/537.36","WebKit","Chrome","138.0.0.0","Windows","10.0","https://app.prolific.com/","en-US,en;q=0.9","6140ef8d27499e70e8740918","683dba9a53627eb9ab41b36a","6889d9c7508422fe97094867","0","6140ef8d27499e70e8740918","0","2025-07-30T08:48:25.876Z","","","","AttribQ","","","","","","","","","","","50","","","","","","","","","","","","","","","","","","","","","","","","","","",""
"1460","","<div style=""width:500px;"">
  <p>How much control did you have over the ball?</p>
  </div>","67","html-slider-response","55","601263","0.0-7.0-2.8","11","1","2025-07-30 08:38:25","36c45c0696341be0efffe67d72a12abb","93.108.112.26","Mozilla/5.0 (Windows NT 10.0; Win64; x64) AppleWebKit/537.36 (KHTML, like Gecko) Chrome/138.0.0.0 Safari/537.36","WebKit","Chrome","138.0.0.0","Windows","10.0","https://app.prolific.com/","en-US,en;q=0.9","6140ef8d27499e70e8740918","683dba9a53627eb9ab41b36a","6889d9c7508422fe97094867","0","6140ef8d27499e70e8740918","0","2025-07-30T08:48:27.337Z","","","","ControlQ","","","","","","","","","","","50","","","","","","","","","","","","","","","","","","","","","","","","","","",""
"1280","","<div style=""width:500px;"">
  <p>How would you describe your current emotional state?</p>
  </div>","23","html-slider-response","56","602544","0.0-7.0-3.8","11","1","2025-07-30 08:38:25","36c45c0696341be0efffe67d72a12abb","93.108.112.26","Mozilla/5.0 (Windows NT 10.0; Win64; x64) AppleWebKit/537.36 (KHTML, like Gecko) Chrome/138.0.0.0 Safari/537.36","WebKit","Chrome","138.0.0.0","Windows","10.0","https://app.prolific.com/","en-US,en;q=0.9","6140ef8d27499e70e8740918","683dba9a53627eb9ab41b36a","6889d9c7508422fe97094867","0","6140ef8d27499e70e8740918","0","2025-07-30T08:48:28.618Z","","","","StressQ","","","","","","","","","","","50","","","","","","","","","","","","","","","","","","","","","","","","","","",""
"1525","","<div style=""width:500px;"">
  <p>What best describes how you currently feel?</p>
  </div>","79","html-slider-response","57","604070","0.0-7.0-4.8","11","1","2025-07-30 08:38:25","36c45c0696341be0efffe67d72a12abb","93.108.112.26","Mozilla/5.0 (Windows NT 10.0; Win64; x64) AppleWebKit/537.36 (KHTML, like Gecko) Chrome/138.0.0.0 Safari/537.36","WebKit","Chrome","138.0.0.0","Windows","10.0","https://app.prolific.com/","en-US,en;q=0.9","6140ef8d27499e70e8740918","683dba9a53627eb9ab41b36a","6889d9c7508422fe97094867","0","6140ef8d27499e70e8740918","0","2025-07-30T08:48:30.144Z","","","","MotivationQ","","","","","","","","","","","50","","","","","","","","","","","","","","","","","","","","","","","","","","",""
"","","","","ctl-task-cpt","58","626502","0.0-7.0-0.9","11","1","2025-07-30 08:38:25","36c45c0696341be0efffe67d72a12abb","93.108.112.26","Mozilla/5.0 (Windows NT 10.0; Win64; x64) AppleWebKit/537.36 (KHTML, like Gecko) Chrome/138.0.0.0 Safari/537.36","WebKit","Chrome","138.0.0.0","Windows","10.0","https://app.prolific.com/","en-US,en;q=0.9","6140ef8d27499e70e8740918","683dba9a53627eb9ab41b36a","6889d9c7508422fe97094867","0","6140ef8d27499e70e8740918","0","2025-07-30T08:48:52.576Z","","","","","","","","","","","","","","","","win-only","3","g1:SW,g2:NE","0.5","10","0","605242.8","1004.1","6006.1","19415.2","1","4","4","6","1","1","1","24","23","0.18181818181818182","673.5","3000","1740","[""down"",""left""]","{""num_key_presses"":4,""num_perfect"":4,""num_errors"":0,""num_randdir"":0,""num_randdir_good_moves"":0,""num_whilered"":0,""num_whileblue"":0,""num_blue"":1,""num_good_moves"":4}","[416.57142857142856,415.47767857142856,0.2,416.57142857142856,417.47767857142856,101.5,417.57142857142856,418.47767857142856,206.4,417.57142857142856,418.47767857142856,306.5,372.57142857142856,444.47767857142856,411.3,141.57142857142856,669.4776785714286,511.5,90.57142857142857,737.4776785714286,611.8,75.57142857142857,756.4776785714286,716.2,260.57142857142856,682.4776785714286,816.9,1037.5714285714287,485.47767857142856,921.3,1128.5714285714287,469.47767857142856,1021.7,1128.5714285714287,469.47767857142856,1126.2,1128.5714285714287,469.47767857142856,1231,1128.5714285714287,469.47767857142856,1331.3,1128.5714285714287,469.47767857142856,1431.3,1128.5714285714287,469.47767857142856,1531.7,1128.5714285714287,469.47767857142856,1636.5,1128.5714285714287,469.47767857142856,1741.6,1128.5714285714287,469.47767857142856,1846.1,1128.5714285714287,469.47767857142856,1946.1,1128.5714285714287,469.47767857142856,2047.7,1128.5714285714287,469.47767857142856,2151.5,1128.5714285714287,469.47767857142856,2256.7,1128.5714285714287,469.47767857142856,2356.8,1128.5714285714287,469.47767857142856,2461.3,1128.5714285714287,469.47767857142856,2561.3,1128.5714285714287,469.47767857142856,2661.6,1128.5714285714287,469.47767857142856,2766,1128.5714285714287,469.47767857142856,2866.3,1128.5714285714287,469.47767857142856,2966.6,1128.5714285714287,469.47767857142856,3071.8,1128.5714285714287,469.47767857142856,3177.3,1128.5714285714287,469.47767857142856,3282,1128.5714285714287,469.47767857142856,3386.1,1128.5714285714287,469.47767857142856,3486.6,1128.5714285714287,469.47767857142856,3586.6,1128.5714285714287,469.47767857142856,3691.3,1128.5714285714287,469.47767857142856,3791.3,1128.5714285714287,469.47767857142856,3891.6,1128.5714285714287,469.47767857142856,3996.9,1128.5714285714287,469.47767857142856,4101.6,1128.5714285714287,469.47767857142856,4206.5,1128.5714285714287,469.47767857142856,4311.4,1128.5714285714287,469.47767857142856,4411.9,1128.5714285714287,469.47767857142856,4517.2,1128.5714285714287,469.47767857142856,4621,1128.5714285714287,469.47767857142856,4721.1,1128.5714285714287,469.47767857142856,4822,1128.5714285714287,469.47767857142856,4926.3]","[1300.3,1300.3,1000,0,300.3,""smooth"",""down"",""down"",""good_move"",4156.4,2855.7,2547.1,1300.7,308.6,""smooth"",""down"",""down"",""good_move"",6516.2,2359.6,2020.9,4156.6,338.7,""smooth"",""left"",""left"",""good_move"",13324.3,6807.9,2897,10094.4,332.9,""smooth"",""left"",""left"",""good_move""]"
"1950","","<div style=""width:500px;"">
  <p>What determined the result of this run?</p>
  </div>","100","html-slider-response","59","628453","0.0-7.0-1.9","11","1","2025-07-30 08:38:25","36c45c0696341be0efffe67d72a12abb","93.108.112.26","Mozilla/5.0 (Windows NT 10.0; Win64; x64) AppleWebKit/537.36 (KHTML, like Gecko) Chrome/138.0.0.0 Safari/537.36","WebKit","Chrome","138.0.0.0","Windows","10.0","https://app.prolific.com/","en-US,en;q=0.9","6140ef8d27499e70e8740918","683dba9a53627eb9ab41b36a","6889d9c7508422fe97094867","0","6140ef8d27499e70e8740918","0","2025-07-30T08:48:54.527Z","","","","AttribQ","","","","","","","","","","","50","","","","","","","","","","","","","","","","","","","","","","","","","","",""
"1075","","<div style=""width:500px;"">
  <p>How much control did you have over the ball?</p>
  </div>","100","html-slider-response","60","629529","0.0-7.0-2.9","11","1","2025-07-30 08:38:25","36c45c0696341be0efffe67d72a12abb","93.108.112.26","Mozilla/5.0 (Windows NT 10.0; Win64; x64) AppleWebKit/537.36 (KHTML, like Gecko) Chrome/138.0.0.0 Safari/537.36","WebKit","Chrome","138.0.0.0","Windows","10.0","https://app.prolific.com/","en-US,en;q=0.9","6140ef8d27499e70e8740918","683dba9a53627eb9ab41b36a","6889d9c7508422fe97094867","0","6140ef8d27499e70e8740918","0","2025-07-30T08:48:55.603Z","","","","ControlQ","","","","","","","","","","","50","","","","","","","","","","","","","","","","","","","","","","","","","","",""
"1779","","<div style=""width:500px;"">
  <p>How would you describe your current emotional state?</p>
  </div>","21","html-slider-response","61","631309","0.0-7.0-3.9","11","1","2025-07-30 08:38:25","36c45c0696341be0efffe67d72a12abb","93.108.112.26","Mozilla/5.0 (Windows NT 10.0; Win64; x64) AppleWebKit/537.36 (KHTML, like Gecko) Chrome/138.0.0.0 Safari/537.36","WebKit","Chrome","138.0.0.0","Windows","10.0","https://app.prolific.com/","en-US,en;q=0.9","6140ef8d27499e70e8740918","683dba9a53627eb9ab41b36a","6889d9c7508422fe97094867","0","6140ef8d27499e70e8740918","0","2025-07-30T08:48:57.383Z","","","","StressQ","","","","","","","","","","","50","","","","","","","","","","","","","","","","","","","","","","","","","","",""
"1314","","<div style=""width:500px;"">
  <p>What best describes how you currently feel?</p>
  </div>","82","html-slider-response","62","632623","0.0-7.0-4.9","11","1","2025-07-30 08:38:25","36c45c0696341be0efffe67d72a12abb","93.108.112.26","Mozilla/5.0 (Windows NT 10.0; Win64; x64) AppleWebKit/537.36 (KHTML, like Gecko) Chrome/138.0.0.0 Safari/537.36","WebKit","Chrome","138.0.0.0","Windows","10.0","https://app.prolific.com/","en-US,en;q=0.9","6140ef8d27499e70e8740918","683dba9a53627eb9ab41b36a","6889d9c7508422fe97094867","0","6140ef8d27499e70e8740918","0","2025-07-30T08:48:58.697Z","","","","MotivationQ","","","","","","","","","","","50","","","","","","","","","","","","","","","","","","","","","","","","","","",""
"","","","","ctl-task-cpt","63","662696","0.0-7.0-0.10","11","1","2025-07-30 08:38:25","36c45c0696341be0efffe67d72a12abb","93.108.112.26","Mozilla/5.0 (Windows NT 10.0; Win64; x64) AppleWebKit/537.36 (KHTML, like Gecko) Chrome/138.0.0.0 Safari/537.36","WebKit","Chrome","138.0.0.0","Windows","10.0","https://app.prolific.com/","en-US,en;q=0.9","6140ef8d27499e70e8740918","683dba9a53627eb9ab41b36a","6889d9c7508422fe97094867","0","6140ef8d27499e70e8740918","0","2025-07-30T08:49:28.771Z","","","","","","","","","","","","","","","","win-only","3","g1:SW,g2:NE","0.6","11","0","633795.9","898.1","5902.1","27055.3","1","4","8","6","2","8","7","31","24","0.23484848484848486","606.6","3000","970","[""up"",""right""]","{""num_key_presses"":8,""num_perfect"":4,""num_errors"":1,""num_randdir"":3,""num_randdir_good_moves"":2,""num_whilered"":0,""num_whileblue"":1,""num_blue"":1,""num_good_moves"":7}","[415.57142857142856,422.47767857142856,0.2,415.57142857142856,422.47767857142856,102.5,414.57142857142856,422.47767857142856,207.2,415.57142857142856,422.47767857142856,307.3,597.5714285714286,235.47767857142856,407.5,749.5714285714286,123.47767857142857,513.4,767.5714285714286,96.47767857142857,618.1,803.5714285714286,107.47767857142857,718.2,1066.5714285714287,183.47767857142856,823.2,1067.5714285714287,183.47767857142856,927.1,1067.5714285714287,183.47767857142856,1028.1,1067.5714285714287,183.47767857142856,1128.4,1067.5714285714287,183.47767857142856,1232.3,1067.5714285714287,183.47767857142856,1332.3,1067.5714285714287,183.47767857142856,1432.3,1067.5714285714287,183.47767857142856,1532.3,1067.5714285714287,183.47767857142856,1632.3,1067.5714285714287,183.47767857142856,1732.3,1067.5714285714287,183.47767857142856,1832.3,1067.5714285714287,183.47767857142856,1932.3,1067.5714285714287,183.47767857142856,2038.2,1067.5714285714287,183.47767857142856,2142.6,1067.5714285714287,183.47767857142856,2248,1067.5714285714287,183.47767857142856,2348.1,1067.5714285714287,183.47767857142856,2452.5,1067.5714285714287,183.47767857142856,2553,1067.5714285714287,183.47767857142856,2657.3,1067.5714285714287,183.47767857142856,2757.3,1067.5714285714287,183.47767857142856,2863,1067.5714285714287,183.47767857142856,2968.2,1067.5714285714287,183.47767857142856,3072.8,1067.5714285714287,183.47767857142856,3178,1067.5714285714287,183.47767857142856,3278.2,1067.5714285714287,183.47767857142856,3382.1,1067.5714285714287,183.47767857142856,3482.3,1067.5714285714287,183.47767857142856,3587.2,1067.5714285714287,183.47767857142856,3688,1067.5714285714287,183.47767857142856,3792.9,1067.5714285714287,183.47767857142856,3897.2,1067.5714285714287,183.47767857142856,3998,1067.5714285714287,183.47767857142856,4102.9,1067.5714285714287,183.47767857142856,4207.2,1067.5714285714287,183.47767857142856,4312.8,1067.5714285714287,183.47767857142856,4412.8,1067.5714285714287,183.47767857142856,4513.3,1067.5714285714287,183.47767857142856,4613.9,1067.5714285714287,183.47767857142856,4717.2,1067.5714285714287,183.47767857142856,4818.1,1067.5714285714287,183.47767857142856,4922.4]","[1307,1307,1000,0,307,""smooth"",""up"",""up"",""good_move"",4754.9,3447.5,3167.2,1307.4,280.3,""smooth"",""up"",""up"",""good_move"",7643.2,2888.2,2590.8,4755,297.4,""smooth"",""right"",""right"",""good_move"",9866.9,2223.5,1932.9,7643.4,290.6,""oops"",""up"",""down"",""bad_move"",13194.8,3327.7,3071.5,9867.1,256.2,""oops"",""right"",""up"",""good_move"",15691,2495.9,2180.8,13195.1,315.1,""oops"",""right"",""up"",""good_move"",18258.8,2567.6,2244.4,15691.2,323.2,""smooth"",""right"",""right"",""good_move"",21066.7,2807.7,2529.4,18259,278.3,""while_blue"",""right"",""right"",""good_move""]"
"3733","","<div style=""width:500px;"">
  <p>What determined the result of this run?</p>
  </div>","43","html-slider-response","64","666430","0.0-7.0-1.10","11","1","2025-07-30 08:38:25","36c45c0696341be0efffe67d72a12abb","93.108.112.26","Mozilla/5.0 (Windows NT 10.0; Win64; x64) AppleWebKit/537.36 (KHTML, like Gecko) Chrome/138.0.0.0 Safari/537.36","WebKit","Chrome","138.0.0.0","Windows","10.0","https://app.prolific.com/","en-US,en;q=0.9","6140ef8d27499e70e8740918","683dba9a53627eb9ab41b36a","6889d9c7508422fe97094867","0","6140ef8d27499e70e8740918","0","2025-07-30T08:49:32.504Z","","","","AttribQ","","","","","","","","","","","50","","","","","","","","","","","","","","","","","","","","","","","","","","",""
"1912","","<div style=""width:500px;"">
  <p>How much control did you have over the ball?</p>
  </div>","42","html-slider-response","65","668343","0.0-7.0-2.10","11","1","2025-07-30 08:38:25","36c45c0696341be0efffe67d72a12abb","93.108.112.26","Mozilla/5.0 (Windows NT 10.0; Win64; x64) AppleWebKit/537.36 (KHTML, like Gecko) Chrome/138.0.0.0 Safari/537.36","WebKit","Chrome","138.0.0.0","Windows","10.0","https://app.prolific.com/","en-US,en;q=0.9","6140ef8d27499e70e8740918","683dba9a53627eb9ab41b36a","6889d9c7508422fe97094867","0","6140ef8d27499e70e8740918","0","2025-07-30T08:49:34.417Z","","","","ControlQ","","","","","","","","","","","50","","","","","","","","","","","","","","","","","","","","","","","","","","",""
"3390","","<div style=""width:500px;"">
  <p>How would you describe your current emotional state?</p>
  </div>","37","html-slider-response","66","671733","0.0-7.0-3.10","11","1","2025-07-30 08:38:25","36c45c0696341be0efffe67d72a12abb","93.108.112.26","Mozilla/5.0 (Windows NT 10.0; Win64; x64) AppleWebKit/537.36 (KHTML, like Gecko) Chrome/138.0.0.0 Safari/537.36","WebKit","Chrome","138.0.0.0","Windows","10.0","https://app.prolific.com/","en-US,en;q=0.9","6140ef8d27499e70e8740918","683dba9a53627eb9ab41b36a","6889d9c7508422fe97094867","0","6140ef8d27499e70e8740918","0","2025-07-30T08:49:37.807Z","","","","StressQ","","","","","","","","","","","50","","","","","","","","","","","","","","","","","","","","","","","","","","",""
"1655","","<div style=""width:500px;"">
  <p>What best describes how you currently feel?</p>
  </div>","87","html-slider-response","67","673389","0.0-7.0-4.10","11","1","2025-07-30 08:38:25","36c45c0696341be0efffe67d72a12abb","93.108.112.26","Mozilla/5.0 (Windows NT 10.0; Win64; x64) AppleWebKit/537.36 (KHTML, like Gecko) Chrome/138.0.0.0 Safari/537.36","WebKit","Chrome","138.0.0.0","Windows","10.0","https://app.prolific.com/","en-US,en;q=0.9","6140ef8d27499e70e8740918","683dba9a53627eb9ab41b36a","6889d9c7508422fe97094867","0","6140ef8d27499e70e8740918","0","2025-07-30T08:49:39.463Z","","","","MotivationQ","","","","","","","","","","","50","","","","","","","","","","","","","","","","","","","","","","","","","","",""
"","","","","ctl-task-cpt","68","697687","0.0-7.0-0.11","11","1","2025-07-30 08:38:25","36c45c0696341be0efffe67d72a12abb","93.108.112.26","Mozilla/5.0 (Windows NT 10.0; Win64; x64) AppleWebKit/537.36 (KHTML, like Gecko) Chrome/138.0.0.0 Safari/537.36","WebKit","Chrome","138.0.0.0","Windows","10.0","https://app.prolific.com/","en-US,en;q=0.9","6140ef8d27499e70e8740918","683dba9a53627eb9ab41b36a","6889d9c7508422fe97094867","0","6140ef8d27499e70e8740918","0","2025-07-30T08:50:03.761Z","","","","","","","","","","","","","","","","win-only","3","g1:SW,g2:NE","0.7","12","0","674561.5","2893.2","7895.9","21280.3","1","4","4","6","1","1","1","32","31","0.24242424242424243","789.9","3000","1060","[""down"",""left""]","{""num_key_presses"":6,""num_perfect"":4,""num_errors"":0,""num_randdir"":2,""num_randdir_good_moves"":1,""num_whilered"":0,""num_whileblue"":0,""num_blue"":0,""num_good_moves"":5}","[410.57142857142856,413.47767857142856,0,410.57142857142856,413.47767857142856,102.5,410.57142857142856,413.47767857142856,207.6,410.57142857142856,413.47767857142856,312.4,372.57142857142856,436.47767857142856,417.5,171.57142857142856,658.4776785714286,521.9,126.57142857142857,715.4776785714286,622.4,94.57142857142857,744.4776785714286,722.6,90.57142857142857,750.4776785714286,827.3,238.57142857142856,719.4776785714286,927.3,1087.5714285714287,550.4776785714286,1032.2,1211.5714285714287,537.4776785714286,1132.7,1211.5714285714287,537.4776785714286,1237.3,1211.5714285714287,537.4776785714286,1337.4,1211.5714285714287,537.4776785714286,1442.3,1211.5714285714287,537.4776785714286,1547.1,1211.5714285714287,537.4776785714286,1652.7,1211.5714285714287,537.4776785714286,1752.8,1211.5714285714287,537.4776785714286,1857.4,1211.5714285714287,537.4776785714286,1957.9,1211.5714285714287,537.4776785714286,2062.3,1211.5714285714287,537.4776785714286,2162.4,1211.5714285714287,537.4776785714286,2267.2,1211.5714285714287,537.4776785714286,2367.5,1211.5714285714287,537.4776785714286,2467.5,1211.5714285714287,537.4776785714286,2572.3,1211.5714285714287,537.4776785714286,2672.6,1211.5714285714287,537.4776785714286,2777.2,1211.5714285714287,537.4776785714286,2877.2,1211.5714285714287,537.4776785714286,2977.3,1211.5714285714287,537.4776785714286,3077.4,1211.5714285714287,537.4776785714286,3177.7,1211.5714285714287,537.4776785714286,3282.6,1211.5714285714287,537.4776785714286,3387.7,1211.5714285714287,537.4776785714286,3487.8,1211.5714285714287,537.4776785714286,3592.5,1211.5714285714287,537.4776785714286,3697.6,1211.5714285714287,537.4776785714286,3797.6,1211.5714285714287,537.4776785714286,3902.3,1211.5714285714287,537.4776785714286,4007.4,1211.5714285714287,537.4776785714286,4107.5,1211.5714285714287,537.4776785714286,4212.2,1211.5714285714287,537.4776785714286,4312.3,1211.5714285714287,537.4776785714286,4417.5,1211.5714285714287,537.4776785714286,4522,1211.5714285714287,537.4776785714286,4622.9,1211.5714285714287,537.4776785714286,4727.1,1211.5714285714287,537.4776785714286,4827.4,1211.5714285714287,537.4776785714286,4927.5]","[1339.2,1339.2,1000,0,339.2,""smooth"",""down"",""down"",""good_move"",4187,2847.6,2522.7,1339.4,324.9,""oops"",""down"",""right"",""bad_move"",6555.1,2367.9,2028.5,4187.2,339.4,""smooth"",""down"",""down"",""good_move"",8963,2407.6,2099.1,6555.4,308.5,""oops"",""left"",""left"",""good_move"",11211,2247.8,1909.1,8963.2,338.7,""smooth"",""left"",""left"",""good_move"",13299,2087.9,1770.5,11211.1,317.4,""smooth"",""left"",""left"",""good_move""]"
"6313","","<div style=""width:500px;"">
  <p>What determined the result of this run?</p>
  </div>","57","html-slider-response","69","704001","0.0-7.0-1.11","11","1","2025-07-30 08:38:25","36c45c0696341be0efffe67d72a12abb","93.108.112.26","Mozilla/5.0 (Windows NT 10.0; Win64; x64) AppleWebKit/537.36 (KHTML, like Gecko) Chrome/138.0.0.0 Safari/537.36","WebKit","Chrome","138.0.0.0","Windows","10.0","https://app.prolific.com/","en-US,en;q=0.9","6140ef8d27499e70e8740918","683dba9a53627eb9ab41b36a","6889d9c7508422fe97094867","0","6140ef8d27499e70e8740918","0","2025-07-30T08:50:10.075Z","","","","AttribQ","","","","","","","","","","","50","","","","","","","","","","","","","","","","","","","","","","","","","","",""
"1143","","<div style=""width:500px;"">
  <p>How much control did you have over the ball?</p>
  </div>","62","html-slider-response","70","705144","0.0-7.0-2.11","11","1","2025-07-30 08:38:25","36c45c0696341be0efffe67d72a12abb","93.108.112.26","Mozilla/5.0 (Windows NT 10.0; Win64; x64) AppleWebKit/537.36 (KHTML, like Gecko) Chrome/138.0.0.0 Safari/537.36","WebKit","Chrome","138.0.0.0","Windows","10.0","https://app.prolific.com/","en-US,en;q=0.9","6140ef8d27499e70e8740918","683dba9a53627eb9ab41b36a","6889d9c7508422fe97094867","0","6140ef8d27499e70e8740918","0","2025-07-30T08:50:11.218Z","","","","ControlQ","","","","","","","","","","","50","","","","","","","","","","","","","","","","","","","","","","","","","","",""
"1695","","<div style=""width:500px;"">
  <p>How would you describe your current emotional state?</p>
  </div>","20","html-slider-response","71","706840","0.0-7.0-3.11","11","1","2025-07-30 08:38:25","36c45c0696341be0efffe67d72a12abb","93.108.112.26","Mozilla/5.0 (Windows NT 10.0; Win64; x64) AppleWebKit/537.36 (KHTML, like Gecko) Chrome/138.0.0.0 Safari/537.36","WebKit","Chrome","138.0.0.0","Windows","10.0","https://app.prolific.com/","en-US,en;q=0.9","6140ef8d27499e70e8740918","683dba9a53627eb9ab41b36a","6889d9c7508422fe97094867","0","6140ef8d27499e70e8740918","0","2025-07-30T08:50:12.914Z","","","","StressQ","","","","","","","","","","","50","","","","","","","","","","","","","","","","","","","","","","","","","","",""
"1614","","<div style=""width:500px;"">
  <p>What best describes how you currently feel?</p>
  </div>","80","html-slider-response","72","708455","0.0-7.0-4.11","11","1","2025-07-30 08:38:25","36c45c0696341be0efffe67d72a12abb","93.108.112.26","Mozilla/5.0 (Windows NT 10.0; Win64; x64) AppleWebKit/537.36 (KHTML, like Gecko) Chrome/138.0.0.0 Safari/537.36","WebKit","Chrome","138.0.0.0","Windows","10.0","https://app.prolific.com/","en-US,en;q=0.9","6140ef8d27499e70e8740918","683dba9a53627eb9ab41b36a","6889d9c7508422fe97094867","0","6140ef8d27499e70e8740918","0","2025-07-30T08:50:14.529Z","","","","MotivationQ","","","","","","","","","","","50","","","","","","","","","","","","","","","","","","","","","","","","","","",""
"","","","","ctl-task-cpt","73","737567","0.0-7.0-0.12","11","1","2025-07-30 08:38:25","36c45c0696341be0efffe67d72a12abb","93.108.112.26","Mozilla/5.0 (Windows NT 10.0; Win64; x64) AppleWebKit/537.36 (KHTML, like Gecko) Chrome/138.0.0.0 Safari/537.36","WebKit","Chrome","138.0.0.0","Windows","10.0","https://app.prolific.com/","en-US,en;q=0.9","6140ef8d27499e70e8740918","683dba9a53627eb9ab41b36a","6889d9c7508422fe97094867","0","6140ef8d27499e70e8740918","0","2025-07-30T08:50:43.641Z","","","","","","","","","","","","","","","","win-only","0","g1:NW,g2:SE","0.8","13","0","709627.6","740.9","5745.9","26095.4","1","4","4","6","1","1","1","33","32","0.25","784","3000","915","[""left"",""up""]","{""num_key_presses"":6,""num_perfect"":5,""num_errors"":0,""num_randdir"":1,""num_randdir_good_moves"":0,""num_whilered"":0,""num_whileblue"":0,""num_blue"":1,""num_good_moves"":5}","[407.57142857142856,423.47767857142856,0.2,407.57142857142856,423.47767857142856,104.4,407.57142857142856,423.47767857142856,204.4,407.57142857142856,423.47767857142856,309.5,360.57142857142856,381.47767857142856,409.7,167.57142857142856,218.47767857142856,509.7,85.57142857142857,150.47767857142856,609.7,83.57142857142857,119.47767857142857,709.7,92.57142857142857,100.47767857142857,814.9,92.57142857142857,100.47767857142857,919.6,305.57142857142856,163.47767857142856,1024.5,1025.5714285714287,257.47767857142856,1124.6,1245.5714285714287,279.47767857142856,1229.7,1245.5714285714287,280.47767857142856,1336.3,1245.5714285714287,280.47767857142856,1439.4,1245.5714285714287,280.47767857142856,1539.5,1245.5714285714287,280.47767857142856,1639.7,1245.5714285714287,280.47767857142856,1745,1245.5714285714287,280.47767857142856,1849.8,1245.5714285714287,280.47767857142856,1955.2,1245.5714285714287,280.47767857142856,2059.6,1245.5714285714287,280.47767857142856,2159.7,1245.5714285714287,280.47767857142856,2264.3,1245.5714285714287,280.47767857142856,2364.8,1245.5714285714287,280.47767857142856,2469.4,1245.5714285714287,280.47767857142856,2574.3,1245.5714285714287,280.47767857142856,2674.5,1245.5714285714287,280.47767857142856,2774.6,1245.5714285714287,280.47767857142856,2874.7,1245.5714285714287,280.47767857142856,2979.9,1245.5714285714287,280.47767857142856,3084.7,1245.5714285714287,280.47767857142856,3184.8,1245.5714285714287,280.47767857142856,3285,1245.5714285714287,280.47767857142856,3385,1245.5714285714287,280.47767857142856,3489.8,1245.5714285714287,280.47767857142856,3594.5,1245.5714285714287,280.47767857142856,3694.7,1245.5714285714287,280.47767857142856,3795.3,1245.5714285714287,280.47767857142856,3899.4,1245.5714285714287,280.47767857142856,4004.2,1245.5714285714287,280.47767857142856,4104.8,1245.5714285714287,280.47767857142856,4205.1,1245.5714285714287,280.47767857142856,4305.1,1245.5714285714287,280.47767857142856,4409.9,1245.5714285714287,280.47767857142856,4510,1245.5714285714287,280.47767857142856,4614.3,1245.5714285714287,280.47767857142856,4714.8,1245.5714285714287,280.47767857142856,4820.1,1245.5714285714287,280.47767857142856,4920.3]","[1326.7,1326.7,1000,0,326.7,""smooth"",""up"",""up"",""good_move"",7823.1,6496.1,2194.5,5254.3,374.3,""smooth"",""up"",""up"",""good_move"",11238.6,3415.3,3050,7823.3,365.3,""oops"",""left"",""right"",""bad_move"",14166.5,2927.8,2536.9,11238.7,390.9,""smooth"",""left"",""left"",""good_move"",17078.5,2911.7,2595.5,14166.8,316.2,""smooth"",""left"",""left"",""good_move"",20262.5,3183.9,2844.9,17078.6,339,""smooth"",""left"",""left"",""good_move""]"
"3599","","<div style=""width:500px;"">
  <p>What determined the result of this run?</p>
  </div>","77","html-slider-response","74","741167","0.0-7.0-1.12","11","1","2025-07-30 08:38:25","36c45c0696341be0efffe67d72a12abb","93.108.112.26","Mozilla/5.0 (Windows NT 10.0; Win64; x64) AppleWebKit/537.36 (KHTML, like Gecko) Chrome/138.0.0.0 Safari/537.36","WebKit","Chrome","138.0.0.0","Windows","10.0","https://app.prolific.com/","en-US,en;q=0.9","6140ef8d27499e70e8740918","683dba9a53627eb9ab41b36a","6889d9c7508422fe97094867","0","6140ef8d27499e70e8740918","0","2025-07-30T08:50:47.241Z","","","","AttribQ","","","","","","","","","","","50","","","","","","","","","","","","","","","","","","","","","","","","","","",""
"1459","","<div style=""width:500px;"">
  <p>How much control did you have over the ball?</p>
  </div>","83","html-slider-response","75","742627","0.0-7.0-2.12","11","1","2025-07-30 08:38:25","36c45c0696341be0efffe67d72a12abb","93.108.112.26","Mozilla/5.0 (Windows NT 10.0; Win64; x64) AppleWebKit/537.36 (KHTML, like Gecko) Chrome/138.0.0.0 Safari/537.36","WebKit","Chrome","138.0.0.0","Windows","10.0","https://app.prolific.com/","en-US,en;q=0.9","6140ef8d27499e70e8740918","683dba9a53627eb9ab41b36a","6889d9c7508422fe97094867","0","6140ef8d27499e70e8740918","0","2025-07-30T08:50:48.701Z","","","","ControlQ","","","","","","","","","","","50","","","","","","","","","","","","","","","","","","","","","","","","","","",""
"2484","","<div style=""width:500px;"">
  <p>How would you describe your current emotional state?</p>
  </div>","22","html-slider-response","76","745112","0.0-7.0-3.12","11","1","2025-07-30 08:38:25","36c45c0696341be0efffe67d72a12abb","93.108.112.26","Mozilla/5.0 (Windows NT 10.0; Win64; x64) AppleWebKit/537.36 (KHTML, like Gecko) Chrome/138.0.0.0 Safari/537.36","WebKit","Chrome","138.0.0.0","Windows","10.0","https://app.prolific.com/","en-US,en;q=0.9","6140ef8d27499e70e8740918","683dba9a53627eb9ab41b36a","6889d9c7508422fe97094867","0","6140ef8d27499e70e8740918","0","2025-07-30T08:50:51.186Z","","","","StressQ","","","","","","","","","","","50","","","","","","","","","","","","","","","","","","","","","","","","","","",""
"1193","","<div style=""width:500px;"">
  <p>What best describes how you currently feel?</p>
  </div>","87","html-slider-response","77","746306","0.0-7.0-4.12","11","1","2025-07-30 08:38:25","36c45c0696341be0efffe67d72a12abb","93.108.112.26","Mozilla/5.0 (Windows NT 10.0; Win64; x64) AppleWebKit/537.36 (KHTML, like Gecko) Chrome/138.0.0.0 Safari/537.36","WebKit","Chrome","138.0.0.0","Windows","10.0","https://app.prolific.com/","en-US,en;q=0.9","6140ef8d27499e70e8740918","683dba9a53627eb9ab41b36a","6889d9c7508422fe97094867","0","6140ef8d27499e70e8740918","0","2025-07-30T08:50:52.380Z","","","","MotivationQ","","","","","","","","","","","50","","","","","","","","","","","","","","","","","","","","","","","","","","",""
