"rt","response_timestamp","stimulus","response","trial_type","trial_index","time_elapsed","internal_node_id","run_id","condition","recorded_at","source_code_version","ip","user_agent","device","browser","browser_version","platform","platform_version","referer","accept_language","PROLIFIC_PID","STUDY_ID","SESSION_ID","BATCH","prolific_id","batch","realtime","success","question_order","question_id","eventType","responses","item_order","radio_event_ids","radio_event_times","key_event_times","mouse_event_times","straightlining","zigzagging","honeypot","view_history","slider_start","which_type","canvas_config","goals_layout","control_level","trial_number","tutorial_trial_number","trial_start_time","phase1_start_time","phase2_start_time","phase3_start_time","goal_1_value","goal_1_distance","goal_2_value","goal_2_distance","goal_selected","outcome","outcome_total","participant_final_score","participant_initial_score","participant_final_score_prop","goal_choice_rt","allocated_time","allocated_time_remaining","goal_direction","counts","mouse_movements","key_presses"
"15667","1754470297288","<p style='font-size:40px;line-height:1.25'><strong>Welcome to the experiment!</strong></p><p style='font-size:1.1em;line-height:1.25'>Thank you for participanting in our experiment again! You will be asked to play the Dysfunctional Ball Game again. We will briefly recap the rules before we start.</p><p style='font-size:1.1em;line-height:1.25'>Press <strong>Next</strong> to continue.</p>","0","custom-html-button-response","0","15673","0.0-0.0","131","1","2025-08-06 08:51:19","36c45c0696341be0efffe67d72a12abb","105.228.23.140","Mozilla/5.0 (X11; Ubuntu; Linux x86_64; rv:141.0) Gecko/20100101 Firefox/141.0","","Firefox","141.0","Ubuntu","","https://app.prolific.com/","en-US,en;q=0.5","614de26d812e1b34acd48dfb","687a1a965b9f5b85a264363e","6893177a3ed96488f4393c80","1","614de26d812e1b34acd48dfb","1","2025-08-06T08:51:37.289Z","","","","","","","","","","","","","","","","","","","","","","","","","","","","","","","","","","","","","","","","","",""
"21610","","","","fullscreen","1","38287","0.0-1.0","131","1","2025-08-06 08:51:19","36c45c0696341be0efffe67d72a12abb","105.228.23.140","Mozilla/5.0 (X11; Ubuntu; Linux x86_64; rv:141.0) Gecko/20100101 Firefox/141.0","","Firefox","141.0","Ubuntu","","https://app.prolific.com/","en-US,en;q=0.5","614de26d812e1b34acd48dfb","687a1a965b9f5b85a264363e","6893177a3ed96488f4393c80","1","614de26d812e1b34acd48dfb","1","","true","","","","","","","","","","","","","","","","","","","","","","","","","","","","","","","","","","","","","","","","",""
"25235","1754470345141"," <p style='font-size:1.1em;line-height:1.25'>Thank you for closing all other tabs.</p><p style='font-size:1.1em;line-height:1.25'>We will now invite you to fill in some questionnaires, before starting the game.<br>This will take about 5 minutes.<br></p><p style='font-size:1.1em;line-height:1.25'>Press the <strong>Next</strong> button to continue.</p>","0","custom-html-button-response","2","63526","0.0-2.0","131","1","2025-08-06 08:51:19","36c45c0696341be0efffe67d72a12abb","105.228.23.140","Mozilla/5.0 (X11; Ubuntu; Linux x86_64; rv:141.0) Gecko/20100101 Firefox/141.0","","Firefox","141.0","Ubuntu","","https://app.prolific.com/","en-US,en;q=0.5","614de26d812e1b34acd48dfb","687a1a965b9f5b85a264363e","6893177a3ed96488f4393c80","1","614de26d812e1b34acd48dfb","1","2025-08-06T08:52:25.142Z","","","","","","","","","","","","","","","","","","","","","","","","","","","","","","","","","","","","","","","","","",""
"3946","","","{""assigned_sex"":""female""}","survey-multi-choice","3","67473","0.0-3.0-0.0","131","1","2025-08-06 08:51:19","36c45c0696341be0efffe67d72a12abb","105.228.23.140","Mozilla/5.0 (X11; Ubuntu; Linux x86_64; rv:141.0) Gecko/20100101 Firefox/141.0","","Firefox","141.0","Ubuntu","","https://app.prolific.com/","en-US,en;q=0.5","614de26d812e1b34acd48dfb","687a1a965b9f5b85a264363e","6893177a3ed96488f4393c80","1","614de26d812e1b34acd48dfb","1","","","[0]","0","demographics","","","","","","","","","","","","","","","","","","","","","","","","","","","","","","","","","","","","","",""
"7191","1754470356282","<p style='font-size:1.1em;line-height:1.25'>In the following, we will perform a baseline assessment. This means that we will ask you a few questions relating to your experiences over the past month.<br></p><p style='font-size:1.1em;line-height:1.25'>Press the <strong>Next</strong> button to continue.</p>","0","custom-html-button-response","4","74667","0.0-4.0-0.0","131","1","2025-08-06 08:51:19","36c45c0696341be0efffe67d72a12abb","105.228.23.140","Mozilla/5.0 (X11; Ubuntu; Linux x86_64; rv:141.0) Gecko/20100101 Firefox/141.0","","Firefox","141.0","Ubuntu","","https://app.prolific.com/","en-US,en;q=0.5","614de26d812e1b34acd48dfb","687a1a965b9f5b85a264363e","6893177a3ed96488f4393c80","1","614de26d812e1b34acd48dfb","1","2025-08-06T08:52:36.283Z","","","","","","","","","","","","","","","","","","","","","","","","","","","","","","","","","","","","","","","","","",""
"115613","","","","survey-template","5","190286","0.0-4.0-1.0","131","1","2025-08-06 08:51:19","36c45c0696341be0efffe67d72a12abb","105.228.23.140","Mozilla/5.0 (X11; Ubuntu; Linux x86_64; rv:141.0) Gecko/20100101 Firefox/141.0","","Firefox","141.0","Ubuntu","","https://app.prolific.com/","en-US,en;q=0.5","614de26d812e1b34acd48dfb","687a1a965b9f5b85a264363e","6893177a3ed96488f4393c80","1","614de26d812e1b34acd48dfb","1","2025-08-06T08:54:31.902Z","","","","pss","{""Q01"":""0"",""Q02"":""0"",""Q03"":""2"",""Q04"":""1"",""Q05"":""0"",""Q06"":""0"",""Q07"":""1"",""Q08"":""1"",""Q09"":""0"",""Q10"":""0""}","[0,1,2,3,4,5,6,7,8,9]","[""Q01"",""Q02"",""Q02"",""Q01"",""Q03"",""Q04"",""Q05"",""Q05"",""Q06"",""Q06"",""Q07"",""Q08"",""Q09"",""Q10""]","[32923,43844,46851,47875,54317,63967,70589,72876,81026,84400,93294,98187,107808,114228]","[]","[0,32923,43844,46851,47875,54317,63967,70589,72876,81026,84400,93294,98187,107808,114228,115612]","0.5","0.3333333333333333","0","","","","","","","","","","","","","","","","","","","","","","","","","","","","",""
"6039","1754470477944","<p style='font-size:1.1em;line-height:1.25'>Thank you for your answers! Now we will ask you a few more questions relating to your feelings in the last 24 hours.<br></p><p style='font-size:1.1em;line-height:1.25'>Press the <strong>Next</strong> button to continue.</p>","0","custom-html-button-response","6","196328","0.0-4.0-2.0","131","1","2025-08-06 08:51:19","36c45c0696341be0efffe67d72a12abb","105.228.23.140","Mozilla/5.0 (X11; Ubuntu; Linux x86_64; rv:141.0) Gecko/20100101 Firefox/141.0","","Firefox","141.0","Ubuntu","","https://app.prolific.com/","en-US,en;q=0.5","614de26d812e1b34acd48dfb","687a1a965b9f5b85a264363e","6893177a3ed96488f4393c80","1","614de26d812e1b34acd48dfb","1","2025-08-06T08:54:37.944Z","","","","","","","","","","","","","","","","","","","","","","","","","","","","","","","","","","","","","","","","","",""
"246399","","","","survey-template","7","442731","0.0-4.0-3.0","131","1","2025-08-06 08:51:19","36c45c0696341be0efffe67d72a12abb","105.228.23.140","Mozilla/5.0 (X11; Ubuntu; Linux x86_64; rv:141.0) Gecko/20100101 Firefox/141.0","","Firefox","141.0","Ubuntu","","https://app.prolific.com/","en-US,en;q=0.5","614de26d812e1b34acd48dfb","687a1a965b9f5b85a264363e","6893177a3ed96488f4393c80","1","614de26d812e1b34acd48dfb","1","2025-08-06T08:58:44.347Z","","","","drsp","{""Q01"":""2"",""Q02"":""1"",""Q03"":""4"",""Q04"":""4"",""Q05"":""1"",""Q06"":""1"",""Q07"":""3"",""Q08"":""4"",""Q09"":""0"",""Q10"":""0"",""Q11"":""4"",""Q12"":""0"",""Q13"":""5"",""Q14"":""0"",""Q15"":""0"",""Q16"":""0"",""Q17"":""3"",""Q18"":""3"",""Q19"":""3"",""Q20"":""0"",""Q21"":""0"",""Q22"":""0""}","[0,1,2,3,4,5,6,7,8,9,10,11,12,13,14,15,16,17,18,19,20,21]","[""Q01"",""Q02"",""Q03"",""Q04"",""Q05"",""Q06"",""Q05"",""Q07"",""Q08"",""Q09"",""Q10"",""Q11"",""Q11"",""Q12"",""Q13"",""Q14"",""Q15"",""Q16"",""Q17"",""Q18"",""Q19"",""Q19"",""Q19"",""Q20"",""Q21"",""Q22""]","[38329,53494,120820,124898,129648,136124,138011,147295,151304,155632,158038,161500,164128,168917,174535,178876,182567,195947,203797,207751,213398,216204,220537,231610,238956,245066]","[]","[0,38329,53494,120820,124898,129648,136124,138011,147295,151304,155632,158038,161500,164128,168917,174535,178876,182567,195947,203797,207751,213398,216204,220537,231610,238956,245066,246398]","0.4090909090909091","0.19047619047619047","0","","","","","","","","","","","","","","","","","","","","","","","","","","","","",""
"19346","","","","survey-template","8","462078","0.0-4.0-4.0","131","1","2025-08-06 08:51:19","36c45c0696341be0efffe67d72a12abb","105.228.23.140","Mozilla/5.0 (X11; Ubuntu; Linux x86_64; rv:141.0) Gecko/20100101 Firefox/141.0","","Firefox","141.0","Ubuntu","","https://app.prolific.com/","en-US,en;q=0.5","614de26d812e1b34acd48dfb","687a1a965b9f5b85a264363e","6893177a3ed96488f4393c80","1","614de26d812e1b34acd48dfb","1","2025-08-06T08:59:03.694Z","","","","stress","{""Q01"":""4"",""Q02"":""4"",""Q03"":""1""}","[0,1,2]","[""Q01"",""Q02"",""Q03""]","[6358,13641,17982]","[]","[6358,13641,17982,19345]","0.6666666666666666","0","0","","","","","","","","","","","","","","","","","","","","","","","","","","","","",""
"42891","","","","instructions","9","504972","0.0-5.0-0.0","131","1","2025-08-06 08:51:19","36c45c0696341be0efffe67d72a12abb","105.228.23.140","Mozilla/5.0 (X11; Ubuntu; Linux x86_64; rv:141.0) Gecko/20100101 Firefox/141.0","","Firefox","141.0","Ubuntu","","https://app.prolific.com/","en-US,en;q=0.5","614de26d812e1b34acd48dfb","687a1a965b9f5b85a264363e","6893177a3ed96488f4393c80","1","614de26d812e1b34acd48dfb","1","","","","","","","","","","","","","","","[{""page_index"":0,""viewing_time"":42891}]","","","","","","","","","","","","","","","","","","","","","","","","","","","",""
"26593","","<p>Before you start with this game please answer the following three questions yourself. </p>
  <p>Through this game, we measure several aspects of your cognitive performance, such as reaction times, multi-tasking capabilities </p>
  <p>and the ability to assess the situation you are in.</p>
  <p></p>
  <p><b>How good do you usually are in such tasks?</b></p>","33","html-slider-response","10","531567","0.0-6.0-0.0","131","1","2025-08-06 08:51:19","36c45c0696341be0efffe67d72a12abb","105.228.23.140","Mozilla/5.0 (X11; Ubuntu; Linux x86_64; rv:141.0) Gecko/20100101 Firefox/141.0","","Firefox","141.0","Ubuntu","","https://app.prolific.com/","en-US,en;q=0.5","614de26d812e1b34acd48dfb","687a1a965b9f5b85a264363e","6893177a3ed96488f4393c80","1","614de26d812e1b34acd48dfb","1","2025-08-06T09:00:13.183Z","","","","PreSkillQ","","","","","","","","","","","50","","","","","","","","","","","","","","","","","","","","","","","","","","",""
"4820","","<div style=""width:500px;"">
  <p>How well do you think you will perform in this task compared to other participants?</p>
  </div>","33","html-slider-response","11","536390","0.0-6.0-1.0","131","1","2025-08-06 08:51:19","36c45c0696341be0efffe67d72a12abb","105.228.23.140","Mozilla/5.0 (X11; Ubuntu; Linux x86_64; rv:141.0) Gecko/20100101 Firefox/141.0","","Firefox","141.0","Ubuntu","","https://app.prolific.com/","en-US,en;q=0.5","614de26d812e1b34acd48dfb","687a1a965b9f5b85a264363e","6893177a3ed96488f4393c80","1","614de26d812e1b34acd48dfb","1","2025-08-06T09:00:18.006Z","","","","PrePerfQ","","","","","","","","","","","50","","","","","","","","","","","","","","","","","","","","","","","","","","",""
"5135","","<div style=""width:500px;"">
  <p>What best describes how you currently feel?</p>
  </div>","19","html-slider-response","12","541525","0.0-6.0-2.0","131","1","2025-08-06 08:51:19","36c45c0696341be0efffe67d72a12abb","105.228.23.140","Mozilla/5.0 (X11; Ubuntu; Linux x86_64; rv:141.0) Gecko/20100101 Firefox/141.0","","Firefox","141.0","Ubuntu","","https://app.prolific.com/","en-US,en;q=0.5","614de26d812e1b34acd48dfb","687a1a965b9f5b85a264363e","6893177a3ed96488f4393c80","1","614de26d812e1b34acd48dfb","1","2025-08-06T09:00:23.141Z","","","","PreMotivationQ","","","","","","","","","","","50","","","","","","","","","","","","","","","","","","","","","","","","","","",""
"","","","","ctl-task-cpt","13","566548","0.0-7.0-0.0","131","1","2025-08-06 08:51:19","36c45c0696341be0efffe67d72a12abb","105.228.23.140","Mozilla/5.0 (X11; Ubuntu; Linux x86_64; rv:141.0) Gecko/20100101 Firefox/141.0","","Firefox","141.0","Ubuntu","","https://app.prolific.com/","en-US,en;q=0.5","614de26d812e1b34acd48dfb","687a1a965b9f5b85a264363e","6893177a3ed96488f4393c80","1","614de26d812e1b34acd48dfb","1","2025-08-06T09:00:48.164Z","","","","","","","","","","","","","","","","win-only","3","g1:SW,g2:NE","1","1","0","544940","6356","11359","22020","1","4","4","6","1","1","1","1","0","0.007575757575757576","1390","3000","1225","[""down"",""left""]","{""num_key_presses"":4,""num_perfect"":4,""num_errors"":0,""num_randdir"":0,""num_randdir_good_moves"":0,""num_whilered"":0,""num_whileblue"":0,""num_blue"":0,""num_good_moves"":4}","[409.57142857142856,415.27142551967074,0,409.57142857142856,415.27142551967074,102,409.57142857142856,415.27142551967074,202,409.57142857142856,415.27142551967074,302,409.57142857142856,415.27142551967074,403,409.57142857142856,415.27142551967074,507,409.57142857142856,415.27142551967074,607,409.57142857142856,415.27142551967074,709,311.57142857142856,503.27142551967074,813,157.57142857142856,642.2714255196707,916,138.57142857142856,669.2714255196707,1020,101.57142857142857,715.2714255196707,1125,74.57142857142857,754.2714255196707,1229,74.57142857142857,754.2714255196707,1331,74.57142857142857,754.2714255196707,1432,74.57142857142857,754.2714255196707,1535,74.57142857142857,754.2714255196707,1638,74.57142857142857,754.2714255196707,1741,74.57142857142857,754.2714255196707,1847,74.57142857142857,754.2714255196707,1949,85.57142857142857,748.2714255196707,2052,108.57142857142857,727.2714255196707,2153,124.57142857142857,714.2714255196707,2257,163.57142857142856,697.2714255196707,2358,205.57142857142856,682.2714255196707,2460,205.57142857142856,682.2714255196707,2561,205.57142857142856,682.2714255196707,2666,205.57142857142856,682.2714255196707,2768,205.57142857142856,682.2714255196707,2871,205.57142857142856,682.2714255196707,2973,205.57142857142856,682.2714255196707,3077,205.57142857142856,682.2714255196707,3181,205.57142857142856,682.2714255196707,3283,205.57142857142856,682.2714255196707,3384,205.57142857142856,682.2714255196707,3485,205.57142857142856,682.2714255196707,3585,205.57142857142856,682.2714255196707,3689,205.57142857142856,682.2714255196707,3789,205.57142857142856,682.2714255196707,3893,205.57142857142856,682.2714255196707,3997,205.57142857142856,682.2714255196707,4101,205.57142857142856,682.2714255196707,4203,205.57142857142856,682.2714255196707,4304,205.57142857142856,682.2714255196707,4406,205.57142857142856,682.2714255196707,4508,205.57142857142856,682.2714255196707,4608,205.57142857142856,682.2714255196707,4710,205.57142857142856,682.2714255196707,4811,205.57142857142856,682.2714255196707,4912]","[1466,1466,1000,0,466,""smooth"",""down"",""down"",""good_move"",4627,3161,2665.6,1466,495.4,""smooth"",""left"",""left"",""good_move"",7926,3299,2683.8,4628,614.2,""smooth"",""down"",""down"",""good_move"",10565,2639,2223.4,7926,415.6,""smooth"",""left"",""left"",""good_move""]"
"11610","","<div style=""width:500px;"">
  <p>What determined the result of this run?</p>
  </div>","98","html-slider-response","14","578160","0.0-7.0-1.0","131","1","2025-08-06 08:51:19","36c45c0696341be0efffe67d72a12abb","105.228.23.140","Mozilla/5.0 (X11; Ubuntu; Linux x86_64; rv:141.0) Gecko/20100101 Firefox/141.0","","Firefox","141.0","Ubuntu","","https://app.prolific.com/","en-US,en;q=0.5","614de26d812e1b34acd48dfb","687a1a965b9f5b85a264363e","6893177a3ed96488f4393c80","1","614de26d812e1b34acd48dfb","1","2025-08-06T09:00:59.776Z","","","","AttribQ","","","","","","","","","","","50","","","","","","","","","","","","","","","","","","","","","","","","","","",""
"4138","","<div style=""width:500px;"">
  <p>How much control did you have over the ball?</p>
  </div>","98","html-slider-response","15","582301","0.0-7.0-2.0","131","1","2025-08-06 08:51:19","36c45c0696341be0efffe67d72a12abb","105.228.23.140","Mozilla/5.0 (X11; Ubuntu; Linux x86_64; rv:141.0) Gecko/20100101 Firefox/141.0","","Firefox","141.0","Ubuntu","","https://app.prolific.com/","en-US,en;q=0.5","614de26d812e1b34acd48dfb","687a1a965b9f5b85a264363e","6893177a3ed96488f4393c80","1","614de26d812e1b34acd48dfb","1","2025-08-06T09:01:03.917Z","","","","ControlQ","","","","","","","","","","","50","","","","","","","","","","","","","","","","","","","","","","","","","","",""
"5127","","<div style=""width:500px;"">
  <p>How would you describe your current emotional state?</p>
  </div>","23","html-slider-response","16","587430","0.0-7.0-3.0","131","1","2025-08-06 08:51:19","36c45c0696341be0efffe67d72a12abb","105.228.23.140","Mozilla/5.0 (X11; Ubuntu; Linux x86_64; rv:141.0) Gecko/20100101 Firefox/141.0","","Firefox","141.0","Ubuntu","","https://app.prolific.com/","en-US,en;q=0.5","614de26d812e1b34acd48dfb","687a1a965b9f5b85a264363e","6893177a3ed96488f4393c80","1","614de26d812e1b34acd48dfb","1","2025-08-06T09:01:09.046Z","","","","StressQ","","","","","","","","","","","50","","","","","","","","","","","","","","","","","","","","","","","","","","",""
"5230","","<div style=""width:500px;"">
  <p>What best describes how you currently feel?</p>
  </div>","20","html-slider-response","17","592663","0.0-7.0-4.0","131","1","2025-08-06 08:51:19","36c45c0696341be0efffe67d72a12abb","105.228.23.140","Mozilla/5.0 (X11; Ubuntu; Linux x86_64; rv:141.0) Gecko/20100101 Firefox/141.0","","Firefox","141.0","Ubuntu","","https://app.prolific.com/","en-US,en;q=0.5","614de26d812e1b34acd48dfb","687a1a965b9f5b85a264363e","6893177a3ed96488f4393c80","1","614de26d812e1b34acd48dfb","1","2025-08-06T09:01:14.279Z","","","","MotivationQ","","","","","","","","","","","50","","","","","","","","","","","","","","","","","","","","","","","","","","",""
"","","","","ctl-task-cpt","18","627903","0.0-7.0-0.1","131","1","2025-08-06 08:51:19","36c45c0696341be0efffe67d72a12abb","105.228.23.140","Mozilla/5.0 (X11; Ubuntu; Linux x86_64; rv:141.0) Gecko/20100101 Firefox/141.0","","Firefox","141.0","Ubuntu","","https://app.prolific.com/","en-US,en;q=0.5","614de26d812e1b34acd48dfb","687a1a965b9f5b85a264363e","6893177a3ed96488f4393c80","1","614de26d812e1b34acd48dfb","1","2025-08-06T09:01:49.519Z","","","","","","","","","","","","","","","","win-only","0","g1:NW,g2:SE","0.9","2","0","596077","2339","7341","32237","1","4","8","6","2","-8","-8","0","1","0","2842","3000","-2805","[""down"",""right""]","{""num_key_presses"":6,""num_perfect"":5,""num_errors"":0,""num_randdir"":1,""num_randdir_good_moves"":0,""num_whilered"":0,""num_whileblue"":0,""num_blue"":2,""num_good_moves"":5}","[415.57142857142856,411.27142551967074,0,415.57142857142856,411.27142551967074,103,415.57142857142856,411.27142551967074,205,415.57142857142856,411.27142551967074,307,415.57142857142856,411.27142551967074,407,415.57142857142856,411.27142551967074,509,415.57142857142856,411.27142551967074,609,415.57142857142856,411.27142551967074,709,415.57142857142856,411.27142551967074,810,415.57142857142856,411.27142551967074,911,415.57142857142856,411.27142551967074,1012,415.57142857142856,411.27142551967074,1113,415.57142857142856,411.27142551967074,1214,415.57142857142856,411.27142551967074,1316,415.57142857142856,411.27142551967074,1418,415.57142857142856,411.27142551967074,1522,415.57142857142856,411.27142551967074,1624,415.57142857142856,411.27142551967074,1726,415.57142857142856,411.27142551967074,1828,415.57142857142856,411.27142551967074,1930,635.5714285714286,491.27142551967074,2031,806.5714285714286,634.2714255196707,2134,842.5714285714286,694.2714255196707,2236,752.5714285714286,854.2714255196707,2340,726.5714285714286,826.2714255196707,2442,725.5714285714286,822.2714255196707,2543,755.5714285714286,789.2714255196707,2646,758.5714285714286,787.2714255196707,2747,758.5714285714286,787.2714255196707,2848,758.5714285714286,787.2714255196707,2948,758.5714285714286,787.2714255196707,3048,758.5714285714286,787.2714255196707,3150,758.5714285714286,787.2714255196707,3253,758.5714285714286,787.2714255196707,3354,758.5714285714286,787.2714255196707,3454,758.5714285714286,787.2714255196707,3557,758.5714285714286,787.2714255196707,3657,758.5714285714286,787.2714255196707,3758,758.5714285714286,787.2714255196707,3858,758.5714285714286,787.2714255196707,3960,758.5714285714286,787.2714255196707,4062,758.5714285714286,787.2714255196707,4164,758.5714285714286,787.2714255196707,4265,758.5714285714286,787.2714255196707,4367,758.5714285714286,787.2714255196707,4469,758.5714285714286,787.2714255196707,4571,758.5714285714286,787.2714255196707,4673,758.5714285714286,787.2714255196707,4775,758.5714285714286,787.2714255196707,4878,758.5714285714286,787.2714255196707,4980]","[8190,8190,2355.1,5344,490.9,""smooth"",""down"",""down"",""good_move"",11207,3017,2554.6,8190,462.4,""smooth"",""right"",""right"",""good_move"",13401,2194,1765.6,11207,428.4,""oops"",""right"",""left"",""bad_move"",16417,3016,2459.3,13401,556.7,""smooth"",""down"",""down"",""good_move"",19036,2619,2152.5,16417,466.5,""smooth"",""right"",""right"",""good_move"",22091,3055,2586.2,19036,468.8,""smooth"",""right"",""right"",""good_move""]"
"4805","","<div style=""width:500px;"">
  <p>What determined the result of this run?</p>
  </div>","20","html-slider-response","19","632708","0.0-7.0-1.1","131","1","2025-08-06 08:51:19","36c45c0696341be0efffe67d72a12abb","105.228.23.140","Mozilla/5.0 (X11; Ubuntu; Linux x86_64; rv:141.0) Gecko/20100101 Firefox/141.0","","Firefox","141.0","Ubuntu","","https://app.prolific.com/","en-US,en;q=0.5","614de26d812e1b34acd48dfb","687a1a965b9f5b85a264363e","6893177a3ed96488f4393c80","1","614de26d812e1b34acd48dfb","1","2025-08-06T09:01:54.325Z","","","","AttribQ","","","","","","","","","","","50","","","","","","","","","","","","","","","","","","","","","","","","","","",""
"2770","","<div style=""width:500px;"">
  <p>How much control did you have over the ball?</p>
  </div>","19","html-slider-response","20","635481","0.0-7.0-2.1","131","1","2025-08-06 08:51:19","36c45c0696341be0efffe67d72a12abb","105.228.23.140","Mozilla/5.0 (X11; Ubuntu; Linux x86_64; rv:141.0) Gecko/20100101 Firefox/141.0","","Firefox","141.0","Ubuntu","","https://app.prolific.com/","en-US,en;q=0.5","614de26d812e1b34acd48dfb","687a1a965b9f5b85a264363e","6893177a3ed96488f4393c80","1","614de26d812e1b34acd48dfb","1","2025-08-06T09:01:57.097Z","","","","ControlQ","","","","","","","","","","","50","","","","","","","","","","","","","","","","","","","","","","","","","","",""
"2881","","<div style=""width:500px;"">
  <p>How would you describe your current emotional state?</p>
  </div>","21","html-slider-response","21","638363","0.0-7.0-3.1","131","1","2025-08-06 08:51:19","36c45c0696341be0efffe67d72a12abb","105.228.23.140","Mozilla/5.0 (X11; Ubuntu; Linux x86_64; rv:141.0) Gecko/20100101 Firefox/141.0","","Firefox","141.0","Ubuntu","","https://app.prolific.com/","en-US,en;q=0.5","614de26d812e1b34acd48dfb","687a1a965b9f5b85a264363e","6893177a3ed96488f4393c80","1","614de26d812e1b34acd48dfb","1","2025-08-06T09:01:59.979Z","","","","StressQ","","","","","","","","","","","50","","","","","","","","","","","","","","","","","","","","","","","","","","",""
"2742","","<div style=""width:500px;"">
  <p>What best describes how you currently feel?</p>
  </div>","21","html-slider-response","22","641106","0.0-7.0-4.1","131","1","2025-08-06 08:51:19","36c45c0696341be0efffe67d72a12abb","105.228.23.140","Mozilla/5.0 (X11; Ubuntu; Linux x86_64; rv:141.0) Gecko/20100101 Firefox/141.0","","Firefox","141.0","Ubuntu","","https://app.prolific.com/","en-US,en;q=0.5","614de26d812e1b34acd48dfb","687a1a965b9f5b85a264363e","6893177a3ed96488f4393c80","1","614de26d812e1b34acd48dfb","1","2025-08-06T09:02:02.722Z","","","","MotivationQ","","","","","","","","","","","50","","","","","","","","","","","","","","","","","","","","","","","","","","",""
"","","","","ctl-task-cpt","23","663347","0.0-7.0-0.2","131","1","2025-08-06 08:51:19","36c45c0696341be0efffe67d72a12abb","105.228.23.140","Mozilla/5.0 (X11; Ubuntu; Linux x86_64; rv:141.0) Gecko/20100101 Firefox/141.0","","Firefox","141.0","Ubuntu","","https://app.prolific.com/","en-US,en;q=0.5","614de26d812e1b34acd48dfb","687a1a965b9f5b85a264363e","6893177a3ed96488f4393c80","1","614de26d812e1b34acd48dfb","1","2025-08-06T09:02:24.963Z","","","","","","","","","","","","","","","","win-only","3","g1:SW,g2:NE","0.8","3","0","644521","2105","7110","19237","1","4","4","6","1","1","1","1","0","0.007575757575757576","1253","3000","1190","[""down"",""left""]","{""num_key_presses"":4,""num_perfect"":4,""num_errors"":0,""num_randdir"":0,""num_randdir_good_moves"":0,""num_whilered"":0,""num_whileblue"":0,""num_blue"":0,""num_good_moves"":4}","[410.57142857142856,413.27142551967074,0,410.57142857142856,413.27142551967074,100,410.57142857142856,413.27142551967074,201,410.57142857142856,413.27142551967074,303,410.57142857142856,413.27142551967074,405,410.57142857142856,413.27142551967074,506,403.57142857142856,415.27142551967074,608,220.57142857142856,518.2714255196707,710,110.57142857142857,615.2714255196707,811,85.57142857142857,644.2714255196707,911,69.57142857142857,763.2714255196707,1012,68.57142857142857,769.2714255196707,1114,68.57142857142857,769.2714255196707,1215,68.57142857142857,769.2714255196707,1315,68.57142857142857,769.2714255196707,1415,68.57142857142857,769.2714255196707,1517,68.57142857142857,769.2714255196707,1620,68.57142857142857,769.2714255196707,1722,68.57142857142857,769.2714255196707,1825,68.57142857142857,769.2714255196707,1927,68.57142857142857,769.2714255196707,2027,68.57142857142857,769.2714255196707,2128,68.57142857142857,769.2714255196707,2231,68.57142857142857,769.2714255196707,2332,68.57142857142857,769.2714255196707,2432,68.57142857142857,769.2714255196707,2534,68.57142857142857,769.2714255196707,2635,68.57142857142857,769.2714255196707,2737,68.57142857142857,769.2714255196707,2839,68.57142857142857,769.2714255196707,2941,68.57142857142857,769.2714255196707,3042,68.57142857142857,769.2714255196707,3145,68.57142857142857,769.2714255196707,3247,68.57142857142857,769.2714255196707,3350,68.57142857142857,769.2714255196707,3452,68.57142857142857,769.2714255196707,3554,68.57142857142857,769.2714255196707,3654,68.57142857142857,769.2714255196707,3755,68.57142857142857,769.2714255196707,3857,68.57142857142857,769.2714255196707,3959,68.57142857142857,769.2714255196707,4060,68.57142857142857,769.2714255196707,4162,68.57142857142857,769.2714255196707,4266,68.57142857142857,769.2714255196707,4367,68.57142857142857,769.2714255196707,4468,68.57142857142857,769.2714255196707,4571,68.57142857142857,769.2714255196707,4673,68.57142857142857,769.2714255196707,4775,68.57142857142857,769.2714255196707,4877,68.57142857142857,769.2714255196707,4978]","[1550,1550,1000,0,550,""smooth"",""left"",""left"",""good_move"",5435,3885,3389.4,1550,495.6,""smooth"",""left"",""left"",""good_move"",8790,3355,2941.7,5435,413.3,""smooth"",""down"",""down"",""good_move"",12031,3241,2731.4,8790,509.6,""smooth"",""down"",""down"",""good_move""]"
"6646","","<div style=""width:500px;"">
  <p>What determined the result of this run?</p>
  </div>","98","html-slider-response","24","669995","0.0-7.0-1.2","131","1","2025-08-06 08:51:19","36c45c0696341be0efffe67d72a12abb","105.228.23.140","Mozilla/5.0 (X11; Ubuntu; Linux x86_64; rv:141.0) Gecko/20100101 Firefox/141.0","","Firefox","141.0","Ubuntu","","https://app.prolific.com/","en-US,en;q=0.5","614de26d812e1b34acd48dfb","687a1a965b9f5b85a264363e","6893177a3ed96488f4393c80","1","614de26d812e1b34acd48dfb","1","2025-08-06T09:02:31.611Z","","","","AttribQ","","","","","","","","","","","50","","","","","","","","","","","","","","","","","","","","","","","","","","",""
"3993","","<div style=""width:500px;"">
  <p>How much control did you have over the ball?</p>
  </div>","97","html-slider-response","25","673990","0.0-7.0-2.2","131","1","2025-08-06 08:51:19","36c45c0696341be0efffe67d72a12abb","105.228.23.140","Mozilla/5.0 (X11; Ubuntu; Linux x86_64; rv:141.0) Gecko/20100101 Firefox/141.0","","Firefox","141.0","Ubuntu","","https://app.prolific.com/","en-US,en;q=0.5","614de26d812e1b34acd48dfb","687a1a965b9f5b85a264363e","6893177a3ed96488f4393c80","1","614de26d812e1b34acd48dfb","1","2025-08-06T09:02:35.606Z","","","","ControlQ","","","","","","","","","","","50","","","","","","","","","","","","","","","","","","","","","","","","","","",""
"2176","","<div style=""width:500px;"">
  <p>How would you describe your current emotional state?</p>
  </div>","21","html-slider-response","26","676167","0.0-7.0-3.2","131","1","2025-08-06 08:51:19","36c45c0696341be0efffe67d72a12abb","105.228.23.140","Mozilla/5.0 (X11; Ubuntu; Linux x86_64; rv:141.0) Gecko/20100101 Firefox/141.0","","Firefox","141.0","Ubuntu","","https://app.prolific.com/","en-US,en;q=0.5","614de26d812e1b34acd48dfb","687a1a965b9f5b85a264363e","6893177a3ed96488f4393c80","1","614de26d812e1b34acd48dfb","1","2025-08-06T09:02:37.783Z","","","","StressQ","","","","","","","","","","","50","","","","","","","","","","","","","","","","","","","","","","","","","","",""
"2591","","<div style=""width:500px;"">
  <p>What best describes how you currently feel?</p>
  </div>","28","html-slider-response","27","678760","0.0-7.0-4.2","131","1","2025-08-06 08:51:19","36c45c0696341be0efffe67d72a12abb","105.228.23.140","Mozilla/5.0 (X11; Ubuntu; Linux x86_64; rv:141.0) Gecko/20100101 Firefox/141.0","","Firefox","141.0","Ubuntu","","https://app.prolific.com/","en-US,en;q=0.5","614de26d812e1b34acd48dfb","687a1a965b9f5b85a264363e","6893177a3ed96488f4393c80","1","614de26d812e1b34acd48dfb","1","2025-08-06T09:02:40.376Z","","","","MotivationQ","","","","","","","","","","","50","","","","","","","","","","","","","","","","","","","","","","","","","","",""
"","","","","ctl-task-cpt","28","698218","0.0-7.0-0.3","131","1","2025-08-06 08:51:19","36c45c0696341be0efffe67d72a12abb","105.228.23.140","Mozilla/5.0 (X11; Ubuntu; Linux x86_64; rv:141.0) Gecko/20100101 Firefox/141.0","","Firefox","141.0","Ubuntu","","https://app.prolific.com/","en-US,en;q=0.5","614de26d812e1b34acd48dfb","687a1a965b9f5b85a264363e","6893177a3ed96488f4393c80","1","614de26d812e1b34acd48dfb","1","2025-08-06T09:02:59.834Z","","","","","","","","","","","","","","","","win-only","3","g1:SW,g2:NE","0.7","4","0","682175","1276","6280","16455","1","4","8","6","1","1","1","2","1","0.015151515151515152","1140","3000","1305","[""down"",""left""]","{""num_key_presses"":4,""num_perfect"":4,""num_errors"":0,""num_randdir"":0,""num_randdir_good_moves"":0,""num_whilered"":0,""num_whileblue"":0,""num_blue"":0,""num_good_moves"":4}","[418.57142857142856,423.27142551967074,0,418.57142857142856,423.27142551967074,101,418.57142857142856,423.27142551967074,202,418.57142857142856,423.27142551967074,304,418.57142857142856,423.27142551967074,409,405.57142857142856,429.27142551967074,510,54.57142857142857,735.2714255196707,613,54.57142857142857,735.2714255196707,716,54.57142857142857,735.2714255196707,817,51.57142857142857,747.2714255196707,917,65.57142857142857,755.2714255196707,1018,65.57142857142857,755.2714255196707,1119,65.57142857142857,755.2714255196707,1220,65.57142857142857,755.2714255196707,1323,65.57142857142857,755.2714255196707,1426,65.57142857142857,755.2714255196707,1529,65.57142857142857,755.2714255196707,1631,65.57142857142857,755.2714255196707,1733,65.57142857142857,755.2714255196707,1834,65.57142857142857,755.2714255196707,1935,65.57142857142857,755.2714255196707,2040,65.57142857142857,755.2714255196707,2140,65.57142857142857,755.2714255196707,2240,65.57142857142857,755.2714255196707,2342,65.57142857142857,755.2714255196707,2443,65.57142857142857,755.2714255196707,2547,65.57142857142857,755.2714255196707,2651,65.57142857142857,755.2714255196707,2754,65.57142857142857,755.2714255196707,2855,65.57142857142857,755.2714255196707,2957,65.57142857142857,755.2714255196707,3059,65.57142857142857,755.2714255196707,3161,65.57142857142857,755.2714255196707,3262,65.57142857142857,755.2714255196707,3365,65.57142857142857,755.2714255196707,3467,65.57142857142857,755.2714255196707,3568,65.57142857142857,755.2714255196707,3671,65.57142857142857,755.2714255196707,3772,65.57142857142857,755.2714255196707,3874,65.57142857142857,755.2714255196707,3977,65.57142857142857,755.2714255196707,4077,65.57142857142857,755.2714255196707,4180,65.57142857142857,755.2714255196707,4281,65.57142857142857,755.2714255196707,4382,65.57142857142857,755.2714255196707,4485,65.57142857142857,755.2714255196707,4585,65.57142857142857,755.2714255196707,4687,65.57142857142857,755.2714255196707,4789,65.57142857142857,755.2714255196707,4891,65.57142857142857,755.2714255196707,4993]","[1476,1476,1000,0,476,""smooth"",""left"",""left"",""good_move"",4512,3036,2546,1476,490,""smooth"",""down"",""down"",""good_move"",7381,2869,2455.5,4512,413.5,""smooth"",""left"",""left"",""good_move"",10077,2696,2248.7,7381,447.3,""smooth"",""down"",""down"",""good_move""]"
"3711","","<div style=""width:500px;"">
  <p>What determined the result of this run?</p>
  </div>","99","html-slider-response","29","701932","0.0-7.0-1.3","131","1","2025-08-06 08:51:19","36c45c0696341be0efffe67d72a12abb","105.228.23.140","Mozilla/5.0 (X11; Ubuntu; Linux x86_64; rv:141.0) Gecko/20100101 Firefox/141.0","","Firefox","141.0","Ubuntu","","https://app.prolific.com/","en-US,en;q=0.5","614de26d812e1b34acd48dfb","687a1a965b9f5b85a264363e","6893177a3ed96488f4393c80","1","614de26d812e1b34acd48dfb","1","2025-08-06T09:03:03.548Z","","","","AttribQ","","","","","","","","","","","50","","","","","","","","","","","","","","","","","","","","","","","","","","",""
"3407","","<div style=""width:500px;"">
  <p>How much control did you have over the ball?</p>
  </div>","98","html-slider-response","30","705339","0.0-7.0-2.3","131","1","2025-08-06 08:51:19","36c45c0696341be0efffe67d72a12abb","105.228.23.140","Mozilla/5.0 (X11; Ubuntu; Linux x86_64; rv:141.0) Gecko/20100101 Firefox/141.0","","Firefox","141.0","Ubuntu","","https://app.prolific.com/","en-US,en;q=0.5","614de26d812e1b34acd48dfb","687a1a965b9f5b85a264363e","6893177a3ed96488f4393c80","1","614de26d812e1b34acd48dfb","1","2025-08-06T09:03:06.955Z","","","","ControlQ","","","","","","","","","","","50","","","","","","","","","","","","","","","","","","","","","","","","","","",""
"2646","","<div style=""width:500px;"">
  <p>How would you describe your current emotional state?</p>
  </div>","26","html-slider-response","31","707986","0.0-7.0-3.3","131","1","2025-08-06 08:51:19","36c45c0696341be0efffe67d72a12abb","105.228.23.140","Mozilla/5.0 (X11; Ubuntu; Linux x86_64; rv:141.0) Gecko/20100101 Firefox/141.0","","Firefox","141.0","Ubuntu","","https://app.prolific.com/","en-US,en;q=0.5","614de26d812e1b34acd48dfb","687a1a965b9f5b85a264363e","6893177a3ed96488f4393c80","1","614de26d812e1b34acd48dfb","1","2025-08-06T09:03:09.602Z","","","","StressQ","","","","","","","","","","","50","","","","","","","","","","","","","","","","","","","","","","","","","","",""
"2445","","<div style=""width:500px;"">
  <p>What best describes how you currently feel?</p>
  </div>","25","html-slider-response","32","710433","0.0-7.0-4.3","131","1","2025-08-06 08:51:19","36c45c0696341be0efffe67d72a12abb","105.228.23.140","Mozilla/5.0 (X11; Ubuntu; Linux x86_64; rv:141.0) Gecko/20100101 Firefox/141.0","","Firefox","141.0","Ubuntu","","https://app.prolific.com/","en-US,en;q=0.5","614de26d812e1b34acd48dfb","687a1a965b9f5b85a264363e","6893177a3ed96488f4393c80","1","614de26d812e1b34acd48dfb","1","2025-08-06T09:03:12.049Z","","","","MotivationQ","","","","","","","","","","","50","","","","","","","","","","","","","","","","","","","","","","","","","","",""
"","","","","ctl-task-cpt","33","742884","0.0-7.0-0.4","131","1","2025-08-06 08:51:19","36c45c0696341be0efffe67d72a12abb","105.228.23.140","Mozilla/5.0 (X11; Ubuntu; Linux x86_64; rv:141.0) Gecko/20100101 Firefox/141.0","","Firefox","141.0","Ubuntu","","https://app.prolific.com/","en-US,en;q=0.5","614de26d812e1b34acd48dfb","687a1a965b9f5b85a264363e","6893177a3ed96488f4393c80","1","614de26d812e1b34acd48dfb","1","2025-08-06T09:03:44.500Z","","","","","","","","","","","","","","","","win-only","2","g1:SE,g2:NW","0.6","5","0","713848","1304","6308","29448","1","4","4","6","1","-1","-1","1","2","0.007575757575757576","1480","3000","-2800","[""down"",""right""]","{""num_key_presses"":6,""num_perfect"":4,""num_errors"":0,""num_randdir"":2,""num_randdir_good_moves"":0,""num_whilered"":0,""num_whileblue"":0,""num_blue"":1,""num_good_moves"":4}","[409.57142857142856,408.27142551967074,0,409.57142857142856,408.27142551967074,101,409.57142857142856,408.27142551967074,204,409.57142857142856,408.27142551967074,305,409.57142857142856,408.27142551967074,407,409.57142857142856,408.27142551967074,508,409.57142857142856,408.27142551967074,610,396.57142857142856,389.27142551967074,710,463.57142857142856,409.27142551967074,811,751.5714285714286,805.2714255196707,913,751.5714285714286,805.2714255196707,1013,751.5714285714286,805.2714255196707,1114,768.5714285714286,809.2714255196707,1216,772.5714285714286,777.2714255196707,1317,772.5714285714286,776.2714255196707,1420,772.5714285714286,776.2714255196707,1520,772.5714285714286,776.2714255196707,1620,772.5714285714286,776.2714255196707,1721,772.5714285714286,776.2714255196707,1822,772.5714285714286,776.2714255196707,1924,772.5714285714286,776.2714255196707,2025,772.5714285714286,776.2714255196707,2128,772.5714285714286,776.2714255196707,2229,772.5714285714286,776.2714255196707,2331,772.5714285714286,776.2714255196707,2433,772.5714285714286,776.2714255196707,2535,772.5714285714286,776.2714255196707,2637,772.5714285714286,776.2714255196707,2739,772.5714285714286,776.2714255196707,2841,772.5714285714286,776.2714255196707,2943,772.5714285714286,776.2714255196707,3044,772.5714285714286,776.2714255196707,3146,772.5714285714286,776.2714255196707,3249,772.5714285714286,776.2714255196707,3351,772.5714285714286,776.2714255196707,3456,772.5714285714286,776.2714255196707,3557,772.5714285714286,776.2714255196707,3659,772.5714285714286,776.2714255196707,3762,772.5714285714286,776.2714255196707,3862,772.5714285714286,776.2714255196707,3965,772.5714285714286,776.2714255196707,4067,772.5714285714286,776.2714255196707,4169,772.5714285714286,776.2714255196707,4271,772.5714285714286,776.2714255196707,4372,772.5714285714286,776.2714255196707,4474,772.5714285714286,776.2714255196707,4574,772.5714285714286,776.2714255196707,4678,772.5714285714286,776.2714255196707,4780,772.5714285714286,776.2714255196707,4882,772.5714285714286,776.2714255196707,4983]","[1628,1628,1000,0,628,""smooth"",""right"",""right"",""good_move"",4511,2882,2355.4,1629,526.6,""oops"",""right"",""up"",""bad_move"",7802,3291,2737.8,4511,553.2,""smooth"",""down"",""down"",""good_move"",10026,2224,1698.4,7802,525.6,""smooth"",""down"",""down"",""good_move"",13465,3439,2886.5,10026,552.5,""smooth"",""right"",""right"",""good_move"",16817,3352,2940.3,13465,411.7,""oops"",""down"",""up"",""bad_move""]"
"3839","","<div style=""width:500px;"">
  <p>What determined the result of this run?</p>
  </div>","23","html-slider-response","34","746724","0.0-7.0-1.4","131","1","2025-08-06 08:51:19","36c45c0696341be0efffe67d72a12abb","105.228.23.140","Mozilla/5.0 (X11; Ubuntu; Linux x86_64; rv:141.0) Gecko/20100101 Firefox/141.0","","Firefox","141.0","Ubuntu","","https://app.prolific.com/","en-US,en;q=0.5","614de26d812e1b34acd48dfb","687a1a965b9f5b85a264363e","6893177a3ed96488f4393c80","1","614de26d812e1b34acd48dfb","1","2025-08-06T09:03:48.340Z","","","","AttribQ","","","","","","","","","","","50","","","","","","","","","","","","","","","","","","","","","","","","","","",""
"3428","","<div style=""width:500px;"">
  <p>How much control did you have over the ball?</p>
  </div>","26","html-slider-response","35","750154","0.0-7.0-2.4","131","1","2025-08-06 08:51:19","36c45c0696341be0efffe67d72a12abb","105.228.23.140","Mozilla/5.0 (X11; Ubuntu; Linux x86_64; rv:141.0) Gecko/20100101 Firefox/141.0","","Firefox","141.0","Ubuntu","","https://app.prolific.com/","en-US,en;q=0.5","614de26d812e1b34acd48dfb","687a1a965b9f5b85a264363e","6893177a3ed96488f4393c80","1","614de26d812e1b34acd48dfb","1","2025-08-06T09:03:51.770Z","","","","ControlQ","","","","","","","","","","","50","","","","","","","","","","","","","","","","","","","","","","","","","","",""
"2687","","<div style=""width:500px;"">
  <p>How would you describe your current emotional state?</p>
  </div>","23","html-slider-response","36","752841","0.0-7.0-3.4","131","1","2025-08-06 08:51:19","36c45c0696341be0efffe67d72a12abb","105.228.23.140","Mozilla/5.0 (X11; Ubuntu; Linux x86_64; rv:141.0) Gecko/20100101 Firefox/141.0","","Firefox","141.0","Ubuntu","","https://app.prolific.com/","en-US,en;q=0.5","614de26d812e1b34acd48dfb","687a1a965b9f5b85a264363e","6893177a3ed96488f4393c80","1","614de26d812e1b34acd48dfb","1","2025-08-06T09:03:54.458Z","","","","StressQ","","","","","","","","","","","50","","","","","","","","","","","","","","","","","","","","","","","","","","",""
"2513","","<div style=""width:500px;"">
  <p>What best describes how you currently feel?</p>
  </div>","18","html-slider-response","37","755356","0.0-7.0-4.4","131","1","2025-08-06 08:51:19","36c45c0696341be0efffe67d72a12abb","105.228.23.140","Mozilla/5.0 (X11; Ubuntu; Linux x86_64; rv:141.0) Gecko/20100101 Firefox/141.0","","Firefox","141.0","Ubuntu","","https://app.prolific.com/","en-US,en;q=0.5","614de26d812e1b34acd48dfb","687a1a965b9f5b85a264363e","6893177a3ed96488f4393c80","1","614de26d812e1b34acd48dfb","1","2025-08-06T09:03:56.972Z","","","","MotivationQ","","","","","","","","","","","50","","","","","","","","","","","","","","","","","","","","","","","","","","",""
"","","","","ctl-task-cpt","38","786233","0.0-7.0-0.5","131","1","2025-08-06 08:51:19","36c45c0696341be0efffe67d72a12abb","105.228.23.140","Mozilla/5.0 (X11; Ubuntu; Linux x86_64; rv:141.0) Gecko/20100101 Firefox/141.0","","Firefox","141.0","Ubuntu","","https://app.prolific.com/","en-US,en;q=0.5","614de26d812e1b34acd48dfb","687a1a965b9f5b85a264363e","6893177a3ed96488f4393c80","1","614de26d812e1b34acd48dfb","1","2025-08-06T09:04:27.850Z","","","","","","","","","","","","","","","","win-only","0","g1:NW,g2:SE","0.5","6","0","758769","1342","6346","27877","1","4","8","6","1","-1","-1","0","1","0","1376","3000","-2795","[""left"",""up""]","{""num_key_presses"":5,""num_perfect"":2,""num_errors"":0,""num_randdir"":3,""num_randdir_good_moves"":0,""num_whilered"":0,""num_whileblue"":0,""num_blue"":1,""num_good_moves"":2}","[424.57142857142856,405.27142551967074,0,424.57142857142856,405.27142551967074,101,424.57142857142856,405.27142551967074,202,424.57142857142856,405.27142551967074,303,424.57142857142856,405.27142551967074,405,424.57142857142856,405.27142551967074,509,431.57142857142856,428.27142551967074,609,390.57142857142856,450.27142551967074,710,164.57142857142856,240.27142551967074,816,126.57142857142857,187.27142551967074,919,125.57142857142857,130.27142551967074,1021,133.57142857142856,96.27142551967076,1122,132.57142857142856,93.27142551967076,1223,132.57142857142856,93.27142551967076,1325,132.57142857142856,93.27142551967076,1425,132.57142857142856,93.27142551967076,1527,132.57142857142856,93.27142551967076,1628,132.57142857142856,93.27142551967076,1730,132.57142857142856,93.27142551967076,1832,132.57142857142856,93.27142551967076,1932,132.57142857142856,93.27142551967076,2033,132.57142857142856,93.27142551967076,2135,133.57142857142856,105.27142551967076,2235,147.57142857142856,251.27142551967074,2335,166.57142857142856,295.27142551967074,2436,166.57142857142856,295.27142551967074,2536,166.57142857142856,295.27142551967074,2638,166.57142857142856,295.27142551967074,2739,166.57142857142856,295.27142551967074,2843,166.57142857142856,295.27142551967074,2945,166.57142857142856,295.27142551967074,3046,166.57142857142856,295.27142551967074,3149,166.57142857142856,295.27142551967074,3249,166.57142857142856,295.27142551967074,3350,166.57142857142856,295.27142551967074,3451,166.57142857142856,295.27142551967074,3553,166.57142857142856,295.27142551967074,3654,166.57142857142856,295.27142551967074,3754,166.57142857142856,295.27142551967074,3857,166.57142857142856,295.27142551967074,3958,166.57142857142856,295.27142551967074,4058,166.57142857142856,295.27142551967074,4160,166.57142857142856,295.27142551967074,4262,166.57142857142856,295.27142551967074,4362,166.57142857142856,295.27142551967074,4464,166.57142857142856,295.27142551967074,4568,166.57142857142856,295.27142551967074,4669,166.57142857142856,295.27142551967074,4772,166.57142857142856,295.27142551967074,4874,166.57142857142856,295.27142551967074,4976]","[5236,5236,2721.1,2005,509.9,""smooth"",""up"",""up"",""good_move"",8812,3576,2680.9,5236,895.1,""oops"",""up"",""down"",""bad_move"",12343,3531,2960.7,8812,570.3,""smooth"",""up"",""up"",""good_move"",15642,3299,2600.8,12343,698.2,""oops"",""up"",""right"",""bad_move"",18696,3054,2548.2,15642,505.8,""oops"",""up"",""right"",""bad_move""]"
"3750","","<div style=""width:500px;"">
  <p>What determined the result of this run?</p>
  </div>","5","html-slider-response","39","789985","0.0-7.0-1.5","131","1","2025-08-06 08:51:19","36c45c0696341be0efffe67d72a12abb","105.228.23.140","Mozilla/5.0 (X11; Ubuntu; Linux x86_64; rv:141.0) Gecko/20100101 Firefox/141.0","","Firefox","141.0","Ubuntu","","https://app.prolific.com/","en-US,en;q=0.5","614de26d812e1b34acd48dfb","687a1a965b9f5b85a264363e","6893177a3ed96488f4393c80","1","614de26d812e1b34acd48dfb","1","2025-08-06T09:04:31.601Z","","","","AttribQ","","","","","","","","","","","50","","","","","","","","","","","","","","","","","","","","","","","","","","",""
"3088","","<div style=""width:500px;"">
  <p>How much control did you have over the ball?</p>
  </div>","25","html-slider-response","40","793075","0.0-7.0-2.5","131","1","2025-08-06 08:51:19","36c45c0696341be0efffe67d72a12abb","105.228.23.140","Mozilla/5.0 (X11; Ubuntu; Linux x86_64; rv:141.0) Gecko/20100101 Firefox/141.0","","Firefox","141.0","Ubuntu","","https://app.prolific.com/","en-US,en;q=0.5","614de26d812e1b34acd48dfb","687a1a965b9f5b85a264363e","6893177a3ed96488f4393c80","1","614de26d812e1b34acd48dfb","1","2025-08-06T09:04:34.691Z","","","","ControlQ","","","","","","","","","","","50","","","","","","","","","","","","","","","","","","","","","","","","","","",""
"2313","","<div style=""width:500px;"">
  <p>How would you describe your current emotional state?</p>
  </div>","24","html-slider-response","41","795390","0.0-7.0-3.5","131","1","2025-08-06 08:51:19","36c45c0696341be0efffe67d72a12abb","105.228.23.140","Mozilla/5.0 (X11; Ubuntu; Linux x86_64; rv:141.0) Gecko/20100101 Firefox/141.0","","Firefox","141.0","Ubuntu","","https://app.prolific.com/","en-US,en;q=0.5","614de26d812e1b34acd48dfb","687a1a965b9f5b85a264363e","6893177a3ed96488f4393c80","1","614de26d812e1b34acd48dfb","1","2025-08-06T09:04:37.006Z","","","","StressQ","","","","","","","","","","","50","","","","","","","","","","","","","","","","","","","","","","","","","","",""
"2244","","<div style=""width:500px;"">
  <p>What best describes how you currently feel?</p>
  </div>","19","html-slider-response","42","797636","0.0-7.0-4.5","131","1","2025-08-06 08:51:19","36c45c0696341be0efffe67d72a12abb","105.228.23.140","Mozilla/5.0 (X11; Ubuntu; Linux x86_64; rv:141.0) Gecko/20100101 Firefox/141.0","","Firefox","141.0","Ubuntu","","https://app.prolific.com/","en-US,en;q=0.5","614de26d812e1b34acd48dfb","687a1a965b9f5b85a264363e","6893177a3ed96488f4393c80","1","614de26d812e1b34acd48dfb","1","2025-08-06T09:04:39.253Z","","","","MotivationQ","","","","","","","","","","","50","","","","","","","","","","","","","","","","","","","","","","","","","","",""
"","","","","ctl-task-cpt","43","820149","0.0-7.0-0.6","131","1","2025-08-06 08:51:19","36c45c0696341be0efffe67d72a12abb","105.228.23.140","Mozilla/5.0 (X11; Ubuntu; Linux x86_64; rv:141.0) Gecko/20100101 Firefox/141.0","","Firefox","141.0","Ubuntu","","https://app.prolific.com/","en-US,en;q=0.5","614de26d812e1b34acd48dfb","687a1a965b9f5b85a264363e","6893177a3ed96488f4393c80","1","614de26d812e1b34acd48dfb","1","2025-08-06T09:05:01.765Z","","","","","","","","","","","","","","","","win-only","3","g1:SW,g2:NE","0.4","7","0","801050","1540","6544","19511","1","4","4","6","2","-4","-4","0","0","0","2081","3000","-2805","[""up"",""right""]","{""num_key_presses"":4,""num_perfect"":1,""num_errors"":0,""num_randdir"":3,""num_randdir_good_moves"":0,""num_whilered"":0,""num_whileblue"":0,""num_blue"":0,""num_good_moves"":1}","[415.57142857142856,417.27142551967074,0,415.57142857142856,417.27142551967074,101,415.57142857142856,417.27142551967074,203,415.57142857142856,417.27142551967074,303,415.57142857142856,417.27142551967074,404,415.57142857142856,417.27142551967074,506,415.57142857142856,417.27142551967074,609,415.57142857142856,417.27142551967074,709,382.57142857142856,438.27142551967074,811,265.57142857142856,513.2714255196707,914,263.57142857142856,522.2714255196707,1014,560.5714285714286,308.27142551967074,1115,686.5714285714286,175.27142551967074,1216,716.5714285714286,129.27142551967074,1317,716.5714285714286,123.27142551967076,1422,716.5714285714286,123.27142551967076,1524,778.5714285714286,57.27142551967076,1626,796.5714285714286,41.27142551967076,1727,783.5714285714286,55.27142551967076,1827,757.5714285714286,75.27142551967076,1932,757.5714285714286,75.27142551967076,2035,757.5714285714286,75.27142551967076,2137,757.5714285714286,75.27142551967076,2242,757.5714285714286,75.27142551967076,2342,757.5714285714286,75.27142551967076,2442,757.5714285714286,75.27142551967076,2544,757.5714285714286,75.27142551967076,2644,757.5714285714286,75.27142551967076,2745,757.5714285714286,75.27142551967076,2846,757.5714285714286,75.27142551967076,2949,757.5714285714286,75.27142551967076,3050,757.5714285714286,75.27142551967076,3150,757.5714285714286,75.27142551967076,3252,757.5714285714286,75.27142551967076,3352,757.5714285714286,75.27142551967076,3454,757.5714285714286,75.27142551967076,3556,757.5714285714286,75.27142551967076,3659,757.5714285714286,75.27142551967076,3760,757.5714285714286,75.27142551967076,3862,757.5714285714286,75.27142551967076,3965,757.5714285714286,75.27142551967076,4069,757.5714285714286,75.27142551967076,4171,757.5714285714286,75.27142551967076,4274,757.5714285714286,75.27142551967076,4374,757.5714285714286,75.27142551967076,4476,757.5714285714286,75.27142551967076,4577,757.5714285714286,75.27142551967076,4679,757.5714285714286,75.27142551967076,4780,757.5714285714286,75.27142551967076,4881,757.5714285714286,75.27142551967076,4983]","[1601,1601,1000,0,601,""oops"",""up"",""left"",""bad_move"",4717,3116,2179.9,1601,936.1,""smooth"",""up"",""up"",""good_move"",7596,2879,2353.9,4717,525.1,""oops"",""up"",""down"",""bad_move"",10457,2861,2150.9,7596,710.1,""oops"",""up"",""down"",""bad_move""]"
"3271","","<div style=""width:500px;"">
  <p>What determined the result of this run?</p>
  </div>","9","html-slider-response","44","823422","0.0-7.0-1.6","131","1","2025-08-06 08:51:19","36c45c0696341be0efffe67d72a12abb","105.228.23.140","Mozilla/5.0 (X11; Ubuntu; Linux x86_64; rv:141.0) Gecko/20100101 Firefox/141.0","","Firefox","141.0","Ubuntu","","https://app.prolific.com/","en-US,en;q=0.5","614de26d812e1b34acd48dfb","687a1a965b9f5b85a264363e","6893177a3ed96488f4393c80","1","614de26d812e1b34acd48dfb","1","2025-08-06T09:05:05.038Z","","","","AttribQ","","","","","","","","","","","50","","","","","","","","","","","","","","","","","","","","","","","","","","",""
"2479","","<div style=""width:500px;"">
  <p>How much control did you have over the ball?</p>
  </div>","16","html-slider-response","45","825903","0.0-7.0-2.6","131","1","2025-08-06 08:51:19","36c45c0696341be0efffe67d72a12abb","105.228.23.140","Mozilla/5.0 (X11; Ubuntu; Linux x86_64; rv:141.0) Gecko/20100101 Firefox/141.0","","Firefox","141.0","Ubuntu","","https://app.prolific.com/","en-US,en;q=0.5","614de26d812e1b34acd48dfb","687a1a965b9f5b85a264363e","6893177a3ed96488f4393c80","1","614de26d812e1b34acd48dfb","1","2025-08-06T09:05:07.519Z","","","","ControlQ","","","","","","","","","","","50","","","","","","","","","","","","","","","","","","","","","","","","","","",""
"2501","","<div style=""width:500px;"">
  <p>How would you describe your current emotional state?</p>
  </div>","16","html-slider-response","46","828405","0.0-7.0-3.6","131","1","2025-08-06 08:51:19","36c45c0696341be0efffe67d72a12abb","105.228.23.140","Mozilla/5.0 (X11; Ubuntu; Linux x86_64; rv:141.0) Gecko/20100101 Firefox/141.0","","Firefox","141.0","Ubuntu","","https://app.prolific.com/","en-US,en;q=0.5","614de26d812e1b34acd48dfb","687a1a965b9f5b85a264363e","6893177a3ed96488f4393c80","1","614de26d812e1b34acd48dfb","1","2025-08-06T09:05:10.021Z","","","","StressQ","","","","","","","","","","","50","","","","","","","","","","","","","","","","","","","","","","","","","","",""
"2210","","<div style=""width:500px;"">
  <p>What best describes how you currently feel?</p>
  </div>","20","html-slider-response","47","830616","0.0-7.0-4.6","131","1","2025-08-06 08:51:19","36c45c0696341be0efffe67d72a12abb","105.228.23.140","Mozilla/5.0 (X11; Ubuntu; Linux x86_64; rv:141.0) Gecko/20100101 Firefox/141.0","","Firefox","141.0","Ubuntu","","https://app.prolific.com/","en-US,en;q=0.5","614de26d812e1b34acd48dfb","687a1a965b9f5b85a264363e","6893177a3ed96488f4393c80","1","614de26d812e1b34acd48dfb","1","2025-08-06T09:05:12.232Z","","","","MotivationQ","","","","","","","","","","","50","","","","","","","","","","","","","","","","","","","","","","","","","","",""
"","","","","ctl-task-cpt","48","859635","0.0-7.0-0.7","131","1","2025-08-06 08:51:19","36c45c0696341be0efffe67d72a12abb","105.228.23.140","Mozilla/5.0 (X11; Ubuntu; Linux x86_64; rv:141.0) Gecko/20100101 Firefox/141.0","","Firefox","141.0","Ubuntu","","https://app.prolific.com/","en-US,en;q=0.5","614de26d812e1b34acd48dfb","687a1a965b9f5b85a264363e","6893177a3ed96488f4393c80","1","614de26d812e1b34acd48dfb","1","2025-08-06T09:05:41.251Z","","","","","","","","","","","","","","","","win-only","1","g1:NE,g2:SW","0.3","8","0","834030","1162","6166","26016","1","4","8","6","2","-8","-8","0","0","0","1263","3000","-2815","[""down"",""left""]","{""num_key_presses"":5,""num_perfect"":1,""num_errors"":0,""num_randdir"":4,""num_randdir_good_moves"":3,""num_whilered"":0,""num_whileblue"":0,""num_blue"":1,""num_good_moves"":4}","[409.57142857142856,417.27142551967074,0,409.57142857142856,417.27142551967074,103,409.57142857142856,417.27142551967074,205,409.57142857142856,417.27142551967074,305,409.57142857142856,417.27142551967074,409,409.57142857142856,417.27142551967074,509,409.57142857142856,417.27142551967074,609,161.57142857142856,619.2714255196707,710,130.57142857142856,659.2714255196707,810,121.57142857142857,676.2714255196707,915,87.57142857142857,719.2714255196707,1019,77.57142857142857,733.2714255196707,1124,77.57142857142857,733.2714255196707,1226,77.57142857142857,733.2714255196707,1327,77.57142857142857,733.2714255196707,1428,77.57142857142857,733.2714255196707,1528,77.57142857142857,733.2714255196707,1630,77.57142857142857,733.2714255196707,1731,77.57142857142857,733.2714255196707,1832,77.57142857142857,733.2714255196707,1933,77.57142857142857,733.2714255196707,2034,77.57142857142857,733.2714255196707,2135,77.57142857142857,733.2714255196707,2238,77.57142857142857,733.2714255196707,2338,77.57142857142857,733.2714255196707,2442,77.57142857142857,733.2714255196707,2542,77.57142857142857,733.2714255196707,2644,77.57142857142857,733.2714255196707,2745,77.57142857142857,733.2714255196707,2846,77.57142857142857,733.2714255196707,2947,77.57142857142857,733.2714255196707,3048,77.57142857142857,733.2714255196707,3149,77.57142857142857,733.2714255196707,3252,77.57142857142857,733.2714255196707,3353,77.57142857142857,733.2714255196707,3453,77.57142857142857,733.2714255196707,3553,77.57142857142857,733.2714255196707,3654,77.57142857142857,733.2714255196707,3757,77.57142857142857,733.2714255196707,3858,77.57142857142857,733.2714255196707,3961,77.57142857142857,733.2714255196707,4064,77.57142857142857,733.2714255196707,4165,77.57142857142857,733.2714255196707,4267,77.57142857142857,733.2714255196707,4369,77.57142857142857,733.2714255196707,4469,77.57142857142857,733.2714255196707,4571,77.57142857142857,733.2714255196707,4673,77.57142857142857,733.2714255196707,4774,77.57142857142857,733.2714255196707,4877,77.57142857142857,733.2714255196707,4977]","[4879,4879,2033.3,2002,843.7,""oops"",""left"",""down"",""good_move"",7792,2913,2358.4,4879,554.6,""oops"",""left"",""left"",""good_move"",11254,3462,3092.5,7792,369.5,""oops"",""left"",""right"",""bad_move"",14235,2981,2328.1,11254,652.9,""oops"",""left"",""down"",""good_move"",16875,2640,2027.3,14235,612.7,""smooth"",""left"",""left"",""good_move""]"
"3050","","<div style=""width:500px;"">
  <p>What determined the result of this run?</p>
  </div>","10","html-slider-response","49","862687","0.0-7.0-1.7","131","1","2025-08-06 08:51:19","36c45c0696341be0efffe67d72a12abb","105.228.23.140","Mozilla/5.0 (X11; Ubuntu; Linux x86_64; rv:141.0) Gecko/20100101 Firefox/141.0","","Firefox","141.0","Ubuntu","","https://app.prolific.com/","en-US,en;q=0.5","614de26d812e1b34acd48dfb","687a1a965b9f5b85a264363e","6893177a3ed96488f4393c80","1","614de26d812e1b34acd48dfb","1","2025-08-06T09:05:44.304Z","","","","AttribQ","","","","","","","","","","","50","","","","","","","","","","","","","","","","","","","","","","","","","","",""
"3199","","<div style=""width:500px;"">
  <p>How much control did you have over the ball?</p>
  </div>","23","html-slider-response","50","865888","0.0-7.0-2.7","131","1","2025-08-06 08:51:19","36c45c0696341be0efffe67d72a12abb","105.228.23.140","Mozilla/5.0 (X11; Ubuntu; Linux x86_64; rv:141.0) Gecko/20100101 Firefox/141.0","","Firefox","141.0","Ubuntu","","https://app.prolific.com/","en-US,en;q=0.5","614de26d812e1b34acd48dfb","687a1a965b9f5b85a264363e","6893177a3ed96488f4393c80","1","614de26d812e1b34acd48dfb","1","2025-08-06T09:05:47.504Z","","","","ControlQ","","","","","","","","","","","50","","","","","","","","","","","","","","","","","","","","","","","","","","",""
"2527","","<div style=""width:500px;"">
  <p>How would you describe your current emotional state?</p>
  </div>","20","html-slider-response","51","868417","0.0-7.0-3.7","131","1","2025-08-06 08:51:19","36c45c0696341be0efffe67d72a12abb","105.228.23.140","Mozilla/5.0 (X11; Ubuntu; Linux x86_64; rv:141.0) Gecko/20100101 Firefox/141.0","","Firefox","141.0","Ubuntu","","https://app.prolific.com/","en-US,en;q=0.5","614de26d812e1b34acd48dfb","687a1a965b9f5b85a264363e","6893177a3ed96488f4393c80","1","614de26d812e1b34acd48dfb","1","2025-08-06T09:05:50.033Z","","","","StressQ","","","","","","","","","","","50","","","","","","","","","","","","","","","","","","","","","","","","","","",""
"3047","","<div style=""width:500px;"">
  <p>What best describes how you currently feel?</p>
  </div>","19","html-slider-response","52","871466","0.0-7.0-4.7","131","1","2025-08-06 08:51:19","36c45c0696341be0efffe67d72a12abb","105.228.23.140","Mozilla/5.0 (X11; Ubuntu; Linux x86_64; rv:141.0) Gecko/20100101 Firefox/141.0","","Firefox","141.0","Ubuntu","","https://app.prolific.com/","en-US,en;q=0.5","614de26d812e1b34acd48dfb","687a1a965b9f5b85a264363e","6893177a3ed96488f4393c80","1","614de26d812e1b34acd48dfb","1","2025-08-06T09:05:53.082Z","","","","MotivationQ","","","","","","","","","","","50","","","","","","","","","","","","","","","","","","","","","","","","","","",""
"","","","","ctl-task-cpt","53","897794","0.0-7.0-0.8","131","1","2025-08-06 08:51:19","36c45c0696341be0efffe67d72a12abb","105.228.23.140","Mozilla/5.0 (X11; Ubuntu; Linux x86_64; rv:141.0) Gecko/20100101 Firefox/141.0","","Firefox","141.0","Ubuntu","","https://app.prolific.com/","en-US,en;q=0.5","614de26d812e1b34acd48dfb","687a1a965b9f5b85a264363e","6893177a3ed96488f4393c80","1","614de26d812e1b34acd48dfb","1","2025-08-06T09:06:19.410Z","","","","","","","","","","","","","","","","win-only","1","g1:NE,g2:SW","0.4","9","0","874880","1146","6147","23325","1","4","8","6","1","-1","-1","0","0","0","1188","3000","-2810","[""up"",""right""]","{""num_key_presses"":5,""num_perfect"":2,""num_errors"":0,""num_randdir"":3,""num_randdir_good_moves"":1,""num_whilered"":0,""num_whileblue"":0,""num_blue"":0,""num_good_moves"":3}","[417.57142857142856,415.27142551967074,0,417.57142857142856,415.27142551967074,103,417.57142857142856,415.27142551967074,204,417.57142857142856,415.27142551967074,310,417.57142857142856,415.27142551967074,413,417.57142857142856,415.27142551967074,513,627.5714285714286,218.27142551967074,613,680.5714285714286,167.27142551967074,714,718.5714285714286,115.27142551967076,814,726.5714285714286,107.27142551967076,914,733.5714285714286,101.27142551967076,1015,733.5714285714286,101.27142551967076,1115,733.5714285714286,101.27142551967076,1217,733.5714285714286,101.27142551967076,1317,733.5714285714286,101.27142551967076,1417,733.5714285714286,101.27142551967076,1519,733.5714285714286,101.27142551967076,1620,733.5714285714286,101.27142551967076,1721,733.5714285714286,101.27142551967076,1823,733.5714285714286,101.27142551967076,1924,733.5714285714286,101.27142551967076,2025,733.5714285714286,101.27142551967076,2126,733.5714285714286,101.27142551967076,2227,733.5714285714286,101.27142551967076,2329,733.5714285714286,101.27142551967076,2430,733.5714285714286,101.27142551967076,2532,733.5714285714286,101.27142551967076,2637,733.5714285714286,101.27142551967076,2740,733.5714285714286,101.27142551967076,2842,733.5714285714286,101.27142551967076,2945,733.5714285714286,101.27142551967076,3048,733.5714285714286,101.27142551967076,3151,733.5714285714286,101.27142551967076,3254,733.5714285714286,101.27142551967076,3355,733.5714285714286,101.27142551967076,3456,733.5714285714286,101.27142551967076,3559,733.5714285714286,101.27142551967076,3661,733.5714285714286,101.27142551967076,3763,733.5714285714286,101.27142551967076,3863,733.5714285714286,101.27142551967076,3965,733.5714285714286,101.27142551967076,4069,733.5714285714286,101.27142551967076,4169,733.5714285714286,101.27142551967076,4270,733.5714285714286,101.27142551967076,4375,733.5714285714286,101.27142551967076,4477,733.5714285714286,101.27142551967076,4578,733.5714285714286,101.27142551967076,4679,733.5714285714286,101.27142551967076,4781,733.5714285714286,101.27142551967076,4883,733.5714285714286,101.27142551967076,4985]","[1671,1671,1000,0,671,""oops"",""up"",""down"",""bad_move"",5106,3435,2810.5,1671,624.5,""smooth"",""right"",""right"",""good_move"",7610,2504,1823.2,5106,680.8,""oops"",""right"",""up"",""good_move"",11166,3556,3143.4,7610,412.6,""smooth"",""up"",""up"",""good_move"",14248,3082,2613.8,11166,468.2,""oops"",""right"",""left"",""bad_move""]"
"3153","","<div style=""width:500px;"">
  <p>What determined the result of this run?</p>
  </div>","5","html-slider-response","54","900950","0.0-7.0-1.8","131","1","2025-08-06 08:51:19","36c45c0696341be0efffe67d72a12abb","105.228.23.140","Mozilla/5.0 (X11; Ubuntu; Linux x86_64; rv:141.0) Gecko/20100101 Firefox/141.0","","Firefox","141.0","Ubuntu","","https://app.prolific.com/","en-US,en;q=0.5","614de26d812e1b34acd48dfb","687a1a965b9f5b85a264363e","6893177a3ed96488f4393c80","1","614de26d812e1b34acd48dfb","1","2025-08-06T09:06:22.566Z","","","","AttribQ","","","","","","","","","","","50","","","","","","","","","","","","","","","","","","","","","","","","","","",""
"2120","","<div style=""width:500px;"">
  <p>How much control did you have over the ball?</p>
  </div>","20","html-slider-response","55","903072","0.0-7.0-2.8","131","1","2025-08-06 08:51:19","36c45c0696341be0efffe67d72a12abb","105.228.23.140","Mozilla/5.0 (X11; Ubuntu; Linux x86_64; rv:141.0) Gecko/20100101 Firefox/141.0","","Firefox","141.0","Ubuntu","","https://app.prolific.com/","en-US,en;q=0.5","614de26d812e1b34acd48dfb","687a1a965b9f5b85a264363e","6893177a3ed96488f4393c80","1","614de26d812e1b34acd48dfb","1","2025-08-06T09:06:24.688Z","","","","ControlQ","","","","","","","","","","","50","","","","","","","","","","","","","","","","","","","","","","","","","","",""
"2223","","<div style=""width:500px;"">
  <p>How would you describe your current emotional state?</p>
  </div>","11","html-slider-response","56","905297","0.0-7.0-3.8","131","1","2025-08-06 08:51:19","36c45c0696341be0efffe67d72a12abb","105.228.23.140","Mozilla/5.0 (X11; Ubuntu; Linux x86_64; rv:141.0) Gecko/20100101 Firefox/141.0","","Firefox","141.0","Ubuntu","","https://app.prolific.com/","en-US,en;q=0.5","614de26d812e1b34acd48dfb","687a1a965b9f5b85a264363e","6893177a3ed96488f4393c80","1","614de26d812e1b34acd48dfb","1","2025-08-06T09:06:26.913Z","","","","StressQ","","","","","","","","","","","50","","","","","","","","","","","","","","","","","","","","","","","","","","",""
"2329","","<div style=""width:500px;"">
  <p>What best describes how you currently feel?</p>
  </div>","15","html-slider-response","57","907625","0.0-7.0-4.8","131","1","2025-08-06 08:51:19","36c45c0696341be0efffe67d72a12abb","105.228.23.140","Mozilla/5.0 (X11; Ubuntu; Linux x86_64; rv:141.0) Gecko/20100101 Firefox/141.0","","Firefox","141.0","Ubuntu","","https://app.prolific.com/","en-US,en;q=0.5","614de26d812e1b34acd48dfb","687a1a965b9f5b85a264363e","6893177a3ed96488f4393c80","1","614de26d812e1b34acd48dfb","1","2025-08-06T09:06:29.241Z","","","","MotivationQ","","","","","","","","","","","50","","","","","","","","","","","","","","","","","","","","","","","","","","",""
"","","","","ctl-task-cpt","58","939017","0.0-7.0-0.9","131","1","2025-08-06 08:51:19","36c45c0696341be0efffe67d72a12abb","105.228.23.140","Mozilla/5.0 (X11; Ubuntu; Linux x86_64; rv:141.0) Gecko/20100101 Firefox/141.0","","Firefox","141.0","Ubuntu","","https://app.prolific.com/","en-US,en;q=0.5","614de26d812e1b34acd48dfb","687a1a965b9f5b85a264363e","6893177a3ed96488f4393c80","1","614de26d812e1b34acd48dfb","1","2025-08-06T09:07:00.633Z","","","","","","","","","","","","","","","","win-only","2","g1:SE,g2:NW","0.5","10","0","911039","1250","6251","28390","1","4","4","6","2","-4","-4","0","0","0","1632","3000","-2805","[""left"",""up""]","{""num_key_presses"":4,""num_perfect"":1,""num_errors"":0,""num_randdir"":3,""num_randdir_good_moves"":2,""num_whilered"":0,""num_whileblue"":0,""num_blue"":2,""num_good_moves"":3}","[410.57142857142856,417.27142551967074,0,410.57142857142856,417.27142551967074,103,410.57142857142856,417.27142551967074,205,410.57142857142856,417.27142551967074,305,410.57142857142856,417.27142551967074,406,410.57142857142856,417.27142551967074,508,410.57142857142856,417.27142551967074,608,410.57142857142856,417.27142551967074,709,410.57142857142856,417.27142551967074,810,410.57142857142856,417.27142551967074,911,356.57142857142856,366.27142551967074,1015,124.57142857142857,129.27142551967074,1116,97.57142857142857,96.27142551967076,1216,73.57142857142857,72.27142551967076,1317,70.57142857142857,66.27142551967076,1417,70.57142857142857,66.27142551967076,1519,70.57142857142857,66.27142551967076,1620,70.57142857142857,66.27142551967076,1723,70.57142857142857,66.27142551967076,1828,70.57142857142857,66.27142551967076,1928,70.57142857142857,66.27142551967076,2029,110.57142857142857,111.27142551967076,2132,229.57142857142856,316.27142551967074,2234,281.57142857142856,407.27142551967074,2339,286.57142857142856,419.27142551967074,2441,286.57142857142856,419.27142551967074,2542,286.57142857142856,419.27142551967074,2644,286.57142857142856,419.27142551967074,2744,286.57142857142856,419.27142551967074,2845,286.57142857142856,419.27142551967074,2947,286.57142857142856,419.27142551967074,3051,286.57142857142856,419.27142551967074,3153,286.57142857142856,419.27142551967074,3253,286.57142857142856,419.27142551967074,3353,286.57142857142856,419.27142551967074,3455,286.57142857142856,419.27142551967074,3556,286.57142857142856,419.27142551967074,3658,286.57142857142856,419.27142551967074,3758,286.57142857142856,419.27142551967074,3861,286.57142857142856,419.27142551967074,3961,286.57142857142856,419.27142551967074,4061,286.57142857142856,419.27142551967074,4165,286.57142857142856,419.27142551967074,4267,286.57142857142856,419.27142551967074,4368,286.57142857142856,419.27142551967074,4471,286.57142857142856,419.27142551967074,4571,286.57142857142856,419.27142551967074,4672,286.57142857142856,419.27142551967074,4773,286.57142857142856,419.27142551967074,4874,286.57142857142856,419.27142551967074,4975]","[1963,1963,1000,0,963,""oops"",""up"",""left"",""good_move"",5769,3806,3157.4,1963,648.6,""smooth"",""up"",""up"",""good_move"",15956,10186,1870.7,13365,720.3,""oops"",""up"",""down"",""bad_move"",19176,3220,2516.6,15956,703.4,""oops"",""up"",""up"",""good_move""]"
"3276","","<div style=""width:500px;"">
  <p>What determined the result of this run?</p>
  </div>","5","html-slider-response","59","942295","0.0-7.0-1.9","131","1","2025-08-06 08:51:19","36c45c0696341be0efffe67d72a12abb","105.228.23.140","Mozilla/5.0 (X11; Ubuntu; Linux x86_64; rv:141.0) Gecko/20100101 Firefox/141.0","","Firefox","141.0","Ubuntu","","https://app.prolific.com/","en-US,en;q=0.5","614de26d812e1b34acd48dfb","687a1a965b9f5b85a264363e","6893177a3ed96488f4393c80","1","614de26d812e1b34acd48dfb","1","2025-08-06T09:07:03.911Z","","","","AttribQ","","","","","","","","","","","50","","","","","","","","","","","","","","","","","","","","","","","","","","",""
"5176","","<div style=""width:500px;"">
  <p>How much control did you have over the ball?</p>
  </div>","24","html-slider-response","60","947472","0.0-7.0-2.9","131","1","2025-08-06 08:51:19","36c45c0696341be0efffe67d72a12abb","105.228.23.140","Mozilla/5.0 (X11; Ubuntu; Linux x86_64; rv:141.0) Gecko/20100101 Firefox/141.0","","Firefox","141.0","Ubuntu","","https://app.prolific.com/","en-US,en;q=0.5","614de26d812e1b34acd48dfb","687a1a965b9f5b85a264363e","6893177a3ed96488f4393c80","1","614de26d812e1b34acd48dfb","1","2025-08-06T09:07:09.089Z","","","","ControlQ","","","","","","","","","","","50","","","","","","","","","","","","","","","","","","","","","","","","","","",""
"5480","","<div style=""width:500px;"">
  <p>How would you describe your current emotional state?</p>
  </div>","86","html-slider-response","61","952954","0.0-7.0-3.9","131","1","2025-08-06 08:51:19","36c45c0696341be0efffe67d72a12abb","105.228.23.140","Mozilla/5.0 (X11; Ubuntu; Linux x86_64; rv:141.0) Gecko/20100101 Firefox/141.0","","Firefox","141.0","Ubuntu","","https://app.prolific.com/","en-US,en;q=0.5","614de26d812e1b34acd48dfb","687a1a965b9f5b85a264363e","6893177a3ed96488f4393c80","1","614de26d812e1b34acd48dfb","1","2025-08-06T09:07:14.570Z","","","","StressQ","","","","","","","","","","","50","","","","","","","","","","","","","","","","","","","","","","","","","","",""
"3510","","<div style=""width:500px;"">
  <p>What best describes how you currently feel?</p>
  </div>","82","html-slider-response","62","956466","0.0-7.0-4.9","131","1","2025-08-06 08:51:19","36c45c0696341be0efffe67d72a12abb","105.228.23.140","Mozilla/5.0 (X11; Ubuntu; Linux x86_64; rv:141.0) Gecko/20100101 Firefox/141.0","","Firefox","141.0","Ubuntu","","https://app.prolific.com/","en-US,en;q=0.5","614de26d812e1b34acd48dfb","687a1a965b9f5b85a264363e","6893177a3ed96488f4393c80","1","614de26d812e1b34acd48dfb","1","2025-08-06T09:07:18.082Z","","","","MotivationQ","","","","","","","","","","","50","","","","","","","","","","","","","","","","","","","","","","","","","","",""
"","","","","ctl-task-cpt","63","980571","0.0-7.0-0.10","131","1","2025-08-06 08:51:19","36c45c0696341be0efffe67d72a12abb","105.228.23.140","Mozilla/5.0 (X11; Ubuntu; Linux x86_64; rv:141.0) Gecko/20100101 Firefox/141.0","","Firefox","141.0","Ubuntu","","https://app.prolific.com/","en-US,en;q=0.5","614de26d812e1b34acd48dfb","687a1a965b9f5b85a264363e","6893177a3ed96488f4393c80","1","614de26d812e1b34acd48dfb","1","2025-08-06T09:07:42.188Z","","","","","","","","","","","","","","","","win-only","2","g1:SE,g2:NW","0.6","11","0","959882","1345","6347","21101","1","4","4","6","2","-4","-4","0","0","0","1263","3000","-2810","[""left"",""up""]","{""num_key_presses"":5,""num_perfect"":5,""num_errors"":0,""num_randdir"":0,""num_randdir_good_moves"":0,""num_whilered"":0,""num_whileblue"":0,""num_blue"":0,""num_good_moves"":5}","[419.57142857142856,418.27142551967074,0,419.57142857142856,418.27142551967074,102,419.57142857142856,418.27142551967074,203,419.57142857142856,418.27142551967074,304,419.57142857142856,418.27142551967074,405,419.57142857142856,418.27142551967074,506,204.57142857142856,177.27142551967074,607,197.57142857142856,140.27142551967074,709,197.57142857142856,140.27142551967074,811,127.57142857142857,103.27142551967076,911,78.57142857142857,78.27142551967076,1012,77.57142857142857,77.27142551967076,1117,77.57142857142857,77.27142551967076,1221,77.57142857142857,77.27142551967076,1321,77.57142857142857,77.27142551967076,1423,77.57142857142857,77.27142551967076,1525,77.57142857142857,77.27142551967076,1627,77.57142857142857,77.27142551967076,1729,266.57142857142856,338.27142551967074,1834,333.57142857142856,435.27142551967074,1937,333.57142857142856,435.27142551967074,2041,333.57142857142856,435.27142551967074,2142,333.57142857142856,435.27142551967074,2243,333.57142857142856,435.27142551967074,2344,333.57142857142856,435.27142551967074,2446,333.57142857142856,435.27142551967074,2547,333.57142857142856,435.27142551967074,2648,333.57142857142856,435.27142551967074,2749,333.57142857142856,435.27142551967074,2852,333.57142857142856,435.27142551967074,2954,333.57142857142856,435.27142551967074,3059,333.57142857142856,435.27142551967074,3161,333.57142857142856,435.27142551967074,3264,333.57142857142856,435.27142551967074,3368,333.57142857142856,435.27142551967074,3473,333.57142857142856,435.27142551967074,3574,333.57142857142856,435.27142551967074,3674,333.57142857142856,435.27142551967074,3776,333.57142857142856,435.27142551967074,3876,333.57142857142856,435.27142551967074,3977,333.57142857142856,435.27142551967074,4082,333.57142857142856,435.27142551967074,4184,333.57142857142856,435.27142551967074,4287,333.57142857142856,435.27142551967074,4389,333.57142857142856,435.27142551967074,4490,333.57142857142856,435.27142551967074,4590,333.57142857142856,435.27142551967074,4690,333.57142857142856,435.27142551967074,4795,333.57142857142856,435.27142551967074,4895,333.57142857142856,435.27142551967074,4996]","[2016,2016,1000,0,1016,""smooth"",""left"",""left"",""good_move"",4765,2749,2065.1,2016,683.9,""smooth"",""up"",""up"",""good_move"",7365,2600,2085.8,4765,514.2,""smooth"",""up"",""up"",""good_move"",10041,2676,2275.2,7365,400.8,""smooth"",""left"",""left"",""good_move"",12620,2579,2128.5,10041,450.5,""smooth"",""up"",""up"",""good_move""]"
"2993","","<div style=""width:500px;"">
  <p>What determined the result of this run?</p>
  </div>","26","html-slider-response","64","983566","0.0-7.0-1.10","131","1","2025-08-06 08:51:19","36c45c0696341be0efffe67d72a12abb","105.228.23.140","Mozilla/5.0 (X11; Ubuntu; Linux x86_64; rv:141.0) Gecko/20100101 Firefox/141.0","","Firefox","141.0","Ubuntu","","https://app.prolific.com/","en-US,en;q=0.5","614de26d812e1b34acd48dfb","687a1a965b9f5b85a264363e","6893177a3ed96488f4393c80","1","614de26d812e1b34acd48dfb","1","2025-08-06T09:07:45.182Z","","","","AttribQ","","","","","","","","","","","50","","","","","","","","","","","","","","","","","","","","","","","","","","",""
"3178","","<div style=""width:500px;"">
  <p>How much control did you have over the ball?</p>
  </div>","81","html-slider-response","65","986745","0.0-7.0-2.10","131","1","2025-08-06 08:51:19","36c45c0696341be0efffe67d72a12abb","105.228.23.140","Mozilla/5.0 (X11; Ubuntu; Linux x86_64; rv:141.0) Gecko/20100101 Firefox/141.0","","Firefox","141.0","Ubuntu","","https://app.prolific.com/","en-US,en;q=0.5","614de26d812e1b34acd48dfb","687a1a965b9f5b85a264363e","6893177a3ed96488f4393c80","1","614de26d812e1b34acd48dfb","1","2025-08-06T09:07:48.361Z","","","","ControlQ","","","","","","","","","","","50","","","","","","","","","","","","","","","","","","","","","","","","","","",""
"2875","","<div style=""width:500px;"">
  <p>How would you describe your current emotional state?</p>
  </div>","82","html-slider-response","66","989620","0.0-7.0-3.10","131","1","2025-08-06 08:51:19","36c45c0696341be0efffe67d72a12abb","105.228.23.140","Mozilla/5.0 (X11; Ubuntu; Linux x86_64; rv:141.0) Gecko/20100101 Firefox/141.0","","Firefox","141.0","Ubuntu","","https://app.prolific.com/","en-US,en;q=0.5","614de26d812e1b34acd48dfb","687a1a965b9f5b85a264363e","6893177a3ed96488f4393c80","1","614de26d812e1b34acd48dfb","1","2025-08-06T09:07:51.236Z","","","","StressQ","","","","","","","","","","","50","","","","","","","","","","","","","","","","","","","","","","","","","","",""
"2605","","<div style=""width:500px;"">
  <p>What best describes how you currently feel?</p>
  </div>","83","html-slider-response","67","992227","0.0-7.0-4.10","131","1","2025-08-06 08:51:19","36c45c0696341be0efffe67d72a12abb","105.228.23.140","Mozilla/5.0 (X11; Ubuntu; Linux x86_64; rv:141.0) Gecko/20100101 Firefox/141.0","","Firefox","141.0","Ubuntu","","https://app.prolific.com/","en-US,en;q=0.5","614de26d812e1b34acd48dfb","687a1a965b9f5b85a264363e","6893177a3ed96488f4393c80","1","614de26d812e1b34acd48dfb","1","2025-08-06T09:07:53.844Z","","","","MotivationQ","","","","","","","","","","","50","","","","","","","","","","","","","","","","","","","","","","","","","","",""
"","","","","ctl-task-cpt","68","1024602","0.0-7.0-0.11","131","1","2025-08-06 08:51:19","36c45c0696341be0efffe67d72a12abb","105.228.23.140","Mozilla/5.0 (X11; Ubuntu; Linux x86_64; rv:141.0) Gecko/20100101 Firefox/141.0","","Firefox","141.0","Ubuntu","","https://app.prolific.com/","en-US,en;q=0.5","614de26d812e1b34acd48dfb","687a1a965b9f5b85a264363e","6893177a3ed96488f4393c80","1","614de26d812e1b34acd48dfb","1","2025-08-06T09:08:26.218Z","","","","","","","","","","","","","","","","win-only","2","g1:SE,g2:NW","0.7","12","0","995642","1220","6227","29372","1","4","8","6","2","-8","-8","0","0","0","1301","3000","-2800","[""left"",""up""]","{""num_key_presses"":5,""num_perfect"":4,""num_errors"":0,""num_randdir"":1,""num_randdir_good_moves"":1,""num_whilered"":0,""num_whileblue"":0,""num_blue"":2,""num_good_moves"":5}","[410.57142857142856,405.27142551967074,1,410.57142857142856,405.27142551967074,102,410.57142857142856,405.27142551967074,203,410.57142857142856,405.27142551967074,304,410.57142857142856,405.27142551967074,406,410.57142857142856,405.27142551967074,507,410.57142857142856,405.27142551967074,607,336.57142857142856,329.27142551967074,708,146.57142857142856,101.27142551967076,808,133.57142857142856,95.27142551967076,911,89.57142857142857,87.27142551967076,1016,87.57142857142857,86.27142551967076,1118,87.57142857142857,86.27142551967076,1218,87.57142857142857,86.27142551967076,1324,87.57142857142857,86.27142551967076,1430,87.57142857142857,86.27142551967076,1530,87.57142857142857,86.27142551967076,1631,87.57142857142857,86.27142551967076,1734,169.57142857142856,210.27142551967074,1834,249.57142857142856,285.27142551967074,1934,249.57142857142856,285.27142551967074,2038,249.57142857142856,285.27142551967074,2143,249.57142857142856,285.27142551967074,2243,249.57142857142856,285.27142551967074,2344,249.57142857142856,285.27142551967074,2445,249.57142857142856,285.27142551967074,2546,249.57142857142856,285.27142551967074,2647,249.57142857142856,285.27142551967074,2747,249.57142857142856,285.27142551967074,2852,249.57142857142856,285.27142551967074,2955,249.57142857142856,285.27142551967074,3056,249.57142857142856,285.27142551967074,3158,249.57142857142856,285.27142551967074,3258,249.57142857142856,285.27142551967074,3359,249.57142857142856,285.27142551967074,3461,249.57142857142856,285.27142551967074,3561,249.57142857142856,285.27142551967074,3663,249.57142857142856,285.27142551967074,3763,249.57142857142856,285.27142551967074,3865,249.57142857142856,285.27142551967074,3967,249.57142857142856,285.27142551967074,4067,249.57142857142856,285.27142551967074,4168,249.57142857142856,285.27142551967074,4271,249.57142857142856,285.27142551967074,4371,249.57142857142856,285.27142551967074,4471,249.57142857142856,285.27142551967074,4572,249.57142857142856,285.27142551967074,4672,249.57142857142856,285.27142551967074,4773,249.57142857142856,285.27142551967074,4873,249.57142857142856,285.27142551967074,4974]","[1548,1548,1000,0,548,""smooth"",""left"",""left"",""good_move"",7774,6226,2559.2,4771,443.8,""smooth"",""up"",""up"",""good_move"",10173,2399,1684,7774,715,""smooth"",""left"",""left"",""good_move"",13482,3309,2663.1,10173,645.9,""oops"",""up"",""left"",""good_move"",16609,3127,2656.4,13482,470.6,""smooth"",""up"",""up"",""good_move""]"
"2991","","<div style=""width:500px;"">
  <p>What determined the result of this run?</p>
  </div>","12","html-slider-response","69","1027593","0.0-7.0-1.11","131","1","2025-08-06 08:51:19","36c45c0696341be0efffe67d72a12abb","105.228.23.140","Mozilla/5.0 (X11; Ubuntu; Linux x86_64; rv:141.0) Gecko/20100101 Firefox/141.0","","Firefox","141.0","Ubuntu","","https://app.prolific.com/","en-US,en;q=0.5","614de26d812e1b34acd48dfb","687a1a965b9f5b85a264363e","6893177a3ed96488f4393c80","1","614de26d812e1b34acd48dfb","1","2025-08-06T09:08:29.209Z","","","","AttribQ","","","","","","","","","","","50","","","","","","","","","","","","","","","","","","","","","","","","","","",""
"3316","","<div style=""width:500px;"">
  <p>How much control did you have over the ball?</p>
  </div>","34","html-slider-response","70","1030912","0.0-7.0-2.11","131","1","2025-08-06 08:51:19","36c45c0696341be0efffe67d72a12abb","105.228.23.140","Mozilla/5.0 (X11; Ubuntu; Linux x86_64; rv:141.0) Gecko/20100101 Firefox/141.0","","Firefox","141.0","Ubuntu","","https://app.prolific.com/","en-US,en;q=0.5","614de26d812e1b34acd48dfb","687a1a965b9f5b85a264363e","6893177a3ed96488f4393c80","1","614de26d812e1b34acd48dfb","1","2025-08-06T09:08:32.528Z","","","","ControlQ","","","","","","","","","","","50","","","","","","","","","","","","","","","","","","","","","","","","","","",""
"2669","","<div style=""width:500px;"">
  <p>How would you describe your current emotional state?</p>
  </div>","83","html-slider-response","71","1033586","0.0-7.0-3.11","131","1","2025-08-06 08:51:19","36c45c0696341be0efffe67d72a12abb","105.228.23.140","Mozilla/5.0 (X11; Ubuntu; Linux x86_64; rv:141.0) Gecko/20100101 Firefox/141.0","","Firefox","141.0","Ubuntu","","https://app.prolific.com/","en-US,en;q=0.5","614de26d812e1b34acd48dfb","687a1a965b9f5b85a264363e","6893177a3ed96488f4393c80","1","614de26d812e1b34acd48dfb","1","2025-08-06T09:08:35.203Z","","","","StressQ","","","","","","","","","","","50","","","","","","","","","","","","","","","","","","","","","","","","","","",""
"2369","","<div style=""width:500px;"">
  <p>What best describes how you currently feel?</p>
  </div>","85","html-slider-response","72","1035958","0.0-7.0-4.11","131","1","2025-08-06 08:51:19","36c45c0696341be0efffe67d72a12abb","105.228.23.140","Mozilla/5.0 (X11; Ubuntu; Linux x86_64; rv:141.0) Gecko/20100101 Firefox/141.0","","Firefox","141.0","Ubuntu","","https://app.prolific.com/","en-US,en;q=0.5","614de26d812e1b34acd48dfb","687a1a965b9f5b85a264363e","6893177a3ed96488f4393c80","1","614de26d812e1b34acd48dfb","1","2025-08-06T09:08:37.574Z","","","","MotivationQ","","","","","","","","","","","50","","","","","","","","","","","","","","","","","","","","","","","","","","",""
"","","","","ctl-task-cpt","73","1072520","0.0-7.0-0.12","131","1","2025-08-06 08:51:19","36c45c0696341be0efffe67d72a12abb","105.228.23.140","Mozilla/5.0 (X11; Ubuntu; Linux x86_64; rv:141.0) Gecko/20100101 Firefox/141.0","","Firefox","141.0","Ubuntu","","https://app.prolific.com/","en-US,en;q=0.5","614de26d812e1b34acd48dfb","687a1a965b9f5b85a264363e","6893177a3ed96488f4393c80","1","614de26d812e1b34acd48dfb","1","2025-08-06T09:09:14.137Z","","","","","","","","","","","","","","","","win-only","1","g1:NE,g2:SW","0.8","13","0","1039374","2699","7705","33558","1","4","4","6","2","-4","-4","0","0","0","1354","3000","-2810","[""down"",""left""]","{""num_key_presses"":5,""num_perfect"":5,""num_errors"":0,""num_randdir"":0,""num_randdir_good_moves"":0,""num_whilered"":0,""num_whileblue"":0,""num_blue"":2,""num_good_moves"":5}","[414.57142857142856,409.27142551967074,0,414.57142857142856,409.27142551967074,104,414.57142857142856,409.27142551967074,204,414.57142857142856,409.27142551967074,309,414.57142857142856,409.27142551967074,411,414.57142857142856,409.27142551967074,512,414.57142857142856,409.27142551967074,616,415.57142857142856,431.27142551967074,717,149.57142857142856,686.2714255196707,818,92.57142857142857,765.2714255196707,922,44.57142857142857,804.2714255196707,1024,41.57142857142857,804.2714255196707,1125,41.57142857142857,804.2714255196707,1225,41.57142857142857,804.2714255196707,1325,41.57142857142857,804.2714255196707,1426,41.57142857142857,804.2714255196707,1526,41.57142857142857,804.2714255196707,1629,48.57142857142857,801.2714255196707,1729,494.57142857142856,619.2714255196707,1833,544.5714285714286,608.2714255196707,1934,544.5714285714286,608.2714255196707,2035,544.5714285714286,608.2714255196707,2138,544.5714285714286,608.2714255196707,2239,544.5714285714286,608.2714255196707,2344,544.5714285714286,608.2714255196707,2444,544.5714285714286,608.2714255196707,2546,544.5714285714286,608.2714255196707,2647,544.5714285714286,608.2714255196707,2748,544.5714285714286,608.2714255196707,2848,544.5714285714286,608.2714255196707,2950,544.5714285714286,608.2714255196707,3054,544.5714285714286,608.2714255196707,3155,544.5714285714286,608.2714255196707,3257,544.5714285714286,608.2714255196707,3360,544.5714285714286,608.2714255196707,3461,544.5714285714286,608.2714255196707,3563,544.5714285714286,608.2714255196707,3667,544.5714285714286,608.2714255196707,3768,544.5714285714286,608.2714255196707,3870,544.5714285714286,608.2714255196707,3970,544.5714285714286,608.2714255196707,4071,544.5714285714286,608.2714255196707,4172,544.5714285714286,608.2714255196707,4275,544.5714285714286,608.2714255196707,4376,544.5714285714286,608.2714255196707,4478,544.5714285714286,608.2714255196707,4579,544.5714285714286,608.2714255196707,4681,544.5714285714286,608.2714255196707,4782,544.5714285714286,608.2714255196707,4883,544.5714285714286,608.2714255196707,4985]","[1734,1734,1000,0,734,""smooth"",""down"",""down"",""good_move"",12755,11021,2979.8,9124,651.2,""smooth"",""left"",""left"",""good_move"",16362,3607,2872.8,12755,734.2,""smooth"",""down"",""down"",""good_move"",19160,2798,2312.7,16362,485.3,""smooth"",""left"",""left"",""good_move"",22894,3733,3320.6,19161,412.4,""smooth"",""left"",""left"",""good_move""]"
"3072","","<div style=""width:500px;"">
  <p>What determined the result of this run?</p>
  </div>","23","html-slider-response","74","1075594","0.0-7.0-1.12","131","1","2025-08-06 08:51:19","36c45c0696341be0efffe67d72a12abb","105.228.23.140","Mozilla/5.0 (X11; Ubuntu; Linux x86_64; rv:141.0) Gecko/20100101 Firefox/141.0","","Firefox","141.0","Ubuntu","","https://app.prolific.com/","en-US,en;q=0.5","614de26d812e1b34acd48dfb","687a1a965b9f5b85a264363e","6893177a3ed96488f4393c80","1","614de26d812e1b34acd48dfb","1","2025-08-06T09:09:17.210Z","","","","AttribQ","","","","","","","","","","","50","","","","","","","","","","","","","","","","","","","","","","","","","","",""
"3900","","<div style=""width:500px;"">
  <p>How much control did you have over the ball?</p>
  </div>","85","html-slider-response","75","1079495","0.0-7.0-2.12","131","1","2025-08-06 08:51:19","36c45c0696341be0efffe67d72a12abb","105.228.23.140","Mozilla/5.0 (X11; Ubuntu; Linux x86_64; rv:141.0) Gecko/20100101 Firefox/141.0","","Firefox","141.0","Ubuntu","","https://app.prolific.com/","en-US,en;q=0.5","614de26d812e1b34acd48dfb","687a1a965b9f5b85a264363e","6893177a3ed96488f4393c80","1","614de26d812e1b34acd48dfb","1","2025-08-06T09:09:21.111Z","","","","ControlQ","","","","","","","","","","","50","","","","","","","","","","","","","","","","","","","","","","","","","","",""
"2811","","<div style=""width:500px;"">
  <p>How would you describe your current emotional state?</p>
  </div>","80","html-slider-response","76","1082309","0.0-7.0-3.12","131","1","2025-08-06 08:51:19","36c45c0696341be0efffe67d72a12abb","105.228.23.140","Mozilla/5.0 (X11; Ubuntu; Linux x86_64; rv:141.0) Gecko/20100101 Firefox/141.0","","Firefox","141.0","Ubuntu","","https://app.prolific.com/","en-US,en;q=0.5","614de26d812e1b34acd48dfb","687a1a965b9f5b85a264363e","6893177a3ed96488f4393c80","1","614de26d812e1b34acd48dfb","1","2025-08-06T09:09:23.925Z","","","","StressQ","","","","","","","","","","","50","","","","","","","","","","","","","","","","","","","","","","","","","","",""
"3324","","<div style=""width:500px;"">
  <p>What best describes how you currently feel?</p>
  </div>","100","html-slider-response","77","1085633","0.0-7.0-4.12","131","1","2025-08-06 08:51:19","36c45c0696341be0efffe67d72a12abb","105.228.23.140","Mozilla/5.0 (X11; Ubuntu; Linux x86_64; rv:141.0) Gecko/20100101 Firefox/141.0","","Firefox","141.0","Ubuntu","","https://app.prolific.com/","en-US,en;q=0.5","614de26d812e1b34acd48dfb","687a1a965b9f5b85a264363e","6893177a3ed96488f4393c80","1","614de26d812e1b34acd48dfb","1","2025-08-06T09:09:27.249Z","","","","MotivationQ","","","","","","","","","","","50","","","","","","","","","","","","","","","","","","","","","","","","","","",""
"","","","","ctl-task-cpt","78","1110828","0.0-7.0-0.13","131","1","2025-08-06 08:51:19","36c45c0696341be0efffe67d72a12abb","105.228.23.140","Mozilla/5.0 (X11; Ubuntu; Linux x86_64; rv:141.0) Gecko/20100101 Firefox/141.0","","Firefox","141.0","Ubuntu","","https://app.prolific.com/","en-US,en;q=0.5","614de26d812e1b34acd48dfb","687a1a965b9f5b85a264363e","6893177a3ed96488f4393c80","1","614de26d812e1b34acd48dfb","1","2025-08-06T09:09:52.444Z","","","","","","","","","","","","","","","","win-only","0","g1:NW,g2:SE","0.9","14","0","1089048","1076","6081","22191","1","4","8","6","2","8","8","8","0","0.06060606060606061","1451","3000","605","[""down"",""right""]","{""num_key_presses"":6,""num_perfect"":6,""num_errors"":0,""num_randdir"":0,""num_randdir_good_moves"":0,""num_whilered"":0,""num_whileblue"":0,""num_blue"":0,""num_good_moves"":6}","[411.57142857142856,416.27142551967074,1,411.57142857142856,416.27142551967074,105,411.57142857142856,416.27142551967074,208,411.57142857142856,416.27142551967074,308,411.57142857142856,416.27142551967074,409,411.57142857142856,416.27142551967074,509,406.57142857142856,411.27142551967074,610,380.57142857142856,343.27142551967074,710,522.5714285714286,546.2714255196707,812,679.5714285714286,710.2714255196707,913,679.5714285714286,710.2714255196707,1015,679.5714285714286,710.2714255196707,1119,731.5714285714286,757.2714255196707,1221,734.5714285714286,759.2714255196707,1322,734.5714285714286,759.2714255196707,1423,734.5714285714286,759.2714255196707,1525,734.5714285714286,759.2714255196707,1625,734.5714285714286,759.2714255196707,1725,734.5714285714286,759.2714255196707,1825,734.5714285714286,759.2714255196707,1929,734.5714285714286,759.2714255196707,2032,734.5714285714286,759.2714255196707,2132,734.5714285714286,759.2714255196707,2234,734.5714285714286,759.2714255196707,2336,734.5714285714286,759.2714255196707,2437,734.5714285714286,759.2714255196707,2540,734.5714285714286,759.2714255196707,2642,734.5714285714286,759.2714255196707,2743,734.5714285714286,759.2714255196707,2844,734.5714285714286,759.2714255196707,2944,734.5714285714286,759.2714255196707,3044,734.5714285714286,759.2714255196707,3148,734.5714285714286,759.2714255196707,3250,734.5714285714286,759.2714255196707,3352,734.5714285714286,759.2714255196707,3452,734.5714285714286,759.2714255196707,3552,734.5714285714286,759.2714255196707,3653,734.5714285714286,759.2714255196707,3753,734.5714285714286,759.2714255196707,3853,734.5714285714286,759.2714255196707,3953,734.5714285714286,759.2714255196707,4054,734.5714285714286,759.2714255196707,4159,734.5714285714286,759.2714255196707,4264,734.5714285714286,759.2714255196707,4368,734.5714285714286,759.2714255196707,4468,734.5714285714286,759.2714255196707,4570,734.5714285714286,759.2714255196707,4670,734.5714285714286,759.2714255196707,4770,734.5714285714286,759.2714255196707,4872,734.5714285714286,759.2714255196707,4973]","[1468,1468,1000,0,468,""smooth"",""down"",""down"",""good_move"",4346,2877,2397.2,1469,479.8,""smooth"",""right"",""right"",""good_move"",7118,2772,2404.9,4346,367.1,""smooth"",""down"",""down"",""good_move"",9560,2442,2017.4,7118,424.6,""smooth"",""right"",""right"",""good_move"",12951,3390,2939.5,9561,450.5,""smooth"",""down"",""down"",""good_move"",16016,3065,2685,12951,380,""smooth"",""right"",""right"",""good_move""]"
"3846","","<div style=""width:500px;"">
  <p>What determined the result of this run?</p>
  </div>","93","html-slider-response","79","1114677","0.0-7.0-1.13","131","1","2025-08-06 08:51:19","36c45c0696341be0efffe67d72a12abb","105.228.23.140","Mozilla/5.0 (X11; Ubuntu; Linux x86_64; rv:141.0) Gecko/20100101 Firefox/141.0","","Firefox","141.0","Ubuntu","","https://app.prolific.com/","en-US,en;q=0.5","614de26d812e1b34acd48dfb","687a1a965b9f5b85a264363e","6893177a3ed96488f4393c80","1","614de26d812e1b34acd48dfb","1","2025-08-06T09:09:56.293Z","","","","AttribQ","","","","","","","","","","","50","","","","","","","","","","","","","","","","","","","","","","","","","","",""
"3262","","<div style=""width:500px;"">
  <p>How much control did you have over the ball?</p>
  </div>","83","html-slider-response","80","1117942","0.0-7.0-2.13","131","1","2025-08-06 08:51:19","36c45c0696341be0efffe67d72a12abb","105.228.23.140","Mozilla/5.0 (X11; Ubuntu; Linux x86_64; rv:141.0) Gecko/20100101 Firefox/141.0","","Firefox","141.0","Ubuntu","","https://app.prolific.com/","en-US,en;q=0.5","614de26d812e1b34acd48dfb","687a1a965b9f5b85a264363e","6893177a3ed96488f4393c80","1","614de26d812e1b34acd48dfb","1","2025-08-06T09:09:59.558Z","","","","ControlQ","","","","","","","","","","","50","","","","","","","","","","","","","","","","","","","","","","","","","","",""
"4650","","<div style=""width:500px;"">
  <p>How would you describe your current emotional state?</p>
  </div>","100","html-slider-response","81","1122593","0.0-7.0-3.13","131","1","2025-08-06 08:51:19","36c45c0696341be0efffe67d72a12abb","105.228.23.140","Mozilla/5.0 (X11; Ubuntu; Linux x86_64; rv:141.0) Gecko/20100101 Firefox/141.0","","Firefox","141.0","Ubuntu","","https://app.prolific.com/","en-US,en;q=0.5","614de26d812e1b34acd48dfb","687a1a965b9f5b85a264363e","6893177a3ed96488f4393c80","1","614de26d812e1b34acd48dfb","1","2025-08-06T09:10:04.209Z","","","","StressQ","","","","","","","","","","","50","","","","","","","","","","","","","","","","","","","","","","","","","","",""
"3110","","<div style=""width:500px;"">
  <p>What best describes how you currently feel?</p>
  </div>","100","html-slider-response","82","1125704","0.0-7.0-4.13","131","1","2025-08-06 08:51:19","36c45c0696341be0efffe67d72a12abb","105.228.23.140","Mozilla/5.0 (X11; Ubuntu; Linux x86_64; rv:141.0) Gecko/20100101 Firefox/141.0","","Firefox","141.0","Ubuntu","","https://app.prolific.com/","en-US,en;q=0.5","614de26d812e1b34acd48dfb","687a1a965b9f5b85a264363e","6893177a3ed96488f4393c80","1","614de26d812e1b34acd48dfb","1","2025-08-06T09:10:07.320Z","","","","MotivationQ","","","","","","","","","","","50","","","","","","","","","","","","","","","","","","","","","","","","","","",""
"","","","","ctl-task-cpt","83","1152341","0.0-7.0-0.14","131","1","2025-08-06 08:51:19","36c45c0696341be0efffe67d72a12abb","105.228.23.140","Mozilla/5.0 (X11; Ubuntu; Linux x86_64; rv:141.0) Gecko/20100101 Firefox/141.0","","Firefox","141.0","Ubuntu","","https://app.prolific.com/","en-US,en;q=0.5","614de26d812e1b34acd48dfb","687a1a965b9f5b85a264363e","6893177a3ed96488f4393c80","1","614de26d812e1b34acd48dfb","1","2025-08-06T09:10:33.957Z","","","","","","","","","","","","","","","","win-only","3","g1:SW,g2:NE","1","15","0","1129119","1131","6133","23633","1","4","4","6","2","4","4","12","8","0.09090909090909091","1570","3000","855","[""up"",""right""]","{""num_key_presses"":6,""num_perfect"":6,""num_errors"":0,""num_randdir"":0,""num_randdir_good_moves"":0,""num_whilered"":0,""num_whileblue"":0,""num_blue"":1,""num_good_moves"":6}","[417.57142857142856,410.27142551967074,0,417.57142857142856,410.27142551967074,102,417.57142857142856,410.27142551967074,203,417.57142857142856,410.27142551967074,304,417.57142857142856,410.27142551967074,404,293.57142857142856,557.2714255196707,504,320.57142857142856,542.2714255196707,605,1128.5714285714287,-119.72857448032924,709,1095.5714285714287,-119.72857448032924,810,1006.5714285714286,-93.72857448032924,911,892.5714285714286,9.271425519670757,1012,869.5714285714286,38.27142551967076,1116,844.5714285714286,59.27142551967076,1216,789.5714285714286,60.27142551967076,1316,773.5714285714286,65.27142551967076,1416,773.5714285714286,65.27142551967076,1516,773.5714285714286,65.27142551967076,1616,773.5714285714286,65.27142551967076,1716,773.5714285714286,65.27142551967076,1818,773.5714285714286,65.27142551967076,1921,773.5714285714286,65.27142551967076,2021,773.5714285714286,65.27142551967076,2123,773.5714285714286,65.27142551967076,2226,773.5714285714286,65.27142551967076,2327,773.5714285714286,65.27142551967076,2427,773.5714285714286,65.27142551967076,2527,773.5714285714286,65.27142551967076,2627,773.5714285714286,65.27142551967076,2730,773.5714285714286,65.27142551967076,2832,773.5714285714286,65.27142551967076,2934,773.5714285714286,65.27142551967076,3034,773.5714285714286,65.27142551967076,3136,773.5714285714286,65.27142551967076,3239,773.5714285714286,65.27142551967076,3339,773.5714285714286,65.27142551967076,3444,773.5714285714286,65.27142551967076,3545,773.5714285714286,65.27142551967076,3646,773.5714285714286,65.27142551967076,3746,773.5714285714286,65.27142551967076,3849,773.5714285714286,65.27142551967076,3953,773.5714285714286,65.27142551967076,4053,773.5714285714286,65.27142551967076,4156,773.5714285714286,65.27142551967076,4259,773.5714285714286,65.27142551967076,4360,773.5714285714286,65.27142551967076,4462,773.5714285714286,65.27142551967076,4563,773.5714285714286,65.27142551967076,4664,773.5714285714286,65.27142551967076,4765,773.5714285714286,65.27142551967076,4866,773.5714285714286,65.27142551967076,4969]","[1423,1423,1000,0,423,""smooth"",""up"",""up"",""good_move"",4486,3063,2689.1,1423,373.9,""smooth"",""up"",""up"",""good_move"",9895,5409,1991.2,7597,306.8,""smooth"",""right"",""right"",""good_move"",12415,2520,2126,9895,394,""smooth"",""right"",""right"",""good_move"",14552,2136,1714.6,12416,421.4,""smooth"",""up"",""up"",""good_move"",17406,2854,2466.1,14552,387.9,""smooth"",""right"",""right"",""good_move""]"
"3590","","<div style=""width:500px;"">
  <p>What determined the result of this run?</p>
