"rt","response_timestamp","stimulus","response","trial_type","trial_index","time_elapsed","internal_node_id","run_id","condition","recorded_at","source_code_version","ip","user_agent","device","browser","browser_version","platform","platform_version","referer","accept_language","PROLIFIC_PID","STUDY_ID","SESSION_ID","BATCH","prolific_id","batch","realtime","success","question_order","question_id","eventType","responses","item_order","radio_event_ids","radio_event_times","key_event_times","mouse_event_times","straightlining","zigzagging","honeypot","view_history","slider_start","which_type","canvas_config","goals_layout","control_level","trial_number","tutorial_trial_number","trial_start_time","phase1_start_time","phase2_start_time","phase3_start_time","goal_1_value","goal_1_distance","goal_2_value","goal_2_distance","goal_selected","outcome","outcome_total","participant_final_score","participant_initial_score","participant_final_score_prop","goal_choice_rt","allocated_time","allocated_time_remaining","goal_direction","counts","mouse_movements","key_presses"
"1713","1754470161727","<p style='font-size:40px;line-height:1.25'><strong>Welcome to the experiment!</strong></p><p style='font-size:1.1em;line-height:1.25'>Thank you for participanting in our experiment again! You will be asked to play the Dysfunctional Ball Game again. We will briefly recap the rules before we start.</p><p style='font-size:1.1em;line-height:1.25'>Press <strong>Next</strong> to continue.</p>","0","custom-html-button-response","0","1715","0.0-0.0","121","1","2025-08-06 08:49:16","36c45c0696341be0efffe67d72a12abb","197.245.162.70","Mozilla/5.0 (Windows NT 10.0; Win64; x64) AppleWebKit/537.36 (KHTML, like Gecko) Chrome/138.0.0.0 Safari/537.36","WebKit","Chrome","138.0.0.0","Windows","10.0","https://app.prolific.com/","en-ZA,en-GB;q=0.9,en-US;q=0.8,en;q=0.7","614e1c414dff2e589169f360","6877649eabb845cf142cd221","6893170078270a7f4d4eb2ce","1","614e1c414dff2e589169f360","1","2025-08-06T08:49:21.728Z","","","","","","","","","","","","","","","","","","","","","","","","","","","","","","","","","","","","","","","","","",""
"1959","","","","fullscreen","1","4683","0.0-1.0","121","1","2025-08-06 08:49:16","36c45c0696341be0efffe67d72a12abb","197.245.162.70","Mozilla/5.0 (Windows NT 10.0; Win64; x64) AppleWebKit/537.36 (KHTML, like Gecko) Chrome/138.0.0.0 Safari/537.36","WebKit","Chrome","138.0.0.0","Windows","10.0","https://app.prolific.com/","en-ZA,en-GB;q=0.9,en-US;q=0.8,en;q=0.7","614e1c414dff2e589169f360","6877649eabb845cf142cd221","6893170078270a7f4d4eb2ce","1","614e1c414dff2e589169f360","1","","true","","","","","","","","","","","","","","","","","","","","","","","","","","","","","","","","","","","","","","","","",""
"1030182","1754471194869"," <p style='font-size:1.1em;line-height:1.25'>Thank you for closing all other tabs.</p><p style='font-size:1.1em;line-height:1.25'>We will now invite you to fill in some questionnaires, before starting the game.<br>This will take about 5 minutes.<br></p><p style='font-size:1.1em;line-height:1.25'>Press the <strong>Next</strong> button to continue.</p>","0","custom-html-button-response","2","1034856","0.0-2.0","121","1","2025-08-06 08:49:16","36c45c0696341be0efffe67d72a12abb","197.245.162.70","Mozilla/5.0 (Windows NT 10.0; Win64; x64) AppleWebKit/537.36 (KHTML, like Gecko) Chrome/138.0.0.0 Safari/537.36","WebKit","Chrome","138.0.0.0","Windows","10.0","https://app.prolific.com/","en-ZA,en-GB;q=0.9,en-US;q=0.8,en;q=0.7","614e1c414dff2e589169f360","6877649eabb845cf142cd221","6893170078270a7f4d4eb2ce","1","614e1c414dff2e589169f360","1","2025-08-06T09:06:34.870Z","","","","","","","","","","","","","","","","","","","","","","","","","","","","","","","","","","","","","","","","","",""
"7201","","","{""assigned_sex"":""female""}","survey-multi-choice","3","1042059","0.0-3.0-0.0","121","1","2025-08-06 08:49:16","36c45c0696341be0efffe67d72a12abb","197.245.162.70","Mozilla/5.0 (Windows NT 10.0; Win64; x64) AppleWebKit/537.36 (KHTML, like Gecko) Chrome/138.0.0.0 Safari/537.36","WebKit","Chrome","138.0.0.0","Windows","10.0","https://app.prolific.com/","en-ZA,en-GB;q=0.9,en-US;q=0.8,en;q=0.7","614e1c414dff2e589169f360","6877649eabb845cf142cd221","6893170078270a7f4d4eb2ce","1","614e1c414dff2e589169f360","1","","","[0]","0","demographics","","","","","","","","","","","","","","","","","","","","","","","","","","","","","","","","","","","","","",""
"7080","1754471209153","<p style='font-size:1.1em;line-height:1.25'>In the following, we will perform a baseline assessment. This means that we will ask you a few questions relating to your experiences over the past month.<br></p><p style='font-size:1.1em;line-height:1.25'>Press the <strong>Next</strong> button to continue.</p>","0","custom-html-button-response","4","1049140","0.0-4.0-0.0","121","1","2025-08-06 08:49:16","36c45c0696341be0efffe67d72a12abb","197.245.162.70","Mozilla/5.0 (Windows NT 10.0; Win64; x64) AppleWebKit/537.36 (KHTML, like Gecko) Chrome/138.0.0.0 Safari/537.36","WebKit","Chrome","138.0.0.0","Windows","10.0","https://app.prolific.com/","en-ZA,en-GB;q=0.9,en-US;q=0.8,en;q=0.7","614e1c414dff2e589169f360","6877649eabb845cf142cd221","6893170078270a7f4d4eb2ce","1","614e1c414dff2e589169f360","1","2025-08-06T09:06:49.153Z","","","","","","","","","","","","","","","","","","","","","","","","","","","","","","","","","","","","","","","","","",""
"57190.5","","","","survey-template","5","1106333","0.0-4.0-1.0","121","1","2025-08-06 08:49:16","36c45c0696341be0efffe67d72a12abb","197.245.162.70","Mozilla/5.0 (Windows NT 10.0; Win64; x64) AppleWebKit/537.36 (KHTML, like Gecko) Chrome/138.0.0.0 Safari/537.36","WebKit","Chrome","138.0.0.0","Windows","10.0","https://app.prolific.com/","en-ZA,en-GB;q=0.9,en-US;q=0.8,en;q=0.7","614e1c414dff2e589169f360","6877649eabb845cf142cd221","6893170078270a7f4d4eb2ce","1","614e1c414dff2e589169f360","1","2025-08-06T09:07:46.346Z","","","","pss","{""Q01"":""2"",""Q02"":""3"",""Q03"":""2"",""Q04"":""1"",""Q05"":""1"",""Q06"":""2"",""Q07"":""2"",""Q08"":""2"",""Q09"":""1"",""Q10"":""1""}","[0,1,2,3,4,5,6,7,8,9]","[""Q01"",""Q02"",""Q03"",""Q04"",""Q05"",""Q06"",""Q07"",""Q08"",""Q09"",""Q10""]","[5570.199999988079,20390.19999998808,21873.89999999106,23632.09999999404,31364,33234,42264.19999998808,45096.19999998808,51514.19999998808,56168]","[]","[0.09999999403953552,5570.199999988079,18514.19999998808,20390.19999998808,21873.89999999106,23632.09999999404,31364,33234,42264.19999998808,45096.19999998808,50386.09999999404,51514.19999998808,56168,57188.19999998808]","0.5","0.5555555555555556","0","","","","","","","","","","","","","","","","","","","","","","","","","","","","",""
"1384","1754471267731","<p style='font-size:1.1em;line-height:1.25'>Thank you for your answers! Now we will ask you a few more questions relating to your feelings in the last 24 hours.<br></p><p style='font-size:1.1em;line-height:1.25'>Press the <strong>Next</strong> button to continue.</p>","0","custom-html-button-response","6","1107718","0.0-4.0-2.0","121","1","2025-08-06 08:49:16","36c45c0696341be0efffe67d72a12abb","197.245.162.70","Mozilla/5.0 (Windows NT 10.0; Win64; x64) AppleWebKit/537.36 (KHTML, like Gecko) Chrome/138.0.0.0 Safari/537.36","WebKit","Chrome","138.0.0.0","Windows","10.0","https://app.prolific.com/","en-ZA,en-GB;q=0.9,en-US;q=0.8,en;q=0.7","614e1c414dff2e589169f360","6877649eabb845cf142cd221","6893170078270a7f4d4eb2ce","1","614e1c414dff2e589169f360","1","2025-08-06T09:07:47.731Z","","","","","","","","","","","","","","","","","","","","","","","","","","","","","","","","","","","","","","","","","",""
"59447.89999999106","","","","survey-template","7","1167168","0.0-4.0-3.0","121","1","2025-08-06 08:49:16","36c45c0696341be0efffe67d72a12abb","197.245.162.70","Mozilla/5.0 (Windows NT 10.0; Win64; x64) AppleWebKit/537.36 (KHTML, like Gecko) Chrome/138.0.0.0 Safari/537.36","WebKit","Chrome","138.0.0.0","Windows","10.0","https://app.prolific.com/","en-ZA,en-GB;q=0.9,en-US;q=0.8,en;q=0.7","614e1c414dff2e589169f360","6877649eabb845cf142cd221","6893170078270a7f4d4eb2ce","1","614e1c414dff2e589169f360","1","2025-08-06T09:08:47.182Z","","","","drsp","{""Q01"":""2"",""Q02"":""1"",""Q03"":""0"",""Q04"":""1"",""Q05"":""2"",""Q06"":""1"",""Q07"":""2"",""Q08"":""2"",""Q09"":""1"",""Q10"":""2"",""Q11"":""3"",""Q12"":""2"",""Q13"":""5"",""Q14"":""2"",""Q15"":""2"",""Q16"":""2"",""Q17"":""2"",""Q18"":""1"",""Q19"":""2"",""Q20"":""1"",""Q21"":""1"",""Q22"":""0""}","[0,1,2,3,4,5,6,7,8,9,10,11,12,13,14,15,16,17,18,19,20,21]","[""Q01"",""Q02"",""Q03"",""Q04"",""Q05"",""Q06"",""Q07"",""Q08"",""Q10"",""Q09"",""Q11"",""Q12"",""Q13"",""Q14"",""Q15"",""Q16"",""Q17"",""Q18"",""Q19"",""Q19"",""Q20"",""Q20"",""Q21"",""Q22""]","[3042.199999988079,6612.0999999940395,9172.09999999404,11656.199999988079,13498.09999999404,15158.29999999702,16794.09999999404,19814.29999999702,24227.79999999702,25356.19999998808,28680.19999998808,31090.19999998808,32506.29999999702,35314.19999998808,38892.29999999702,40520.09999999404,42504.29999999702,45032.19999998808,47758.09999999404,49726.19999998808,52849.79999999702,53886.09999999404,56236.19999998808,58060.09999999404]","[]","[0,3042.199999988079,4594.199999988079,6612.0999999940395,7444.399999991059,9172.09999999404,10160.29999999702,11656.199999988079,12580.39999999106,13498.09999999404,15158.29999999702,16794.09999999404,19814.29999999702,22563.89999999106,24227.79999999702,25356.19999998808,28680.19999998808,31090.19999998808,32506.29999999702,34250.5,35314.19999998808,38892.29999999702,40520.09999999404,41956.39999999106,42504.29999999702,45032.19999998808,47758.09999999404,49726.19999998808,52849.79999999702,53886.09999999404,56236.19999998808,58060.09999999404,59444.29999999702]","0.5","0.6666666666666666","0","","","","","","","","","","","","","","","","","","","","","","","","","","","","",""
"11878.90000000596","","","","survey-template","8","1179049","0.0-4.0-4.0","121","1","2025-08-06 08:49:16","36c45c0696341be0efffe67d72a12abb","197.245.162.70","Mozilla/5.0 (Windows NT 10.0; Win64; x64) AppleWebKit/537.36 (KHTML, like Gecko) Chrome/138.0.0.0 Safari/537.36","WebKit","Chrome","138.0.0.0","Windows","10.0","https://app.prolific.com/","en-ZA,en-GB;q=0.9,en-US;q=0.8,en;q=0.7","614e1c414dff2e589169f360","6877649eabb845cf142cd221","6893170078270a7f4d4eb2ce","1","614e1c414dff2e589169f360","1","2025-08-06T09:08:59.062Z","","","","stress","{""Q01"":""0"",""Q02"":""3"",""Q03"":""2""}","[0,1,2]","[""Q01"",""Q02"",""Q02"",""Q03""]","[3060,5208.0999999940395,6076.0999999940395,10950]","[]","[3060,5208.0999999940395,6076.0999999940395,10950,11878.09999999404]","0.6666666666666666","0","0","","","","","","","","","","","","","","","","","","","","","","","","","","","","",""
"2978","","","","instructions","9","1182028","0.0-5.0-0.0","121","1","2025-08-06 08:49:16","36c45c0696341be0efffe67d72a12abb","197.245.162.70","Mozilla/5.0 (Windows NT 10.0; Win64; x64) AppleWebKit/537.36 (KHTML, like Gecko) Chrome/138.0.0.0 Safari/537.36","WebKit","Chrome","138.0.0.0","Windows","10.0","https://app.prolific.com/","en-ZA,en-GB;q=0.9,en-US;q=0.8,en;q=0.7","614e1c414dff2e589169f360","6877649eabb845cf142cd221","6893170078270a7f4d4eb2ce","1","614e1c414dff2e589169f360","1","","","","","","","","","","","","","","","[{""page_index"":0,""viewing_time"":2978}]","","","","","","","","","","","","","","","","","","","","","","","","","","","",""
"6131","","<p>Before you start with this game please answer the following three questions yourself. </p>
  <p>Through this game, we measure several aspects of your cognitive performance, such as reaction times, multi-tasking capabilities </p>
  <p>and the ability to assess the situation you are in.</p>
  <p></p>
  <p><b>How good do you usually are in such tasks?</b></p>","51","html-slider-response","10","1188163","0.0-6.0-0.0","121","1","2025-08-06 08:49:16","36c45c0696341be0efffe67d72a12abb","197.245.162.70","Mozilla/5.0 (Windows NT 10.0; Win64; x64) AppleWebKit/537.36 (KHTML, like Gecko) Chrome/138.0.0.0 Safari/537.36","WebKit","Chrome","138.0.0.0","Windows","10.0","https://app.prolific.com/","en-ZA,en-GB;q=0.9,en-US;q=0.8,en;q=0.7","614e1c414dff2e589169f360","6877649eabb845cf142cd221","6893170078270a7f4d4eb2ce","1","614e1c414dff2e589169f360","1","2025-08-06T09:09:08.176Z","","","","PreSkillQ","","","","","","","","","","","50","","","","","","","","","","","","","","","","","","","","","","","","","","",""
"3022","","<div style=""width:500px;"">
  <p>How well do you think you will perform in this task compared to other participants?</p>
  </div>","52","html-slider-response","11","1191186","0.0-6.0-1.0","121","1","2025-08-06 08:49:16","36c45c0696341be0efffe67d72a12abb","197.245.162.70","Mozilla/5.0 (Windows NT 10.0; Win64; x64) AppleWebKit/537.36 (KHTML, like Gecko) Chrome/138.0.0.0 Safari/537.36","WebKit","Chrome","138.0.0.0","Windows","10.0","https://app.prolific.com/","en-ZA,en-GB;q=0.9,en-US;q=0.8,en;q=0.7","614e1c414dff2e589169f360","6877649eabb845cf142cd221","6893170078270a7f4d4eb2ce","1","614e1c414dff2e589169f360","1","2025-08-06T09:09:11.199Z","","","","PrePerfQ","","","","","","","","","","","50","","","","","","","","","","","","","","","","","","","","","","","","","","",""
"2985","","<div style=""width:500px;"">
  <p>What best describes how you currently feel?</p>
  </div>","66","html-slider-response","12","1194172","0.0-6.0-2.0","121","1","2025-08-06 08:49:16","36c45c0696341be0efffe67d72a12abb","197.245.162.70","Mozilla/5.0 (Windows NT 10.0; Win64; x64) AppleWebKit/537.36 (KHTML, like Gecko) Chrome/138.0.0.0 Safari/537.36","WebKit","Chrome","138.0.0.0","Windows","10.0","https://app.prolific.com/","en-ZA,en-GB;q=0.9,en-US;q=0.8,en;q=0.7","614e1c414dff2e589169f360","6877649eabb845cf142cd221","6893170078270a7f4d4eb2ce","1","614e1c414dff2e589169f360","1","2025-08-06T09:09:14.185Z","","","","PreMotivationQ","","","","","","","","","","","50","","","","","","","","","","","","","","","","","","","","","","","","","","",""
"","","","","ctl-task-cpt","13","1217552","0.0-7.0-0.0","121","1","2025-08-06 08:49:16","36c45c0696341be0efffe67d72a12abb","197.245.162.70","Mozilla/5.0 (Windows NT 10.0; Win64; x64) AppleWebKit/537.36 (KHTML, like Gecko) Chrome/138.0.0.0 Safari/537.36","WebKit","Chrome","138.0.0.0","Windows","10.0","https://app.prolific.com/","en-ZA,en-GB;q=0.9,en-US;q=0.8,en;q=0.7","614e1c414dff2e589169f360","6877649eabb845cf142cd221","6893170078270a7f4d4eb2ce","1","614e1c414dff2e589169f360","1","2025-08-06T09:09:37.566Z","","","","","","","","","","","","","","","","win-only","3","g1:SW,g2:NE","1","1","0","1198549.2","2440.6","7446.7","20373.8","1","4","4","6","2","-4","-5","0","0","0","1243.6","3000","-2695","[""up"",""right""]","{""num_key_presses"":3,""num_perfect"":1,""num_errors"":1,""num_randdir"":0,""num_randdir_good_moves"":0,""num_whilered"":1,""num_whileblue"":0,""num_blue"":1,""num_good_moves"":1}","[341.14285714285717,341.04910714285717,0.6,341.14285714285717,341.04910714285717,100.9,341.14285714285717,341.04910714285717,206.9,384.14285714285717,373.04910714285717,310.1,422.14285714285717,390.04910714285717,410.5,423.14285714285717,398.04910714285717,515.3,369.14285714285717,462.04910714285717,622.2,444.14285714285717,342.04910714285717,725.3,553.1428571428571,140.04910714285714,825.5,564.1428571428571,100.04910714285714,925.5,580.1428571428571,83.04910714285714,1026.3,621.1428571428571,85.04910714285714,1130.7,625.1428571428571,80.04910714285714,1236.4,625.1428571428571,79.04910714285714,1336.6,624.1428571428571,99.04910714285714,1441.4,660.1428571428571,268.04910714285717,1545.9,707.1428571428571,367.04910714285717,1651,716.1428571428571,389.04910714285717,1757,609.1428571428571,437.04910714285717,1860.5,648.1428571428571,482.04910714285717,1965.5,1146.142857142857,536.0491071428571,2070.6,1146.142857142857,516.0491071428571,2170.6,1146.142857142857,511.04910714285717,2270.7,1146.142857142857,511.04910714285717,2375.8,1146.142857142857,511.04910714285717,2480.2,1146.142857142857,512.0491071428571,2581.3,1146.142857142857,513.0491071428571,2686.1,1146.142857142857,514.0491071428571,2791.4,1146.142857142857,514.0491071428571,2896,1146.142857142857,514.0491071428571,3000.8,1146.142857142857,514.0491071428571,3104.9,1146.142857142857,514.0491071428571,3207.9,1146.142857142857,514.0491071428571,3310,1146.142857142857,515.0491071428571,3410.3,1146.142857142857,515.0491071428571,3510.9,1146.142857142857,515.0491071428571,3614.8,1146.142857142857,515.0491071428571,3714.9,1146.142857142857,515.0491071428571,3816.1,1146.142857142857,515.0491071428571,3920.3,1146.142857142857,515.0491071428571,4020.6,1146.142857142857,515.0491071428571,4125.6,1146.142857142857,515.0491071428571,4230.8,1146.142857142857,515.0491071428571,4335.4,1146.142857142857,515.0491071428571,4435.7,1146.142857142857,515.0491071428571,4535.7,1146.142857142857,515.0491071428571,4644,1146.142857142857,515.0491071428571,4744.7,1146.142857142857,515.0491071428571,4845.9,1146.142857142857,515.0491071428571,4950.4]","[3129,3129,3067,2004.7,-1942.7,""error"",""-"",""-"",""no_move"",3699.8,570.4,3067,2004.7,-1371.9,""while_red"",""-"",""-"",""no_move"",8508.4,5379,2728.8,4129.7,1649.9,""smooth"",""right"",""right"",""good_move""]"
"22433","","<div style=""width:500px;"">
  <p>What determined the result of this run?</p>
  </div>","50","html-slider-response","14","1239987","0.0-7.0-1.0","121","1","2025-08-06 08:49:16","36c45c0696341be0efffe67d72a12abb","197.245.162.70","Mozilla/5.0 (Windows NT 10.0; Win64; x64) AppleWebKit/537.36 (KHTML, like Gecko) Chrome/138.0.0.0 Safari/537.36","WebKit","Chrome","138.0.0.0","Windows","10.0","https://app.prolific.com/","en-ZA,en-GB;q=0.9,en-US;q=0.8,en;q=0.7","614e1c414dff2e589169f360","6877649eabb845cf142cd221","6893170078270a7f4d4eb2ce","1","614e1c414dff2e589169f360","1","2025-08-06T09:10:00.000Z","","","","AttribQ","","","","","","","","","","","50","","","","","","","","","","","","","","","","","","","","","","","","","","",""
"4097","","<div style=""width:500px;"">
  <p>How much control did you have over the ball?</p>
  </div>","56","html-slider-response","15","1244085","0.0-7.0-2.0","121","1","2025-08-06 08:49:16","36c45c0696341be0efffe67d72a12abb","197.245.162.70","Mozilla/5.0 (Windows NT 10.0; Win64; x64) AppleWebKit/537.36 (KHTML, like Gecko) Chrome/138.0.0.0 Safari/537.36","WebKit","Chrome","138.0.0.0","Windows","10.0","https://app.prolific.com/","en-ZA,en-GB;q=0.9,en-US;q=0.8,en;q=0.7","614e1c414dff2e589169f360","6877649eabb845cf142cd221","6893170078270a7f4d4eb2ce","1","614e1c414dff2e589169f360","1","2025-08-06T09:10:04.098Z","","","","ControlQ","","","","","","","","","","","50","","","","","","","","","","","","","","","","","","","","","","","","","","",""
"4798","","<div style=""width:500px;"">
  <p>How would you describe your current emotional state?</p>
  </div>","23","html-slider-response","16","1248884","0.0-7.0-3.0","121","1","2025-08-06 08:49:16","36c45c0696341be0efffe67d72a12abb","197.245.162.70","Mozilla/5.0 (Windows NT 10.0; Win64; x64) AppleWebKit/537.36 (KHTML, like Gecko) Chrome/138.0.0.0 Safari/537.36","WebKit","Chrome","138.0.0.0","Windows","10.0","https://app.prolific.com/","en-ZA,en-GB;q=0.9,en-US;q=0.8,en;q=0.7","614e1c414dff2e589169f360","6877649eabb845cf142cd221","6893170078270a7f4d4eb2ce","1","614e1c414dff2e589169f360","1","2025-08-06T09:10:08.897Z","","","","StressQ","","","","","","","","","","","50","","","","","","","","","","","","","","","","","","","","","","","","","","",""
"3013","","<div style=""width:500px;"">
  <p>What best describes how you currently feel?</p>
  </div>","61","html-slider-response","17","1251898","0.0-7.0-4.0","121","1","2025-08-06 08:49:16","36c45c0696341be0efffe67d72a12abb","197.245.162.70","Mozilla/5.0 (Windows NT 10.0; Win64; x64) AppleWebKit/537.36 (KHTML, like Gecko) Chrome/138.0.0.0 Safari/537.36","WebKit","Chrome","138.0.0.0","Windows","10.0","https://app.prolific.com/","en-ZA,en-GB;q=0.9,en-US;q=0.8,en;q=0.7","614e1c414dff2e589169f360","6877649eabb845cf142cd221","6893170078270a7f4d4eb2ce","1","614e1c414dff2e589169f360","1","2025-08-06T09:10:11.911Z","","","","MotivationQ","","","","","","","","","","","50","","","","","","","","","","","","","","","","","","","","","","","","","","",""
"","","","","ctl-task-cpt","18","1281579","0.0-7.0-0.1","121","1","2025-08-06 08:49:16","36c45c0696341be0efffe67d72a12abb","197.245.162.70","Mozilla/5.0 (Windows NT 10.0; Win64; x64) AppleWebKit/537.36 (KHTML, like Gecko) Chrome/138.0.0.0 Safari/537.36","WebKit","Chrome","138.0.0.0","Windows","10.0","https://app.prolific.com/","en-ZA,en-GB;q=0.9,en-US;q=0.8,en;q=0.7","614e1c414dff2e589169f360","6877649eabb845cf142cd221","6893170078270a7f4d4eb2ce","1","614e1c414dff2e589169f360","1","2025-08-06T09:10:41.592Z","","","","","","","","","","","","","","","","win-only","0","g1:NW,g2:SE","0.9","2","0","1256273.4","1329.5","6331.7","26666.9","1","4","8","6","2","8","7","7","0","0.05303030303030303","1333.3","3000","245","[""down"",""right""]","{""num_key_presses"":8,""num_perfect"":6,""num_errors"":1,""num_randdir"":1,""num_randdir_good_moves"":0,""num_whilered"":0,""num_whileblue"":1,""num_blue"":1,""num_good_moves"":7}","[421.07142857142856,416.1808016640799,0.1,421.07142857142856,416.1808016640799,101.9,421.07142857142856,416.1808016640799,206.8,416.57142857142856,423.6808016640799,306.9,416.57142857142856,423.6808016640799,412.1,415.07142857142856,423.6808016640799,512.2,415.07142857142856,423.6808016640799,616.5,397.07142857142856,453.6808016640799,717.3,781.0714285714286,885.6808016640799,821.8,842.5714285714286,902.1808016640799,934.5,869.5714285714286,873.6808016640799,1036.3,851.5714285714286,801.6808016640799,1141.4,802.0714285714286,776.1808016640799,1242.1,794.5714285714286,767.1808016640799,1350.7,794.5714285714286,767.1808016640799,1450.7,803.5714285714286,765.6808016640799,1551.8,803.5714285714286,765.6808016640799,1652.1,803.5714285714286,765.6808016640799,1757,803.5714285714286,765.6808016640799,1860.9,803.5714285714286,765.6808016640799,1961.1,803.5714285714286,765.6808016640799,2061.1,803.5714285714286,765.6808016640799,2161.2,803.5714285714286,765.6808016640799,2262.3,803.5714285714286,765.6808016640799,2367.5,803.5714285714286,765.6808016640799,2471.9,803.5714285714286,765.6808016640799,2576.8,803.5714285714286,765.6808016640799,2681.7,803.5714285714286,765.6808016640799,2782.3,803.5714285714286,765.6808016640799,2884.8,803.5714285714286,765.6808016640799,2985.1,803.5714285714286,765.6808016640799,3086.1,803.5714285714286,765.6808016640799,3186.5,803.5714285714286,765.6808016640799,3286.9,803.5714285714286,765.6808016640799,3391.1,803.5714285714286,765.6808016640799,3491.3,803.5714285714286,765.6808016640799,3597.6,803.5714285714286,765.6808016640799,3701,803.5714285714286,765.6808016640799,3808.1,803.5714285714286,765.6808016640799,3911.2,803.5714285714286,765.6808016640799,4016,803.5714285714286,765.6808016640799,4116.3,803.5714285714286,765.6808016640799,4221.6,803.5714285714286,765.6808016640799,4326.9,803.5714285714286,765.6808016640799,4427,803.5714285714286,765.6808016640799,4531.2,803.5714285714286,765.6808016640799,4631.3,803.5714285714286,765.6808016640799,4731.8,803.5714285714286,765.6808016640799,4832.6,803.5714285714286,765.6808016640799,4936.9]","[1498.8,1498.8,1000,0,498.8,""smooth"",""down"",""down"",""good_move"",4082.4,2583.3,2188.6,1499.1,394.7,""smooth"",""down"",""down"",""good_move"",7147.1,3064.6,2671.7,4082.5,392.9,""oops"",""down"",""left"",""bad_move"",9666.6,2519.1,2140,7147.5,379.1,""smooth"",""down"",""down"",""good_move"",12309.9,2643.1,2283,9666.8,360.1,""smooth"",""right"",""right"",""good_move"",14814.9,2504.5,2048.9,12310.5,455.5,""smooth"",""right"",""right"",""good_move"",17314.2,2499.1,2211.2,14815.1,287.9,""while_blue"",""right"",""right"",""good_move"",20229.6,2913.8,2541.4,17315.8,372.4,""smooth"",""right"",""right"",""good_move""]"
"8026","","<div style=""width:500px;"">
  <p>What determined the result of this run?</p>
  </div>","10","html-slider-response","19","1289606","0.0-7.0-1.1","121","1","2025-08-06 08:49:16","36c45c0696341be0efffe67d72a12abb","197.245.162.70","Mozilla/5.0 (Windows NT 10.0; Win64; x64) AppleWebKit/537.36 (KHTML, like Gecko) Chrome/138.0.0.0 Safari/537.36","WebKit","Chrome","138.0.0.0","Windows","10.0","https://app.prolific.com/","en-ZA,en-GB;q=0.9,en-US;q=0.8,en;q=0.7","614e1c414dff2e589169f360","6877649eabb845cf142cd221","6893170078270a7f4d4eb2ce","1","614e1c414dff2e589169f360","1","2025-08-06T09:10:49.619Z","","","","AttribQ","","","","","","","","","","","50","","","","","","","","","","","","","","","","","","","","","","","","","","",""
"3824","","<div style=""width:500px;"">
  <p>How much control did you have over the ball?</p>
  </div>","41","html-slider-response","20","1293432","0.0-7.0-2.1","121","1","2025-08-06 08:49:16","36c45c0696341be0efffe67d72a12abb","197.245.162.70","Mozilla/5.0 (Windows NT 10.0; Win64; x64) AppleWebKit/537.36 (KHTML, like Gecko) Chrome/138.0.0.0 Safari/537.36","WebKit","Chrome","138.0.0.0","Windows","10.0","https://app.prolific.com/","en-ZA,en-GB;q=0.9,en-US;q=0.8,en;q=0.7","614e1c414dff2e589169f360","6877649eabb845cf142cd221","6893170078270a7f4d4eb2ce","1","614e1c414dff2e589169f360","1","2025-08-06T09:10:53.445Z","","","","ControlQ","","","","","","","","","","","50","","","","","","","","","","","","","","","","","","","","","","","","","","",""
"3751","","<div style=""width:500px;"">
  <p>How would you describe your current emotional state?</p>
  </div>","38","html-slider-response","21","1297183","0.0-7.0-3.1","121","1","2025-08-06 08:49:16","36c45c0696341be0efffe67d72a12abb","197.245.162.70","Mozilla/5.0 (Windows NT 10.0; Win64; x64) AppleWebKit/537.36 (KHTML, like Gecko) Chrome/138.0.0.0 Safari/537.36","WebKit","Chrome","138.0.0.0","Windows","10.0","https://app.prolific.com/","en-ZA,en-GB;q=0.9,en-US;q=0.8,en;q=0.7","614e1c414dff2e589169f360","6877649eabb845cf142cd221","6893170078270a7f4d4eb2ce","1","614e1c414dff2e589169f360","1","2025-08-06T09:10:57.196Z","","","","StressQ","","","","","","","","","","","50","","","","","","","","","","","","","","","","","","","","","","","","","","",""
"2637","","<div style=""width:500px;"">
  <p>What best describes how you currently feel?</p>
  </div>","68","html-slider-response","22","1299821","0.0-7.0-4.1","121","1","2025-08-06 08:49:16","36c45c0696341be0efffe67d72a12abb","197.245.162.70","Mozilla/5.0 (Windows NT 10.0; Win64; x64) AppleWebKit/537.36 (KHTML, like Gecko) Chrome/138.0.0.0 Safari/537.36","WebKit","Chrome","138.0.0.0","Windows","10.0","https://app.prolific.com/","en-ZA,en-GB;q=0.9,en-US;q=0.8,en;q=0.7","614e1c414dff2e589169f360","6877649eabb845cf142cd221","6893170078270a7f4d4eb2ce","1","614e1c414dff2e589169f360","1","2025-08-06T09:10:59.834Z","","","","MotivationQ","","","","","","","","","","","50","","","","","","","","","","","","","","","","","","","","","","","","","","",""
"","","","","ctl-task-cpt","23","1338170","0.0-7.0-0.2","121","1","2025-08-06 08:49:16","36c45c0696341be0efffe67d72a12abb","197.245.162.70","Mozilla/5.0 (Windows NT 10.0; Win64; x64) AppleWebKit/537.36 (KHTML, like Gecko) Chrome/138.0.0.0 Safari/537.36","WebKit","Chrome","138.0.0.0","Windows","10.0","https://app.prolific.com/","en-ZA,en-GB;q=0.9,en-US;q=0.8,en;q=0.7","614e1c414dff2e589169f360","6877649eabb845cf142cd221","6893170078270a7f4d4eb2ce","1","614e1c414dff2e589169f360","1","2025-08-06T09:11:38.183Z","","","","","","","","","","","","","","","","win-only","1","g1:NE,g2:SW","0.8","3","0","1304197","2634.6","7636.6","35332.2","1","4","8","6","2","8","7","14","7","0.10606060606060606","1165.8","3000","440","[""down"",""left""]","{""num_key_presses"":10,""num_perfect"":7,""num_errors"":1,""num_randdir"":2,""num_randdir_good_moves"":0,""num_whilered"":0,""num_whileblue"":1,""num_blue"":1,""num_good_moves"":8}","[425.57142857142856,413.1808016640799,0.2,425.57142857142856,413.1808016640799,100.9,425.57142857142856,413.1808016640799,207.4,425.57142857142856,413.1808016640799,312.8,425.57142857142856,413.1808016640799,418.3,461.57142857142856,413.1808016640799,521.3,428.57142857142856,408.6808016640799,621.5,166.07142857142856,734.1808016640799,721.6,166.07142857142856,779.1808016640799,821.7,131.57142857142856,764.1808016640799,934.7,107.57142857142857,759.6808016640799,1036.5,97.07142857142857,765.6808016640799,1136.5,97.07142857142857,765.6808016640799,1237.1,98.57142857142857,753.6808016640799,1346.5,112.07142857142857,698.1808016640799,1450.9,112.07142857142857,698.1808016640799,1557.5,112.07142857142857,698.1808016640799,1666.5,112.07142857142857,698.1808016640799,1771.7,112.07142857142857,698.1808016640799,1872.8,112.07142857142857,698.1808016640799,1983,112.07142857142857,698.1808016640799,2083.6,112.07142857142857,698.1808016640799,2186.6,112.07142857142857,698.1808016640799,2286.6,112.07142857142857,698.1808016640799,2391.2,112.07142857142857,698.1808016640799,2495.5,112.07142857142857,698.1808016640799,2599.9,112.07142857142857,698.1808016640799,2701.7,112.07142857142857,698.1808016640799,2801.8,112.07142857142857,698.1808016640799,2907.6,112.07142857142857,698.1808016640799,3012.1,112.07142857142857,698.1808016640799,3117.1,112.07142857142857,698.1808016640799,3221.7,112.07142857142857,698.1808016640799,3328.7,112.07142857142857,698.1808016640799,3431.9,112.07142857142857,698.1808016640799,3536.9,112.07142857142857,698.1808016640799,3644.3,112.07142857142857,698.1808016640799,3750,112.07142857142857,698.1808016640799,3850.1,112.07142857142857,698.1808016640799,3951.8,112.07142857142857,698.1808016640799,4057.5,112.07142857142857,698.1808016640799,4161.8,112.07142857142857,698.1808016640799,4265.1,112.07142857142857,698.1808016640799,4367.5,112.07142857142857,698.1808016640799,4471.6,112.07142857142857,698.1808016640799,4578.7,112.07142857142857,698.1808016640799,4678.7,112.07142857142857,698.1808016640799,4782.7,112.07142857142857,698.1808016640799,4883.9,112.07142857142857,698.1808016640799,4986.6]","[1496.8,1496.8,1000,0,496.8,""oops"",""left"",""right"",""bad_move"",4396.9,2899.7,2498.9,1497.3,400.7,""smooth"",""down"",""down"",""good_move"",7828.1,3430.8,3079.4,4397.3,351.4,""oops"",""down"",""up"",""bad_move"",10733.9,2905.5,2577.2,7828.4,328.3,""smooth"",""down"",""down"",""good_move"",13711.8,2977.8,2643.9,10734,333.9,""smooth"",""left"",""left"",""good_move"",16386.1,2673.8,2286.6,13712.3,387.2,""smooth"",""left"",""left"",""good_move"",19744.6,3358.4,3019.8,16386.3,338.5,""smooth"",""left"",""left"",""good_move"",22511.2,2765.2,2413.4,19746,351.8,""while_blue"",""left"",""down"",""good_move"",25408.3,2896.7,2555.6,22511.6,341.1,""smooth"",""left"",""left"",""good_move"",27582.5,2173.4,1858.8,25409.2,314.5,""smooth"",""down"",""down"",""good_move""]"
"12406","","<div style=""width:500px;"">
  <p>What determined the result of this run?</p>
  </div>","19","html-slider-response","24","1350578","0.0-7.0-1.2","121","1","2025-08-06 08:49:16","36c45c0696341be0efffe67d72a12abb","197.245.162.70","Mozilla/5.0 (Windows NT 10.0; Win64; x64) AppleWebKit/537.36 (KHTML, like Gecko) Chrome/138.0.0.0 Safari/537.36","WebKit","Chrome","138.0.0.0","Windows","10.0","https://app.prolific.com/","en-ZA,en-GB;q=0.9,en-US;q=0.8,en;q=0.7","614e1c414dff2e589169f360","6877649eabb845cf142cd221","6893170078270a7f4d4eb2ce","1","614e1c414dff2e589169f360","1","2025-08-06T09:11:50.591Z","","","","AttribQ","","","","","","","","","","","50","","","","","","","","","","","","","","","","","","","","","","","","","","",""
"1904","","<div style=""width:500px;"">
  <p>How much control did you have over the ball?</p>
  </div>","17","html-slider-response","25","1352482","0.0-7.0-2.2","121","1","2025-08-06 08:49:16","36c45c0696341be0efffe67d72a12abb","197.245.162.70","Mozilla/5.0 (Windows NT 10.0; Win64; x64) AppleWebKit/537.36 (KHTML, like Gecko) Chrome/138.0.0.0 Safari/537.36","WebKit","Chrome","138.0.0.0","Windows","10.0","https://app.prolific.com/","en-ZA,en-GB;q=0.9,en-US;q=0.8,en;q=0.7","614e1c414dff2e589169f360","6877649eabb845cf142cd221","6893170078270a7f4d4eb2ce","1","614e1c414dff2e589169f360","1","2025-08-06T09:11:52.496Z","","","","ControlQ","","","","","","","","","","","50","","","","","","","","","","","","","","","","","","","","","","","","","","",""
"2930","","<div style=""width:500px;"">
  <p>How would you describe your current emotional state?</p>
  </div>","19","html-slider-response","26","1355414","0.0-7.0-3.2","121","1","2025-08-06 08:49:16","36c45c0696341be0efffe67d72a12abb","197.245.162.70","Mozilla/5.0 (Windows NT 10.0; Win64; x64) AppleWebKit/537.36 (KHTML, like Gecko) Chrome/138.0.0.0 Safari/537.36","WebKit","Chrome","138.0.0.0","Windows","10.0","https://app.prolific.com/","en-ZA,en-GB;q=0.9,en-US;q=0.8,en;q=0.7","614e1c414dff2e589169f360","6877649eabb845cf142cd221","6893170078270a7f4d4eb2ce","1","614e1c414dff2e589169f360","1","2025-08-06T09:11:55.427Z","","","","StressQ","","","","","","","","","","","50","","","","","","","","","","","","","","","","","","","","","","","","","","",""
"2517","","<div style=""width:500px;"">
  <p>What best describes how you currently feel?</p>
  </div>","29","html-slider-response","27","1357932","0.0-7.0-4.2","121","1","2025-08-06 08:49:16","36c45c0696341be0efffe67d72a12abb","197.245.162.70","Mozilla/5.0 (Windows NT 10.0; Win64; x64) AppleWebKit/537.36 (KHTML, like Gecko) Chrome/138.0.0.0 Safari/537.36","WebKit","Chrome","138.0.0.0","Windows","10.0","https://app.prolific.com/","en-ZA,en-GB;q=0.9,en-US;q=0.8,en;q=0.7","614e1c414dff2e589169f360","6877649eabb845cf142cd221","6893170078270a7f4d4eb2ce","1","614e1c414dff2e589169f360","1","2025-08-06T09:11:57.945Z","","","","MotivationQ","","","","","","","","","","","50","","","","","","","","","","","","","","","","","","","","","","","","","","",""
"","","","","ctl-task-cpt","28","1381734","0.0-7.0-0.3","121","1","2025-08-06 08:49:16","36c45c0696341be0efffe67d72a12abb","197.245.162.70","Mozilla/5.0 (Windows NT 10.0; Win64; x64) AppleWebKit/537.36 (KHTML, like Gecko) Chrome/138.0.0.0 Safari/537.36","WebKit","Chrome","138.0.0.0","Windows","10.0","https://app.prolific.com/","en-ZA,en-GB;q=0.9,en-US;q=0.8,en;q=0.7","614e1c414dff2e589169f360","6877649eabb845cf142cd221","6893170078270a7f4d4eb2ce","1","614e1c414dff2e589169f360","1","2025-08-06T09:12:21.747Z","","","","","","","","","","","","","","","","win-only","3","g1:SW,g2:NE","0.7","4","0","1362311.3","1165.6","6166.9","20781.5","1","4","4","6","2","4","4","18","14","0.13636363636363635","1445.2","3000","1185","[""up"",""right""]","{""num_key_presses"":6,""num_perfect"":5,""num_errors"":0,""num_randdir"":1,""num_randdir_good_moves"":1,""num_whilered"":0,""num_whileblue"":0,""num_blue"":0,""num_good_moves"":6}","[413.57142857142856,420.6808016640799,0.2,413.57142857142856,420.6808016640799,100.1,412.07142857142856,422.1808016640799,202.7,410.57142857142856,429.6808016640799,305.7,409.07142857142856,431.1808016640799,413,409.07142857142856,431.1808016640799,514.1,409.07142857142856,431.1808016640799,615.2,409.07142857142856,431.1808016640799,716.5,380.57142857142856,446.1808016640799,822.2,367.07142857142856,455.1808016640799,927.7,610.0714285714286,233.18080166407992,1031.9,682.0714285714286,131.18080166407992,1131.8,698.5714285714286,104.18080166407994,1232.7,707.5714285714286,89.18080166407994,1335,743.5714285714286,63.68080166407994,1436,743.5714285714286,63.68080166407994,1540,752.5714285714286,87.68080166407994,1653.8,872.5714285714286,317.1808016640799,1754.7,1052.5714285714287,435.6808016640799,1855,1052.5714285714287,435.6808016640799,1955.4,1052.5714285714287,435.6808016640799,2063.2,1052.5714285714287,435.6808016640799,2166.7,1052.5714285714287,435.6808016640799,2270.1,1052.5714285714287,435.6808016640799,2371.8,1052.5714285714287,435.6808016640799,2486.2,1052.5714285714287,435.6808016640799,2600.7,1052.5714285714287,435.6808016640799,2701.6,1052.5714285714287,435.6808016640799,2813.8,1052.5714285714287,435.6808016640799,2916.1,1052.5714285714287,435.6808016640799,3020.6,1052.5714285714287,435.6808016640799,3120.6,1052.5714285714287,435.6808016640799,3220.7,1052.5714285714287,435.6808016640799,3321,1052.5714285714287,435.6808016640799,3421.7,1052.5714285714287,435.6808016640799,3526.3,1052.5714285714287,435.6808016640799,3631.4,1052.5714285714287,435.6808016640799,3736.7,1052.5714285714287,435.6808016640799,3839.7,1052.5714285714287,435.6808016640799,3950.9,1052.5714285714287,435.6808016640799,4053,1052.5714285714287,435.6808016640799,4165.1,1052.5714285714287,435.6808016640799,4265.1,1052.5714285714287,435.6808016640799,4365.5,1052.5714285714287,435.6808016640799,4470.5,1052.5714285714287,435.6808016640799,4571.2,1052.5714285714287,435.6808016640799,4684.8,1052.5714285714287,435.6808016640799,4785.5,1052.5714285714287,435.6808016640799,4887.3]","[1490.3,1490.3,1000,0,490.3,""smooth"",""up"",""up"",""good_move"",4725.5,3232.9,2842.9,1492.6,390,""smooth"",""up"",""up"",""good_move"",6813,2087.2,1661.2,4725.8,426,""smooth"",""up"",""up"",""good_move"",9424,2610.8,2209.2,6813.2,401.6,""smooth"",""right"",""right"",""good_move"",12093.1,2667.4,2334.2,9425.7,333.2,""smooth"",""right"",""right"",""good_move"",14497.5,2403.6,1988.4,12093.9,415.2,""oops"",""right"",""right"",""good_move""]"
"3434","","<div style=""width:500px;"">
  <p>What determined the result of this run?</p>
  </div>","72","html-slider-response","29","1385170","0.0-7.0-1.3","121","1","2025-08-06 08:49:16","36c45c0696341be0efffe67d72a12abb","197.245.162.70","Mozilla/5.0 (Windows NT 10.0; Win64; x64) AppleWebKit/537.36 (KHTML, like Gecko) Chrome/138.0.0.0 Safari/537.36","WebKit","Chrome","138.0.0.0","Windows","10.0","https://app.prolific.com/","en-ZA,en-GB;q=0.9,en-US;q=0.8,en;q=0.7","614e1c414dff2e589169f360","6877649eabb845cf142cd221","6893170078270a7f4d4eb2ce","1","614e1c414dff2e589169f360","1","2025-08-06T09:12:25.183Z","","","","AttribQ","","","","","","","","","","","50","","","","","","","","","","","","","","","","","","","","","","","","","","",""
"2471","","<div style=""width:500px;"">
  <p>How much control did you have over the ball?</p>
  </div>","73","html-slider-response","30","1387642","0.0-7.0-2.3","121","1","2025-08-06 08:49:16","36c45c0696341be0efffe67d72a12abb","197.245.162.70","Mozilla/5.0 (Windows NT 10.0; Win64; x64) AppleWebKit/537.36 (KHTML, like Gecko) Chrome/138.0.0.0 Safari/537.36","WebKit","Chrome","138.0.0.0","Windows","10.0","https://app.prolific.com/","en-ZA,en-GB;q=0.9,en-US;q=0.8,en;q=0.7","614e1c414dff2e589169f360","6877649eabb845cf142cd221","6893170078270a7f4d4eb2ce","1","614e1c414dff2e589169f360","1","2025-08-06T09:12:27.655Z","","","","ControlQ","","","","","","","","","","","50","","","","","","","","","","","","","","","","","","","","","","","","","","",""
"2701","","<div style=""width:500px;"">
  <p>How would you describe your current emotional state?</p>
  </div>","28","html-slider-response","31","1390344","0.0-7.0-3.3","121","1","2025-08-06 08:49:16","36c45c0696341be0efffe67d72a12abb","197.245.162.70","Mozilla/5.0 (Windows NT 10.0; Win64; x64) AppleWebKit/537.36 (KHTML, like Gecko) Chrome/138.0.0.0 Safari/537.36","WebKit","Chrome","138.0.0.0","Windows","10.0","https://app.prolific.com/","en-ZA,en-GB;q=0.9,en-US;q=0.8,en;q=0.7","614e1c414dff2e589169f360","6877649eabb845cf142cd221","6893170078270a7f4d4eb2ce","1","614e1c414dff2e589169f360","1","2025-08-06T09:12:30.357Z","","","","StressQ","","","","","","","","","","","50","","","","","","","","","","","","","","","","","","","","","","","","","","",""
"2533","","<div style=""width:500px;"">
  <p>What best describes how you currently feel?</p>
  </div>","76","html-slider-response","32","1392880","0.0-7.0-4.3","121","1","2025-08-06 08:49:16","36c45c0696341be0efffe67d72a12abb","197.245.162.70","Mozilla/5.0 (Windows NT 10.0; Win64; x64) AppleWebKit/537.36 (KHTML, like Gecko) Chrome/138.0.0.0 Safari/537.36","WebKit","Chrome","138.0.0.0","Windows","10.0","https://app.prolific.com/","en-ZA,en-GB;q=0.9,en-US;q=0.8,en;q=0.7","614e1c414dff2e589169f360","6877649eabb845cf142cd221","6893170078270a7f4d4eb2ce","1","614e1c414dff2e589169f360","1","2025-08-06T09:12:32.894Z","","","","MotivationQ","","","","","","","","","","","50","","","","","","","","","","","","","","","","","","","","","","","","","","",""
"","","","","ctl-task-cpt","33","1426442","0.0-7.0-0.4","121","1","2025-08-06 08:49:16","36c45c0696341be0efffe67d72a12abb","197.245.162.70","Mozilla/5.0 (Windows NT 10.0; Win64; x64) AppleWebKit/537.36 (KHTML, like Gecko) Chrome/138.0.0.0 Safari/537.36","WebKit","Chrome","138.0.0.0","Windows","10.0","https://app.prolific.com/","en-ZA,en-GB;q=0.9,en-US;q=0.8,en;q=0.7","614e1c414dff2e589169f360","6877649eabb845cf142cd221","6893170078270a7f4d4eb2ce","1","614e1c414dff2e589169f360","1","2025-08-06T09:13:06.455Z","","","","","","","","","","","","","","","","win-only","0","g1:NW,g2:SE","0.6","5","0","1397274.7","1052.2","6057.5","30542.1","1","4","8","6","2","8","7","25","18","0.1893939393939394","921.6","3000","1325","[""down"",""right""]","{""num_key_presses"":8,""num_perfect"":5,""num_errors"":1,""num_randdir"":2,""num_randdir_good_moves"":1,""num_whilered"":0,""num_whileblue"":1,""num_blue"":2,""num_good_moves"":7}","[416.57142857142856,416.1808016640799,0.2,416.57142857142856,416.1808016640799,100.1,416.57142857142856,416.1808016640799,215.9,416.57142857142856,416.1808016640799,316.4,416.57142857142856,416.1808016640799,417.5,425.57142857142856,503.1808016640799,521.2,718.0714285714286,782.1808016640799,632.8,734.5714285714286,801.6808016640799,733.2,755.5714285714286,797.1808016640799,833.4,760.0714285714286,782.1808016640799,944.2,760.0714285714286,782.1808016640799,1048.3,760.0714285714286,782.1808016640799,1150.9,760.0714285714286,782.1808016640799,1254.1,760.0714285714286,785.1808016640799,1355.1,760.0714285714286,785.1808016640799,1455.6,761.5714285714286,782.1808016640799,1560.7,761.5714285714286,782.1808016640799,1666.6,761.5714285714286,782.1808016640799,1766.8,761.5714285714286,782.1808016640799,1871.6,761.5714285714286,782.1808016640799,1971.9,761.5714285714286,782.1808016640799,2073.2,761.5714285714286,782.1808016640799,2176,761.5714285714286,782.1808016640799,2280.3,761.5714285714286,782.1808016640799,2396.7,761.5714285714286,782.1808016640799,2499.6,761.5714285714286,782.1808016640799,2600.2,761.5714285714286,782.1808016640799,2705.4,761.5714285714286,782.1808016640799,2811.6,761.5714285714286,782.1808016640799,2912.3,761.5714285714286,782.1808016640799,3013.9,761.5714285714286,782.1808016640799,3115.2,761.5714285714286,782.1808016640799,3232.1,761.5714285714286,782.1808016640799,3333.3,761.5714285714286,782.1808016640799,3433.8,761.5714285714286,782.1808016640799,3533.8,761.5714285714286,782.1808016640799,3639.7,761.5714285714286,782.1808016640799,3745.7,761.5714285714286,782.1808016640799,3846.3,761.5714285714286,782.1808016640799,3948.6,761.5714285714286,782.1808016640799,4048.7,761.5714285714286,782.1808016640799,4165.8,761.5714285714286,782.1808016640799,4266.3,761.5714285714286,782.1808016640799,4371,761.5714285714286,782.1808016640799,4471.2,761.5714285714286,782.1808016640799,4571.6,761.5714285714286,782.1808016640799,4676.8,761.5714285714286,782.1808016640799,4778.6,761.5714285714286,782.1808016640799,4878.7,761.5714285714286,782.1808016640799,4979.2]","[4511.7,4511.7,2025.6,2026.6,459.5,""smooth"",""down"",""down"",""good_move"",7689.8,3176.1,2825.6,4513.8,350.4,""oops"",""down"",""up"",""bad_move"",10491.4,2801.3,2489.7,7690.1,311.6,""oops"",""right"",""down"",""good_move"",13387.8,2896.2,2558.9,10491.6,337.3,""smooth"",""right"",""right"",""good_move"",16239.9,2851.7,2480.6,13388.3,371,""smooth"",""right"",""right"",""good_move"",18859.4,2619.1,2274.6,16240.3,344.5,""smooth"",""right"",""right"",""good_move"",21490.4,2630.8,2263.6,18859.6,367.2,""smooth"",""down"",""down"",""good_move"",24356.5,2865.8,2530.4,21490.7,335.4,""while_blue"",""down"",""down"",""good_move""]"
"9776","","<div style=""width:500px;"">
  <p>What determined the result of this run?</p>
  </div>","49","html-slider-response","34","1436221","0.0-7.0-1.4","121","1","2025-08-06 08:49:16","36c45c0696341be0efffe67d72a12abb","197.245.162.70","Mozilla/5.0 (Windows NT 10.0; Win64; x64) AppleWebKit/537.36 (KHTML, like Gecko) Chrome/138.0.0.0 Safari/537.36","WebKit","Chrome","138.0.0.0","Windows","10.0","https://app.prolific.com/","en-ZA,en-GB;q=0.9,en-US;q=0.8,en;q=0.7","614e1c414dff2e589169f360","6877649eabb845cf142cd221","6893170078270a7f4d4eb2ce","1","614e1c414dff2e589169f360","1","2025-08-06T09:13:16.235Z","","","","AttribQ","","","","","","","","","","","50","","","","","","","","","","","","","","","","","","","","","","","","","","",""
"3454","","<div style=""width:500px;"">
  <p>How much control did you have over the ball?</p>
  </div>","64","html-slider-response","35","1439688","0.0-7.0-2.4","121","1","2025-08-06 08:49:16","36c45c0696341be0efffe67d72a12abb","197.245.162.70","Mozilla/5.0 (Windows NT 10.0; Win64; x64) AppleWebKit/537.36 (KHTML, like Gecko) Chrome/138.0.0.0 Safari/537.36","WebKit","Chrome","138.0.0.0","Windows","10.0","https://app.prolific.com/","en-ZA,en-GB;q=0.9,en-US;q=0.8,en;q=0.7","614e1c414dff2e589169f360","6877649eabb845cf142cd221","6893170078270a7f4d4eb2ce","1","614e1c414dff2e589169f360","1","2025-08-06T09:13:19.701Z","","","","ControlQ","","","","","","","","","","","50","","","","","","","","","","","","","","","","","","","","","","","","","","",""
"2864","","<div style=""width:500px;"">
  <p>How would you describe your current emotional state?</p>
  </div>","17","html-slider-response","36","1442556","0.0-7.0-3.4","121","1","2025-08-06 08:49:16","36c45c0696341be0efffe67d72a12abb","197.245.162.70","Mozilla/5.0 (Windows NT 10.0; Win64; x64) AppleWebKit/537.36 (KHTML, like Gecko) Chrome/138.0.0.0 Safari/537.36","WebKit","Chrome","138.0.0.0","Windows","10.0","https://app.prolific.com/","en-ZA,en-GB;q=0.9,en-US;q=0.8,en;q=0.7","614e1c414dff2e589169f360","6877649eabb845cf142cd221","6893170078270a7f4d4eb2ce","1","614e1c414dff2e589169f360","1","2025-08-06T09:13:22.570Z","","","","StressQ","","","","","","","","","","","50","","","","","","","","","","","","","","","","","","","","","","","","","","",""
"4799","","<div style=""width:500px;"">
  <p>What best describes how you currently feel?</p>
  </div>","81","html-slider-response","37","1447366","0.0-7.0-4.4","121","1","2025-08-06 08:49:16","36c45c0696341be0efffe67d72a12abb","197.245.162.70","Mozilla/5.0 (Windows NT 10.0; Win64; x64) AppleWebKit/537.36 (KHTML, like Gecko) Chrome/138.0.0.0 Safari/537.36","WebKit","Chrome","138.0.0.0","Windows","10.0","https://app.prolific.com/","en-ZA,en-GB;q=0.9,en-US;q=0.8,en;q=0.7","614e1c414dff2e589169f360","6877649eabb845cf142cd221","6893170078270a7f4d4eb2ce","1","614e1c414dff2e589169f360","1","2025-08-06T09:13:27.380Z","","","","MotivationQ","","","","","","","","","","","50","","","","","","","","","","","","","","","","","","","","","","","","","","",""
"","","","","ctl-task-cpt","38","1496461","0.0-7.0-0.5","121","1","2025-08-06 08:49:16","36c45c0696341be0efffe67d72a12abb","197.245.162.70","Mozilla/5.0 (Windows NT 10.0; Win64; x64) AppleWebKit/537.36 (KHTML, like Gecko) Chrome/138.0.0.0 Safari/537.36","WebKit","Chrome","138.0.0.0","Windows","10.0","https://app.prolific.com/","en-ZA,en-GB;q=0.9,en-US;q=0.8,en;q=0.7","614e1c414dff2e589169f360","6877649eabb845cf142cd221","6893170078270a7f4d4eb2ce","1","614e1c414dff2e589169f360","1","2025-08-06T09:14:16.475Z","","","","","","","","","","","","","","","","win-only","3","g1:SW,g2:NE","0.5","6","0","1451765.3","1222.5","6253.9","46071.2","1","4","4","6","2","-4","-6","19","25","0.14393939393939395","1041","3000","-1910","[""up"",""right""]","{""num_key_presses"":10,""num_perfect"":3,""num_errors"":2,""num_randdir"":5,""num_randdir_good_moves"":0,""num_whilered"":0,""num_whileblue"":0,""num_blue"":3,""num_good_moves"":3}","[425.57142857142856,416.1808016640799,0.1,425.57142857142856,416.1808016640799,101.2,425.57142857142856,416.1808016640799,218.4,425.57142857142856,416.1808016640799,333.7,428.57142857142856,440.1808016640799,435.7,407.57142857142856,488.1808016640799,539.9,520.0714285714286,371.1808016640799,649.2,755.5714285714286,150.68080166407992,757.1,761.5714285714286,116.18080166407994,861.8,775.0714285714286,65.18080166407994,963.5,775.0714285714286,65.18080166407994,1066.1,775.0714285714286,65.18080166407994,1180.6,833.5714285714286,173.18080166407992,1281.4,1078.0714285714287,467.1808016640799,1386.7,1142.5714285714287,546.6808016640799,1500.1,1147.0714285714287,548.1808016640799,1683.4,1147.0714285714287,548.1808016640799,1797.6,1147.0714285714287,548.1808016640799,1899,1147.0714285714287,548.1808016640799,2006.6,1147.0714285714287,548.1808016640799,2111.9,416.57142857142856,422.1808016640799,2216.6,416.57142857142856,422.1808016640799,2322.9,416.57142857142856,422.1808016640799,2425.1,416.57142857142856,422.1808016640799,2620.1,416.57142857142856,422.1808016640799,2881.3,416.57142857142856,422.1808016640799,2986.9,416.57142857142856,422.1808016640799,3093.2,416.57142857142856,422.1808016640799,3199.6,416.57142857142856,422.1808016640799,3332.2,416.57142857142856,422.1808016640799,3443.9,416.57142857142856,422.1808016640799,3557.8,416.57142857142856,422.1808016640799,3666.2,416.57142857142856,422.1808016640799,3771.2,416.57142857142856,422.1808016640799,3872,416.57142857142856,422.1808016640799,3984.1,416.57142857142856,422.1808016640799,4087.1,416.57142857142856,422.1808016640799,4202.9,416.57142857142856,422.1808016640799,4308.5,416.57142857142856,422.1808016640799,4420.2,416.57142857142856,422.1808016640799,4521.5,416.57142857142856,422.1808016640799,4626.6,416.57142857142856,422.1808016640799,4726.7,416.57142857142856,422.1808016640799,4835.8,416.57142857142856,422.1808016640799,4954.4]","[1475.1,1475.1,1000,0,475.1,""smooth"",""right"",""right"",""good_move"",4393.5,2918,2455.8,1475.5,462.2,""smooth"",""right"",""right"",""good_move"",10647.3,6253.5,2500,7627.4,519.9,""oops"",""up"",""left"",""bad_move"",13206.2,2558.4,2179.5,10647.8,379,""oops"",""right"",""left"",""bad_move"",18568.3,5360.3,1842.6,16228.6,497.1,""oops"",""up"",""left"",""bad_move"",21589.8,3020.8,2646.6,18569,374.2,""oops"",""up"",""left"",""bad_move"",24312.8,2721.5,2214.2,21591.3,507.3,""smooth"",""up"",""up"",""good_move"",27144.6,2831.1,2357.9,24313.5,473.2,""oops"",""up"",""down"",""bad_move"",30265.2,3120.2,3309.8,27145,-189.6,""error"",""-"",""-"",""no_move"",31613.2,1347.8,1559.3,31267.3,-1213.4,""error"",""-"",""-"",""no_move""]"
"37910","","<div style=""width:500px;"">
  <p>What determined the result of this run?</p>
  </div>","22","html-slider-response","39","1534368","0.0-7.0-1.5","121","1","2025-08-06 08:49:16","36c45c0696341be0efffe67d72a12abb","197.245.162.70","Mozilla/5.0 (Windows NT 10.0; Win64; x64) AppleWebKit/537.36 (KHTML, like Gecko) Chrome/138.0.0.0 Safari/537.36","WebKit","Chrome","138.0.0.0","Windows","10.0","https://app.prolific.com/","en-ZA,en-GB;q=0.9,en-US;q=0.8,en;q=0.7","614e1c414dff2e589169f360","6877649eabb845cf142cd221","6893170078270a7f4d4eb2ce","1","614e1c414dff2e589169f360","1","2025-08-06T09:14:54.382Z","","","","AttribQ","","","","","","","","","","","50","","","","","","","","","","","","","","","","","","","","","","","","","","",""
"2714","","<div style=""width:500px;"">
  <p>How much control did you have over the ball?</p>
  </div>","27","html-slider-response","40","1537086","0.0-7.0-2.5","121","1","2025-08-06 08:49:16","36c45c0696341be0efffe67d72a12abb","197.245.162.70","Mozilla/5.0 (Windows NT 10.0; Win64; x64) AppleWebKit/537.36 (KHTML, like Gecko) Chrome/138.0.0.0 Safari/537.36","WebKit","Chrome","138.0.0.0","Windows","10.0","https://app.prolific.com/","en-ZA,en-GB;q=0.9,en-US;q=0.8,en;q=0.7","614e1c414dff2e589169f360","6877649eabb845cf142cd221","6893170078270a7f4d4eb2ce","1","614e1c414dff2e589169f360","1","2025-08-06T09:14:57.100Z","","","","ControlQ","","","","","","","","","","","50","","","","","","","","","","","","","","","","","","","","","","","","","","",""
"2789","","<div style=""width:500px;"">
  <p>How would you describe your current emotional state?</p>
  </div>","65","html-slider-response","41","1539888","0.0-7.0-3.5","121","1","2025-08-06 08:49:16","36c45c0696341be0efffe67d72a12abb","197.245.162.70","Mozilla/5.0 (Windows NT 10.0; Win64; x64) AppleWebKit/537.36 (KHTML, like Gecko) Chrome/138.0.0.0 Safari/537.36","WebKit","Chrome","138.0.0.0","Windows","10.0","https://app.prolific.com/","en-ZA,en-GB;q=0.9,en-US;q=0.8,en;q=0.7","614e1c414dff2e589169f360","6877649eabb845cf142cd221","6893170078270a7f4d4eb2ce","1","614e1c414dff2e589169f360","1","2025-08-06T09:14:59.903Z","","","","StressQ","","","","","","","","","","","50","","","","","","","","","","","","","","","","","","","","","","","","","","",""
"3059","","<div style=""width:500px;"">
  <p>What best describes how you currently feel?</p>
  </div>","73","html-slider-response","42","1542960","0.0-7.0-4.5","121","1","2025-08-06 08:49:16","36c45c0696341be0efffe67d72a12abb","197.245.162.70","Mozilla/5.0 (Windows NT 10.0; Win64; x64) AppleWebKit/537.36 (KHTML, like Gecko) Chrome/138.0.0.0 Safari/537.36","WebKit","Chrome","138.0.0.0","Windows","10.0","https://app.prolific.com/","en-ZA,en-GB;q=0.9,en-US;q=0.8,en;q=0.7","614e1c414dff2e589169f360","6877649eabb845cf142cd221","6893170078270a7f4d4eb2ce","1","614e1c414dff2e589169f360","1","2025-08-06T09:15:02.974Z","","","","MotivationQ","","","","","","","","","","","50","","","","","","","","","","","","","","","","","","","","","","","","","","",""
"","","","","ctl-task-cpt","43","1602875","0.0-7.0-0.6","121","1","2025-08-06 08:49:16","36c45c0696341be0efffe67d72a12abb","197.245.162.70","Mozilla/5.0 (Windows NT 10.0; Win64; x64) AppleWebKit/537.36 (KHTML, like Gecko) Chrome/138.0.0.0 Safari/537.36","WebKit","Chrome","138.0.0.0","Windows","10.0","https://app.prolific.com/","en-ZA,en-GB;q=0.9,en-US;q=0.8,en;q=0.7","614e1c414dff2e589169f360","6877649eabb845cf142cd221","6893170078270a7f4d4eb2ce","1","614e1c414dff2e589169f360","1","2025-08-06T09:16:02.889Z","","","","","","","","","","","","","","","","win-only","2","g1:SE,g2:NW","0.4","7","0","1547366.4","1850.6","6854.8","56881.6","1","4","8","6","2","-8","-8","11","19","0.08333333333333333","2603.2","3000","-1760","[""left"",""up""]","{""num_key_presses"":13,""num_perfect"":5,""num_errors"":0,""num_randdir"":8,""num_randdir_good_moves"":3,""num_whilered"":0,""num_whileblue"":0,""num_blue"":4,""num_good_moves"":8}","[424.07142857142856,410.1808016640799,0.1,424.07142857142856,410.1808016640799,102.9,464.57142857142856,420.6808016640799,212.6,656.5714285714286,455.1808016640799,314.3,671.5714285714286,449.1808016640799,419.7,671.5714285714286,449.1808016640799,523.1,671.5714285714286,449.1808016640799,637.4,671.5714285714286,449.1808016640799,739,671.5714285714286,449.1808016640799,854.8,671.5714285714286,449.1808016640799,969.5,671.5714285714286,449.1808016640799,1070.6,671.5714285714286,449.1808016640799,1170.8,671.5714285714286,449.1808016640799,1287.7,671.5714285714286,449.1808016640799,1393.1,671.5714285714286,449.1808016640799,1511.1,671.5714285714286,449.1808016640799,1629.3,566.5714285714286,507.6808016640799,1735.1,184.07142857142856,173.18080166407992,1836.7,-153.42857142857144,-102.81919833592006,1940,-153.42857142857144,-102.81919833592006,2042.8,-25.92857142857143,56.18080166407994,2155.1,89.57142857142857,155.18080166407992,2255.2,125.57142857142857,183.68080166407992,2355.6,94.07142857142857,117.68080166407994,2455.9,77.57142857142857,95.18080166407994,2567.5,77.57142857142857,95.18080166407994,2687.6,79.07142857142857,93.68080166407994,2790,610.0714285714286,389.1808016640799,2893.6,1028.5714285714287,704.1808016640799,3004.3,1028.5714285714287,704.1808016640799,3124.5,1028.5714285714287,704.1808016640799,3232.7,1028.5714285714287,704.1808016640799,3334.8,1028.5714285714287,704.1808016640799,3440.3,1028.5714285714287,704.1808016640799,3547,1028.5714285714287,704.1808016640799,3665.9,1028.5714285714287,704.1808016640799,3774.1,1028.5714285714287,704.1808016640799,3875.5,1028.5714285714287,704.1808016640799,3982.3,1028.5714285714287,704.1808016640799,4091.2,1028.5714285714287,704.1808016640799,4197.3,1028.5714285714287,704.1808016640799,4300,1028.5714285714287,704.1808016640799,4403.6,1028.5714285714287,704.1808016640799,4509.3,1028.5714285714287,704.1808016640799,4613.1,1028.5714285714287,704.1808016640799,4713.6,1028.5714285714287,704.1808016640799,4823.5,1028.5714285714287,704.1808016640799,4936.9]","[1517.7,1517.7,1000,0,517.7,""oops"",""up"",""right"",""bad_move"",4158.7,2640.5,2184.9,1518.2,455.6,""smooth"",""left"",""left"",""good_move"",7178.9,3019.8,2614.4,4159.1,405.4,""smooth"",""left"",""left"",""good_move"",10391.6,3211.6,2834.5,7180,377.2,""oops"",""left"",""right"",""bad_move"",13065.3,2673.3,2280.4,10392,392.9,""oops"",""left"",""right"",""bad_move"",18905.4,5840,2234.9,16262.1,408.5,""oops"",""up"",""left"",""good_move"",21993.1,3086.9,2623.9,18906.2,463,""oops"",""up"",""up"",""good_move"",24524.4,2528.5,2184.1,21995.9,344.4,""smooth"",""up"",""up"",""good_move"",30543.7,6017.7,2230.3,27960.3,353.1,""oops"",""up"",""up"",""good_move"",37096.4,6552,2671.9,34034.4,390.1,""smooth"",""left"",""left"",""good_move"",39637.6,2540.9,2157.1,37096.8,383.8,""oops"",""left"",""right"",""bad_move"",42396.2,2756.8,2364,39639.4,392.8,""oops"",""left"",""right"",""bad_move"",45231.3,2834.8,2498.5,42396.5,336.3,""smooth"",""left"",""left"",""good_move""]"
"3469","","<div style=""width:500px;"">
  <p>What determined the result of this run?</p>
  </div>","4","html-slider-response","44","1606348","0.0-7.0-1.6","121","1","2025-08-06 08:49:16","36c45c0696341be0efffe67d72a12abb","197.245.162.70","Mozilla/5.0 (Windows NT 10.0; Win64; x64) AppleWebKit/537.36 (KHTML, like Gecko) Chrome/138.0.0.0 Safari/537.36","WebKit","Chrome","138.0.0.0","Windows","10.0","https://app.prolific.com/","en-ZA,en-GB;q=0.9,en-US;q=0.8,en;q=0.7","614e1c414dff2e589169f360","6877649eabb845cf142cd221","6893170078270a7f4d4eb2ce","1","614e1c414dff2e589169f360","1","2025-08-06T09:16:06.362Z","","","","AttribQ","","","","","","","","","","","50","","","","","","","","","","","","","","","","","","","","","","","","","","",""
"4081","","<div style=""width:500px;"">
  <p>How much control did you have over the ball?</p>
  </div>","15","html-slider-response","45","1610442","0.0-7.0-2.6","121","1","2025-08-06 08:49:16","36c45c0696341be0efffe67d72a12abb","197.245.162.70","Mozilla/5.0 (Windows NT 10.0; Win64; x64) AppleWebKit/537.36 (KHTML, like Gecko) Chrome/138.0.0.0 Safari/537.36","WebKit","Chrome","138.0.0.0","Windows","10.0","https://app.prolific.com/","en-ZA,en-GB;q=0.9,en-US;q=0.8,en;q=0.7","614e1c414dff2e589169f360","6877649eabb845cf142cd221","6893170078270a7f4d4eb2ce","1","614e1c414dff2e589169f360","1","2025-08-06T09:16:10.458Z","","","","ControlQ","","","","","","","","","","","50","","","","","","","","","","","","","","","","","","","","","","","","","","",""
"3152","","<div style=""width:500px;"">
  <p>How would you describe your current emotional state?</p>
  </div>","84","html-slider-response","46","1613621","0.0-7.0-3.6","121","1","2025-08-06 08:49:16","36c45c0696341be0efffe67d72a12abb","197.245.162.70","Mozilla/5.0 (Windows NT 10.0; Win64; x64) AppleWebKit/537.36 (KHTML, like Gecko) Chrome/138.0.0.0 Safari/537.36","WebKit","Chrome","138.0.0.0","Windows","10.0","https://app.prolific.com/","en-ZA,en-GB;q=0.9,en-US;q=0.8,en;q=0.7","614e1c414dff2e589169f360","6877649eabb845cf142cd221","6893170078270a7f4d4eb2ce","1","614e1c414dff2e589169f360","1","2025-08-06T09:16:13.634Z","","","","StressQ","","","","","","","","","","","50","","","","","","","","","","","","","","","","","","","","","","","","","","",""
"6070","","<div style=""width:500px;"">
  <p>What best describes how you currently feel?</p>
  </div>","78","html-slider-response","47","1619705","0.0-7.0-4.6","121","1","2025-08-06 08:49:16","36c45c0696341be0efffe67d72a12abb","197.245.162.70","Mozilla/5.0 (Windows NT 10.0; Win64; x64) AppleWebKit/537.36 (KHTML, like Gecko) Chrome/138.0.0.0 Safari/537.36","WebKit","Chrome","138.0.0.0","Windows","10.0","https://app.prolific.com/","en-ZA,en-GB;q=0.9,en-US;q=0.8,en;q=0.7","614e1c414dff2e589169f360","6877649eabb845cf142cd221","6893170078270a7f4d4eb2ce","1","614e1c414dff2e589169f360","1","2025-08-06T09:16:19.719Z","","","","MotivationQ","","","","","","","","","","","50","","","","","","","","","","","","","","","","","","","","","","","","","","",""
"","","","","ctl-task-cpt","48","1695809","0.0-7.0-0.7","121","1","2025-08-06 08:49:16","36c45c0696341be0efffe67d72a12abb","197.245.162.70","Mozilla/5.0 (Windows NT 10.0; Win64; x64) AppleWebKit/537.36 (KHTML, like Gecko) Chrome/138.0.0.0 Safari/537.36","WebKit","Chrome","138.0.0.0","Windows","10.0","https://app.prolific.com/","en-ZA,en-GB;q=0.9,en-US;q=0.8,en;q=0.7","614e1c414dff2e589169f360","6877649eabb845cf142cd221","6893170078270a7f4d4eb2ce","1","614e1c414dff2e589169f360","1","2025-08-06T09:17:35.822Z","","","","","","","","","","","","","","","","win-only","3","g1:SW,g2:NE","0.3","8","0","1624112.9","14627","19629.8","73071.7","1","4","4","6","2","-4","-4","7","11","0.05303030303030303","2578.2","3000","-1685","[""up"",""right""]","{""num_key_presses"":11,""num_perfect"":3,""num_errors"":0,""num_randdir"":8,""num_randdir_good_moves"":3,""num_whilered"":0,""num_whileblue"":0,""num_blue"":5,""num_good_moves"":6}","[421.07142857142856,414.6808016640799,0.1,421.07142857142856,414.6808016640799,112.1,430.07142857142856,410.1808016640799,242.7,446.57142857142856,417.6808016640799,342.8,494.57142857142856,467.1808016640799,446.5,497.57142857142856,476.1808016640799,569.2,518.5714285714286,470.1808016640799,669.2,545.5714285714286,440.1808016640799,772.4,554.5714285714286,411.6808016640799,877.6,500.57142857142856,428.1808016640799,980.2,224.57142857142856,656.1808016640799,1083.1,140.57142857142856,779.1808016640799,1185.5,158.57142857142856,755.1808016640799,1300,305.57142857142856,579.6808016640799,1417,488.57142857142856,413.1808016640799,1522.7,767.5714285714286,230.18080166407992,1632.4,592.0714285714286,335.1808016640799,1739.5,140.57142857142856,686.1808016640799,1843,20.57142857142857,807.6808016640799,1948.6,479.57142857142856,477.6808016640799,2052.9,797.5714285714286,254.18080166407992,2155.5,808.0714285714286,228.68080166407992,2263.3,820.0714285714286,170.18080166407992,2364,782.5714285714286,56.18080166407994,2465.4,779.5714285714286,47.18080166407994,2583.4,779.5714285714286,47.18080166407994,2695.5,958.0714285714286,303.6808016640799,2810,1025.5714285714287,573.6808016640799,2923.4,1033.0714285714287,611.1808016640799,3024.8,1034.5714285714287,612.6808016640799,3127.3,1034.5714285714287,612.6808016640799,3227.3,1034.5714285714287,612.6808016640799,3335,1034.5714285714287,612.6808016640799,3439.7,1034.5714285714287,612.6808016640799,3550.8,1034.5714285714287,612.6808016640799,3663.6,1034.5714285714287,612.6808016640799,3765.5,1034.5714285714287,612.6808016640799,3867.3,1034.5714285714287,612.6808016640799,3967.9,1034.5714285714287,612.6808016640799,4071.4,1034.5714285714287,612.6808016640799,4183.9,1034.5714285714287,612.6808016640799,4293.7,1034.5714285714287,612.6808016640799,4413.7,1034.5714285714287,612.6808016640799,4521.4,1034.5714285714287,612.6808016640799,4625.7,1034.5714285714287,612.6808016640799,4730.7,1034.5714285714287,612.6808016640799,4841.8,1034.5714285714287,612.6808016640799,4954]","[1529.9,1530,1000,0,530,""oops"",""up"",""up"",""good_move"",4351.3,2820.8,2483.8,1530.5,337,""oops"",""up"",""down"",""bad_move"",11309.9,6956.3,2299.2,8410.9,599.9,""smooth"",""right"",""right"",""good_move"",14894.4,3583.7,2663.9,11310.7,919.8,""oops"",""right"",""left"",""bad_move"",20865.3,5970.5,2784.7,17627.6,453,""oops"",""up"",""up"",""good_move"",24470.6,3605,3191,20865.6,414,""smooth"",""up"",""up"",""good_move"",27766.5,3295.7,2890.5,24470.8,405.2,""smooth"",""up"",""up"",""good_move"",30951.7,3185,2794.3,27766.7,390.7,""oops"",""right"",""left"",""bad_move"",37426.4,6473.3,2702,34186.9,537.5,""oops"",""right"",""down"",""bad_move"",40023.5,2596.3,1996.8,37427.2,599.5,""oops"",""right"",""right"",""good_move"",47157.2,7133.3,2889.3,43824.3,443.6,""oops"",""right"",""left"",""bad_move""]"
"3306","","<div style=""width:500px;"">
  <p>What determined the result of this run?</p>
  </div>","6","html-slider-response","49","1699119","0.0-7.0-1.7","121","1","2025-08-06 08:49:16","36c45c0696341be0efffe67d72a12abb","197.245.162.70","Mozilla/5.0 (Windows NT 10.0; Win64; x64) AppleWebKit/537.36 (KHTML, like Gecko) Chrome/138.0.0.0 Safari/537.36","WebKit","Chrome","138.0.0.0","Windows","10.0","https://app.prolific.com/","en-ZA,en-GB;q=0.9,en-US;q=0.8,en;q=0.7","614e1c414dff2e589169f360","6877649eabb845cf142cd221","6893170078270a7f4d4eb2ce","1","614e1c414dff2e589169f360","1","2025-08-06T09:17:39.133Z","","","","AttribQ","","","","","","","","","","","50","","","","","","","","","","","","","","","","","","","","","","","","","","",""
"3593","","<div style=""width:500px;"">
  <p>How much control did you have over the ball?</p>
  </div>","9","html-slider-response","50","1702724","0.0-7.0-2.7","121","1","2025-08-06 08:49:16","36c45c0696341be0efffe67d72a12abb","197.245.162.70","Mozilla/5.0 (Windows NT 10.0; Win64; x64) AppleWebKit/537.36 (KHTML, like Gecko) Chrome/138.0.0.0 Safari/537.36","WebKit","Chrome","138.0.0.0","Windows","10.0","https://app.prolific.com/","en-ZA,en-GB;q=0.9,en-US;q=0.8,en;q=0.7","614e1c414dff2e589169f360","6877649eabb845cf142cd221","6893170078270a7f4d4eb2ce","1","614e1c414dff2e589169f360","1","2025-08-06T09:17:42.739Z","","","","ControlQ","","","","","","","","","","","50","","","","","","","","","","","","","","","","","","","","","","","","","","",""
"3530","","<div style=""width:500px;"">
  <p>How would you describe your current emotional state?</p>
  </div>","85","html-slider-response","51","1706269","0.0-7.0-3.7","121","1","2025-08-06 08:49:16","36c45c0696341be0efffe67d72a12abb","197.245.162.70","Mozilla/5.0 (Windows NT 10.0; Win64; x64) AppleWebKit/537.36 (KHTML, like Gecko) Chrome/138.0.0.0 Safari/537.36","WebKit","Chrome","138.0.0.0","Windows","10.0","https://app.prolific.com/","en-ZA,en-GB;q=0.9,en-US;q=0.8,en;q=0.7","614e1c414dff2e589169f360","6877649eabb845cf142cd221","6893170078270a7f4d4eb2ce","1","614e1c414dff2e589169f360","1","2025-08-06T09:17:46.284Z","","","","StressQ","","","","","","","","","","","50","","","","","","","","","","","","","","","","","","","","","","","","","","",""
"6911","","<div style=""width:500px;"">
  <p>What best describes how you currently feel?</p>
  </div>","82","html-slider-response","52","1713195","0.0-7.0-4.7","121","1","2025-08-06 08:49:16","36c45c0696341be0efffe67d72a12abb","197.245.162.70","Mozilla/5.0 (Windows NT 10.0; Win64; x64) AppleWebKit/537.36 (KHTML, like Gecko) Chrome/138.0.0.0 Safari/537.36","WebKit","Chrome","138.0.0.0","Windows","10.0","https://app.prolific.com/","en-ZA,en-GB;q=0.9,en-US;q=0.8,en;q=0.7","614e1c414dff2e589169f360","6877649eabb845cf142cd221","6893170078270a7f4d4eb2ce","1","614e1c414dff2e589169f360","1","2025-08-06T09:17:53.209Z","","","","MotivationQ","","","","","","","","","","","50","","","","","","","","","","","","","","","","","","","","","","","","","","",""
"","","","","ctl-task-cpt","53","1783611","0.0-7.0-0.8","121","1","2025-08-06 08:49:16","36c45c0696341be0efffe67d72a12abb","197.245.162.70","Mozilla/5.0 (Windows NT 10.0; Win64; x64) AppleWebKit/537.36 (KHTML, like Gecko) Chrome/138.0.0.0 Safari/537.36","WebKit","Chrome","138.0.0.0","Windows","10.0","https://app.prolific.com/","en-ZA,en-GB;q=0.9,en-US;q=0.8,en;q=0.7","614e1c414dff2e589169f360","6877649eabb845cf142cd221","6893170078270a7f4d4eb2ce","1","614e1c414dff2e589169f360","1","2025-08-06T09:19:03.624Z","","","","","","","","","","","","","","","","win-only","0","g1:NW,g2:SE","0.4","9","0","1717609.7","1444","6458.6","67367.2","1","4","4","6","2","-4","-5","2","7","0.015151515151515152","965.1","3000","-1485","[""down"",""right""]","{""num_key_presses"":13,""num_perfect"":5,""num_errors"":1,""num_randdir"":7,""num_randdir_good_moves"":3,""num_whilered"":0,""num_whileblue"":1,""num_blue"":6,""num_good_moves"":9}","[421.07142857142856,410.1808016640799,0.2,421.07142857142856,410.1808016640799,106.5,421.07142857142856,410.1808016640799,220.4,421.07142857142856,410.1808016640799,329.3,419.57142857142856,396.6808016640799,433.3,410.57142857142856,464.1808016640799,547.8,671.5714285714286,686.1808016640799,648.6,715.0714285714286,719.1808016640799,753.5,722.5714285714286,737.1808016640799,865.7,737.5714285714286,753.6808016640799,976.2,737.5714285714286,753.6808016640799,1082.4,737.5714285714286,753.6808016640799,1197.1,707.5714285714286,753.6808016640799,1302.5,638.5714285714286,753.6808016640799,1414.4,629.5714285714286,755.1808016640799,1517.7,773.5714285714286,773.1808016640799,1618,1132.0714285714287,866.1808016640799,1721.8,1172.5714285714287,896.1808016640799,1828.4,1159.0714285714287,882.6808016640799,1932.8,1142.5714285714287,875.1808016640799,2044.9,1133.5714285714287,867.6808016640799,2148,1133.5714285714287,867.6808016640799,2249.8,1133.5714285714287,867.6808016640799,2350.1,1133.5714285714287,867.6808016640799,2454.4,1127.5714285714287,860.1808016640799,2557.7,1127.5714285714287,860.1808016640799,2660.1,1127.5714285714287,860.1808016640799,2760.2,1127.5714285714287,860.1808016640799,2867.1,1127.5714285714287,860.1808016640799,2998.4,1127.5714285714287,860.1808016640799,3099.6,1127.5714285714287,860.1808016640799,3218.9,1127.5714285714287,860.1808016640799,3324.1,1127.5714285714287,860.1808016640799,3428.8,1127.5714285714287,860.1808016640799,3541.8,1127.5714285714287,860.1808016640799,3649,1127.5714285714287,860.1808016640799,3760.8,1127.5714285714287,860.1808016640799,3865.6,1127.5714285714287,860.1808016640799,3992,1127.5714285714287,860.1808016640799,4095.3,1127.5714285714287,860.1808016640799,4200.7,1127.5714285714287,860.1808016640799,4305.3,1127.5714285714287,860.1808016640799,4407,1127.5714285714287,860.1808016640799,4513.4,1127.5714285714287,860.1808016640799,4622.7,1127.5714285714287,860.1808016640799,4746.5,1127.5714285714287,860.1808016640799,4869.7,1127.5714285714287,860.1808016640799,4971]","[5792.1,5792.1,3213.8,2044.1,534.2,""smooth"",""down"",""down"",""good_move"",11551.6,5759,2389.6,8707,455,""smooth"",""down"",""down"",""good_move"",15156.4,3604.3,3142.8,11552.2,461.4,""smooth"",""down"",""down"",""good_move"",18768.9,3611.7,3154.1,15157.2,457.6,""oops"",""right"",""right"",""good_move"",25614.5,6842.6,2428.7,22635.4,550.4,""oops"",""right"",""left"",""bad_move"",28889.9,3274.9,2605.1,25615,669.8,""oops"",""right"",""up"",""bad_move"",31728.2,2837,2325.3,28891.2,511.7,""smooth"",""right"",""right"",""good_move"",34301.5,2572.9,2047.2,31728.6,525.7,""oops"",""right"",""left"",""bad_move"",38143.1,3841.6,3291.1,34301.6,550.5,""oops"",""right"",""down"",""good_move"",41249.5,3105.9,2696.3,38143.6,409.6,""oops"",""right"",""right"",""good_move"",47736,6486.3,2608.4,44743.2,384.4,""oops"",""right"",""left"",""bad_move"",50869,3131.9,2655.2,47737.2,476.6,""while_blue"",""right"",""right"",""good_move"",57673.8,6804.5,2937.4,54318.3,418.1,""smooth"",""right"",""right"",""good_move""]"
"17259","","<div style=""width:500px;"">
  <p>What determined the result of this run?</p>
  </div>","5","html-slider-response","54","1800874","0.0-7.0-1.8","121","1","2025-08-06 08:49:16","36c45c0696341be0efffe67d72a12abb","197.245.162.70","Mozilla/5.0 (Windows NT 10.0; Win64; x64) AppleWebKit/537.36 (KHTML, like Gecko) Chrome/138.0.0.0 Safari/537.36","WebKit","Chrome","138.0.0.0","Windows","10.0","https://app.prolific.com/","en-ZA,en-GB;q=0.9,en-US;q=0.8,en;q=0.7","614e1c414dff2e589169f360","6877649eabb845cf142cd221","6893170078270a7f4d4eb2ce","1","614e1c414dff2e589169f360","1","2025-08-06T09:19:20.888Z","","","","AttribQ","","","","","","","","","","","50","","","","","","","","","","","","","","","","","","","","","","","","","","",""
"3188","","<div style=""width:500px;"">
  <p>How much control did you have over the ball?</p>
  </div>","18","html-slider-response","55","1804071","0.0-7.0-2.8","121","1","2025-08-06 08:49:16","36c45c0696341be0efffe67d72a12abb","197.245.162.70","Mozilla/5.0 (Windows NT 10.0; Win64; x64) AppleWebKit/537.36 (KHTML, like Gecko) Chrome/138.0.0.0 Safari/537.36","WebKit","Chrome","138.0.0.0","Windows","10.0","https://app.prolific.com/","en-ZA,en-GB;q=0.9,en-US;q=0.8,en;q=0.7","614e1c414dff2e589169f360","6877649eabb845cf142cd221","6893170078270a7f4d4eb2ce","1","614e1c414dff2e589169f360","1","2025-08-06T09:19:24.085Z","","","","ControlQ","","","","","","","","","","","50","","","","","","","","","","","","","","","","","","","","","","","","","","",""
"4386","","<div style=""width:500px;"">
  <p>How would you describe your current emotional state?</p>
  </div>","78","html-slider-response","56","1808461","0.0-7.0-3.8","121","1","2025-08-06 08:49:16","36c45c0696341be0efffe67d72a12abb","197.245.162.70","Mozilla/5.0 (Windows NT 10.0; Win64; x64) AppleWebKit/537.36 (KHTML, like Gecko) Chrome/138.0.0.0 Safari/537.36","WebKit","Chrome","138.0.0.0","Windows","10.0","https://app.prolific.com/","en-ZA,en-GB;q=0.9,en-US;q=0.8,en;q=0.7","614e1c414dff2e589169f360","6877649eabb845cf142cd221","6893170078270a7f4d4eb2ce","1","614e1c414dff2e589169f360","1","2025-08-06T09:19:28.475Z","","","","StressQ","","","","","","","","","","","50","","","","","","","","","","","","","","","","","","","","","","","","","","",""
"8919","","<div style=""width:500px;"">
  <p>What best describes how you currently feel?</p>
  </div>","83","html-slider-response","57","1817392","0.0-7.0-4.8","121","1","2025-08-06 08:49:16","36c45c0696341be0efffe67d72a12abb","197.245.162.70","Mozilla/5.0 (Windows NT 10.0; Win64; x64) AppleWebKit/537.36 (KHTML, like Gecko) Chrome/138.0.0.0 Safari/537.36","WebKit","Chrome","138.0.0.0","Windows","10.0","https://app.prolific.com/","en-ZA,en-GB;q=0.9,en-US;q=0.8,en;q=0.7","614e1c414dff2e589169f360","6877649eabb845cf142cd221","6893170078270a7f4d4eb2ce","1","614e1c414dff2e589169f360","1","2025-08-06T09:19:37.406Z","","","","MotivationQ","","","","","","","","","","","50","","","","","","","","","","","","","","","","","","","","","","","","","","",""
"","","","","ctl-task-cpt","58","1875485","0.0-7.0-0.9","121","1","2025-08-06 08:49:16","36c45c0696341be0efffe67d72a12abb","197.245.162.70","Mozilla/5.0 (Windows NT 10.0; Win64; x64) AppleWebKit/537.36 (KHTML, like Gecko) Chrome/138.0.0.0 Safari/537.36","WebKit","Chrome","138.0.0.0","Windows","10.0","https://app.prolific.com/","en-ZA,en-GB;q=0.9,en-US;q=0.8,en;q=0.7","614e1c414dff2e589169f360","6877649eabb845cf142cd221","6893170078270a7f4d4eb2ce","1","614e1c414dff2e589169f360","1","2025-08-06T09:20:35.499Z","","","","","","","","","","","","","","","","win-only","1","g1:NE,g2:SW","0.5","10","0","1821801","4042","9053.7","55055","1","4","8","6","2","8","8","10","2","0.07575757575757576","1109.9","3000","345","[""down"",""left""]","{""num_key_presses"":14,""num_perfect"":8,""num_errors"":0,""num_randdir"":6,""num_randdir_good_moves"":2,""num_whilered"":0,""num_whileblue"":0,""num_blue"":1,""num_good_moves"":10}","[413.57142857142856,422.1808016640799,1.7,413.57142857142856,422.1808016640799,108.8,413.57142857142856,422.1808016640799,214.7,413.57142857142856,422.1808016640799,328.3,413.57142857142856,422.1808016640799,439,413.57142857142856,422.1808016640799,542.6,314.57142857142856,500.1808016640799,692.4,98.57142857142857,743.1808016640799,796.6,91.07142857142857,746.1808016640799,904.2,50.57142857142857,759.6808016640799,1015.9,46.07142857142857,761.1808016640799,1136.5,46.07142857142857,761.1808016640799,1257.3,59.57142857142857,755.1808016640799,1365.7,329.57142857142856,792.6808016640799,1474.3,458.57142857142856,828.6808016640799,1581,532.0714285714286,893.1808016640799,1684.9,539.5714285714286,941.1808016640799,1790.5,539.5714285714286,941.1808016640799,1922.2,539.5714285714286,941.1808016640799,2031.2,539.5714285714286,941.1808016640799,2154.8,539.5714285714286,941.1808016640799,2259,539.5714285714286,941.1808016640799,2370.8,539.5714285714286,941.1808016640799,2477,539.5714285714286,941.1808016640799,2597.6,539.5714285714286,941.1808016640799,2708.5,539.5714285714286,941.1808016640799,2813.2,539.5714285714286,941.1808016640799,2927.2,539.5714285714286,941.1808016640799,3063.2,539.5714285714286,941.1808016640799,3170.9,539.5714285714286,941.1808016640799,3286.6,539.5714285714286,941.1808016640799,3395.5,539.5714285714286,941.1808016640799,3507.2,539.5714285714286,941.1808016640799,3618.3,539.5714285714286,941.1808016640799,3728.2,539.5714285714286,941.1808016640799,3829.9,539.5714285714286,941.1808016640799,3934.2,539.5714285714286,941.1808016640799,4041,539.5714285714286,941.1808016640799,4143.3,539.5714285714286,941.1808016640799,4243.3,539.5714285714286,941.1808016640799,4344.8,539.5714285714286,941.1808016640799,4451.5,539.5714285714286,941.1808016640799,4561.5,539.5714285714286,941.1808016640799,4664.6,539.5714285714286,941.1808016640799,4769.4,539.5714285714286,941.1808016640799,4888.7,539.5714285714286,941.1808016640799,4994.2]","[4955.4,4955.4,2320.5,2001.7,633.2,""smooth"",""down"",""down"",""good_move"",7537.5,2579,2043.9,4958.5,535.1,""oops"",""down"",""up"",""bad_move"",10071.8,2533.9,2051.8,7538,482.1,""oops"",""down"",""right"",""bad_move"",13641.2,3567.4,3032.4,10073.8,535,""smooth"",""down"",""down"",""good_move"",16447.6,2806.1,2390.1,13641.5,416,""oops"",""down"",""right"",""bad_move"",19166.4,2718.5,2296.5,16447.9,422,""smooth"",""down"",""down"",""good_move"",22555.3,3388.6,2985,19166.8,403.5,""smooth"",""down"",""down"",""good_move"",26416.7,3860,3420.2,22556.7,439.8,""oops"",""left"",""left"",""good_move"",28978.1,2558.2,2106.6,26420,451.6,""smooth"",""left"",""left"",""good_move"",32343.9,3365.6,2984.1,28978.4,381.5,""oops"",""left"",""up"",""bad_move"",35303.1,2958.8,2498.5,32344.3,460.3,""oops"",""left"",""left"",""good_move"",38458.8,3155.5,2775.2,35303.4,380.3,""smooth"",""down"",""down"",""good_move"",42045.2,3585.3,3131.2,38460,454.1,""smooth"",""left"",""left"",""good_move"",45789.8,3744.2,3313.5,42045.6,430.7,""smooth"",""left"",""left"",""good_move""]"
"2962","","<div style=""width:500px;"">
  <p>What determined the result of this run?</p>
  </div>","6","html-slider-response","59","1878454","0.0-7.0-1.9","121","1","2025-08-06 08:49:16","36c45c0696341be0efffe67d72a12abb","197.245.162.70","Mozilla/5.0 (Windows NT 10.0; Win64; x64) AppleWebKit/537.36 (KHTML, like Gecko) Chrome/138.0.0.0 Safari/537.36","WebKit","Chrome","138.0.0.0","Windows","10.0","https://app.prolific.com/","en-ZA,en-GB;q=0.9,en-US;q=0.8,en;q=0.7","614e1c414dff2e589169f360","6877649eabb845cf142cd221","6893170078270a7f4d4eb2ce","1","614e1c414dff2e589169f360","1","2025-08-06T09:20:38.468Z","","","","AttribQ","","","","","","","","","","","50","","","","","","","","","","","","","","","","","","","","","","","","","","",""
"28062","","<div style=""width:500px;"">
  <p>How much control did you have over the ball?</p>
  </div>","10","html-slider-response","60","1906530","0.0-7.0-2.9","121","1","2025-08-06 08:49:16","36c45c0696341be0efffe67d72a12abb","197.245.162.70","Mozilla/5.0 (Windows NT 10.0; Win64; x64) AppleWebKit/537.36 (KHTML, like Gecko) Chrome/138.0.0.0 Safari/537.36","WebKit","Chrome","138.0.0.0","Windows","10.0","https://app.prolific.com/","en-ZA,en-GB;q=0.9,en-US;q=0.8,en;q=0.7","614e1c414dff2e589169f360","6877649eabb845cf142cd221","6893170078270a7f4d4eb2ce","1","614e1c414dff2e589169f360","1","2025-08-06T09:21:06.543Z","","","","ControlQ","","","","","","","","","","","50","","","","","","","","","","","","","","","","","","","","","","","","","","",""
"4849","","<div style=""width:500px;"">
  <p>How would you describe your current emotional state?</p>
  </div>","79","html-slider-response","61","1911391","0.0-7.0-3.9","121","1","2025-08-06 08:49:16","36c45c0696341be0efffe67d72a12abb","197.245.162.70","Mozilla/5.0 (Windows NT 10.0; Win64; x64) AppleWebKit/537.36 (KHTML, like Gecko) Chrome/138.0.0.0 Safari/537.36","WebKit","Chrome","138.0.0.0","Windows","10.0","https://app.prolific.com/","en-ZA,en-GB;q=0.9,en-US;q=0.8,en;q=0.7","614e1c414dff2e589169f360","6877649eabb845cf142cd221","6893170078270a7f4d4eb2ce","1","614e1c414dff2e589169f360","1","2025-08-06T09:21:11.405Z","","","","StressQ","","","","","","","","","","","50","","","","","","","","","","","","","","","","","","","","","","","","","","",""
"10235","","<div style=""width:500px;"">
  <p>What best describes how you currently feel?</p>
  </div>","79","html-slider-response","62","1921636","0.0-7.0-4.9","121","1","2025-08-06 08:49:16","36c45c0696341be0efffe67d72a12abb","197.245.162.70","Mozilla/5.0 (Windows NT 10.0; Win64; x64) AppleWebKit/537.36 (KHTML, like Gecko) Chrome/138.0.0.0 Safari/537.36","WebKit","Chrome","138.0.0.0","Windows","10.0","https://app.prolific.com/","en-ZA,en-GB;q=0.9,en-US;q=0.8,en;q=0.7","614e1c414dff2e589169f360","6877649eabb845cf142cd221","6893170078270a7f4d4eb2ce","1","614e1c414dff2e589169f360","1","2025-08-06T09:21:21.651Z","","","","MotivationQ","","","","","","","","","","","50","","","","","","","","","","","","","","","","","","","","","","","","","","",""
"","","","","ctl-task-cpt","63","1985517","0.0-7.0-0.10","121","1","2025-08-06 08:49:16","36c45c0696341be0efffe67d72a12abb","197.245.162.70","Mozilla/5.0 (Windows NT 10.0; Win64; x64) AppleWebKit/537.36 (KHTML, like Gecko) Chrome/138.0.0.0 Safari/537.36","WebKit","Chrome","138.0.0.0","Windows","10.0","https://app.prolific.com/","en-ZA,en-GB;q=0.9,en-US;q=0.8,en;q=0.7","614e1c414dff2e589169f360","6877649eabb845cf142cd221","6893170078270a7f4d4eb2ce","1","614e1c414dff2e589169f360","1","2025-08-06T09:22:25.530Z","","","","","","","","","","","","","","","","win-only","2","g1:SE,g2:NW","0.6","11","0","1926047.3","2128.8","7159.6","60832.1","1","4","8","6","2","-8","-8","2","10","0.015151515151515152","1624.6","3000","-1315","[""left"",""up""]","{""num_key_presses"":17,""num_perfect"":9,""num_errors"":0,""num_randdir"":8,""num_randdir_good_moves"":2,""num_whilered"":0,""num_whileblue"":0,""num_blue"":2,""num_good_moves"":10}","[424.07142857142856,416.1808016640799,0.6,424.07142857142856,416.1808016640799,117.3,424.07142857142856,416.1808016640799,232.4,424.07142857142856,416.1808016640799,341.7,424.07142857142856,416.1808016640799,446.8,424.07142857142856,416.1808016640799,556.8,424.07142857142856,416.1808016640799,665.7,416.57142857142856,512.1808016640799,779.2,500.57142857142856,618.6808016640799,880.9,526.0714285714286,639.6808016640799,999.5,1.0714285714285694,164.18080166407992,1116.9,-24.42857142857143,113.18080166407994,1220.6,-30.42857142857143,95.18080166407994,1323.7,11.57142857142857,90.68080166407994,1441.9,65.57142857142857,84.68080166407994,1549.9,67.07142857142857,81.68080166407994,1657,67.07142857142857,81.68080166407994,1762.7,208.07142857142856,143.18080166407992,1865.5,1027.0714285714287,461.1808016640799,1968.4,1127.5714285714287,503.1808016640799,2082.9,1358.5714285714287,648.6808016640799,2198.3,1358.5714285714287,648.6808016640799,2311.8,1358.5714285714287,648.6808016640799,2432.4,1358.5714285714287,648.6808016640799,2535.2,1358.5714285714287,648.6808016640799,2662.9,1358.5714285714287,648.6808016640799,2763.8,1358.5714285714287,648.6808016640799,2876.4,1358.5714285714287,648.6808016640799,2986.1,1358.5714285714287,648.6808016640799,3096.3,1358.5714285714287,648.6808016640799,3204.6,1358.5714285714287,648.6808016640799,3319.2,1358.5714285714287,648.6808016640799,3425.2,1358.5714285714287,648.6808016640799,3532.4,1358.5714285714287,648.6808016640799,3636.9,1358.5714285714287,648.6808016640799,3776.6,1358.5714285714287,648.6808016640799,3877.6,1358.5714285714287,648.6808016640799,3977.7,1358.5714285714287,648.6808016640799,4080.5,1358.5714285714287,648.6808016640799,4188.4,1358.5714285714287,648.6808016640799,4298.5,1358.5714285714287,648.6808016640799,4412.8,1358.5714285714287,648.6808016640799,4515.3,1358.5714285714287,648.6808016640799,4617.1,1358.5714285714287,648.6808016640799,4720.5,1358.5714285714287,648.6808016640799,4827.4,1358.5714285714287,648.6808016640799,4940.8]","[4652,4652,2179.8,2018.6,453.6,""oops"",""left"",""down"",""bad_move"",6431.9,1779.6,1163.1,4652.3,616.5,""smooth"",""up"",""up"",""good_move"",9078.3,2645,2257.8,6433.4,387.2,""smooth"",""up"",""up"",""good_move"",16139.5,7059.4,2726.8,12936.1,476.6,""smooth"",""up"",""up"",""good_move"",18975.4,2835.7,2357.9,16139.8,477.8,""smooth"",""up"",""up"",""good_move"",21861.2,2885.6,2451,18975.6,434.6,""smooth"",""left"",""left"",""good_move"",24379.8,2517.7,2048.8,21862.1,468.9,""smooth"",""left"",""left"",""good_move"",27447.8,3067.8,2635.9,24380,431.9,""oops"",""left"",""right"",""bad_move"",30272.9,2824.2,2451.1,27448.7,373.1,""oops"",""down"",""right"",""bad_move"",32589.4,2315.9,1876.2,30273.5,439.7,""oops"",""left"",""left"",""good_move"",35393.3,2802.4,2413.3,32590.9,389.1,""oops"",""left"",""right"",""bad_move"",37997,2602.2,2204.1,35394.8,398.1,""smooth"",""down"",""down"",""bad_move"",40009.9,2012.1,1567.7,37997.9,444.4,""oops"",""left"",""up"",""good_move"",42532,2518.2,2160.6,40013.8,357.6,""oops"",""left"",""down"",""bad_move"",45237.5,2705.3,2255.3,42532.2,450,""oops"",""left"",""right"",""bad_move"",48082,2844.4,2471.4,45237.6,373,""smooth"",""left"",""left"",""good_move"",50700.1,2616.5,2228.8,48083.7,387.6,""smooth"",""left"",""left"",""good_move""]"
"4675","","<div style=""width:500px;"">
  <p>What determined the result of this run?</p>
  </div>","3","html-slider-response","64","1990194","0.0-7.0-1.10","121","1","2025-08-06 08:49:16","36c45c0696341be0efffe67d72a12abb","197.245.162.70","Mozilla/5.0 (Windows NT 10.0; Win64; x64) AppleWebKit/537.36 (KHTML, like Gecko) Chrome/138.0.0.0 Safari/537.36","WebKit","Chrome","138.0.0.0","Windows","10.0","https://app.prolific.com/","en-ZA,en-GB;q=0.9,en-US;q=0.8,en;q=0.7","614e1c414dff2e589169f360","6877649eabb845cf142cd221","6893170078270a7f4d4eb2ce","1","614e1c414dff2e589169f360","1","2025-08-06T09:22:30.207Z","","","","AttribQ","","","","","","","","","","","50","","","","","","","","","","","","","","","","","","","","","","","","","","",""
"2947","","<div style=""width:500px;"">
  <p>How much control did you have over the ball?</p>
  </div>","4","html-slider-response","65","1993146","0.0-7.0-2.10","121","1","2025-08-06 08:49:16","36c45c0696341be0efffe67d72a12abb","197.245.162.70","Mozilla/5.0 (Windows NT 10.0; Win64; x64) AppleWebKit/537.36 (KHTML, like Gecko) Chrome/138.0.0.0 Safari/537.36","WebKit","Chrome","138.0.0.0","Windows","10.0","https://app.prolific.com/","en-ZA,en-GB;q=0.9,en-US;q=0.8,en;q=0.7","614e1c414dff2e589169f360","6877649eabb845cf142cd221","6893170078270a7f4d4eb2ce","1","614e1c414dff2e589169f360","1","2025-08-06T09:22:33.161Z","","","","ControlQ","","","","","","","","","","","50","","","","","","","","","","","","","","","","","","","","","","","","","","",""
"4047","","<div style=""width:500px;"">
  <p>How would you describe your current emotional state?</p>
  </div>","17","html-slider-response","66","1997209","0.0-7.0-3.10","121","1","2025-08-06 08:49:16","36c45c0696341be0efffe67d72a12abb","197.245.162.70","Mozilla/5.0 (Windows NT 10.0; Win64; x64) AppleWebKit/537.36 (KHTML, like Gecko) Chrome/138.0.0.0 Safari/537.36","WebKit","Chrome","138.0.0.0","Windows","10.0","https://app.prolific.com/","en-ZA,en-GB;q=0.9,en-US;q=0.8,en;q=0.7","614e1c414dff2e589169f360","6877649eabb845cf142cd221","6893170078270a7f4d4eb2ce","1","614e1c414dff2e589169f360","1","2025-08-06T09:22:37.223Z","","","","StressQ","","","","","","","","","","","50","","","","","","","","","","","","","","","","","","","","","","","","","","",""
"3585","","<div style=""width:500px;"">
  <p>What best describes how you currently feel?</p>
  </div>","85","html-slider-response","67","2000806","0.0-7.0-4.10","121","1","2025-08-06 08:49:16","36c45c0696341be0efffe67d72a12abb","197.245.162.70","Mozilla/5.0 (Windows NT 10.0; Win64; x64) AppleWebKit/537.36 (KHTML, like Gecko) Chrome/138.0.0.0 Safari/537.36","WebKit","Chrome","138.0.0.0","Windows","10.0","https://app.prolific.com/","en-ZA,en-GB;q=0.9,en-US;q=0.8,en;q=0.7","614e1c414dff2e589169f360","6877649eabb845cf142cd221","6893170078270a7f4d4eb2ce","1","614e1c414dff2e589169f360","1","2025-08-06T09:22:40.820Z","","","","MotivationQ","","","","","","","","","","","50","","","","","","","","","","","","","","","","","","","","","","","","","","",""
"","","","","ctl-task-cpt","68","2043390","0.0-7.0-0.11","121","1","2025-08-06 08:49:16","36c45c0696341be0efffe67d72a12abb","197.245.162.70","Mozilla/5.0 (Windows NT 10.0; Win64; x64) AppleWebKit/537.36 (KHTML, like Gecko) Chrome/138.0.0.0 Safari/537.36","WebKit","Chrome","138.0.0.0","Windows","10.0","https://app.prolific.com/","en-ZA,en-GB;q=0.9,en-US;q=0.8,en;q=0.7","614e1c414dff2e589169f360","6877649eabb845cf142cd221","6893170078270a7f4d4eb2ce","1","614e1c414dff2e589169f360","1","2025-08-06T09:23:23.403Z","","","","","","","","","","","","","","","","win-only","2","g1:SE,g2:NW","0.7","12","0","2005213","15507.1","20510.5","39535.4","1","4","4","6","2","4","4","6","2","0.045454545454545456","1094","3000","2035","[""left"",""up""]","{""num_key_presses"":6,""num_perfect"":3,""num_errors"":0,""num_randdir"":3,""num_randdir_good_moves"":3,""num_whilered"":0,""num_whileblue"":0,""num_blue"":1,""num_good_moves"":6}","[425.57142857142856,413.1808016640799,1.5,425.57142857142856,413.1808016640799,111.3,425.57142857142856,413.1808016640799,234.5,425.57142857142856,413.1808016640799,343.7,425.57142857142856,413.1808016640799,444.2,425.57142857142856,413.1808016640799,561.1,380.57142857142856,389.1808016640799,670.5,305.57142857142856,222.68080166407992,775.8,179.57142857142856,113.18080166407994,877.7,91.07142857142857,53.18080166407994,981.8,85.07142857142857,48.68080166407994,1083.6,85.07142857142857,48.68080166407994,1194.3,142.07142857142856,53.18080166407994,1295.2,1318.0714285714287,495.6808016640799,1401.1,1318.0714285714287,495.6808016640799,1509.5,1318.0714285714287,495.6808016640799,1616.9,1318.0714285714287,495.6808016640799,1723.8,1318.0714285714287,495.6808016640799,1834.9,1318.0714285714287,495.6808016640799,1953.5,1318.0714285714287,495.6808016640799,2054,1318.0714285714287,495.6808016640799,2156.6,1318.0714285714287,495.6808016640799,2273.2,1318.0714285714287,495.6808016640799,2383.5,1318.0714285714287,495.6808016640799,2487.8,1318.0714285714287,495.6808016640799,2593.6,1318.0714285714287,495.6808016640799,2710.8,1318.0714285714287,495.6808016640799,2840.7,1318.0714285714287,495.6808016640799,2944,1318.0714285714287,495.6808016640799,3044.4,1318.0714285714287,495.6808016640799,3160.4,1318.0714285714287,495.6808016640799,3275.3,1318.0714285714287,495.6808016640799,3377.2,1318.0714285714287,495.6808016640799,3478.2,1318.0714285714287,495.6808016640799,3594.2,1318.0714285714287,495.6808016640799,3698.8,1318.0714285714287,495.6808016640799,3805.1,1318.0714285714287,495.6808016640799,3925.3,1318.0714285714287,495.6808016640799,4094.3,1318.0714285714287,495.6808016640799,4194.4,1318.0714285714287,495.6808016640799,4318.7,1318.0714285714287,495.6808016640799,4433.2,1318.0714285714287,495.6808016640799,4547.9,1318.0714285714287,495.6808016640799,4655.9,1318.0714285714287,495.6808016640799,4763.6,1318.0714285714287,495.6808016640799,4871.5,1318.0714285714287,495.6808016640799,4980.2]","[4723.2,4723.2,2201.9,2007.9,513.4,""oops"",""up"",""left"",""good_move"",7678.4,2954.7,2465.7,4723.7,489,""smooth"",""up"",""up"",""good_move"",10214.4,2535.7,2176.1,7678.9,359.6,""oops"",""up"",""left"",""good_move"",12621.1,2404.9,1514.4,10216.3,890.4,""smooth"",""up"",""up"",""good_move"",15936.8,3314.1,2913.3,12622.7,400.8,""oops"",""up"",""up"",""good_move"",18812.1,2875,2475.5,15937.1,399.5,""smooth"",""left"",""left"",""good_move""]"
"8613","","<div style=""width:500px;"">
  <p>What determined the result of this run?</p>
  </div>","19","html-slider-response","69","2052012","0.0-7.0-1.11","121","1","2025-08-06 08:49:16","36c45c0696341be0efffe67d72a12abb","197.245.162.70","Mozilla/5.0 (Windows NT 10.0; Win64; x64) AppleWebKit/537.36 (KHTML, like Gecko) Chrome/138.0.0.0 Safari/537.36","WebKit","Chrome","138.0.0.0","Windows","10.0","https://app.prolific.com/","en-ZA,en-GB;q=0.9,en-US;q=0.8,en;q=0.7","614e1c414dff2e589169f360","6877649eabb845cf142cd221","6893170078270a7f4d4eb2ce","1","614e1c414dff2e589169f360","1","2025-08-06T09:23:32.026Z","","","","AttribQ","","","","","","","","","","","50","","","","","","","","","","","","","","","","","","","","","","","","","","",""
"14772","","<div style=""width:500px;"">
  <p>How much control did you have over the ball?</p>
  </div>","14","html-slider-response","70","2066793","0.0-7.0-2.11","121","1","2025-08-06 08:49:16","36c45c0696341be0efffe67d72a12abb","197.245.162.70","Mozilla/5.0 (Windows NT 10.0; Win64; x64) AppleWebKit/537.36 (KHTML, like Gecko) Chrome/138.0.0.0 Safari/537.36","WebKit","Chrome","138.0.0.0","Windows","10.0","https://app.prolific.com/","en-ZA,en-GB;q=0.9,en-US;q=0.8,en;q=0.7","614e1c414dff2e589169f360","6877649eabb845cf142cd221","6893170078270a7f4d4eb2ce","1","614e1c414dff2e589169f360","1","2025-08-06T09:23:46.807Z","","","","ControlQ","","","","","","","","","","","50","","","","","","","","","","","","","","","","","","","","","","","","","","",""
"3054","","<div style=""width:500px;"">
  <p>How would you describe your current emotional state?</p>
  </div>","96","html-slider-response","71","2069853","0.0-7.0-3.11","121","1","2025-08-06 08:49:16","36c45c0696341be0efffe67d72a12abb","197.245.162.70","Mozilla/5.0 (Windows NT 10.0; Win64; x64) AppleWebKit/537.36 (KHTML, like Gecko) Chrome/138.0.0.0 Safari/537.36","WebKit","Chrome","138.0.0.0","Windows","10.0","https://app.prolific.com/","en-ZA,en-GB;q=0.9,en-US;q=0.8,en;q=0.7","614e1c414dff2e589169f360","6877649eabb845cf142cd221","6893170078270a7f4d4eb2ce","1","614e1c414dff2e589169f360","1","2025-08-06T09:23:49.868Z","","","","StressQ","","","","","","","","","","","50","","","","","","","","","","","","","","","","","","","","","","","","","","",""
"4895","","<div style=""width:500px;"">
  <p>What best describes how you currently feel?</p>
  </div>","74","html-slider-response","72","2074762","0.0-7.0-4.11","121","1","2025-08-06 08:49:16","36c45c0696341be0efffe67d72a12abb","197.245.162.70","Mozilla/5.0 (Windows NT 10.0; Win64; x64) AppleWebKit/537.36 (KHTML, like Gecko) Chrome/138.0.0.0 Safari/537.36","WebKit","Chrome","138.0.0.0","Windows","10.0","https://app.prolific.com/","en-ZA,en-GB;q=0.9,en-US;q=0.8,en;q=0.7","614e1c414dff2e589169f360","6877649eabb845cf142cd221","6893170078270a7f4d4eb2ce","1","614e1c414dff2e589169f360","1","2025-08-06T09:23:54.776Z","","","","MotivationQ","","","","","","","","","","","50","","","","","","","","","","","","","","","","","","","","","","","","","","",""
"","","","","ctl-task-cpt","73","2118495","0.0-7.0-0.12","121","1","2025-08-06 08:49:16","36c45c0696341be0efffe67d72a12abb","197.245.162.70","Mozilla/5.0 (Windows NT 10.0; Win64; x64) AppleWebKit/537.36 (KHTML, like Gecko) Chrome/138.0.0.0 Safari/537.36","WebKit","Chrome","138.0.0.0","Windows","10.0","https://app.prolific.com/","en-ZA,en-GB;q=0.9,en-US;q=0.8,en;q=0.7","614e1c414dff2e589169f360","6877649eabb845cf142cd221","6893170078270a7f4d4eb2ce","1","614e1c414dff2e589169f360","1","2025-08-06T09:24:38.508Z","","","","","","","","","","","","","","","","win-only","3","g1:SW,g2:NE","0.8","13","0","2079168","2467.5","7474.1","40691.5","1","4","8","6","2","8","8","14","6","0.10606060606060606","1210.5","3000","1805","[""up"",""right""]","{""num_key_presses"":8,""num_perfect"":6,""num_errors"":0,""num_randdir"":2,""num_randdir_good_moves"":1,""num_whilered"":0,""num_whileblue"":0,""num_blue"":3,""num_good_moves"":7}","[421.07142857142856,419.1808016640799,1,421.07142857142856,419.1808016640799,112.8,422.57142857142856,422.1808016640799,228,422.57142857142856,422.1808016640799,328.5,422.57142857142856,422.1808016640799,429.8,424.07142857142856,422.1808016640799,534.7,911.5714285714286,89.18080166407994,642.9,977.5714285714286,-69.81919833592006,750.1,968.5714285714286,-78.81919833592006,869.1,730.0714285714286,63.68080166407994,995.7,731.5714285714286,69.68080166407994,1102.7,752.5714285714286,77.18080166407994,1212,752.5714285714286,77.18080166407994,1313,752.5714285714286,83.18080166407994,1420.2,995.5714285714286,225.68080166407992,1528.5,1370.5714285714287,308.1808016640799,1638.3,1370.5714285714287,308.1808016640799,1742.6,1370.5714285714287,308.1808016640799,1843.3,1370.5714285714287,308.1808016640799,1946.1,1370.5714285714287,308.1808016640799,2052.8,1370.5714285714287,308.1808016640799,2156.5,1370.5714285714287,308.1808016640799,2262,1370.5714285714287,308.1808016640799,2367.5,1370.5714285714287,308.1808016640799,2472.2,1370.5714285714287,308.1808016640799,2576.3,1370.5714285714287,308.1808016640799,2685.1,1370.5714285714287,308.1808016640799,2787.2,1370.5714285714287,308.1808016640799,2896.9,1370.5714285714287,308.1808016640799,2998.2,1370.5714285714287,308.1808016640799,3102.7,1370.5714285714287,308.1808016640799,3215.2,1370.5714285714287,308.1808016640799,3327.7,1370.5714285714287,308.1808016640799,3436.7,1370.5714285714287,308.1808016640799,3546.3,1370.5714285714287,308.1808016640799,3651.1,1370.5714285714287,308.1808016640799,3751.4,1370.5714285714287,308.1808016640799,3908.7,1370.5714285714287,308.1808016640799,4021.6,1370.5714285714287,308.1808016640799,4123.7,1370.5714285714287,308.1808016640799,4230.9,1370.5714285714287,308.1808016640799,4339.9,1370.5714285714287,308.1808016640799,4445.2,1370.5714285714287,308.1808016640799,4548.2,1370.5714285714287,308.1808016640799,4648.4,1370.5714285714287,308.1808016640799,4754.2,1370.5714285714287,308.1808016640799,4855.5,1370.5714285714287,308.1808016640799,4968.5]","[1486.9,1486.9,1000,0,486.9,""smooth"",""right"",""right"",""good_move"",4056.1,2569.1,2128.3,1487.1,440.8,""smooth"",""right"",""right"",""good_move"",6430.1,2373.8,1936,4056.3,437.8,""oops"",""right"",""up"",""good_move"",9934.9,3504.3,3043.8,6430.7,460.5,""smooth"",""right"",""right"",""good_move"",16041.5,6104.7,2147.5,13319,575,""smooth"",""up"",""up"",""good_move"",26242.8,10201,2332.9,23444.3,465.6,""oops"",""up"",""down"",""bad_move"",29499.3,3255.8,2824.4,26243.5,431.4,""smooth"",""up"",""up"",""good_move"",32890.4,3388.3,1978.2,29502.1,1410.1,""smooth"",""up"",""up"",""good_move""]"
"5058","","<div style=""width:500px;"">
  <p>What determined the result of this run?</p>
  </div>","18","html-slider-response","74","2123557","0.0-7.0-1.12","121","1","2025-08-06 08:49:16","36c45c0696341be0efffe67d72a12abb","197.245.162.70","Mozilla/5.0 (Windows NT 10.0; Win64; x64) AppleWebKit/537.36 (KHTML, like Gecko) Chrome/138.0.0.0 Safari/537.36","WebKit","Chrome","138.0.0.0","Windows","10.0","https://app.prolific.com/","en-ZA,en-GB;q=0.9,en-US;q=0.8,en;q=0.7","614e1c414dff2e589169f360","6877649eabb845cf142cd221","6893170078270a7f4d4eb2ce","1","614e1c414dff2e589169f360","1","2025-08-06T09:24:43.571Z","","","","AttribQ","","","","","","","","","","","50","","","","","","","","","","","","","","","","","","","","","","","","","","",""
"3735","","<div style=""width:500px;"">
  <p>How much control did you have over the ball?</p>
