"rt","response_timestamp","stimulus","response","trial_type","trial_index","time_elapsed","internal_node_id","run_id","condition","recorded_at","source_code_version","ip","user_agent","device","browser","browser_version","platform","platform_version","referer","accept_language","PROLIFIC_PID","STUDY_ID","SESSION_ID","BATCH","prolific_id","batch","realtime","success","question_order","question_id","eventType","responses","item_order","radio_event_ids","radio_event_times","key_event_times","mouse_event_times","straightlining","zigzagging","honeypot","view_history","slider_start","which_type","canvas_config","goals_layout","control_level","trial_number","tutorial_trial_number","trial_start_time","phase1_start_time","phase2_start_time","phase3_start_time","goal_1_value","goal_1_distance","goal_2_value","goal_2_distance","goal_selected","outcome","outcome_total","participant_final_score","participant_initial_score","participant_final_score_prop","goal_choice_rt","allocated_time","allocated_time_remaining","goal_direction","counts","mouse_movements","key_presses"
"1451","1754570468878","<p style='font-size:40px;line-height:1.25'><strong>Welcome to the experiment!</strong></p><p style='font-size:1.1em;line-height:1.25'>Thank you for participanting in our experiment again! You will be asked to play the Dysfunctional Ball Game again. We will briefly recap the rules before we start.</p><p style='font-size:1.1em;line-height:1.25'>Press <strong>Next</strong> to continue.</p>","0","custom-html-button-response","0","1453","0.0-0.0","229","1","2025-08-07 12:41:06","36c45c0696341be0efffe67d72a12abb","41.114.242.92","Mozilla/5.0 (Windows NT 10.0; Win64; x64) AppleWebKit/537.36 (KHTML, like Gecko) Chrome/138.0.0.0 Safari/537.36","WebKit","Chrome","138.0.0.0","Windows","10.0","https://app.prolific.com/","en-ZA,en-GB;q=0.9,en-US;q=0.8,en;q=0.7","61601e9a6b8306196d2a129c","6877649eabb845cf142cd221","68949eddc96617cab5e4f304","1","61601e9a6b8306196d2a129c","1","2025-08-07T12:41:08.879Z","","","","","","","","","","","","","","","","","","","","","","","","","","","","","","","","","","","","","","","","","",""
"2814","","","","fullscreen","1","5288","0.0-1.0","229","1","2025-08-07 12:41:06","36c45c0696341be0efffe67d72a12abb","41.114.242.92","Mozilla/5.0 (Windows NT 10.0; Win64; x64) AppleWebKit/537.36 (KHTML, like Gecko) Chrome/138.0.0.0 Safari/537.36","WebKit","Chrome","138.0.0.0","Windows","10.0","https://app.prolific.com/","en-ZA,en-GB;q=0.9,en-US;q=0.8,en;q=0.7","61601e9a6b8306196d2a129c","6877649eabb845cf142cd221","68949eddc96617cab5e4f304","1","61601e9a6b8306196d2a129c","1","","true","","","","","","","","","","","","","","","","","","","","","","","","","","","","","","","","","","","","","","","","",""
"1762","1754570474478"," <p style='font-size:1.1em;line-height:1.25'>Thank you for closing all other tabs.</p><p style='font-size:1.1em;line-height:1.25'>We will now invite you to fill in some questionnaires, before starting the game.<br>This will take about 5 minutes.<br></p><p style='font-size:1.1em;line-height:1.25'>Press the <strong>Next</strong> button to continue.</p>","0","custom-html-button-response","2","7052","0.0-2.0","229","1","2025-08-07 12:41:06","36c45c0696341be0efffe67d72a12abb","41.114.242.92","Mozilla/5.0 (Windows NT 10.0; Win64; x64) AppleWebKit/537.36 (KHTML, like Gecko) Chrome/138.0.0.0 Safari/537.36","WebKit","Chrome","138.0.0.0","Windows","10.0","https://app.prolific.com/","en-ZA,en-GB;q=0.9,en-US;q=0.8,en;q=0.7","61601e9a6b8306196d2a129c","6877649eabb845cf142cd221","68949eddc96617cab5e4f304","1","61601e9a6b8306196d2a129c","1","2025-08-07T12:41:14.478Z","","","","","","","","","","","","","","","","","","","","","","","","","","","","","","","","","","","","","","","","","",""
"2472","","","{""assigned_sex"":""female""}","survey-multi-choice","3","9526","0.0-3.0-0.0","229","1","2025-08-07 12:41:06","36c45c0696341be0efffe67d72a12abb","41.114.242.92","Mozilla/5.0 (Windows NT 10.0; Win64; x64) AppleWebKit/537.36 (KHTML, like Gecko) Chrome/138.0.0.0 Safari/537.36","WebKit","Chrome","138.0.0.0","Windows","10.0","https://app.prolific.com/","en-ZA,en-GB;q=0.9,en-US;q=0.8,en;q=0.7","61601e9a6b8306196d2a129c","6877649eabb845cf142cd221","68949eddc96617cab5e4f304","1","61601e9a6b8306196d2a129c","1","","","[0]","0","demographics","","","","","","","","","","","","","","","","","","","","","","","","","","","","","","","","","","","","","",""
"1389","1754570478342","<p style='font-size:1.1em;line-height:1.25'>In the following, we will perform a baseline assessment. This means that we will ask you a few questions relating to your experiences over the past month.<br></p><p style='font-size:1.1em;line-height:1.25'>Press the <strong>Next</strong> button to continue.</p>","0","custom-html-button-response","4","10916","0.0-4.0-0.0","229","1","2025-08-07 12:41:06","36c45c0696341be0efffe67d72a12abb","41.114.242.92","Mozilla/5.0 (Windows NT 10.0; Win64; x64) AppleWebKit/537.36 (KHTML, like Gecko) Chrome/138.0.0.0 Safari/537.36","WebKit","Chrome","138.0.0.0","Windows","10.0","https://app.prolific.com/","en-ZA,en-GB;q=0.9,en-US;q=0.8,en;q=0.7","61601e9a6b8306196d2a129c","6877649eabb845cf142cd221","68949eddc96617cab5e4f304","1","61601e9a6b8306196d2a129c","1","2025-08-07T12:41:18.342Z","","","","","","","","","","","","","","","","","","","","","","","","","","","","","","","","","","","","","","","","","",""
"160689.70000000298","","","","survey-template","5","171609","0.0-4.0-1.0","229","1","2025-08-07 12:41:06","36c45c0696341be0efffe67d72a12abb","41.114.242.92","Mozilla/5.0 (Windows NT 10.0; Win64; x64) AppleWebKit/537.36 (KHTML, like Gecko) Chrome/138.0.0.0 Safari/537.36","WebKit","Chrome","138.0.0.0","Windows","10.0","https://app.prolific.com/","en-ZA,en-GB;q=0.9,en-US;q=0.8,en;q=0.7","61601e9a6b8306196d2a129c","6877649eabb845cf142cd221","68949eddc96617cab5e4f304","1","61601e9a6b8306196d2a129c","1","2025-08-07T12:43:59.035Z","","","","pss","{""Q01"":""3"",""Q02"":""3"",""Q03"":""3"",""Q04"":""3"",""Q05"":""3"",""Q06"":""4"",""Q07"":""3"",""Q08"":""3"",""Q09"":""3"",""Q10"":""3""}","[0,1,2,3,4,5,6,7,8,9]","[""Q01"",""Q02"",""Q03"",""Q04"",""Q05"",""Q06"",""Q07"",""Q08"",""Q09"",""Q10"",""Q02""]","[15926.20000000298,19654.29999999702,25022.10000000894,123758.60000000894,127646.79999999702,136998.60000000894,141006.79999999702,145742.70000000298,149734.90000000596,153534.90000000596,159087]","[]","[16.700000002980232,15926.20000000298,19654.29999999702,22670.29999999702,23862.20000000298,24414,25022.10000000894,123758.60000000894,127646.79999999702,136998.60000000894,141006.79999999702,145047,145742.70000000298,149734.90000000596,152423,153534.90000000596,159087,160687.10000000894]","0.5","0","0","","","","","","","","","","","","","","","","","","","","","","","","","","","","",""
"1627","1754570640663","<p style='font-size:1.1em;line-height:1.25'>Thank you for your answers! Now we will ask you a few more questions relating to your feelings in the last 24 hours.<br></p><p style='font-size:1.1em;line-height:1.25'>Press the <strong>Next</strong> button to continue.</p>","0","custom-html-button-response","6","173237","0.0-4.0-2.0","229","1","2025-08-07 12:41:06","36c45c0696341be0efffe67d72a12abb","41.114.242.92","Mozilla/5.0 (Windows NT 10.0; Win64; x64) AppleWebKit/537.36 (KHTML, like Gecko) Chrome/138.0.0.0 Safari/537.36","WebKit","Chrome","138.0.0.0","Windows","10.0","https://app.prolific.com/","en-ZA,en-GB;q=0.9,en-US;q=0.8,en;q=0.7","61601e9a6b8306196d2a129c","6877649eabb845cf142cd221","68949eddc96617cab5e4f304","1","61601e9a6b8306196d2a129c","1","2025-08-07T12:44:00.663Z","","","","","","","","","","","","","","","","","","","","","","","","","","","","","","","","","","","","","","","","","",""
"165354.90000000596","","","","survey-template","7","338595","0.0-4.0-3.0","229","1","2025-08-07 12:41:06","36c45c0696341be0efffe67d72a12abb","41.114.242.92","Mozilla/5.0 (Windows NT 10.0; Win64; x64) AppleWebKit/537.36 (KHTML, like Gecko) Chrome/138.0.0.0 Safari/537.36","WebKit","Chrome","138.0.0.0","Windows","10.0","https://app.prolific.com/","en-ZA,en-GB;q=0.9,en-US;q=0.8,en;q=0.7","61601e9a6b8306196d2a129c","6877649eabb845cf142cd221","68949eddc96617cab5e4f304","1","61601e9a6b8306196d2a129c","1","2025-08-07T12:46:46.022Z","","","","drsp","{""Q01"":""1"",""Q02"":""2"",""Q03"":""1"",""Q04"":""3"",""Q05"":""2"",""Q06"":""2"",""Q07"":""1"",""Q08"":""0"",""Q09"":""3"",""Q10"":""2"",""Q11"":""4"",""Q12"":""1"",""Q13"":""5"",""Q14"":""1"",""Q15"":""4"",""Q16"":""5"",""Q17"":""5"",""Q18"":""4"",""Q19"":""1"",""Q20"":""1"",""Q21"":""1"",""Q22"":""1""}","[0,1,2,3,4,5,6,7,8,9,10,11,12,13,14,15,16,17,18,19,20,21]","[""Q01"",""Q02"",""Q03"",""Q04"",""Q05"",""Q06"",""Q07"",""Q08"",""Q09"",""Q10"",""Q11"",""Q12"",""Q13"",""Q14"",""Q15"",""Q16"",""Q17"",""Q18"",""Q19"",""Q20"",""Q20"",""Q21"",""Q22""]","[6734.0999999940395,12653.90000000596,16158.09999999404,18606.29999999702,21885.70000000298,32021.70000000298,36877.90000000596,39005.79999999702,47382,54294.09999999404,58749.79999999702,61670.09999999404,64086.20000000298,68318.20000000298,99270.29999999702,104542.09999999404,106774.29999999702,109414.29999999702,121902.29999999702,157286.79999999702,160358.59999999404,162614.70000000298,164502.59999999404]","[]","[13.200000002980232,6734.0999999940395,12653.90000000596,15285.90000000596,16158.09999999404,17734.09999999404,18606.29999999702,21885.70000000298,32021.70000000298,36877.90000000596,39005.79999999702,47382,54294.09999999404,58749.79999999702,61670.09999999404,64086.20000000298,68318.20000000298,99270.29999999702,104542.09999999404,106774.29999999702,109414.29999999702,121902.29999999702,157286.79999999702,160358.59999999404,162614.70000000298,164502.59999999404,165350.90000000596]","0.4090909090909091","0.38095238095238093","0","","","","","","","","","","","","","","","","","","","","","","","","","","","","",""
"26602.40000000596","","","","survey-template","8","365200","0.0-4.0-4.0","229","1","2025-08-07 12:41:06","36c45c0696341be0efffe67d72a12abb","41.114.242.92","Mozilla/5.0 (Windows NT 10.0; Win64; x64) AppleWebKit/537.36 (KHTML, like Gecko) Chrome/138.0.0.0 Safari/537.36","WebKit","Chrome","138.0.0.0","Windows","10.0","https://app.prolific.com/","en-ZA,en-GB;q=0.9,en-US;q=0.8,en;q=0.7","61601e9a6b8306196d2a129c","6877649eabb845cf142cd221","68949eddc96617cab5e4f304","1","61601e9a6b8306196d2a129c","1","2025-08-07T12:47:12.626Z","","","","stress","{""Q01"":""2"",""Q02"":""2"",""Q03"":""2""}","[0,1,2]","[""Q01"",""Q02"",""Q03""]","[13513.10000000894,20857.60000000894,25769.40000000596]","[]","[13513.10000000894,20857.60000000894,25769.40000000596,26601.40000000596]","0.6666666666666666","1","0","","","","","","","","","","","","","","","","","","","","","","","","","","","","",""
"3813","","","","instructions","9","369014","0.0-5.0-0.0","229","1","2025-08-07 12:41:06","36c45c0696341be0efffe67d72a12abb","41.114.242.92","Mozilla/5.0 (Windows NT 10.0; Win64; x64) AppleWebKit/537.36 (KHTML, like Gecko) Chrome/138.0.0.0 Safari/537.36","WebKit","Chrome","138.0.0.0","Windows","10.0","https://app.prolific.com/","en-ZA,en-GB;q=0.9,en-US;q=0.8,en;q=0.7","61601e9a6b8306196d2a129c","6877649eabb845cf142cd221","68949eddc96617cab5e4f304","1","61601e9a6b8306196d2a129c","1","","","","","","","","","","","","","","","[{""page_index"":0,""viewing_time"":3813}]","","","","","","","","","","","","","","","","","","","","","","","","","","","",""
"3015","","<p>Before you start with this game please answer the following three questions yourself. </p>
  <p>Through this game, we measure several aspects of your cognitive performance, such as reaction times, multi-tasking capabilities </p>
  <p>and the ability to assess the situation you are in.</p>
  <p></p>
  <p><b>How good do you usually are in such tasks?</b></p>","50","html-slider-response","10","372031","0.0-6.0-0.0","229","1","2025-08-07 12:41:06","36c45c0696341be0efffe67d72a12abb","41.114.242.92","Mozilla/5.0 (Windows NT 10.0; Win64; x64) AppleWebKit/537.36 (KHTML, like Gecko) Chrome/138.0.0.0 Safari/537.36","WebKit","Chrome","138.0.0.0","Windows","10.0","https://app.prolific.com/","en-ZA,en-GB;q=0.9,en-US;q=0.8,en;q=0.7","61601e9a6b8306196d2a129c","6877649eabb845cf142cd221","68949eddc96617cab5e4f304","1","61601e9a6b8306196d2a129c","1","2025-08-07T12:47:19.457Z","","","","PreSkillQ","","","","","","","","","","","50","","","","","","","","","","","","","","","","","","","","","","","","","","",""
"4406","","<div style=""width:500px;"">
  <p>How well do you think you will perform in this task compared to other participants?</p>
  </div>","50","html-slider-response","11","376438","0.0-6.0-1.0","229","1","2025-08-07 12:41:06","36c45c0696341be0efffe67d72a12abb","41.114.242.92","Mozilla/5.0 (Windows NT 10.0; Win64; x64) AppleWebKit/537.36 (KHTML, like Gecko) Chrome/138.0.0.0 Safari/537.36","WebKit","Chrome","138.0.0.0","Windows","10.0","https://app.prolific.com/","en-ZA,en-GB;q=0.9,en-US;q=0.8,en;q=0.7","61601e9a6b8306196d2a129c","6877649eabb845cf142cd221","68949eddc96617cab5e4f304","1","61601e9a6b8306196d2a129c","1","2025-08-07T12:47:23.864Z","","","","PrePerfQ","","","","","","","","","","","50","","","","","","","","","","","","","","","","","","","","","","","","","","",""
"6527","","<div style=""width:500px;"">
  <p>What best describes how you currently feel?</p>
  </div>","50","html-slider-response","12","382966","0.0-6.0-2.0","229","1","2025-08-07 12:41:06","36c45c0696341be0efffe67d72a12abb","41.114.242.92","Mozilla/5.0 (Windows NT 10.0; Win64; x64) AppleWebKit/537.36 (KHTML, like Gecko) Chrome/138.0.0.0 Safari/537.36","WebKit","Chrome","138.0.0.0","Windows","10.0","https://app.prolific.com/","en-ZA,en-GB;q=0.9,en-US;q=0.8,en;q=0.7","61601e9a6b8306196d2a129c","6877649eabb845cf142cd221","68949eddc96617cab5e4f304","1","61601e9a6b8306196d2a129c","1","2025-08-07T12:47:30.392Z","","","","PreMotivationQ","","","","","","","","","","","50","","","","","","","","","","","","","","","","","","","","","","","","","","",""
"","","","","ctl-task-cpt","13","413865","0.0-7.0-0.0","229","1","2025-08-07 12:41:06","36c45c0696341be0efffe67d72a12abb","41.114.242.92","Mozilla/5.0 (Windows NT 10.0; Win64; x64) AppleWebKit/537.36 (KHTML, like Gecko) Chrome/138.0.0.0 Safari/537.36","WebKit","Chrome","138.0.0.0","Windows","10.0","https://app.prolific.com/","en-ZA,en-GB;q=0.9,en-US;q=0.8,en;q=0.7","61601e9a6b8306196d2a129c","6877649eabb845cf142cd221","68949eddc96617cab5e4f304","1","61601e9a6b8306196d2a129c","1","2025-08-07T12:48:01.292Z","","","","","","","","","","","","","","","","win-only","1","g1:NE,g2:SW","1","1","0","386783.9","1494.8","6496.1","27894.5","1","4","8","6","2","8","8","8","0","0.06060606060606061","2503.7","3000","595","[""down"",""left""]","{""num_key_presses"":6,""num_perfect"":6,""num_errors"":0,""num_randdir"":0,""num_randdir_good_moves"":0,""num_whilered"":0,""num_whileblue"":0,""num_blue"":2,""num_good_moves"":6}","[409.07142857142856,422.1808016640799,0.3,409.07142857142856,422.1808016640799,101.9,409.07142857142856,422.1808016640799,206.9,409.07142857142856,422.1808016640799,306.9,409.07142857142856,422.1808016640799,410.9,409.07142857142856,422.1808016640799,515.6,409.07142857142856,422.1808016640799,616.8,409.07142857142856,422.1808016640799,720.9,409.07142857142856,422.1808016640799,821,409.07142857142856,422.1808016640799,925.8,409.07142857142856,422.1808016640799,1026,409.07142857142856,422.1808016640799,1127,409.07142857142856,422.1808016640799,1232.1,409.07142857142856,422.1808016640799,1332.1,409.07142857142856,422.1808016640799,1437,409.07142857142856,422.1808016640799,1540.9,409.07142857142856,422.1808016640799,1641,409.07142857142856,422.1808016640799,1745.9,380.57142857142856,473.1808016640799,1846,274.07142857142856,642.6808016640799,1947,188.57142857142856,728.1808016640799,2051.1,181.07142857142856,728.1808016640799,2152,122.57142857142857,732.6808016640799,2252.7,98.57142857142857,740.1808016640799,2356.6,97.07142857142857,740.1808016640799,2456.9,97.07142857142857,740.1808016640799,2561.8,97.07142857142857,740.1808016640799,2665.7,97.07142857142857,740.1808016640799,2765.7,820.0714285714286,701.1808016640799,2867.1,1202.5714285714287,701.1808016640799,2971.2,1202.5714285714287,701.1808016640799,3072.1,1202.5714285714287,701.1808016640799,3176.2,1202.5714285714287,701.1808016640799,3281.1,1202.5714285714287,701.1808016640799,3381.3,1202.5714285714287,701.1808016640799,3486.1,1202.5714285714287,701.1808016640799,3587.1,1202.5714285714287,701.1808016640799,3691.1,1202.5714285714287,701.1808016640799,3796.1,1202.5714285714287,701.1808016640799,3900.8,1202.5714285714287,701.1808016640799,4002.1,1202.5714285714287,701.1808016640799,4106,1202.5714285714287,701.1808016640799,4206,1202.5714285714287,701.1808016640799,4307.1,1202.5714285714287,701.1808016640799,4410.9,1202.5714285714287,701.1808016640799,4511.1,1202.5714285714287,701.1808016640799,4616.1,1202.5714285714287,701.1808016640799,4721,1202.5714285714287,701.1808016640799,4821,1202.5714285714287,701.1808016640799,4921]","[5204.7,5204.7,2691.3,2005,508.4,""smooth"",""down"",""down"",""good_move"",8052.8,2847.7,2420.9,5205.1,426.8,""smooth"",""down"",""down"",""good_move"",13677.7,5624.7,2110.9,11185.6,381.2,""smooth"",""down"",""down"",""good_move"",16149.1,2471.3,2065.9,13677.8,405.4,""smooth"",""left"",""left"",""good_move"",19381,3231.6,2874.8,16149.5,356.7,""smooth"",""left"",""left"",""good_move"",21308.8,1927.5,1553.5,19381.3,374,""smooth"",""left"",""left"",""good_move""]"
"24268","","<div style=""width:500px;"">
  <p>What determined the result of this run?</p>
  </div>","0","html-slider-response","14","438135","0.0-7.0-1.0","229","1","2025-08-07 12:41:06","36c45c0696341be0efffe67d72a12abb","41.114.242.92","Mozilla/5.0 (Windows NT 10.0; Win64; x64) AppleWebKit/537.36 (KHTML, like Gecko) Chrome/138.0.0.0 Safari/537.36","WebKit","Chrome","138.0.0.0","Windows","10.0","https://app.prolific.com/","en-ZA,en-GB;q=0.9,en-US;q=0.8,en;q=0.7","61601e9a6b8306196d2a129c","6877649eabb845cf142cd221","68949eddc96617cab5e4f304","1","61601e9a6b8306196d2a129c","1","2025-08-07T12:48:25.561Z","","","","AttribQ","","","","","","","","","","","50","","","","","","","","","","","","","","","","","","","","","","","","","","",""
"3407","","<div style=""width:500px;"">
  <p>How much control did you have over the ball?</p>
  </div>","100","html-slider-response","15","441542","0.0-7.0-2.0","229","1","2025-08-07 12:41:06","36c45c0696341be0efffe67d72a12abb","41.114.242.92","Mozilla/5.0 (Windows NT 10.0; Win64; x64) AppleWebKit/537.36 (KHTML, like Gecko) Chrome/138.0.0.0 Safari/537.36","WebKit","Chrome","138.0.0.0","Windows","10.0","https://app.prolific.com/","en-ZA,en-GB;q=0.9,en-US;q=0.8,en;q=0.7","61601e9a6b8306196d2a129c","6877649eabb845cf142cd221","68949eddc96617cab5e4f304","1","61601e9a6b8306196d2a129c","1","2025-08-07T12:48:28.968Z","","","","ControlQ","","","","","","","","","","","50","","","","","","","","","","","","","","","","","","","","","","","","","","",""
"7391","","<div style=""width:500px;"">
  <p>How would you describe your current emotional state?</p>
  </div>","63","html-slider-response","16","448934","0.0-7.0-3.0","229","1","2025-08-07 12:41:06","36c45c0696341be0efffe67d72a12abb","41.114.242.92","Mozilla/5.0 (Windows NT 10.0; Win64; x64) AppleWebKit/537.36 (KHTML, like Gecko) Chrome/138.0.0.0 Safari/537.36","WebKit","Chrome","138.0.0.0","Windows","10.0","https://app.prolific.com/","en-ZA,en-GB;q=0.9,en-US;q=0.8,en;q=0.7","61601e9a6b8306196d2a129c","6877649eabb845cf142cd221","68949eddc96617cab5e4f304","1","61601e9a6b8306196d2a129c","1","2025-08-07T12:48:36.360Z","","","","StressQ","","","","","","","","","","","50","","","","","","","","","","","","","","","","","","","","","","","","","","",""
"4887","","<div style=""width:500px;"">
  <p>What best describes how you currently feel?</p>
  </div>","46","html-slider-response","17","453823","0.0-7.0-4.0","229","1","2025-08-07 12:41:06","36c45c0696341be0efffe67d72a12abb","41.114.242.92","Mozilla/5.0 (Windows NT 10.0; Win64; x64) AppleWebKit/537.36 (KHTML, like Gecko) Chrome/138.0.0.0 Safari/537.36","WebKit","Chrome","138.0.0.0","Windows","10.0","https://app.prolific.com/","en-ZA,en-GB;q=0.9,en-US;q=0.8,en;q=0.7","61601e9a6b8306196d2a129c","6877649eabb845cf142cd221","68949eddc96617cab5e4f304","1","61601e9a6b8306196d2a129c","1","2025-08-07T12:48:41.249Z","","","","MotivationQ","","","","","","","","","","","50","","","","","","","","","","","","","","","","","","","","","","","","","","",""
"","","","","ctl-task-cpt","18","492239","0.0-7.0-0.1","229","1","2025-08-07 12:41:06","36c45c0696341be0efffe67d72a12abb","41.114.242.92","Mozilla/5.0 (Windows NT 10.0; Win64; x64) AppleWebKit/537.36 (KHTML, like Gecko) Chrome/138.0.0.0 Safari/537.36","WebKit","Chrome","138.0.0.0","Windows","10.0","https://app.prolific.com/","en-ZA,en-GB;q=0.9,en-US;q=0.8,en;q=0.7","61601e9a6b8306196d2a129c","6877649eabb845cf142cd221","68949eddc96617cab5e4f304","1","61601e9a6b8306196d2a129c","1","2025-08-07T12:49:19.665Z","","","","","","","","","","","","","","","","win-only","1","g1:NE,g2:SW","0.9","2","0","457640.1","1383.3","6386.8","35406.6","1","4","4","6","2","4","4","12","8","0.09090909090909091","1390.6","3000","105","[""down"",""left""]","{""num_key_presses"":8,""num_perfect"":7,""num_errors"":0,""num_randdir"":1,""num_randdir_good_moves"":0,""num_whilered"":0,""num_whileblue"":0,""num_blue"":2,""num_good_moves"":7}","[413.57142857142856,417.6808016640799,0.3,413.57142857142856,417.6808016640799,103.5,413.57142857142856,417.6808016640799,207.7,413.57142857142856,417.6808016640799,312.8,413.57142857142856,417.6808016640799,417.6,413.57142857142856,417.6808016640799,522.2,413.57142857142856,417.6808016640799,622.6,413.57142857142856,417.6808016640799,722.9,412.07142857142856,422.1808016640799,827.1,151.07142857142856,731.1808016640799,928.7,146.57142857142856,738.6808016640799,1032.5,91.07142857142857,761.1808016640799,1133.5,88.07142857142857,762.6808016640799,1237.4,88.07142857142857,762.6808016640799,1339.8,88.07142857142857,762.6808016640799,1441.9,80.57142857142857,756.6808016640799,1542.7,80.57142857142857,756.6808016640799,1648,151.07142857142856,725.1808016640799,1753.9,1375.0714285714287,375.6808016640799,1855.8,1375.0714285714287,371.1808016640799,1956.9,1373.5714285714287,371.1808016640799,2057.5,1373.5714285714287,371.1808016640799,2162.8,1373.5714285714287,371.1808016640799,2267.8,1373.5714285714287,371.1808016640799,2368,1373.5714285714287,371.1808016640799,2472.2,1373.5714285714287,371.1808016640799,2573.1,1373.5714285714287,371.1808016640799,2673.9,1373.5714285714287,371.1808016640799,2777.4,1373.5714285714287,371.1808016640799,2882.7,1373.5714285714287,371.1808016640799,2987.9,1373.5714285714287,371.1808016640799,3088.1,1373.5714285714287,371.1808016640799,3188.9,1373.5714285714287,371.1808016640799,3291.8,1373.5714285714287,371.1808016640799,3392.4,1373.5714285714287,371.1808016640799,3497.8,1373.5714285714287,371.1808016640799,3603.7,1373.5714285714287,371.1808016640799,3708,1373.5714285714287,371.1808016640799,3812.7,1373.5714285714287,371.1808016640799,3913,1373.5714285714287,371.1808016640799,4013.1,1373.5714285714287,371.1808016640799,4117.9,1373.5714285714287,371.1808016640799,4222.7,1373.5714285714287,371.1808016640799,4322.9,1373.5714285714287,371.1808016640799,4427.6,1373.5714285714287,371.1808016640799,4527.8,1373.5714285714287,371.1808016640799,4632.4,1373.5714285714287,371.1808016640799,4738.4,1373.5714285714287,371.1808016640799,4843.5,1373.5714285714287,371.1808016640799,4948.3]","[5122.8,5122.8,2738.7,2004.4,379.7,""smooth"",""down"",""down"",""good_move"",7548.7,2425.6,2081.3,5123.1,344.3,""smooth"",""down"",""down"",""good_move"",10522.3,2973.3,2592.1,7549,381.2,""smooth"",""down"",""down"",""good_move"",13330.3,2807.8,2444.1,10522.5,363.8,""oops"",""left"",""right"",""bad_move"",16378.6,3048,2752.5,13330.6,295.5,""smooth"",""left"",""left"",""good_move"",18666.4,2287.4,1944,16379,343.4,""smooth"",""left"",""left"",""good_move"",25595.9,6929.3,2460.8,22663.9,471.2,""smooth"",""left"",""left"",""good_move"",28931.7,3335.6,2972.9,25596.1,362.7,""smooth"",""left"",""left"",""good_move""]"
"5574","","<div style=""width:500px;"">
  <p>What determined the result of this run?</p>
  </div>","17","html-slider-response","19","497815","0.0-7.0-1.1","229","1","2025-08-07 12:41:06","36c45c0696341be0efffe67d72a12abb","41.114.242.92","Mozilla/5.0 (Windows NT 10.0; Win64; x64) AppleWebKit/537.36 (KHTML, like Gecko) Chrome/138.0.0.0 Safari/537.36","WebKit","Chrome","138.0.0.0","Windows","10.0","https://app.prolific.com/","en-ZA,en-GB;q=0.9,en-US;q=0.8,en;q=0.7","61601e9a6b8306196d2a129c","6877649eabb845cf142cd221","68949eddc96617cab5e4f304","1","61601e9a6b8306196d2a129c","1","2025-08-07T12:49:25.241Z","","","","AttribQ","","","","","","","","","","","50","","","","","","","","","","","","","","","","","","","","","","","","","","",""
"3103","","<div style=""width:500px;"">
  <p>How much control did you have over the ball?</p>
  </div>","83","html-slider-response","20","500919","0.0-7.0-2.1","229","1","2025-08-07 12:41:06","36c45c0696341be0efffe67d72a12abb","41.114.242.92","Mozilla/5.0 (Windows NT 10.0; Win64; x64) AppleWebKit/537.36 (KHTML, like Gecko) Chrome/138.0.0.0 Safari/537.36","WebKit","Chrome","138.0.0.0","Windows","10.0","https://app.prolific.com/","en-ZA,en-GB;q=0.9,en-US;q=0.8,en;q=0.7","61601e9a6b8306196d2a129c","6877649eabb845cf142cd221","68949eddc96617cab5e4f304","1","61601e9a6b8306196d2a129c","1","2025-08-07T12:49:28.345Z","","","","ControlQ","","","","","","","","","","","50","","","","","","","","","","","","","","","","","","","","","","","","","","",""
"6103","","<div style=""width:500px;"">
  <p>How would you describe your current emotional state?</p>
  </div>","52","html-slider-response","21","507023","0.0-7.0-3.1","229","1","2025-08-07 12:41:06","36c45c0696341be0efffe67d72a12abb","41.114.242.92","Mozilla/5.0 (Windows NT 10.0; Win64; x64) AppleWebKit/537.36 (KHTML, like Gecko) Chrome/138.0.0.0 Safari/537.36","WebKit","Chrome","138.0.0.0","Windows","10.0","https://app.prolific.com/","en-ZA,en-GB;q=0.9,en-US;q=0.8,en;q=0.7","61601e9a6b8306196d2a129c","6877649eabb845cf142cd221","68949eddc96617cab5e4f304","1","61601e9a6b8306196d2a129c","1","2025-08-07T12:49:34.449Z","","","","StressQ","","","","","","","","","","","50","","","","","","","","","","","","","","","","","","","","","","","","","","",""
"2223","","<div style=""width:500px;"">
  <p>What best describes how you currently feel?</p>
  </div>","47","html-slider-response","22","509247","0.0-7.0-4.1","229","1","2025-08-07 12:41:06","36c45c0696341be0efffe67d72a12abb","41.114.242.92","Mozilla/5.0 (Windows NT 10.0; Win64; x64) AppleWebKit/537.36 (KHTML, like Gecko) Chrome/138.0.0.0 Safari/537.36","WebKit","Chrome","138.0.0.0","Windows","10.0","https://app.prolific.com/","en-ZA,en-GB;q=0.9,en-US;q=0.8,en;q=0.7","61601e9a6b8306196d2a129c","6877649eabb845cf142cd221","68949eddc96617cab5e4f304","1","61601e9a6b8306196d2a129c","1","2025-08-07T12:49:36.673Z","","","","MotivationQ","","","","","","","","","","","50","","","","","","","","","","","","","","","","","","","","","","","","","","",""
"","","","","ctl-task-cpt","23","533597","0.0-7.0-0.2","229","1","2025-08-07 12:41:06","36c45c0696341be0efffe67d72a12abb","41.114.242.92","Mozilla/5.0 (Windows NT 10.0; Win64; x64) AppleWebKit/537.36 (KHTML, like Gecko) Chrome/138.0.0.0 Safari/537.36","WebKit","Chrome","138.0.0.0","Windows","10.0","https://app.prolific.com/","en-ZA,en-GB;q=0.9,en-US;q=0.8,en;q=0.7","61601e9a6b8306196d2a129c","6877649eabb845cf142cd221","68949eddc96617cab5e4f304","1","61601e9a6b8306196d2a129c","1","2025-08-07T12:50:01.023Z","","","","","","","","","","","","","","","","win-only","1","g1:NE,g2:SW","0.8","3","0","513064.4","942.9","5946.8","21340.8","1","4","4","6","2","4","3","15","12","0.11363636363636363","788.7","3000","1470","[""down"",""left""]","{""num_key_presses"":6,""num_perfect"":3,""num_errors"":1,""num_randdir"":2,""num_randdir_good_moves"":2,""num_whilered"":0,""num_whileblue"":1,""num_blue"":1,""num_good_moves"":6}","[416.57142857142856,420.6808016640799,0.1,416.57142857142856,420.6808016640799,103.6,416.57142857142856,420.6808016640799,203.8,416.57142857142856,420.6808016640799,304.6,416.57142857142856,420.6808016640799,406,158.57142857142856,678.6808016640799,509.3,5.571428571428569,824.1808016640799,624.1,5.571428571428569,824.1808016640799,728.9,5.571428571428569,824.1808016640799,832.8,8.57142857142857,821.1808016640799,939.7,11.57142857142857,818.1808016640799,1043.3,712.0714285714286,570.6808016640799,1143.4,1375.0714285714287,540.6808016640799,1243.8,1345.0714285714287,540.6808016640799,1363.6,1345.0714285714287,539.1808016640799,1471.1,1345.0714285714287,539.1808016640799,1573.1,1345.0714285714287,539.1808016640799,1674.2,1345.0714285714287,539.1808016640799,1778.1,1345.0714285714287,539.1808016640799,1878.1,1345.0714285714287,539.1808016640799,1978.2,1345.0714285714287,539.1808016640799,2079.2,1345.0714285714287,539.1808016640799,2187.5,1345.0714285714287,539.1808016640799,2288.8,1345.0714285714287,539.1808016640799,2393.6,1345.0714285714287,539.1808016640799,2498.4,1345.0714285714287,539.1808016640799,2602.5,1345.0714285714287,539.1808016640799,2704.4,1345.0714285714287,539.1808016640799,2808.4,1345.0714285714287,539.1808016640799,2908.8,1345.0714285714287,539.1808016640799,3008.9,1345.0714285714287,539.1808016640799,3114,1345.0714285714287,539.1808016640799,3218.6,1345.0714285714287,539.1808016640799,3321.5,1345.0714285714287,539.1808016640799,3423.2,1345.0714285714287,539.1808016640799,3523.8,1345.0714285714287,539.1808016640799,3627.3,1345.0714285714287,539.1808016640799,3728.4,1345.0714285714287,539.1808016640799,3828.7,1345.0714285714287,539.1808016640799,3932.5,1345.0714285714287,539.1808016640799,4032.5,1345.0714285714287,539.1808016640799,4138.6,1345.0714285714287,539.1808016640799,4239.8,1345.0714285714287,539.1808016640799,4343.5,1345.0714285714287,539.1808016640799,4448.8,1345.0714285714287,539.1808016640799,4554.5,1345.0714285714287,539.1808016640799,4658.6,1345.0714285714287,539.1808016640799,4771.3,1345.0714285714287,539.1808016640799,4871.6,1345.0714285714287,539.1808016640799,4973.3]","[1450.5,1450.5,1000,0,450.5,""oops"",""down"",""down"",""good_move"",4562.6,3111.7,2749.8,1450.9,361.9,""smooth"",""down"",""down"",""good_move"",7322.5,2759.6,2431.9,4562.9,327.7,""oops"",""down"",""down"",""good_move"",9666.3,2343.6,2026.2,7322.7,317.4,""smooth"",""left"",""left"",""good_move"",12058.6,2391.9,2083.7,9666.7,308.2,""smooth"",""left"",""left"",""good_move"",15307.5,3248.9,2956.5,12058.7,292.4,""while_blue"",""left"",""left"",""good_move""]"
"6833","","<div style=""width:500px;"">
  <p>What determined the result of this run?</p>
  </div>","27","html-slider-response","24","540431","0.0-7.0-1.2","229","1","2025-08-07 12:41:06","36c45c0696341be0efffe67d72a12abb","41.114.242.92","Mozilla/5.0 (Windows NT 10.0; Win64; x64) AppleWebKit/537.36 (KHTML, like Gecko) Chrome/138.0.0.0 Safari/537.36","WebKit","Chrome","138.0.0.0","Windows","10.0","https://app.prolific.com/","en-ZA,en-GB;q=0.9,en-US;q=0.8,en;q=0.7","61601e9a6b8306196d2a129c","6877649eabb845cf142cd221","68949eddc96617cab5e4f304","1","61601e9a6b8306196d2a129c","1","2025-08-07T12:50:07.857Z","","","","AttribQ","","","","","","","","","","","50","","","","","","","","","","","","","","","","","","","","","","","","","","",""
"5103","","<div style=""width:500px;"">
  <p>How much control did you have over the ball?</p>
  </div>","88","html-slider-response","25","545535","0.0-7.0-2.2","229","1","2025-08-07 12:41:06","36c45c0696341be0efffe67d72a12abb","41.114.242.92","Mozilla/5.0 (Windows NT 10.0; Win64; x64) AppleWebKit/537.36 (KHTML, like Gecko) Chrome/138.0.0.0 Safari/537.36","WebKit","Chrome","138.0.0.0","Windows","10.0","https://app.prolific.com/","en-ZA,en-GB;q=0.9,en-US;q=0.8,en;q=0.7","61601e9a6b8306196d2a129c","6877649eabb845cf142cd221","68949eddc96617cab5e4f304","1","61601e9a6b8306196d2a129c","1","2025-08-07T12:50:12.961Z","","","","ControlQ","","","","","","","","","","","50","","","","","","","","","","","","","","","","","","","","","","","","","","",""
"2295","","<div style=""width:500px;"">
  <p>How would you describe your current emotional state?</p>
  </div>","50","html-slider-response","26","547831","0.0-7.0-3.2","229","1","2025-08-07 12:41:06","36c45c0696341be0efffe67d72a12abb","41.114.242.92","Mozilla/5.0 (Windows NT 10.0; Win64; x64) AppleWebKit/537.36 (KHTML, like Gecko) Chrome/138.0.0.0 Safari/537.36","WebKit","Chrome","138.0.0.0","Windows","10.0","https://app.prolific.com/","en-ZA,en-GB;q=0.9,en-US;q=0.8,en;q=0.7","61601e9a6b8306196d2a129c","6877649eabb845cf142cd221","68949eddc96617cab5e4f304","1","61601e9a6b8306196d2a129c","1","2025-08-07T12:50:15.257Z","","","","StressQ","","","","","","","","","","","50","","","","","","","","","","","","","","","","","","","","","","","","","","",""
"3887","","<div style=""width:500px;"">
  <p>What best describes how you currently feel?</p>
  </div>","50","html-slider-response","27","551719","0.0-7.0-4.2","229","1","2025-08-07 12:41:06","36c45c0696341be0efffe67d72a12abb","41.114.242.92","Mozilla/5.0 (Windows NT 10.0; Win64; x64) AppleWebKit/537.36 (KHTML, like Gecko) Chrome/138.0.0.0 Safari/537.36","WebKit","Chrome","138.0.0.0","Windows","10.0","https://app.prolific.com/","en-ZA,en-GB;q=0.9,en-US;q=0.8,en;q=0.7","61601e9a6b8306196d2a129c","6877649eabb845cf142cd221","68949eddc96617cab5e4f304","1","61601e9a6b8306196d2a129c","1","2025-08-07T12:50:19.145Z","","","","MotivationQ","","","","","","","","","","","50","","","","","","","","","","","","","","","","","","","","","","","","","","",""
"","","","","ctl-task-cpt","28","590330","0.0-7.0-0.3","229","1","2025-08-07 12:41:06","36c45c0696341be0efffe67d72a12abb","41.114.242.92","Mozilla/5.0 (Windows NT 10.0; Win64; x64) AppleWebKit/537.36 (KHTML, like Gecko) Chrome/138.0.0.0 Safari/537.36","WebKit","Chrome","138.0.0.0","Windows","10.0","https://app.prolific.com/","en-ZA,en-GB;q=0.9,en-US;q=0.8,en;q=0.7","61601e9a6b8306196d2a129c","6877649eabb845cf142cd221","68949eddc96617cab5e4f304","1","61601e9a6b8306196d2a129c","1","2025-08-07T12:50:57.756Z","","","","","","","","","","","","","","","","win-only","2","g1:SE,g2:NW","0.7","4","0","555536.5","2078.1","7082.3","35592.2","1","4","8","6","2","-8","-8","7","15","0.05303030303030303","1388","3000","-2985","[""left"",""up""]","{""num_key_presses"":7,""num_perfect"":4,""num_errors"":0,""num_randdir"":3,""num_randdir_good_moves"":2,""num_whilered"":0,""num_whileblue"":0,""num_blue"":2,""num_good_moves"":6}","[421.07142857142856,410.1808016640799,0.3,421.07142857142856,410.1808016640799,106,421.07142857142856,410.1808016640799,207.5,421.07142857142856,410.1808016640799,313.8,421.07142857142856,410.1808016640799,417.6,419.57142857142856,414.6808016640799,518.4,508.07142857142856,566.1808016640799,622.9,575.5714285714286,590.1808016640799,727.7,134.57142857142856,-36.81919833592006,833.8,134.57142857142856,-36.81919833592006,938.7,-39.42857142857143,21.680801664079937,1043.8,-36.42857142857143,42.68080166407994,1148.3,23.57142857142857,32.18080166407994,1248.5,35.57142857142857,29.180801664079937,1348.8,35.57142857142857,29.180801664079937,1453.8,37.07142857142857,29.180801664079937,1554.1,674.5714285714286,317.1808016640799,1654.1,1360.0714285714287,575.1808016640799,1757.8,1360.0714285714287,575.1808016640799,1867.3,1360.0714285714287,575.1808016640799,1969.4,1360.0714285714287,575.1808016640799,2075.1,1360.0714285714287,575.1808016640799,2178.9,1360.0714285714287,575.1808016640799,2282.3,1360.0714285714287,575.1808016640799,2383.5,1360.0714285714287,575.1808016640799,2487.4,1360.0714285714287,575.1808016640799,2587.5,1360.0714285714287,575.1808016640799,2687.7,1360.0714285714287,575.1808016640799,2789.3,1360.0714285714287,575.1808016640799,2892.6,1360.0714285714287,575.1808016640799,2992.6,1360.0714285714287,575.1808016640799,3094,1360.0714285714287,575.1808016640799,3197.2,1360.0714285714287,575.1808016640799,3298.3,1360.0714285714287,575.1808016640799,3398.4,1360.0714285714287,575.1808016640799,3498.8,1360.0714285714287,575.1808016640799,3603.4,1360.0714285714287,575.1808016640799,3703.7,1360.0714285714287,575.1808016640799,3809.3,1360.0714285714287,575.1808016640799,3912.4,1360.0714285714287,575.1808016640799,4013.3,1360.0714285714287,575.1808016640799,4117.2,1360.0714285714287,575.1808016640799,4218.3,1360.0714285714287,575.1808016640799,4322.6,1360.0714285714287,575.1808016640799,4423.2,1360.0714285714287,575.1808016640799,4524,1360.0714285714287,575.1808016640799,4628.9,1360.0714285714287,575.1808016640799,4732.5,1360.0714285714287,575.1808016640799,4838.8,1360.0714285714287,575.1808016640799,4942.3]","[1435.3,1435.3,1000,0,435.3,""smooth"",""up"",""up"",""good_move"",4611.2,3175.5,2753.1,1435.7,422.4,""oops"",""up"",""down"",""bad_move"",7068.3,2456.6,2086.7,4611.7,369.9,""oops"",""left"",""left"",""good_move"",10203.2,3134.6,2788.4,7068.6,346.2,""smooth"",""left"",""left"",""good_move"",20371.5,10168.1,2240.3,17624.9,506.3,""oops"",""up"",""up"",""good_move"",23259.1,2887.3,2544.9,20371.8,342.4,""smooth"",""up"",""up"",""good_move"",26339.1,3079.8,2696.8,23259.3,383,""smooth"",""up"",""up"",""good_move""]"
"3516","","<div style=""width:500px;"">
  <p>What determined the result of this run?</p>
  </div>","0","html-slider-response","29","593848","0.0-7.0-1.3","229","1","2025-08-07 12:41:06","36c45c0696341be0efffe67d72a12abb","41.114.242.92","Mozilla/5.0 (Windows NT 10.0; Win64; x64) AppleWebKit/537.36 (KHTML, like Gecko) Chrome/138.0.0.0 Safari/537.36","WebKit","Chrome","138.0.0.0","Windows","10.0","https://app.prolific.com/","en-ZA,en-GB;q=0.9,en-US;q=0.8,en;q=0.7","61601e9a6b8306196d2a129c","6877649eabb845cf142cd221","68949eddc96617cab5e4f304","1","61601e9a6b8306196d2a129c","1","2025-08-07T12:51:01.274Z","","","","AttribQ","","","","","","","","","","","50","","","","","","","","","","","","","","","","","","","","","","","","","","",""
"8143","","<div style=""width:500px;"">
  <p>How much control did you have over the ball?</p>
  </div>","14","html-slider-response","30","601991","0.0-7.0-2.3","229","1","2025-08-07 12:41:06","36c45c0696341be0efffe67d72a12abb","41.114.242.92","Mozilla/5.0 (Windows NT 10.0; Win64; x64) AppleWebKit/537.36 (KHTML, like Gecko) Chrome/138.0.0.0 Safari/537.36","WebKit","Chrome","138.0.0.0","Windows","10.0","https://app.prolific.com/","en-ZA,en-GB;q=0.9,en-US;q=0.8,en;q=0.7","61601e9a6b8306196d2a129c","6877649eabb845cf142cd221","68949eddc96617cab5e4f304","1","61601e9a6b8306196d2a129c","1","2025-08-07T12:51:09.417Z","","","","ControlQ","","","","","","","","","","","50","","","","","","","","","","","","","","","","","","","","","","","","","","",""
"5135","","<div style=""width:500px;"">
  <p>How would you describe your current emotional state?</p>
  </div>","54","html-slider-response","31","607127","0.0-7.0-3.3","229","1","2025-08-07 12:41:06","36c45c0696341be0efffe67d72a12abb","41.114.242.92","Mozilla/5.0 (Windows NT 10.0; Win64; x64) AppleWebKit/537.36 (KHTML, like Gecko) Chrome/138.0.0.0 Safari/537.36","WebKit","Chrome","138.0.0.0","Windows","10.0","https://app.prolific.com/","en-ZA,en-GB;q=0.9,en-US;q=0.8,en;q=0.7","61601e9a6b8306196d2a129c","6877649eabb845cf142cd221","68949eddc96617cab5e4f304","1","61601e9a6b8306196d2a129c","1","2025-08-07T12:51:14.553Z","","","","StressQ","","","","","","","","","","","50","","","","","","","","","","","","","","","","","","","","","","","","","","",""
"3375","","<div style=""width:500px;"">
  <p>What best describes how you currently feel?</p>
  </div>","48","html-slider-response","32","610504","0.0-7.0-4.3","229","1","2025-08-07 12:41:06","36c45c0696341be0efffe67d72a12abb","41.114.242.92","Mozilla/5.0 (Windows NT 10.0; Win64; x64) AppleWebKit/537.36 (KHTML, like Gecko) Chrome/138.0.0.0 Safari/537.36","WebKit","Chrome","138.0.0.0","Windows","10.0","https://app.prolific.com/","en-ZA,en-GB;q=0.9,en-US;q=0.8,en;q=0.7","61601e9a6b8306196d2a129c","6877649eabb845cf142cd221","68949eddc96617cab5e4f304","1","61601e9a6b8306196d2a129c","1","2025-08-07T12:51:17.930Z","","","","MotivationQ","","","","","","","","","","","50","","","","","","","","","","","","","","","","","","","","","","","","","","",""
"","","","","ctl-task-cpt","33","640003","0.0-7.0-0.4","229","1","2025-08-07 12:41:06","36c45c0696341be0efffe67d72a12abb","41.114.242.92","Mozilla/5.0 (Windows NT 10.0; Win64; x64) AppleWebKit/537.36 (KHTML, like Gecko) Chrome/138.0.0.0 Safari/537.36","WebKit","Chrome","138.0.0.0","Windows","10.0","https://app.prolific.com/","en-ZA,en-GB;q=0.9,en-US;q=0.8,en;q=0.7","61601e9a6b8306196d2a129c","6877649eabb845cf142cd221","68949eddc96617cab5e4f304","1","61601e9a6b8306196d2a129c","1","2025-08-07T12:51:47.430Z","","","","","","","","","","","","","","","","win-only","3","g1:SW,g2:NE","0.6","5","0","614321","1087.2","6091.9","26481.3","1","4","8","6","2","8","8","15","7","0.11363636363636363","959.1","3000","965","[""up"",""right""]","{""num_key_presses"":6,""num_perfect"":4,""num_errors"":0,""num_randdir"":2,""num_randdir_good_moves"":2,""num_whilered"":0,""num_whileblue"":0,""num_blue"":1,""num_good_moves"":6}","[422.57142857142856,422.1808016640799,0.1,422.57142857142856,422.1808016640799,102.3,422.57142857142856,419.1808016640799,202.7,422.57142857142856,419.1808016640799,303.3,371.57142857142856,485.1808016640799,409.3,356.57142857142856,506.1808016640799,514.2,376.07142857142856,470.1808016640799,619.4,761.5714285714286,50.18080166407994,719.8,772.0714285714286,48.68080166407994,827,767.5714285714286,62.18080166407994,928.4,767.5714285714286,63.68080166407994,1030.2,824.5714285714286,86.18080166407994,1136.8,1295.5714285714287,189.68080166407992,1238.8,1298.5714285714287,189.68080166407992,1341.9,1298.5714285714287,189.68080166407992,1444.2,1298.5714285714287,189.68080166407992,1548.3,1298.5714285714287,189.68080166407992,1653.2,1298.5714285714287,189.68080166407992,1753.9,1298.5714285714287,189.68080166407992,1854.4,1298.5714285714287,189.68080166407992,1959.6,1298.5714285714287,189.68080166407992,2059.8,1298.5714285714287,189.68080166407992,2167.6,1298.5714285714287,189.68080166407992,2267.9,1298.5714285714287,189.68080166407992,2376.1,1298.5714285714287,189.68080166407992,2479.6,1298.5714285714287,189.68080166407992,2579.7,1298.5714285714287,189.68080166407992,2685.3,1298.5714285714287,189.68080166407992,2785.7,1298.5714285714287,189.68080166407992,2888.2,1298.5714285714287,189.68080166407992,2988.3,1298.5714285714287,189.68080166407992,3088.7,1298.5714285714287,189.68080166407992,3191.8,1298.5714285714287,189.68080166407992,3293.5,1298.5714285714287,189.68080166407992,3398.4,1298.5714285714287,189.68080166407992,3503.3,1298.5714285714287,189.68080166407992,3603.4,1298.5714285714287,189.68080166407992,3704.3,1298.5714285714287,189.68080166407992,3804.7,1298.5714285714287,189.68080166407992,3908,1298.5714285714287,189.68080166407992,4008.8,1298.5714285714287,189.68080166407992,4109.3,1298.5714285714287,189.68080166407992,4219,1298.5714285714287,189.68080166407992,4319.2,1298.5714285714287,189.68080166407992,4424,1298.5714285714287,189.68080166407992,4524.3,1298.5714285714287,189.68080166407992,4636.8,1298.5714285714287,189.68080166407992,4739.6,1298.5714285714287,189.68080166407992,4843.1,1298.5714285714287,189.68080166407992,4943.2]","[1353.5,1353.5,1000,0,353.5,""oops"",""up"",""up"",""good_move"",4889.5,3535.6,3210.4,1353.9,325.2,""smooth"",""right"",""right"",""good_move"",12073.8,7183.9,2920.3,8748.9,404.6,""oops"",""right"",""up"",""good_move"",14345.2,2271.3,1815.1,12073.9,456.2,""smooth"",""up"",""up"",""good_move"",17425.6,3080.1,2772.2,14345.5,307.9,""smooth"",""right"",""right"",""good_move"",20297.3,2871.3,2546.1,17426,325.2,""smooth"",""right"",""right"",""good_move""]"
"4307","","<div style=""width:500px;"">
  <p>What determined the result of this run?</p>
  </div>","9","html-slider-response","34","644312","0.0-7.0-1.4","229","1","2025-08-07 12:41:06","36c45c0696341be0efffe67d72a12abb","41.114.242.92","Mozilla/5.0 (Windows NT 10.0; Win64; x64) AppleWebKit/537.36 (KHTML, like Gecko) Chrome/138.0.0.0 Safari/537.36","WebKit","Chrome","138.0.0.0","Windows","10.0","https://app.prolific.com/","en-ZA,en-GB;q=0.9,en-US;q=0.8,en;q=0.7","61601e9a6b8306196d2a129c","6877649eabb845cf142cd221","68949eddc96617cab5e4f304","1","61601e9a6b8306196d2a129c","1","2025-08-07T12:51:51.738Z","","","","AttribQ","","","","","","","","","","","50","","","","","","","","","","","","","","","","","","","","","","","","","","",""
"4471","","<div style=""width:500px;"">
  <p>How much control did you have over the ball?</p>
  </div>","92","html-slider-response","35","648783","0.0-7.0-2.4","229","1","2025-08-07 12:41:06","36c45c0696341be0efffe67d72a12abb","41.114.242.92","Mozilla/5.0 (Windows NT 10.0; Win64; x64) AppleWebKit/537.36 (KHTML, like Gecko) Chrome/138.0.0.0 Safari/537.36","WebKit","Chrome","138.0.0.0","Windows","10.0","https://app.prolific.com/","en-ZA,en-GB;q=0.9,en-US;q=0.8,en;q=0.7","61601e9a6b8306196d2a129c","6877649eabb845cf142cd221","68949eddc96617cab5e4f304","1","61601e9a6b8306196d2a129c","1","2025-08-07T12:51:56.210Z","","","","ControlQ","","","","","","","","","","","50","","","","","","","","","","","","","","","","","","","","","","","","","","",""
"2391","","<div style=""width:500px;"">
  <p>How would you describe your current emotional state?</p>
  </div>","50","html-slider-response","36","651176","0.0-7.0-3.4","229","1","2025-08-07 12:41:06","36c45c0696341be0efffe67d72a12abb","41.114.242.92","Mozilla/5.0 (Windows NT 10.0; Win64; x64) AppleWebKit/537.36 (KHTML, like Gecko) Chrome/138.0.0.0 Safari/537.36","WebKit","Chrome","138.0.0.0","Windows","10.0","https://app.prolific.com/","en-ZA,en-GB;q=0.9,en-US;q=0.8,en;q=0.7","61601e9a6b8306196d2a129c","6877649eabb845cf142cd221","68949eddc96617cab5e4f304","1","61601e9a6b8306196d2a129c","1","2025-08-07T12:51:58.602Z","","","","StressQ","","","","","","","","","","","50","","","","","","","","","","","","","","","","","","","","","","","","","","",""
"3095","","<div style=""width:500px;"">
  <p>What best describes how you currently feel?</p>
  </div>","36","html-slider-response","37","654272","0.0-7.0-4.4","229","1","2025-08-07 12:41:06","36c45c0696341be0efffe67d72a12abb","41.114.242.92","Mozilla/5.0 (Windows NT 10.0; Win64; x64) AppleWebKit/537.36 (KHTML, like Gecko) Chrome/138.0.0.0 Safari/537.36","WebKit","Chrome","138.0.0.0","Windows","10.0","https://app.prolific.com/","en-ZA,en-GB;q=0.9,en-US;q=0.8,en;q=0.7","61601e9a6b8306196d2a129c","6877649eabb845cf142cd221","68949eddc96617cab5e4f304","1","61601e9a6b8306196d2a129c","1","2025-08-07T12:52:01.698Z","","","","MotivationQ","","","","","","","","","","","50","","","","","","","","","","","","","","","","","","","","","","","","","","",""
"","","","","ctl-task-cpt","38","696423","0.0-7.0-0.5","229","1","2025-08-07 12:41:06","36c45c0696341be0efffe67d72a12abb","41.114.242.92","Mozilla/5.0 (Windows NT 10.0; Win64; x64) AppleWebKit/537.36 (KHTML, like Gecko) Chrome/138.0.0.0 Safari/537.36","WebKit","Chrome","138.0.0.0","Windows","10.0","https://app.prolific.com/","en-ZA,en-GB;q=0.9,en-US;q=0.8,en;q=0.7","61601e9a6b8306196d2a129c","6877649eabb845cf142cd221","68949eddc96617cab5e4f304","1","61601e9a6b8306196d2a129c","1","2025-08-07T12:52:43.849Z","","","","","","","","","","","","","","","","win-only","0","g1:NW,g2:SE","0.5","6","0","658088.9","873.9","5884.8","39132.2","1","4","4","6","2","4","4","19","15","0.14393939393939395","1132.5","3000","255","[""down"",""right""]","{""num_key_presses"":8,""num_perfect"":5,""num_errors"":0,""num_randdir"":3,""num_randdir_good_moves"":2,""num_whilered"":0,""num_whileblue"":0,""num_blue"":4,""num_good_moves"":7}","[413.57142857142856,404.1808016640799,0.3,413.57142857142856,404.1808016640799,104.1,413.57142857142856,404.1808016640799,211,413.57142857142856,404.1808016640799,312.2,413.57142857142856,404.1808016640799,413.5,398.57142857142856,389.1808016640799,517.7,290.57142857142856,321.6808016640799,618.2,869.5714285714286,923.1808016640799,727.9,841.0714285714286,911.1808016640799,829.5,761.5714285714286,842.1808016640799,929.6,752.5714285714286,807.6808016640799,1033.7,755.5714285714286,792.6808016640799,1138,755.5714285714286,792.6808016640799,1244.7,788.5714285714286,792.6808016640799,1345.2,1202.5714285714287,782.1808016640799,1447.7,1225.0714285714287,764.1808016640799,1561.6,1225.0714285714287,762.6808016640799,1661.9,1225.0714285714287,762.6808016640799,1768,1225.0714285714287,762.6808016640799,1870.8,1225.0714285714287,762.6808016640799,1977.9,1225.0714285714287,762.6808016640799,2082.7,1225.0714285714287,762.6808016640799,2183.5,1225.0714285714287,762.6808016640799,2283.6,1225.0714285714287,762.6808016640799,2387.4,1225.0714285714287,762.6808016640799,2493.5,1225.0714285714287,762.6808016640799,2594.2,1225.0714285714287,762.6808016640799,2694.2,1225.0714285714287,762.6808016640799,2797.1,1225.0714285714287,762.6808016640799,2897.2,1225.0714285714287,762.6808016640799,2998.6,1225.0714285714287,762.6808016640799,3111,1225.0714285714287,762.6808016640799,3211.4,1225.0714285714287,762.6808016640799,3313.5,1225.0714285714287,762.6808016640799,3417.7,1225.0714285714287,762.6808016640799,3518,1225.0714285714287,762.6808016640799,3634.7,1225.0714285714287,762.6808016640799,3743.8,1225.0714285714287,762.6808016640799,3844.4,1225.0714285714287,762.6808016640799,3947.1,1225.0714285714287,762.6808016640799,4048.7,1225.0714285714287,762.6808016640799,4160.8,1225.0714285714287,762.6808016640799,4263.6,1225.0714285714287,762.6808016640799,4367.5,1225.0714285714287,762.6808016640799,4468,1225.0714285714287,762.6808016640799,4576.5,1225.0714285714287,762.6808016640799,4677.5,1225.0714285714287,762.6808016640799,4777.6,1225.0714285714287,762.6808016640799,4882,1225.0714285714287,762.6808016640799,4983]","[1393.2,1393.2,1000,0,393.2,""oops"",""down"",""down"",""good_move"",4464.8,3071.1,2734.2,1393.7,336.9,""smooth"",""right"",""right"",""good_move"",6777,2311.8,1993.3,4465.2,318.5,""smooth"",""right"",""right"",""good_move"",9513,2735.7,2437.1,6777.3,298.6,""smooth"",""right"",""right"",""good_move"",22075.6,12562.4,2408.3,19277.9,389.4,""oops"",""down"",""up"",""bad_move"",27976.9,5900.9,1876.8,25712.5,387.6,""smooth"",""down"",""down"",""good_move"",30432.9,2455.6,2101.1,27977.3,354.5,""oops"",""down"",""down"",""good_move"",33161,2727.8,2405.5,30433.2,322.3,""smooth"",""down"",""down"",""good_move""]"
"6176","","<div style=""width:500px;"">
  <p>What determined the result of this run?</p>
  </div>","3","html-slider-response","39","702600","0.0-7.0-1.5","229","1","2025-08-07 12:41:06","36c45c0696341be0efffe67d72a12abb","41.114.242.92","Mozilla/5.0 (Windows NT 10.0; Win64; x64) AppleWebKit/537.36 (KHTML, like Gecko) Chrome/138.0.0.0 Safari/537.36","WebKit","Chrome","138.0.0.0","Windows","10.0","https://app.prolific.com/","en-ZA,en-GB;q=0.9,en-US;q=0.8,en;q=0.7","61601e9a6b8306196d2a129c","6877649eabb845cf142cd221","68949eddc96617cab5e4f304","1","61601e9a6b8306196d2a129c","1","2025-08-07T12:52:50.026Z","","","","AttribQ","","","","","","","","","","","50","","","","","","","","","","","","","","","","","","","","","","","","","","",""
"4431","","<div style=""width:500px;"">
  <p>How much control did you have over the ball?</p>
  </div>","65","html-slider-response","40","707032","0.0-7.0-2.5","229","1","2025-08-07 12:41:06","36c45c0696341be0efffe67d72a12abb","41.114.242.92","Mozilla/5.0 (Windows NT 10.0; Win64; x64) AppleWebKit/537.36 (KHTML, like Gecko) Chrome/138.0.0.0 Safari/537.36","WebKit","Chrome","138.0.0.0","Windows","10.0","https://app.prolific.com/","en-ZA,en-GB;q=0.9,en-US;q=0.8,en;q=0.7","61601e9a6b8306196d2a129c","6877649eabb845cf142cd221","68949eddc96617cab5e4f304","1","61601e9a6b8306196d2a129c","1","2025-08-07T12:52:54.458Z","","","","ControlQ","","","","","","","","","","","50","","","","","","","","","","","","","","","","","","","","","","","","","","",""
"3191","","<div style=""width:500px;"">
  <p>How would you describe your current emotional state?</p>
  </div>","57","html-slider-response","41","710224","0.0-7.0-3.5","229","1","2025-08-07 12:41:06","36c45c0696341be0efffe67d72a12abb","41.114.242.92","Mozilla/5.0 (Windows NT 10.0; Win64; x64) AppleWebKit/537.36 (KHTML, like Gecko) Chrome/138.0.0.0 Safari/537.36","WebKit","Chrome","138.0.0.0","Windows","10.0","https://app.prolific.com/","en-ZA,en-GB;q=0.9,en-US;q=0.8,en;q=0.7","61601e9a6b8306196d2a129c","6877649eabb845cf142cd221","68949eddc96617cab5e4f304","1","61601e9a6b8306196d2a129c","1","2025-08-07T12:52:57.650Z","","","","StressQ","","","","","","","","","","","50","","","","","","","","","","","","","","","","","","","","","","","","","","",""
"1943","","<div style=""width:500px;"">
  <p>What best describes how you currently feel?</p>
  </div>","36","html-slider-response","42","712168","0.0-7.0-4.5","229","1","2025-08-07 12:41:06","36c45c0696341be0efffe67d72a12abb","41.114.242.92","Mozilla/5.0 (Windows NT 10.0; Win64; x64) AppleWebKit/537.36 (KHTML, like Gecko) Chrome/138.0.0.0 Safari/537.36","WebKit","Chrome","138.0.0.0","Windows","10.0","https://app.prolific.com/","en-ZA,en-GB;q=0.9,en-US;q=0.8,en;q=0.7","61601e9a6b8306196d2a129c","6877649eabb845cf142cd221","68949eddc96617cab5e4f304","1","61601e9a6b8306196d2a129c","1","2025-08-07T12:52:59.594Z","","","","MotivationQ","","","","","","","","","","","50","","","","","","","","","","","","","","","","","","","","","","","","","","",""
"","","","","ctl-task-cpt","43","757342","0.0-7.0-0.6","229","1","2025-08-07 12:41:06","36c45c0696341be0efffe67d72a12abb","41.114.242.92","Mozilla/5.0 (Windows NT 10.0; Win64; x64) AppleWebKit/537.36 (KHTML, like Gecko) Chrome/138.0.0.0 Safari/537.36","WebKit","Chrome","138.0.0.0","Windows","10.0","https://app.prolific.com/","en-ZA,en-GB;q=0.9,en-US;q=0.8,en;q=0.7","61601e9a6b8306196d2a129c","6877649eabb845cf142cd221","68949eddc96617cab5e4f304","1","61601e9a6b8306196d2a129c","1","2025-08-07T12:53:44.768Z","","","","","","","","","","","","","","","","win-only","2","g1:SE,g2:NW","0.4","7","0","715985.5","1284.4","6286.3","42156.2","1","4","8","6","2","-8","-8","11","19","0.08333333333333333","1017.7","3000","-3000","[""left"",""up""]","{""num_key_presses"":7,""num_perfect"":4,""num_errors"":0,""num_randdir"":3,""num_randdir_good_moves"":0,""num_whilered"":0,""num_whileblue"":0,""num_blue"":4,""num_good_moves"":4}","[418.07142857142856,425.1808016640799,0.2,418.07142857142856,425.1808016640799,102.1,418.07142857142856,425.1808016640799,207,418.07142857142856,425.1808016640799,312.8,418.07142857142856,425.1808016640799,416,418.07142857142856,425.1808016640799,517.1,418.07142857142856,425.1808016640799,621.9,124.07142857142857,138.68080166407992,727.7,83.57142857142857,92.18080166407994,828.6,83.57142857142857,92.18080166407994,932.2,83.57142857142857,92.18080166407994,1036.6,83.57142857142857,92.18080166407994,1141.3,83.57142857142857,92.18080166407994,1241.5,83.57142857142857,92.18080166407994,1347.7,317.57142857142856,215.18080166407992,1451.4,989.5714285714286,449.1808016640799,1551.4,989.5714285714286,449.1808016640799,1657,989.5714285714286,449.1808016640799,1762,989.5714285714286,449.1808016640799,1866.1,989.5714285714286,449.1808016640799,1971.5,989.5714285714286,449.1808016640799,2072,989.5714285714286,449.1808016640799,2176,989.5714285714286,449.1808016640799,2277.5,989.5714285714286,449.1808016640799,2378.8,989.5714285714286,449.1808016640799,2482.4,989.5714285714286,449.1808016640799,2586.9,989.5714285714286,449.1808016640799,2692.2,989.5714285714286,449.1808016640799,2792.7,989.5714285714286,449.1808016640799,2897.9,989.5714285714286,449.1808016640799,3001.9,989.5714285714286,449.1808016640799,3102.2,989.5714285714286,449.1808016640799,3206,989.5714285714286,449.1808016640799,3306,989.5714285714286,449.1808016640799,3407.1,989.5714285714286,449.1808016640799,3512.1,989.5714285714286,449.1808016640799,3613.2,989.5714285714286,449.1808016640799,3713.3,989.5714285714286,449.1808016640799,3813.9,989.5714285714286,449.1808016640799,3916.2,989.5714285714286,449.1808016640799,4016.6,989.5714285714286,449.1808016640799,4121.3,989.5714285714286,449.1808016640799,4222.5,989.5714285714286,449.1808016640799,4327.6,989.5714285714286,449.1808016640799,4428.9,989.5714285714286,449.1808016640799,4533.5,989.5714285714286,449.1808016640799,4635.9,989.5714285714286,449.1808016640799,4737.6,989.5714285714286,449.1808016640799,4842,989.5714285714286,449.1808016640799,4942.6]","[5327.3,5327.3,2849,2000.8,477.5,""smooth"",""up"",""up"",""good_move"",11359,6031.3,1876.1,8829,653.9,""smooth"",""left"",""left"",""good_move"",14658,3298.7,2939.8,11359.3,358.9,""oops"",""up"",""right"",""bad_move"",17823.4,3165.1,2831.7,14658.3,333.4,""smooth"",""up"",""up"",""good_move"",20543.4,2719.7,2396,17823.7,323.7,""oops"",""up"",""down"",""bad_move"",22711.2,2167.4,1774,20543.8,393.4,""oops"",""left"",""down"",""bad_move"",33503.5,10792.1,3016.2,30110.9,376.4,""smooth"",""up"",""up"",""good_move""]"
"3386","","<div style=""width:500px;"">
  <p>What determined the result of this run?</p>
  </div>","0","html-slider-response","44","760728","0.0-7.0-1.6","229","1","2025-08-07 12:41:06","36c45c0696341be0efffe67d72a12abb","41.114.242.92","Mozilla/5.0 (Windows NT 10.0; Win64; x64) AppleWebKit/537.36 (KHTML, like Gecko) Chrome/138.0.0.0 Safari/537.36","WebKit","Chrome","138.0.0.0","Windows","10.0","https://app.prolific.com/","en-ZA,en-GB;q=0.9,en-US;q=0.8,en;q=0.7","61601e9a6b8306196d2a129c","6877649eabb845cf142cd221","68949eddc96617cab5e4f304","1","61601e9a6b8306196d2a129c","1","2025-08-07T12:53:48.154Z","","","","AttribQ","","","","","","","","","","","50","","","","","","","","","","","","","","","","","","","","","","","","","","",""
"6287","","<div style=""width:500px;"">
  <p>How much control did you have over the ball?</p>
  </div>","5","html-slider-response","45","767016","0.0-7.0-2.6","229","1","2025-08-07 12:41:06","36c45c0696341be0efffe67d72a12abb","41.114.242.92","Mozilla/5.0 (Windows NT 10.0; Win64; x64) AppleWebKit/537.36 (KHTML, like Gecko) Chrome/138.0.0.0 Safari/537.36","WebKit","Chrome","138.0.0.0","Windows","10.0","https://app.prolific.com/","en-ZA,en-GB;q=0.9,en-US;q=0.8,en;q=0.7","61601e9a6b8306196d2a129c","6877649eabb845cf142cd221","68949eddc96617cab5e4f304","1","61601e9a6b8306196d2a129c","1","2025-08-07T12:53:54.442Z","","","","ControlQ","","","","","","","","","","","50","","","","","","","","","","","","","","","","","","","","","","","","","","",""
"3423","","<div style=""width:500px;"">
  <p>How would you describe your current emotional state?</p>
  </div>","54","html-slider-response","46","770441","0.0-7.0-3.6","229","1","2025-08-07 12:41:06","36c45c0696341be0efffe67d72a12abb","41.114.242.92","Mozilla/5.0 (Windows NT 10.0; Win64; x64) AppleWebKit/537.36 (KHTML, like Gecko) Chrome/138.0.0.0 Safari/537.36","WebKit","Chrome","138.0.0.0","Windows","10.0","https://app.prolific.com/","en-ZA,en-GB;q=0.9,en-US;q=0.8,en;q=0.7","61601e9a6b8306196d2a129c","6877649eabb845cf142cd221","68949eddc96617cab5e4f304","1","61601e9a6b8306196d2a129c","1","2025-08-07T12:53:57.867Z","","","","StressQ","","","","","","","","","","","50","","","","","","","","","","","","","","","","","","","","","","","","","","",""
"2087","","<div style=""width:500px;"">
  <p>What best describes how you currently feel?</p>
  </div>","47","html-slider-response","47","772528","0.0-7.0-4.6","229","1","2025-08-07 12:41:06","36c45c0696341be0efffe67d72a12abb","41.114.242.92","Mozilla/5.0 (Windows NT 10.0; Win64; x64) AppleWebKit/537.36 (KHTML, like Gecko) Chrome/138.0.0.0 Safari/537.36","WebKit","Chrome","138.0.0.0","Windows","10.0","https://app.prolific.com/","en-ZA,en-GB;q=0.9,en-US;q=0.8,en;q=0.7","61601e9a6b8306196d2a129c","6877649eabb845cf142cd221","68949eddc96617cab5e4f304","1","61601e9a6b8306196d2a129c","1","2025-08-07T12:53:59.954Z","","","","MotivationQ","","","","","","","","","","","50","","","","","","","","","","","","","","","","","","","","","","","","","","",""
"","","","","ctl-task-cpt","48","809489","0.0-7.0-0.7","229","1","2025-08-07 12:41:06","36c45c0696341be0efffe67d72a12abb","41.114.242.92","Mozilla/5.0 (Windows NT 10.0; Win64; x64) AppleWebKit/537.36 (KHTML, like Gecko) Chrome/138.0.0.0 Safari/537.36","WebKit","Chrome","138.0.0.0","Windows","10.0","https://app.prolific.com/","en-ZA,en-GB;q=0.9,en-US;q=0.8,en;q=0.7","61601e9a6b8306196d2a129c","6877649eabb845cf142cd221","68949eddc96617cab5e4f304","1","61601e9a6b8306196d2a129c","1","2025-08-07T12:54:36.915Z","","","","","","","","","","","","","","","","win-only","0","g1:NW,g2:SE","0.3","8","0","776345.9","1470.6","6471.5","33940.7","1","4","4","6","2","-4","-4","7","11","0.05303030303030303","5000.8","3000","-2985","[""down"",""right""]","{""num_key_presses"":5,""num_perfect"":2,""num_errors"":0,""num_randdir"":3,""num_randdir_good_moves"":3,""num_whilered"":0,""num_whileblue"":0,""num_blue"":3,""num_good_moves"":5}","[418.07142857142856,411.6808016640799,0.2,418.07142857142856,411.6808016640799,101.5,418.07142857142856,411.6808016640799,201.6,418.07142857142856,411.6808016640799,306,418.07142857142856,411.6808016640799,411.9,418.07142857142856,411.6808016640799,514.2,418.07142857142856,413.1808016640799,616.6,418.07142857142856,417.6808016640799,720.3,464.57142857142856,506.1808016640799,821.4,595.0714285714286,627.6808016640799,926.9,686.5714285714286,680.1808016640799,1035.4,770.5714285714286,746.1808016640799,1135.5,770.5714285714286,746.1808016640799,1236.8,770.5714285714286,746.1808016640799,1341.6,770.5714285714286,746.1808016640799,1448,770.5714285714286,746.1808016640799,1550,770.5714285714286,746.1808016640799,1655.4,770.5714285714286,746.1808016640799,1756.8,770.5714285714286,746.1808016640799,1863.6,770.5714285714286,746.1808016640799,1965.2,770.5714285714286,746.1808016640799,2065.9,770.5714285714286,746.1808016640799,2166.1,770.5714285714286,746.1808016640799,2276.2,770.5714285714286,746.1808016640799,2376.3,770.5714285714286,746.1808016640799,2481.8,770.5714285714286,746.1808016640799,2586.1,770.5714285714286,747.6808016640799,2690.8,770.5714285714286,747.6808016640799,2791,770.5714285714286,747.6808016640799,2895.7,770.5714285714286,747.6808016640799,2998.6,770.5714285714286,747.6808016640799,3100.1,770.5714285714286,747.6808016640799,3200.4,770.5714285714286,747.6808016640799,3300.8,770.5714285714286,747.6808016640799,3401.6,770.5714285714286,747.6808016640799,3505.1,770.5714285714286,747.6808016640799,3605.7,770.5714285714286,747.6808016640799,3706,770.5714285714286,747.6808016640799,3810.5,770.5714285714286,747.6808016640799,3912.9,770.5714285714286,747.6808016640799,4017,770.5714285714286,747.6808016640799,4120.3,770.5714285714286,747.6808016640799,4221.3,770.5714285714286,747.6808016640799,4326.8,770.5714285714286,747.6808016640799,4431.2,770.5714285714286,747.6808016640799,4534.9,770.5714285714286,747.6808016640799,4635.2,770.5714285714286,747.6808016640799,4735.2,770.5714285714286,747.6808016640799,4836.8,770.5714285714286,747.6808016640799,4941.4]","[2313.2,2313.2,1000,0,1313.2,""oops"",""down"",""right"",""good_move"",5513,3199.4,2849.2,2313.6,350.2,""smooth"",""down"",""down"",""good_move"",8886.1,3372.6,3013.7,5513.5,358.9,""oops"",""down"",""right"",""good_move"",11637.9,2751.5,2385.3,8886.4,366.2,""smooth"",""down"",""down"",""good_move"",14608.1,2970,2623.1,11638.1,346.9,""oops"",""down"",""down"",""good_move""]"
"3247","","<div style=""width:500px;"">
  <p>What determined the result of this run?</p>
  </div>","0","html-slider-response","49","812737","0.0-7.0-1.7","229","1","2025-08-07 12:41:06","36c45c0696341be0efffe67d72a12abb","41.114.242.92","Mozilla/5.0 (Windows NT 10.0; Win64; x64) AppleWebKit/537.36 (KHTML, like Gecko) Chrome/138.0.0.0 Safari/537.36","WebKit","Chrome","138.0.0.0","Windows","10.0","https://app.prolific.com/","en-ZA,en-GB;q=0.9,en-US;q=0.8,en;q=0.7","61601e9a6b8306196d2a129c","6877649eabb845cf142cd221","68949eddc96617cab5e4f304","1","61601e9a6b8306196d2a129c","1","2025-08-07T12:54:40.163Z","","","","AttribQ","","","","","","","","","","","50","","","","","","","","","","","","","","","","","","","","","","","","","","",""
"4143","","<div style=""width:500px;"">
  <p>How much control did you have over the ball?</p>
  </div>","3","html-slider-response","50","816881","0.0-7.0-2.7","229","1","2025-08-07 12:41:06","36c45c0696341be0efffe67d72a12abb","41.114.242.92","Mozilla/5.0 (Windows NT 10.0; Win64; x64) AppleWebKit/537.36 (KHTML, like Gecko) Chrome/138.0.0.0 Safari/537.36","WebKit","Chrome","138.0.0.0","Windows","10.0","https://app.prolific.com/","en-ZA,en-GB;q=0.9,en-US;q=0.8,en;q=0.7","61601e9a6b8306196d2a129c","6877649eabb845cf142cd221","68949eddc96617cab5e4f304","1","61601e9a6b8306196d2a129c","1","2025-08-07T12:54:44.307Z","","","","ControlQ","","","","","","","","","","","50","","","","","","","","","","","","","","","","","","","","","","","","","","",""
"4311","","<div style=""width:500px;"">
  <p>How would you describe your current emotional state?</p>
  </div>","50","html-slider-response","51","821193","0.0-7.0-3.7","229","1","2025-08-07 12:41:06","36c45c0696341be0efffe67d72a12abb","41.114.242.92","Mozilla/5.0 (Windows NT 10.0; Win64; x64) AppleWebKit/537.36 (KHTML, like Gecko) Chrome/138.0.0.0 Safari/537.36","WebKit","Chrome","138.0.0.0","Windows","10.0","https://app.prolific.com/","en-ZA,en-GB;q=0.9,en-US;q=0.8,en;q=0.7","61601e9a6b8306196d2a129c","6877649eabb845cf142cd221","68949eddc96617cab5e4f304","1","61601e9a6b8306196d2a129c","1","2025-08-07T12:54:48.619Z","","","","StressQ","","","","","","","","","","","50","","","","","","","","","","","","","","","","","","","","","","","","","","",""
"2390","","<div style=""width:500px;"">
  <p>What best describes how you currently feel?</p>
  </div>","34","html-slider-response","52","823584","0.0-7.0-4.7","229","1","2025-08-07 12:41:06","36c45c0696341be0efffe67d72a12abb","41.114.242.92","Mozilla/5.0 (Windows NT 10.0; Win64; x64) AppleWebKit/537.36 (KHTML, like Gecko) Chrome/138.0.0.0 Safari/537.36","WebKit","Chrome","138.0.0.0","Windows","10.0","https://app.prolific.com/","en-ZA,en-GB;q=0.9,en-US;q=0.8,en;q=0.7","61601e9a6b8306196d2a129c","6877649eabb845cf142cd221","68949eddc96617cab5e4f304","1","61601e9a6b8306196d2a129c","1","2025-08-07T12:54:51.011Z","","","","MotivationQ","","","","","","","","","","","50","","","","","","","","","","","","","","","","","","","","","","","","","","",""
"","","","","ctl-task-cpt","53","854436","0.0-7.0-0.8","229","1","2025-08-07 12:41:06","36c45c0696341be0efffe67d72a12abb","41.114.242.92","Mozilla/5.0 (Windows NT 10.0; Win64; x64) AppleWebKit/537.36 (KHTML, like Gecko) Chrome/138.0.0.0 Safari/537.36","WebKit","Chrome","138.0.0.0","Windows","10.0","https://app.prolific.com/","en-ZA,en-GB;q=0.9,en-US;q=0.8,en;q=0.7","61601e9a6b8306196d2a129c","6877649eabb845cf142cd221","68949eddc96617cab5e4f304","1","61601e9a6b8306196d2a129c","1","2025-08-07T12:55:21.862Z","","","","","","","","","","","","","","","","win-only","3","g1:SW,g2:NE","0.4","9","0","827401.9","990.8","5991.2","27825.4","1","4","8","6","2","8","8","15","7","0.11363636363636363","1091","3000","1325","[""up"",""right""]","{""num_key_presses"":6,""num_perfect"":4,""num_errors"":0,""num_randdir"":2,""num_randdir_good_moves"":2,""num_whilered"":0,""num_whileblue"":0,""num_blue"":2,""num_good_moves"":6}","[410.57142857142856,404.1808016640799,0.2,410.57142857142856,404.1808016640799,110.3,410.57142857142856,404.1808016640799,210.4,410.57142857142856,404.1808016640799,314.8,410.57142857142856,404.1808016640799,419.5,410.57142857142856,404.1808016640799,521.1,524.5714285714286,317.1808016640799,624.4,830.5714285714286,131.18080166407992,725.5,836.5714285714286,123.68080166407994,826.8,836.5714285714286,123.68080166407994,929.8,779.5714285714286,108.68080166407994,1031.4,779.5714285714286,107.18080166407994,1136.5,785.5714285714286,101.18080166407994,1243.4,1375.0714285714287,362.1808016640799,1344.7,1375.0714285714287,371.1808016640799,1450.1,1375.0714285714287,371.1808016640799,1550.2,1375.0714285714287,371.1808016640799,1655.2,1375.0714285714287,371.1808016640799,1755.7,1375.0714285714287,371.1808016640799,1861.4,1375.0714285714287,371.1808016640799,1975.7,1375.0714285714287,371.1808016640799,2076.6,1375.0714285714287,371.1808016640799,2180.8,1375.0714285714287,371.1808016640799,2285.8,1375.0714285714287,371.1808016640799,2390.8,1375.0714285714287,371.1808016640799,2494.8,1375.0714285714287,371.1808016640799,2594.9,1375.0714285714287,371.1808016640799,2710.5,1375.0714285714287,371.1808016640799,2814.5,1375.0714285714287,371.1808016640799,2914.8,1375.0714285714287,371.1808016640799,3016.7,1375.0714285714287,371.1808016640799,3121.6,1375.0714285714287,371.1808016640799,3225.4,1375.0714285714287,371.1808016640799,3329.7,1375.0714285714287,371.1808016640799,3430.7,1375.0714285714287,371.1808016640799,3535.6,1375.0714285714287,371.1808016640799,3640.7,1375.0714285714287,371.1808016640799,3745,1375.0714285714287,371.1808016640799,3847.8,1375.0714285714287,371.1808016640799,3959.4,1375.0714285714287,371.1808016640799,4059.7,1375.0714285714287,371.1808016640799,4160.1,1375.0714285714287,371.1808016640799,4264.6,1375.0714285714287,371.1808016640799,4365.6,1375.0714285714287,371.1808016640799,4476.4,1375.0714285714287,371.1808016640799,4581.5,1375.0714285714287,371.1808016640799,4693.3,1375.0714285714287,371.1808016640799,4795.1,1375.0714285714287,371.1808016640799,4901.1]","[1390.6,1390.6,1000,0,390.6,""smooth"",""up"",""up"",""good_move"",6894.7,5503.8,1808.6,4725.6,360.5,""oops"",""up"",""right"",""good_move"",10454.3,3559.3,3212.2,6895.1,347,""smooth"",""up"",""up"",""good_move"",12958.5,2503.8,2088,10454.7,415.8,""smooth"",""up"",""up"",""good_move"",19110.3,6151.6,2741.1,15960.7,408.5,""oops"",""right"",""right"",""good_move"",21702.4,2591.8,2243.7,19110.6,348.1,""smooth"",""right"",""right"",""good_move""]"
"4412","","<div style=""width:500px;"">
  <p>What determined the result of this run?</p>
  </div>","67","html-slider-response","54","858849","0.0-7.0-1.8","229","1","2025-08-07 12:41:06","36c45c0696341be0efffe67d72a12abb","41.114.242.92","Mozilla/5.0 (Windows NT 10.0; Win64; x64) AppleWebKit/537.36 (KHTML, like Gecko) Chrome/138.0.0.0 Safari/537.36","WebKit","Chrome","138.0.0.0","Windows","10.0","https://app.prolific.com/","en-ZA,en-GB;q=0.9,en-US;q=0.8,en;q=0.7","61601e9a6b8306196d2a129c","6877649eabb845cf142cd221","68949eddc96617cab5e4f304","1","61601e9a6b8306196d2a129c","1","2025-08-07T12:55:26.275Z","","","","AttribQ","","","","","","","","","","","50","","","","","","","","","","","","","","","","","","","","","","","","","","",""
"4807","","<div style=""width:500px;"">
  <p>How much control did you have over the ball?</p>
  </div>","86","html-slider-response","55","863657","0.0-7.0-2.8","229","1","2025-08-07 12:41:06","36c45c0696341be0efffe67d72a12abb","41.114.242.92","Mozilla/5.0 (Windows NT 10.0; Win64; x64) AppleWebKit/537.36 (KHTML, like Gecko) Chrome/138.0.0.0 Safari/537.36","WebKit","Chrome","138.0.0.0","Windows","10.0","https://app.prolific.com/","en-ZA,en-GB;q=0.9,en-US;q=0.8,en;q=0.7","61601e9a6b8306196d2a129c","6877649eabb845cf142cd221","68949eddc96617cab5e4f304","1","61601e9a6b8306196d2a129c","1","2025-08-07T12:55:31.083Z","","","","ControlQ","","","","","","","","","","","50","","","","","","","","","","","","","","","","","","","","","","","","","","",""
"2095","","<div style=""width:500px;"">
  <p>How would you describe your current emotional state?</p>
  </div>","50","html-slider-response","56","865753","0.0-7.0-3.8","229","1","2025-08-07 12:41:06","36c45c0696341be0efffe67d72a12abb","41.114.242.92","Mozilla/5.0 (Windows NT 10.0; Win64; x64) AppleWebKit/537.36 (KHTML, like Gecko) Chrome/138.0.0.0 Safari/537.36","WebKit","Chrome","138.0.0.0","Windows","10.0","https://app.prolific.com/","en-ZA,en-GB;q=0.9,en-US;q=0.8,en;q=0.7","61601e9a6b8306196d2a129c","6877649eabb845cf142cd221","68949eddc96617cab5e4f304","1","61601e9a6b8306196d2a129c","1","2025-08-07T12:55:33.179Z","","","","StressQ","","","","","","","","","","","50","","","","","","","","","","","","","","","","","","","","","","","","","","",""
"1647","","<div style=""width:500px;"">
  <p>What best describes how you currently feel?</p>
  </div>","47","html-slider-response","57","867401","0.0-7.0-4.8","229","1","2025-08-07 12:41:06","36c45c0696341be0efffe67d72a12abb","41.114.242.92","Mozilla/5.0 (Windows NT 10.0; Win64; x64) AppleWebKit/537.36 (KHTML, like Gecko) Chrome/138.0.0.0 Safari/537.36","WebKit","Chrome","138.0.0.0","Windows","10.0","https://app.prolific.com/","en-ZA,en-GB;q=0.9,en-US;q=0.8,en;q=0.7","61601e9a6b8306196d2a129c","6877649eabb845cf142cd221","68949eddc96617cab5e4f304","1","61601e9a6b8306196d2a129c","1","2025-08-07T12:55:34.827Z","","","","MotivationQ","","","","","","","","","","","50","","","","","","","","","","","","","","","","","","","","","","","","","","",""
"","","","","ctl-task-cpt","58","908342","0.0-7.0-0.9","229","1","2025-08-07 12:41:06","36c45c0696341be0efffe67d72a12abb","41.114.242.92","Mozilla/5.0 (Windows NT 10.0; Win64; x64) AppleWebKit/537.36 (KHTML, like Gecko) Chrome/138.0.0.0 Safari/537.36","WebKit","Chrome","138.0.0.0","Windows","10.0","https://app.prolific.com/","en-ZA,en-GB;q=0.9,en-US;q=0.8,en;q=0.7","61601e9a6b8306196d2a129c","6877649eabb845cf142cd221","68949eddc96617cab5e4f304","1","61601e9a6b8306196d2a129c","1","2025-08-07T12:56:15.768Z","","","","","","","","","","","","","","","","win-only","0","g1:NW,g2:SE","0.5","10","0","871218.8","1030","6031.4","37920.4","1","4","4","6","2","-4","-4","11","15","0.08333333333333333","1056.2","3000","-3005","[""down"",""right""]","{""num_key_presses"":8,""num_perfect"":4,""num_errors"":0,""num_randdir"":4,""num_randdir_good_moves"":2,""num_whilered"":0,""num_whileblue"":0,""num_blue"":2,""num_good_moves"":6}","[410.57142857142856,414.6808016640799,0.1,410.57142857142856,414.6808016640799,103.9,410.57142857142856,414.6808016640799,206.4,410.57142857142856,414.6808016640799,306.6,410.57142857142856,414.6808016640799,407,410.57142857142856,414.6808016640799,511.6,410.57142857142856,414.6808016640799,615,665.5714285714286,713.1808016640799,715.5,715.0714285714286,758.1808016640799,822.2,728.5714285714286,770.1808016640799,925.4,758.5714285714286,791.1808016640799,1025.4,758.5714285714286,791.1808016640799,1126,758.5714285714286,791.1808016640799,1230.6,974.5714285714286,572.1808016640799,1332.3,1058.5714285714287,506.1808016640799,1437,1058.5714285714287,504.6808016640799,1540.2,1061.5714285714287,504.6808016640799,1641.9,1061.5714285714287,504.6808016640799,1743.6,1061.5714285714287,504.6808016640799,1846.6,1061.5714285714287,504.6808016640799,1951.6,1061.5714285714287,504.6808016640799,2056.5,1061.5714285714287,504.6808016640799,2162.4,1061.5714285714287,504.6808016640799,2267,1061.5714285714287,504.6808016640799,2370.6,1061.5714285714287,504.6808016640799,2471.3,1061.5714285714287,504.6808016640799,2571.7,1061.5714285714287,504.6808016640799,2672.1,1061.5714285714287,504.6808016640799,2777,1061.5714285714287,504.6808016640799,2882.2,1061.5714285714287,504.6808016640799,2987.2,1061.5714285714287,504.6808016640799,3091.5,1061.5714285714287,504.6808016640799,3191.8,1061.5714285714287,504.6808016640799,3292.5,1061.5714285714287,504.6808016640799,3396.6,1061.5714285714287,504.6808016640799,3498.5,1061.5714285714287,504.6808016640799,3601.5,1061.5714285714287,504.6808016640799,3702.1,1061.5714285714287,504.6808016640799,3805.5,1061.5714285714287,504.6808016640799,3907.3,1061.5714285714287,504.6808016640799,4013.3,1061.5714285714287,504.6808016640799,4116.8,1061.5714285714287,504.6808016640799,4222.2,1061.5714285714287,504.6808016640799,4326.2,1061.5714285714287,504.6808016640799,4430.6,1061.5714285714287,504.6808016640799,4531.1,1061.5714285714287,504.6808016640799,4631.6,1061.5714285714287,504.6808016640799,4736,1061.5714285714287,504.6808016640799,4841.5,1061.5714285714287,504.6808016640799,4946.6]","[4533.5,4533.5,2173.5,2010.3,349.7,""smooth"",""down"",""down"",""good_move"",7790.3,3256.5,2894,4533.8,362.5,""oops"",""down"",""up"",""bad_move"",11045.4,3254.6,2903.1,7790.8,351.5,""oops"",""right"",""down"",""good_move"",14245.5,3199.8,2829.8,11045.7,370,""smooth"",""right"",""right"",""good_move"",17301.9,3056.1,2680.5,14245.8,375.6,""oops"",""right"",""down"",""good_move"",19677.6,2375.3,2030.7,17302.3,344.6,""smooth"",""right"",""right"",""good_move"",22829.8,3151.9,2827,19677.9,324.9,""smooth"",""right"",""right"",""good_move"",29381.7,6551.7,2622.5,26395,364.2,""oops"",""down"",""up"",""bad_move""]"
"2802","","<div style=""width:500px;"">
  <p>What determined the result of this run?</p>
  </div>","0","html-slider-response","59","911145","0.0-7.0-1.9","229","1","2025-08-07 12:41:06","36c45c0696341be0efffe67d72a12abb","41.114.242.92","Mozilla/5.0 (Windows NT 10.0; Win64; x64) AppleWebKit/537.36 (KHTML, like Gecko) Chrome/138.0.0.0 Safari/537.36","WebKit","Chrome","138.0.0.0","Windows","10.0","https://app.prolific.com/","en-ZA,en-GB;q=0.9,en-US;q=0.8,en;q=0.7","61601e9a6b8306196d2a129c","6877649eabb845cf142cd221","68949eddc96617cab5e4f304","1","61601e9a6b8306196d2a129c","1","2025-08-07T12:56:18.571Z","","","","AttribQ","","","","","","","","","","","50","","","","","","","","","","","","","","","","","","","","","","","","","","",""
"3047","","<div style=""width:500px;"">
  <p>How much control did you have over the ball?</p>
  </div>","3","html-slider-response","60","914193","0.0-7.0-2.9","229","1","2025-08-07 12:41:06","36c45c0696341be0efffe67d72a12abb","41.114.242.92","Mozilla/5.0 (Windows NT 10.0; Win64; x64) AppleWebKit/537.36 (KHTML, like Gecko) Chrome/138.0.0.0 Safari/537.36","WebKit","Chrome","138.0.0.0","Windows","10.0","https://app.prolific.com/","en-ZA,en-GB;q=0.9,en-US;q=0.8,en;q=0.7","61601e9a6b8306196d2a129c","6877649eabb845cf142cd221","68949eddc96617cab5e4f304","1","61601e9a6b8306196d2a129c","1","2025-08-07T12:56:21.619Z","","","","ControlQ","","","","","","","","","","","50","","","","","","","","","","","","","","","","","","","","","","","","","","",""
"3375","","<div style=""width:500px;"">
  <p>How would you describe your current emotional state?</p>
  </div>","67","html-slider-response","61","917569","0.0-7.0-3.9","229","1","2025-08-07 12:41:06","36c45c0696341be0efffe67d72a12abb","41.114.242.92","Mozilla/5.0 (Windows NT 10.0; Win64; x64) AppleWebKit/537.36 (KHTML, like Gecko) Chrome/138.0.0.0 Safari/537.36","WebKit","Chrome","138.0.0.0","Windows","10.0","https://app.prolific.com/","en-ZA,en-GB;q=0.9,en-US;q=0.8,en;q=0.7","61601e9a6b8306196d2a129c","6877649eabb845cf142cd221","68949eddc96617cab5e4f304","1","61601e9a6b8306196d2a129c","1","2025-08-07T12:56:24.995Z","","","","StressQ","","","","","","","","","","","50","","","","","","","","","","","","","","","","","","","","","","","","","","",""
"1559","","<div style=""width:500px;"">
  <p>What best describes how you currently feel?</p>
  </div>","36","html-slider-response","62","919129","0.0-7.0-4.9","229","1","2025-08-07 12:41:06","36c45c0696341be0efffe67d72a12abb","41.114.242.92","Mozilla/5.0 (Windows NT 10.0; Win64; x64) AppleWebKit/537.36 (KHTML, like Gecko) Chrome/138.0.0.0 Safari/537.36","WebKit","Chrome","138.0.0.0","Windows","10.0","https://app.prolific.com/","en-ZA,en-GB;q=0.9,en-US;q=0.8,en;q=0.7","61601e9a6b8306196d2a129c","6877649eabb845cf142cd221","68949eddc96617cab5e4f304","1","61601e9a6b8306196d2a129c","1","2025-08-07T12:56:26.555Z","","","","MotivationQ","","","","","","","","","","","50","","","","","","","","","","","","","","","","","","","","","","","","","","",""
"","","","","ctl-task-cpt","63","956461","0.0-7.0-0.10","229","1","2025-08-07 12:41:06","36c45c0696341be0efffe67d72a12abb","41.114.242.92","Mozilla/5.0 (Windows NT 10.0; Win64; x64) AppleWebKit/537.36 (KHTML, like Gecko) Chrome/138.0.0.0 Safari/537.36","WebKit","Chrome","138.0.0.0","Windows","10.0","https://app.prolific.com/","en-ZA,en-GB;q=0.9,en-US;q=0.8,en;q=0.7","61601e9a6b8306196d2a129c","6877649eabb845cf142cd221","68949eddc96617cab5e4f304","1","61601e9a6b8306196d2a129c","1","2025-08-07T12:57:03.888Z","","","","","","","","","","","","","","","","win-only","0","g1:NW,g2:SE","0.6","11","0","922946","654.8","5656.6","34311.6","1","4","8","6","2","-8","-8","3","11","0.022727272727272728","1864.6","3000","-2950","[""down"",""right""]","{""num_key_presses"":7,""num_perfect"":4,""num_errors"":0,""num_randdir"":3,""num_randdir_good_moves"":0,""num_whilered"":0,""num_whileblue"":0,""num_blue"":2,""num_good_moves"":4}","[410.57142857142856,410.1808016640799,0.2,410.57142857142856,410.1808016640799,101.9,410.57142857142856,410.1808016640799,201.9,410.57142857142856,410.1808016640799,302.4,410.57142857142856,410.1808016640799,406.7,410.57142857142856,410.1808016640799,507.7,410.57142857142856,410.1808016640799,608,410.57142857142856,410.1808016640799,712.2,410.57142857142856,410.1808016640799,812.2,410.57142857142856,410.1808016640799,916.8,410.57142857142856,410.1808016640799,1021.7,410.57142857142856,410.1808016640799,1122.4,410.57142857142856,410.1808016640799,1222.7,413.57142857142856,410.1808016640799,1326.5,623.5714285714286,665.1808016640799,1427.6,713.5714285714286,884.1808016640799,1531.5,748.0714285714286,819.6808016640799,1636.6,749.5714285714286,803.1808016640799,1752.2,758.5714285714286,770.1808016640799,1852.6,758.5714285714286,767.1808016640799,1956.6,758.5714285714286,767.1808016640799,2056.6,758.5714285714286,767.1808016640799,2161.6,758.5714285714286,767.1808016640799,2266.1,758.5714285714286,767.1808016640799,2366.8,758.5714285714286,767.1808016640799,2467.6,758.5714285714286,767.1808016640799,2583,758.5714285714286,767.1808016640799,2686.9,758.5714285714286,767.1808016640799,2791.3,758.5714285714286,767.1808016640799,2897,758.5714285714286,767.1808016640799,2997.9,758.5714285714286,767.1808016640799,3102.4,758.5714285714286,767.1808016640799,3205.9,758.5714285714286,767.1808016640799,3306.8,758.5714285714286,767.1808016640799,3407,758.5714285714286,767.1808016640799,3508.1,758.5714285714286,767.1808016640799,3612.5,758.5714285714286,767.1808016640799,3717.2,758.5714285714286,767.1808016640799,3831.9,758.5714285714286,767.1808016640799,3932.7,758.5714285714286,767.1808016640799,4036.1,758.5714285714286,767.1808016640799,4137.3,758.5714285714286,767.1808016640799,4242.8,758.5714285714286,767.1808016640799,4346.5,758.5714285714286,767.1808016640799,4447.3,758.5714285714286,767.1808016640799,4551.7,758.5714285714286,767.1808016640799,4665.4,758.5714285714286,767.1808016640799,4767.3,758.5714285714286,767.1808016640799,4880.7,758.5714285714286,767.1808016640799,4981.4]","[4965.7,4965.7,2490.1,2015.9,459.7,""smooth"",""right"",""right"",""good_move"",12086,7119.9,2278.8,9225.7,581.5,""oops"",""right"",""up"",""bad_move"",14901.5,2815.2,2465.7,12086.3,349.5,""smooth"",""down"",""down"",""good_move"",18013.3,3111.5,2729.2,14901.8,382.3,""smooth"",""down"",""down"",""good_move"",20853.5,2839.9,2462.5,18013.6,377.4,""oops"",""down"",""left"",""bad_move"",23709.7,2855.9,2445.6,20853.8,410.3,""oops"",""down"",""left"",""bad_move"",25798,2088.1,1733.4,23709.9,354.7,""smooth"",""down"",""down"",""good_move""]"
"16011","","<div style=""width:500px;"">
  <p>What determined the result of this run?</p>
  </div>","50","html-slider-response","64","972473","0.0-7.0-1.10","229","1","2025-08-07 12:41:06","36c45c0696341be0efffe67d72a12abb","41.114.242.92","Mozilla/5.0 (Windows NT 10.0; Win64; x64) AppleWebKit/537.36 (KHTML, like Gecko) Chrome/138.0.0.0 Safari/537.36","WebKit","Chrome","138.0.0.0","Windows","10.0","https://app.prolific.com/","en-ZA,en-GB;q=0.9,en-US;q=0.8,en;q=0.7","61601e9a6b8306196d2a129c","6877649eabb845cf142cd221","68949eddc96617cab5e4f304","1","61601e9a6b8306196d2a129c","1","2025-08-07T12:57:19.900Z","","","","AttribQ","","","","","","","","","","","50","","","","","","","","","","","","","","","","","","","","","","","","","","",""
"3527","","<div style=""width:500px;"">
  <p>How much control did you have over the ball?</p>
  </div>","14","html-slider-response","65","976001","0.0-7.0-2.10","229","1","2025-08-07 12:41:06","36c45c0696341be0efffe67d72a12abb","41.114.242.92","Mozilla/5.0 (Windows NT 10.0; Win64; x64) AppleWebKit/537.36 (KHTML, like Gecko) Chrome/138.0.0.0 Safari/537.36","WebKit","Chrome","138.0.0.0","Windows","10.0","https://app.prolific.com/","en-ZA,en-GB;q=0.9,en-US;q=0.8,en;q=0.7","61601e9a6b8306196d2a129c","6877649eabb845cf142cd221","68949eddc96617cab5e4f304","1","61601e9a6b8306196d2a129c","1","2025-08-07T12:57:23.427Z","","","","ControlQ","","","","","","","","","","","50","","","","","","","","","","","","","","","","","","","","","","","","","","",""
"3535","","<div style=""width:500px;"">
  <p>How would you describe your current emotional state?</p>
  </div>","60","html-slider-response","66","979537","0.0-7.0-3.10","229","1","2025-08-07 12:41:06","36c45c0696341be0efffe67d72a12abb","41.114.242.92","Mozilla/5.0 (Windows NT 10.0; Win64; x64) AppleWebKit/537.36 (KHTML, like Gecko) Chrome/138.0.0.0 Safari/537.36","WebKit","Chrome","138.0.0.0","Windows","10.0","https://app.prolific.com/","en-ZA,en-GB;q=0.9,en-US;q=0.8,en;q=0.7","61601e9a6b8306196d2a129c","6877649eabb845cf142cd221","68949eddc96617cab5e4f304","1","61601e9a6b8306196d2a129c","1","2025-08-07T12:57:26.963Z","","","","StressQ","","","","","","","","","","","50","","","","","","","","","","","","","","","","","","","","","","","","","","",""
"2111","","<div style=""width:500px;"">
  <p>What best describes how you currently feel?</p>
  </div>","33","html-slider-response","67","981649","0.0-7.0-4.10","229","1","2025-08-07 12:41:06","36c45c0696341be0efffe67d72a12abb","41.114.242.92","Mozilla/5.0 (Windows NT 10.0; Win64; x64) AppleWebKit/537.36 (KHTML, like Gecko) Chrome/138.0.0.0 Safari/537.36","WebKit","Chrome","138.0.0.0","Windows","10.0","https://app.prolific.com/","en-ZA,en-GB;q=0.9,en-US;q=0.8,en;q=0.7","61601e9a6b8306196d2a129c","6877649eabb845cf142cd221","68949eddc96617cab5e4f304","1","61601e9a6b8306196d2a129c","1","2025-08-07T12:57:29.076Z","","","","MotivationQ","","","","","","","","","","","50","","","","","","","","","","","","","","","","","","","","","","","","","","",""
"","","","","ctl-task-cpt","68","1021352","0.0-7.0-0.11","229","1","2025-08-07 12:41:06","36c45c0696341be0efffe67d72a12abb","41.114.242.92","Mozilla/5.0 (Windows NT 10.0; Win64; x64) AppleWebKit/537.36 (KHTML, like Gecko) Chrome/138.0.0.0 Safari/537.36","WebKit","Chrome","138.0.0.0","Windows","10.0","https://app.prolific.com/","en-ZA,en-GB;q=0.9,en-US;q=0.8,en;q=0.7","61601e9a6b8306196d2a129c","6877649eabb845cf142cd221","68949eddc96617cab5e4f304","1","61601e9a6b8306196d2a129c","1","2025-08-07T12:58:08.779Z","","","","","","","","","","","","","","","","win-only","1","g1:NE,g2:SW","0.7","12","0","985467.2","702.9","5705.5","36680.7","1","4","4","6","2","-4","-4","0","3","0","1743.9","3000","-2960","[""down"",""left""]","{""num_key_presses"":7,""num_perfect"":4,""num_errors"":0,""num_randdir"":3,""num_randdir_good_moves"":1,""num_whilered"":0,""num_whileblue"":0,""num_blue"":3,""num_good_moves"":5}","[418.07142857142856,414.6808016640799,0,418.07142857142856,414.6808016640799,100.4,418.07142857142856,414.6808016640799,207.8,418.07142857142856,414.6808016640799,308.9,418.07142857142856,414.6808016640799,412.7,418.07142857142856,414.6808016640799,513.6,530.5714285714286,297.6808016640799,613.7,734.5714285714286,41.18080166407994,713.8,739.0714285714286,35.18080166407994,815.5,739.0714285714286,35.18080166407994,920.8,734.5714285714286,71.18080166407994,1022.8,422.57142857142856,372.6808016640799,1128.3,88.07142857142857,735.6808016640799,1229,74.57142857142857,759.6808016640799,1334.4,-109.92857142857143,807.6808016640799,1436.7,-9.42857142857143,764.1808016640799,1538.1,41.57142857142857,744.6808016640799,1638.3,49.07142857142857,743.1808016640799,1738.4,52.07142857142857,743.1808016640799,1839.6,1202.5714285714287,863.1808016640799,1943.4,1375.0714285714287,506.1808016640799,2048.7,1375.0714285714287,479.1808016640799,2149.4,1372.0714285714287,479.1808016640799,2254.4,1372.0714285714287,479.1808016640799,2359.4,1372.0714285714287,479.1808016640799,2462.7,1372.0714285714287,479.1808016640799,2562.7,1372.0714285714287,479.1808016640799,2663.8,1372.0714285714287,479.1808016640799,2772,1372.0714285714287,479.1808016640799,2872.6,1372.0714285714287,479.1808016640799,2973.6,1372.0714285714287,479.1808016640799,3077.7,1372.0714285714287,479.1808016640799,3184.2,1372.0714285714287,479.1808016640799,3286.9,1372.0714285714287,479.1808016640799,3387.7,1372.0714285714287,479.1808016640799,3488.7,1372.0714285714287,479.1808016640799,3594.7,1372.0714285714287,479.1808016640799,3699.7,1372.0714285714287,479.1808016640799,3800,1372.0714285714287,479.1808016640799,3902.7,1372.0714285714287,479.1808016640799,4005.1,1372.0714285714287,479.1808016640799,4106.3,1372.0714285714287,479.1808016640799,4207.9,1372.0714285714287,479.1808016640799,4309,1372.0714285714287,479.1808016640799,4412.6,1372.0714285714287,479.1808016640799,4513.2,1372.0714285714287,479.1808016640799,4614.2,1372.0714285714287,479.1808016640799,4715,1372.0714285714287,479.1808016640799,4817.1,1372.0714285714287,479.1808016640799,4919.1]","[1371.6,1371.7,1000,0,371.7,""oops"",""down"",""right"",""bad_move"",3731.9,2359.8,1949.2,1372.1,410.6,""smooth"",""down"",""down"",""good_move"",11075.9,7343.7,3333.2,7368.4,374.3,""oops"",""down"",""down"",""good_move"",14107.6,3031.2,2564.6,11076.4,466.6,""smooth"",""down"",""down"",""good_move"",16171.6,2063.8,1634.3,14107.8,429.6,""smooth"",""left"",""left"",""good_move"",25924,9752,2482.5,22914,527.5,""oops"",""left"",""right"",""bad_move"",27884,1959.6,1435,25924.4,524.6,""smooth"",""left"",""left"",""good_move""]"
"2840","","<div style=""width:500px;"">
  <p>What determined the result of this run?</p>
  </div>","0","html-slider-response","69","1024194","0.0-7.0-1.11","229","1","2025-08-07 12:41:06","36c45c0696341be0efffe67d72a12abb","41.114.242.92","Mozilla/5.0 (Windows NT 10.0; Win64; x64) AppleWebKit/537.36 (KHTML, like Gecko) Chrome/138.0.0.0 Safari/537.36","WebKit","Chrome","138.0.0.0","Windows","10.0","https://app.prolific.com/","en-ZA,en-GB;q=0.9,en-US;q=0.8,en;q=0.7","61601e9a6b8306196d2a129c","6877649eabb845cf142cd221","68949eddc96617cab5e4f304","1","61601e9a6b8306196d2a129c","1","2025-08-07T12:58:11.620Z","","","","AttribQ","","","","","","","","","","","50","","","","","","","","","","","","","","","","","","","","","","","","","","",""
"2767","","<div style=""width:500px;"">
  <p>How much control did you have over the ball?</p>
  </div>","4","html-slider-response","70","1026962","0.0-7.0-2.11","229","1","2025-08-07 12:41:06","36c45c0696341be0efffe67d72a12abb","41.114.242.92","Mozilla/5.0 (Windows NT 10.0; Win64; x64) AppleWebKit/537.36 (KHTML, like Gecko) Chrome/138.0.0.0 Safari/537.36","WebKit","Chrome","138.0.0.0","Windows","10.0","https://app.prolific.com/","en-ZA,en-GB;q=0.9,en-US;q=0.8,en;q=0.7","61601e9a6b8306196d2a129c","6877649eabb845cf142cd221","68949eddc96617cab5e4f304","1","61601e9a6b8306196d2a129c","1","2025-08-07T12:58:14.388Z","","","","ControlQ","","","","","","","","","","","50","","","","","","","","","","","","","","","","","","","","","","","","","","",""
"5103","","<div style=""width:500px;"">
  <p>How would you describe your current emotional state?</p>
  </div>","75","html-slider-response","71","1032066","0.0-7.0-3.11","229","1","2025-08-07 12:41:06","36c45c0696341be0efffe67d72a12abb","41.114.242.92","Mozilla/5.0 (Windows NT 10.0; Win64; x64) AppleWebKit/537.36 (KHTML, like Gecko) Chrome/138.0.0.0 Safari/537.36","WebKit","Chrome","138.0.0.0","Windows","10.0","https://app.prolific.com/","en-ZA,en-GB;q=0.9,en-US;q=0.8,en;q=0.7","61601e9a6b8306196d2a129c","6877649eabb845cf142cd221","68949eddc96617cab5e4f304","1","61601e9a6b8306196d2a129c","1","2025-08-07T12:58:19.492Z","","","","StressQ","","","","","","","","","","","50","","","","","","","","","","","","","","","","","","","","","","","","","","",""
"2511","","<div style=""width:500px;"">
  <p>What best describes how you currently feel?</p>
  </div>","19","html-slider-response","72","1034578","0.0-7.0-4.11","229","1","2025-08-07 12:41:06","36c45c0696341be0efffe67d72a12abb","41.114.242.92","Mozilla/5.0 (Windows NT 10.0; Win64; x64) AppleWebKit/537.36 (KHTML, like Gecko) Chrome/138.0.0.0 Safari/537.36","WebKit","Chrome","138.0.0.0","Windows","10.0","https://app.prolific.com/","en-ZA,en-GB;q=0.9,en-US;q=0.8,en;q=0.7","61601e9a6b8306196d2a129c","6877649eabb845cf142cd221","68949eddc96617cab5e4f304","1","61601e9a6b8306196d2a129c","1","2025-08-07T12:58:22.004Z","","","","MotivationQ","","","","","","","","","","","50","","","","","","","","","","","","","","","","","","","","","","","","","","",""
"","","","","ctl-task-cpt","73","1071973","0.0-7.0-0.12","229","1","2025-08-07 12:41:06","36c45c0696341be0efffe67d72a12abb","41.114.242.92","Mozilla/5.0 (Windows NT 10.0; Win64; x64) AppleWebKit/537.36 (KHTML, like Gecko) Chrome/138.0.0.0 Safari/537.36","WebKit","Chrome","138.0.0.0","Windows","10.0","https://app.prolific.com/","en-ZA,en-GB;q=0.9,en-US;q=0.8,en;q=0.7","61601e9a6b8306196d2a129c","6877649eabb845cf142cd221","68949eddc96617cab5e4f304","1","61601e9a6b8306196d2a129c","1","2025-08-07T12:58:59.399Z","","","","","","","","","","","","","","","","win-only","3","g1:SW,g2:NE","0.8","13","0","1038394.8","750.9","5757.6","34377.1","1","4","4","6","2","4","4","4","0","0.030303030303030304","1080.5","3000","140","[""up"",""right""]","{""num_key_presses"":8,""num_perfect"":7,""num_errors"":0,""num_randdir"":1,""num_randdir_good_moves"":0,""num_whilered"":0,""num_whileblue"":0,""num_blue"":2,""num_good_moves"":7}","[415.07142857142856,413.1808016640799,0.2,415.07142857142856,413.1808016640799,105.7,415.07142857142856,413.1808016640799,213.1,415.07142857142856,413.1808016640799,313.1,415.07142857142856,413.1808016640799,415,526.0714285714286,299.1808016640799,516.1,842.5714285714286,32.18080166407994,616.1,866.5714285714286,-11.319198335920063,716.5,854.5714285714286,8.180801664079937,821.3,761.5714285714286,110.18080166407994,930.3,761.5714285714286,110.18080166407994,1031.6,760.0714285714286,110.18080166407994,1136.2,764.5714285714286,110.18080166407994,1241.3,1375.0714285714287,285.6808016640799,1344.4,1375.0714285714287,317.1808016640799,1445.6,1375.0714285714287,317.1808016640799,1550.7,1375.0714285714287,317.1808016640799,1655.6,1375.0714285714287,317.1808016640799,1763.1,1375.0714285714287,317.1808016640799,1863.4,1375.0714285714287,317.1808016640799,1966.3,1375.0714285714287,317.1808016640799,2070.2,1375.0714285714287,317.1808016640799,2179,1375.0714285714287,317.1808016640799,2280.3,1375.0714285714287,317.1808016640799,2384.7,1375.0714285714287,317.1808016640799,2486,1375.0714285714287,317.1808016640799,2590,1375.0714285714287,317.1808016640799,2692.4,1375.0714285714287,317.1808016640799,2795.5,1375.0714285714287,317.1808016640799,2895.6,1375.0714285714287,317.1808016640799,3001.4,1375.0714285714287,317.1808016640799,3113,1375.0714285714287,317.1808016640799,3214.7,1375.0714285714287,317.1808016640799,3315.7,1375.0714285714287,317.1808016640799,3420.1,1375.0714285714287,317.1808016640799,3520.9,1375.0714285714287,317.1808016640799,3629.7,1375.0714285714287,317.1808016640799,3736.1,1375.0714285714287,317.1808016640799,3840.3,1375.0714285714287,317.1808016640799,3940.5,1375.0714285714287,317.1808016640799,4041.9,1375.0714285714287,317.1808016640799,4146,1375.0714285714287,317.1808016640799,4250.4,1375.0714285714287,317.1808016640799,4351,1375.0714285714287,317.1808016640799,4462.9,1375.0714285714287,317.1808016640799,4565.2,1375.0714285714287,317.1808016640799,4665.4,1375.0714285714287,317.1808016640799,4765.9,1375.0714285714287,317.1808016640799,4890.1,1375.0714285714287,317.1808016640799,4990.6]","[1344.4,1344.4,1000,0,344.4,""smooth"",""up"",""up"",""good_move"",7648.5,6303.7,1909,5339.3,400.2,""smooth"",""up"",""up"",""good_move"",11128.2,3479.4,2941.8,7648.8,537.6,""oops"",""right"",""left"",""bad_move"",14320.1,3191.5,2813.2,11128.6,378.3,""smooth"",""up"",""up"",""good_move"",17328.4,3008,2674.9,14320.4,333.1,""smooth"",""right"",""right"",""good_move"",19440.5,2111.7,1678.1,17328.8,433.6,""smooth"",""right"",""right"",""good_move"",22344.5,2903.8,2577.6,19440.8,326.1,""smooth"",""right"",""right"",""good_move"",28520.6,6176,1922,26253.9,344.7,""smooth"",""right"",""right"",""good_move""]"
"5276","","<div style=""width:500px;"">
  <p>What determined the result of this run?</p>
  </div>","50","html-slider-response","74","1077250","0.0-7.0-1.12","229","1","2025-08-07 12:41:06","36c45c0696341be0efffe67d72a12abb","41.114.242.92","Mozilla/5.0 (Windows NT 10.0; Win64; x64) AppleWebKit/537.36 (KHTML, like Gecko) Chrome/138.0.0.0 Safari/537.36","WebKit","Chrome","138.0.0.0","Windows","10.0","https://app.prolific.com/","en-ZA,en-GB;q=0.9,en-US;q=0.8,en;q=0.7","61601e9a6b8306196d2a129c","6877649eabb845cf142cd221","68949eddc96617cab5e4f304","1","61601e9a6b8306196d2a129c","1","2025-08-07T12:59:04.676Z","","","","AttribQ","","","","","","","","","","","50","","","","","","","","","","","","","","","","","","","","","","","","","","",""
"4871","","<div style=""width:500px;"">
  <p>How much control did you have over the ball?</p>
  </div>","74","html-slider-response","75","1082123","0.0-7.0-2.12","229","1","2025-08-07 12:41:06","36c45c0696341be0efffe67d72a12abb","41.114.242.92","Mozilla/5.0 (Windows NT 10.0; Win64; x64) AppleWebKit/537.36 (KHTML, like Gecko) Chrome/138.0.0.0 Safari/537.36","WebKit","Chrome","138.0.0.0","Windows","10.0","https://app.prolific.com/","en-ZA,en-GB;q=0.9,en-US;q=0.8,en;q=0.7","61601e9a6b8306196d2a129c","6877649eabb845cf142cd221","68949eddc96617cab5e4f304","1","61601e9a6b8306196d2a129c","1","2025-08-07T12:59:09.549Z","","","","ControlQ","","","","","","","","","","","50","","","","","","","","","","","","","","","","","","","","","","","","","","",""
"3686","","<div style=""width:500px;"">
  <p>How would you describe your current emotional state?</p>
  </div>","68","html-slider-response","76","1085810","0.0-7.0-3.12","229","1","2025-08-07 12:41:06","36c45c0696341be0efffe67d72a12abb","41.114.242.92","Mozilla/5.0 (Windows NT 10.0; Win64; x64) AppleWebKit/537.36 (KHTML, like Gecko) Chrome/138.0.0.0 Safari/537.36","WebKit","Chrome","138.0.0.0","Windows","10.0","https://app.prolific.com/","en-ZA,en-GB;q=0.9,en-US;q=0.8,en;q=0.7","61601e9a6b8306196d2a129c","6877649eabb845cf142cd221","68949eddc96617cab5e4f304","1","61601e9a6b8306196d2a129c","1","2025-08-07T12:59:13.237Z","","","","StressQ","","","","","","","","","","","50","","","","","","","","","","","","","","","","","","","","","","","","","","",""
"1470","","<div style=""width:500px;"">
  <p>What best describes how you currently feel?</p>
  </div>","34","html-slider-response","77","1087282","0.0-7.0-4.12","229","1","2025-08-07 12:41:06","36c45c0696341be0efffe67d72a12abb","41.114.242.92","Mozilla/5.0 (Windows NT 10.0; Win64; x64) AppleWebKit/537.36 (KHTML, like Gecko) Chrome/138.0.0.0 Safari/537.36","WebKit","Chrome","138.0.0.0","Windows","10.0","https://app.prolific.com/","en-ZA,en-GB;q=0.9,en-US;q=0.8,en;q=0.7","61601e9a6b8306196d2a129c","6877649eabb845cf142cd221","68949eddc96617cab5e4f304","1","61601e9a6b8306196d2a129c","1","2025-08-07T12:59:14.708Z","","","","MotivationQ","","","","","","","","","","","50","","","","","","","","","","","","","","","","","","","","","","","","","","",""
