"rt","response_timestamp","stimulus","response","trial_type","trial_index","time_elapsed","internal_node_id","run_id","condition","recorded_at","source_code_version","ip","user_agent","device","browser","browser_version","platform","platform_version","referer","accept_language","PROLIFIC_PID","STUDY_ID","SESSION_ID","BATCH","prolific_id","batch","realtime","success","question_order","question_id","eventType","responses","item_order","radio_event_ids","radio_event_times","key_event_times","mouse_event_times","straightlining","zigzagging","honeypot","view_history","slider_start","which_type","canvas_config","goals_layout","control_level","trial_number","tutorial_trial_number","trial_start_time","phase1_start_time","phase2_start_time","phase3_start_time","goal_1_value","goal_1_distance","goal_2_value","goal_2_distance","goal_selected","outcome","outcome_total","participant_final_score","participant_initial_score","participant_final_score_prop","goal_choice_rt","allocated_time","allocated_time_remaining","goal_direction","counts","mouse_movements","key_presses"
"786","1753966906830","<p style='font-size:40px;line-height:1.25'><strong>Welcome to the experiment!</strong></p><p style='font-size:1.1em;line-height:1.25'>Thank you for participanting in our experiment again! You will be asked to play the Dysfunctional Ball Game again. We will briefly recap the rules before we start.</p><p style='font-size:1.1em;line-height:1.25'>Press <strong>Next</strong> to continue.</p>","0","custom-html-button-response","0","787","0.0-0.0","110","1","2025-07-31 13:01:45","36c45c0696341be0efffe67d72a12abb","194.176.233.84","Mozilla/5.0 (Windows NT 10.0; Win64; x64) AppleWebKit/537.36 (KHTML, like Gecko) Chrome/138.0.0.0 Safari/537.36","WebKit","Chrome","138.0.0.0","Windows","10.0","https://app.prolific.com/","hu-HU,hu;q=0.9,en-US;q=0.8,en;q=0.7","61717173748006894b2b54ff","687a19d2168e237449fb8af4","688b5ef37b94071a3664b36c","0","61717173748006894b2b54ff","0","2025-07-31T13:01:46.831Z","","","","","","","","","","","","","","","","","","","","","","","","","","","","","","","","","","","","","","","","","",""
"537","","","","fullscreen","1","2331","0.0-1.0","110","1","2025-07-31 13:01:45","36c45c0696341be0efffe67d72a12abb","194.176.233.84","Mozilla/5.0 (Windows NT 10.0; Win64; x64) AppleWebKit/537.36 (KHTML, like Gecko) Chrome/138.0.0.0 Safari/537.36","WebKit","Chrome","138.0.0.0","Windows","10.0","https://app.prolific.com/","hu-HU,hu;q=0.9,en-US;q=0.8,en;q=0.7","61717173748006894b2b54ff","687a19d2168e237449fb8af4","688b5ef37b94071a3664b36c","0","61717173748006894b2b54ff","0","","true","","","","","","","","","","","","","","","","","","","","","","","","","","","","","","","","","","","","","","","","",""
"569","1753966908944"," <p style='font-size:1.1em;line-height:1.25'>Thank you for closing all other tabs.</p><p style='font-size:1.1em;line-height:1.25'>We will now invite you to fill in some questionnaires, before starting the game.<br>This will take about 5 minutes.<br></p><p style='font-size:1.1em;line-height:1.25'>Press the <strong>Next</strong> button to continue.</p>","0","custom-html-button-response","2","2900","0.0-2.0","110","1","2025-07-31 13:01:45","36c45c0696341be0efffe67d72a12abb","194.176.233.84","Mozilla/5.0 (Windows NT 10.0; Win64; x64) AppleWebKit/537.36 (KHTML, like Gecko) Chrome/138.0.0.0 Safari/537.36","WebKit","Chrome","138.0.0.0","Windows","10.0","https://app.prolific.com/","hu-HU,hu;q=0.9,en-US;q=0.8,en;q=0.7","61717173748006894b2b54ff","687a19d2168e237449fb8af4","688b5ef37b94071a3664b36c","0","61717173748006894b2b54ff","0","2025-07-31T13:01:48.944Z","","","","","","","","","","","","","","","","","","","","","","","","","","","","","","","","","","","","","","","","","",""
"5456","","","{""assigned_sex"":""male""}","survey-multi-choice","3","8358","0.0-3.0-0.0","110","1","2025-07-31 13:01:45","36c45c0696341be0efffe67d72a12abb","194.176.233.84","Mozilla/5.0 (Windows NT 10.0; Win64; x64) AppleWebKit/537.36 (KHTML, like Gecko) Chrome/138.0.0.0 Safari/537.36","WebKit","Chrome","138.0.0.0","Windows","10.0","https://app.prolific.com/","hu-HU,hu;q=0.9,en-US;q=0.8,en;q=0.7","61717173748006894b2b54ff","687a19d2168e237449fb8af4","688b5ef37b94071a3664b36c","0","61717173748006894b2b54ff","0","","","[0]","0","demographics","","","","","","","","","","","","","","","","","","","","","","","","","","","","","","","","","","","","","",""
"2259","1753966916661","<p style='font-size:1.1em;line-height:1.25'>In the following, we will perform a baseline assessment. This means that we will ask you a few questions relating to your experiences over the past month.<br></p><p style='font-size:1.1em;line-height:1.25'>Press the <strong>Next</strong> button to continue.</p>","0","custom-html-button-response","4","10617","0.0-4.0-0.0","110","1","2025-07-31 13:01:45","36c45c0696341be0efffe67d72a12abb","194.176.233.84","Mozilla/5.0 (Windows NT 10.0; Win64; x64) AppleWebKit/537.36 (KHTML, like Gecko) Chrome/138.0.0.0 Safari/537.36","WebKit","Chrome","138.0.0.0","Windows","10.0","https://app.prolific.com/","hu-HU,hu;q=0.9,en-US;q=0.8,en;q=0.7","61717173748006894b2b54ff","687a19d2168e237449fb8af4","688b5ef37b94071a3664b36c","0","61717173748006894b2b54ff","0","2025-07-31T13:01:56.661Z","","","","","","","","","","","","","","","","","","","","","","","","","","","","","","","","","","","","","","","","","",""
"109997.20000000019","","","","survey-template","5","120617","0.0-4.0-1.0","110","1","2025-07-31 13:01:45","36c45c0696341be0efffe67d72a12abb","194.176.233.84","Mozilla/5.0 (Windows NT 10.0; Win64; x64) AppleWebKit/537.36 (KHTML, like Gecko) Chrome/138.0.0.0 Safari/537.36","WebKit","Chrome","138.0.0.0","Windows","10.0","https://app.prolific.com/","hu-HU,hu;q=0.9,en-US;q=0.8,en;q=0.7","61717173748006894b2b54ff","687a19d2168e237449fb8af4","688b5ef37b94071a3664b36c","0","61717173748006894b2b54ff","0","2025-07-31T13:03:46.661Z","","","","pss","{""Q01"":""1"",""Q02"":""0"",""Q03"":""1"",""Q04"":""1"",""Q05"":""2"",""Q06"":""1"",""Q07"":""1"",""Q08"":""1"",""Q09"":""3"",""Q10"":""1""}","[0,1,2,3,4,5,6,7,8,9]","[""Q01"",""Q02"",""Q03"",""Q10"",""Q08"",""Q08"",""Q07"",""Q06"",""Q05"",""Q04"",""Q09""]","[6698.299999999814,11248.100000000559,13978.100000000559,20840.400000000373,73330.20000000019,75057.20000000019,77531.5,83825.10000000056,87653.29999999981,90436.20000000019,109122.10000000056]","[]","[0,5209.200000000186,6698.299999999814,10375.200000000186,11016,11248.100000000559,11814.400000000373,13086.100000000559,13702.799999999814,13978.100000000559,19745.200000000186,20840.400000000373,73330.20000000019,75057.20000000019,77531.5,83372.20000000019,83825.10000000056,87163.20000000019,87653.29999999981,89884.20000000019,90199,90436.20000000019,91414.10000000056,108107.40000000037,108817.10000000056,109122.10000000056,109995.10000000056]","0.4","0.4444444444444444","0","","","","","","","","","","","","","","","","","","","","","","","","","","","","",""
"1256","1753967027918","<p style='font-size:1.1em;line-height:1.25'>Thank you for your answers! Now we will ask you a few more questions relating to your feelings in the last 24 hours.<br></p><p style='font-size:1.1em;line-height:1.25'>Press the <strong>Next</strong> button to continue.</p>","0","custom-html-button-response","6","121874","0.0-4.0-2.0","110","1","2025-07-31 13:01:45","36c45c0696341be0efffe67d72a12abb","194.176.233.84","Mozilla/5.0 (Windows NT 10.0; Win64; x64) AppleWebKit/537.36 (KHTML, like Gecko) Chrome/138.0.0.0 Safari/537.36","WebKit","Chrome","138.0.0.0","Windows","10.0","https://app.prolific.com/","hu-HU,hu;q=0.9,en-US;q=0.8,en;q=0.7","61717173748006894b2b54ff","687a19d2168e237449fb8af4","688b5ef37b94071a3664b36c","0","61717173748006894b2b54ff","0","2025-07-31T13:03:47.918Z","","","","","","","","","","","","","","","","","","","","","","","","","","","","","","","","","","","","","","","","","",""
"59990.10000000056","","","","survey-template","7","181868","0.0-4.0-3.0","110","1","2025-07-31 13:01:45","36c45c0696341be0efffe67d72a12abb","194.176.233.84","Mozilla/5.0 (Windows NT 10.0; Win64; x64) AppleWebKit/537.36 (KHTML, like Gecko) Chrome/138.0.0.0 Safari/537.36","WebKit","Chrome","138.0.0.0","Windows","10.0","https://app.prolific.com/","hu-HU,hu;q=0.9,en-US;q=0.8,en;q=0.7","61717173748006894b2b54ff","687a19d2168e237449fb8af4","688b5ef37b94071a3664b36c","0","61717173748006894b2b54ff","0","2025-07-31T13:04:47.913Z","","","","drsp","{""Q01"":""0"",""Q02"":""0"",""Q03"":""0"",""Q04"":""0"",""Q05"":""0"",""Q06"":""0"",""Q07"":""0"",""Q08"":""0"",""Q09"":""1"",""Q10"":""0"",""Q11"":""0"",""Q12"":""0"",""Q13"":""5"",""Q14"":""0"",""Q15"":""1"",""Q16"":""2"",""Q17"":""1"",""Q18"":""1"",""Q19"":""1"",""Q20"":""0"",""Q21"":""0"",""Q22"":""0""}","[0,1,2,3,4,5,6,7,8,9,10,11,12,13,14,15,16,17,18,19,20,21]","[""Q01"",""Q02"",""Q03"",""Q04"",""Q05"",""Q06"",""Q07"",""Q08"",""Q09"",""Q10"",""Q11"",""Q13"",""Q12"",""Q14"",""Q15"",""Q17"",""Q16"",""Q18"",""Q18"",""Q20"",""Q19"",""Q22"",""Q21""]","[9661.700000000186,10121.900000000373,11048.799999999814,11845.900000000373,13430,15524.900000000373,18024.900000000373,19559.900000000373,21993.799999999814,22838.700000000186,25009.60000000056,27040.700000000186,29319.799999999814,32458.700000000186,36848.700000000186,39584.700000000186,42473.700000000186,43495.90000000037,45125.700000000186,47112.60000000056,48661.60000000056,53984.60000000056,54364.700000000186]","[]","[0,9661.700000000186,10121.900000000373,11048.799999999814,11845.900000000373,13430,14790.600000000559,15524.900000000373,18024.900000000373,19559.900000000373,21993.799999999814,22838.700000000186,25009.60000000056,26747.400000000373,27040.700000000186,29319.799999999814,32458.700000000186,36848.700000000186,37752.700000000186,39584.700000000186,40449.40000000037,41331.40000000037,42157.60000000056,42473.700000000186,43265.700000000186,43495.90000000037,44493.799999999814,44878.60000000056,45125.700000000186,47112.60000000056,48661.60000000056,53025.90000000037,53765.5,53984.60000000056,54364.700000000186,59986.90000000037]","0.6818181818181818","0.38095238095238093","0","","","","","","","","","","","","","","","","","","","","","","","","","","","","",""
"24210.199999999255","","","","survey-template","8","206080","0.0-4.0-4.0","110","1","2025-07-31 13:01:45","36c45c0696341be0efffe67d72a12abb","194.176.233.84","Mozilla/5.0 (Windows NT 10.0; Win64; x64) AppleWebKit/537.36 (KHTML, like Gecko) Chrome/138.0.0.0 Safari/537.36","WebKit","Chrome","138.0.0.0","Windows","10.0","https://app.prolific.com/","hu-HU,hu;q=0.9,en-US;q=0.8,en;q=0.7","61717173748006894b2b54ff","687a19d2168e237449fb8af4","688b5ef37b94071a3664b36c","0","61717173748006894b2b54ff","0","2025-07-31T13:05:12.124Z","","","","stress","{""Q01"":""1"",""Q02"":""2"",""Q03"":""1""}","[0,1,2]","[""Q03"",""Q02"",""Q01""]","[20565.699999999255,21938.799999999814,23296.5]","[]","[19123.699999999255,19529.599999999627,20082.5,20565.699999999255,21673.599999999627,21938.799999999814,23296.5,24004.39999999944,24209.5]","0.6666666666666666","0","0","","","","","","","","","","","","","","","","","","","","","","","","","","","","",""
"20277","","","","instructions","9","226358","0.0-5.0-0.0","110","1","2025-07-31 13:01:45","36c45c0696341be0efffe67d72a12abb","194.176.233.84","Mozilla/5.0 (Windows NT 10.0; Win64; x64) AppleWebKit/537.36 (KHTML, like Gecko) Chrome/138.0.0.0 Safari/537.36","WebKit","Chrome","138.0.0.0","Windows","10.0","https://app.prolific.com/","hu-HU,hu;q=0.9,en-US;q=0.8,en;q=0.7","61717173748006894b2b54ff","687a19d2168e237449fb8af4","688b5ef37b94071a3664b36c","0","61717173748006894b2b54ff","0","","","","","","","","","","","","","","","[{""page_index"":0,""viewing_time"":20277}]","","","","","","","","","","","","","","","","","","","","","","","","","","","",""
"5560","","<p>Before you start with this game please answer the following three questions yourself. </p>
  <p>Through this game, we measure several aspects of your cognitive performance, such as reaction times, multi-tasking capabilities </p>
  <p>and the ability to assess the situation you are in.</p>
  <p></p>
  <p><b>How good do you usually are in such tasks?</b></p>","76","html-slider-response","10","231919","0.0-6.0-0.0","110","1","2025-07-31 13:01:45","36c45c0696341be0efffe67d72a12abb","194.176.233.84","Mozilla/5.0 (Windows NT 10.0; Win64; x64) AppleWebKit/537.36 (KHTML, like Gecko) Chrome/138.0.0.0 Safari/537.36","WebKit","Chrome","138.0.0.0","Windows","10.0","https://app.prolific.com/","hu-HU,hu;q=0.9,en-US;q=0.8,en;q=0.7","61717173748006894b2b54ff","687a19d2168e237449fb8af4","688b5ef37b94071a3664b36c","0","61717173748006894b2b54ff","0","2025-07-31T13:05:37.964Z","","","","PreSkillQ","","","","","","","","","","","50","","","","","","","","","","","","","","","","","","","","","","","","","","",""
"2529","","<div style=""width:500px;"">
  <p>How well do you think you will perform in this task compared to other participants?</p>
  </div>","58","html-slider-response","11","234449","0.0-6.0-1.0","110","1","2025-07-31 13:01:45","36c45c0696341be0efffe67d72a12abb","194.176.233.84","Mozilla/5.0 (Windows NT 10.0; Win64; x64) AppleWebKit/537.36 (KHTML, like Gecko) Chrome/138.0.0.0 Safari/537.36","WebKit","Chrome","138.0.0.0","Windows","10.0","https://app.prolific.com/","hu-HU,hu;q=0.9,en-US;q=0.8,en;q=0.7","61717173748006894b2b54ff","687a19d2168e237449fb8af4","688b5ef37b94071a3664b36c","0","61717173748006894b2b54ff","0","2025-07-31T13:05:40.493Z","","","","PrePerfQ","","","","","","","","","","","50","","","","","","","","","","","","","","","","","","","","","","","","","","",""
"2266","","<div style=""width:500px;"">
  <p>What best describes how you currently feel?</p>
  </div>","83","html-slider-response","12","236716","0.0-6.0-2.0","110","1","2025-07-31 13:01:45","36c45c0696341be0efffe67d72a12abb","194.176.233.84","Mozilla/5.0 (Windows NT 10.0; Win64; x64) AppleWebKit/537.36 (KHTML, like Gecko) Chrome/138.0.0.0 Safari/537.36","WebKit","Chrome","138.0.0.0","Windows","10.0","https://app.prolific.com/","hu-HU,hu;q=0.9,en-US;q=0.8,en;q=0.7","61717173748006894b2b54ff","687a19d2168e237449fb8af4","688b5ef37b94071a3664b36c","0","61717173748006894b2b54ff","0","2025-07-31T13:05:42.760Z","","","","PreMotivationQ","","","","","","","","","","","50","","","","","","","","","","","","","","","","","","","","","","","","","","",""
"","","","","ctl-task-cpt","13","268075","0.0-7.0-0.0","110","1","2025-07-31 13:01:45","36c45c0696341be0efffe67d72a12abb","194.176.233.84","Mozilla/5.0 (Windows NT 10.0; Win64; x64) AppleWebKit/537.36 (KHTML, like Gecko) Chrome/138.0.0.0 Safari/537.36","WebKit","Chrome","138.0.0.0","Windows","10.0","https://app.prolific.com/","hu-HU,hu;q=0.9,en-US;q=0.8,en;q=0.7","61717173748006894b2b54ff","687a19d2168e237449fb8af4","688b5ef37b94071a3664b36c","0","61717173748006894b2b54ff","0","2025-07-31T13:06:14.119Z","","","","","","","","","","","","","","","","win-only","1","g1:NE,g2:SW","1","1","0","238211.1","1264.4","6266.4","28352.5","1","4","4","6","2","4","3","3","0","0.022727272727272728","914.1","3000","1005","[""down"",""left""]","{""num_key_presses"":7,""num_perfect"":6,""num_errors"":1,""num_randdir"":0,""num_randdir_good_moves"":0,""num_whilered"":0,""num_whileblue"":0,""num_blue"":1,""num_good_moves"":6}","[421.57142857142856,412.47767857142856,0.3,421.57142857142856,412.47767857142856,101.4,421.57142857142856,412.47767857142856,201.8,421.57142857142856,412.47767857142856,302.3,421.57142857142856,412.47767857142856,402.9,421.57142857142856,412.47767857142856,506.2,316.57142857142856,592.4776785714286,611.8,118.57142857142857,808.4776785714286,712.1,65.57142857142857,824.4776785714286,816.6,61.57142857142857,794.4776785714286,916.6,61.57142857142857,794.4776785714286,1021.5,77.57142857142857,794.4776785714286,1121.9,459.57142857142856,751.4776785714286,1226.7,687.5714285714286,706.4776785714286,1326.7,853.5714285714286,639.4776785714286,1426.7,942.5714285714286,585.4776785714286,1531.3,1065.5714285714287,547.4776785714286,1631.4,1135.5714285714287,516.4776785714286,1731.7,1135.5714285714287,516.4776785714286,1835.8,1135.5714285714287,516.4776785714286,1936.4,1135.5714285714287,516.4776785714286,2041,1135.5714285714287,516.4776785714286,2141,1135.5714285714287,516.4776785714286,2241.2,1135.5714285714287,516.4776785714286,2346.8,1135.5714285714287,516.4776785714286,2451.6,1135.5714285714287,516.4776785714286,2551.9,1135.5714285714287,516.4776785714286,2651.9,1135.5714285714287,516.4776785714286,2756.8,1135.5714285714287,516.4776785714286,2861.7,1135.5714285714287,516.4776785714286,2966.8,1135.5714285714287,516.4776785714286,3072.1,1135.5714285714287,516.4776785714286,3176,1135.5714285714287,516.4776785714286,3276.1,1135.5714285714287,516.4776785714286,3376.3,1135.5714285714287,516.4776785714286,3482.1,1135.5714285714287,516.4776785714286,3585.9,1135.5714285714287,516.4776785714286,3685.9,1135.5714285714287,516.4776785714286,3791.3,1135.5714285714287,516.4776785714286,3896.8,1135.5714285714287,516.4776785714286,4001.7,1135.5714285714287,516.4776785714286,4101.9,1135.5714285714287,516.4776785714286,4207.7,1135.5714285714287,516.4776785714286,4311.8,1135.5714285714287,516.4776785714286,4415.7,1135.5714285714287,516.4776785714286,4515.9,1135.5714285714287,516.4776785714286,4615.9,1135.5714285714287,516.4776785714286,4716.7,1135.5714285714287,516.4776785714286,4816.8,1135.5714285714287,516.4776785714286,4921.3]","[460.8,460.7,1000,0.1,-539.3,""error"",""-"",""-"",""no_move"",3915,3453.7,2088.1,1463.8,363.1,""smooth"",""down"",""down"",""good_move"",6230.9,2315.6,1949.4,3915.4,366.1,""smooth"",""left"",""left"",""good_move"",9164.9,2933.7,2601.9,6231.2,331.8,""smooth"",""left"",""left"",""good_move"",12053.9,2888.8,2580.9,9165.1,307.9,""smooth"",""down"",""down"",""good_move"",18985.3,6931.2,3240.7,15409.7,334.9,""smooth"",""down"",""down"",""good_move"",21999.1,3013.5,2690,18985.6,323.5,""smooth"",""left"",""left"",""good_move""]"
"6948","","<div style=""width:500px;"">
  <p>What determined the result of this run?</p>
  </div>","99","html-slider-response","14","275024","0.0-7.0-1.0","110","1","2025-07-31 13:01:45","36c45c0696341be0efffe67d72a12abb","194.176.233.84","Mozilla/5.0 (Windows NT 10.0; Win64; x64) AppleWebKit/537.36 (KHTML, like Gecko) Chrome/138.0.0.0 Safari/537.36","WebKit","Chrome","138.0.0.0","Windows","10.0","https://app.prolific.com/","hu-HU,hu;q=0.9,en-US;q=0.8,en;q=0.7","61717173748006894b2b54ff","687a19d2168e237449fb8af4","688b5ef37b94071a3664b36c","0","61717173748006894b2b54ff","0","2025-07-31T13:06:21.068Z","","","","AttribQ","","","","","","","","","","","50","","","","","","","","","","","","","","","","","","","","","","","","","","",""
"3466","","<div style=""width:500px;"">
  <p>How much control did you have over the ball?</p>
  </div>","100","html-slider-response","15","278490","0.0-7.0-2.0","110","1","2025-07-31 13:01:45","36c45c0696341be0efffe67d72a12abb","194.176.233.84","Mozilla/5.0 (Windows NT 10.0; Win64; x64) AppleWebKit/537.36 (KHTML, like Gecko) Chrome/138.0.0.0 Safari/537.36","WebKit","Chrome","138.0.0.0","Windows","10.0","https://app.prolific.com/","hu-HU,hu;q=0.9,en-US;q=0.8,en;q=0.7","61717173748006894b2b54ff","687a19d2168e237449fb8af4","688b5ef37b94071a3664b36c","0","61717173748006894b2b54ff","0","2025-07-31T13:06:24.534Z","","","","ControlQ","","","","","","","","","","","50","","","","","","","","","","","","","","","","","","","","","","","","","","",""
"4016","","<div style=""width:500px;"">
  <p>How would you describe your current emotional state?</p>
  </div>","11","html-slider-response","16","282507","0.0-7.0-3.0","110","1","2025-07-31 13:01:45","36c45c0696341be0efffe67d72a12abb","194.176.233.84","Mozilla/5.0 (Windows NT 10.0; Win64; x64) AppleWebKit/537.36 (KHTML, like Gecko) Chrome/138.0.0.0 Safari/537.36","WebKit","Chrome","138.0.0.0","Windows","10.0","https://app.prolific.com/","hu-HU,hu;q=0.9,en-US;q=0.8,en;q=0.7","61717173748006894b2b54ff","687a19d2168e237449fb8af4","688b5ef37b94071a3664b36c","0","61717173748006894b2b54ff","0","2025-07-31T13:06:28.552Z","","","","StressQ","","","","","","","","","","","50","","","","","","","","","","","","","","","","","","","","","","","","","","",""
"1973","","<div style=""width:500px;"">
  <p>What best describes how you currently feel?</p>
  </div>","82","html-slider-response","17","284481","0.0-7.0-4.0","110","1","2025-07-31 13:01:45","36c45c0696341be0efffe67d72a12abb","194.176.233.84","Mozilla/5.0 (Windows NT 10.0; Win64; x64) AppleWebKit/537.36 (KHTML, like Gecko) Chrome/138.0.0.0 Safari/537.36","WebKit","Chrome","138.0.0.0","Windows","10.0","https://app.prolific.com/","hu-HU,hu;q=0.9,en-US;q=0.8,en;q=0.7","61717173748006894b2b54ff","687a19d2168e237449fb8af4","688b5ef37b94071a3664b36c","0","61717173748006894b2b54ff","0","2025-07-31T13:06:30.525Z","","","","MotivationQ","","","","","","","","","","","50","","","","","","","","","","","","","","","","","","","","","","","","","","",""
"","","","","ctl-task-cpt","18","310714","0.0-7.0-0.1","110","1","2025-07-31 13:01:45","36c45c0696341be0efffe67d72a12abb","194.176.233.84","Mozilla/5.0 (Windows NT 10.0; Win64; x64) AppleWebKit/537.36 (KHTML, like Gecko) Chrome/138.0.0.0 Safari/537.36","WebKit","Chrome","138.0.0.0","Windows","10.0","https://app.prolific.com/","hu-HU,hu;q=0.9,en-US;q=0.8,en;q=0.7","61717173748006894b2b54ff","687a19d2168e237449fb8af4","688b5ef37b94071a3664b36c","0","61717173748006894b2b54ff","0","2025-07-31T13:06:56.758Z","","","","","","","","","","","","","","","","win-only","2","g1:SE,g2:NW","0.9","2","0","285975.5","2313.9","7316.6","23217.2","1","4","8","6","2","8","8","11","3","0.08333333333333333","773.9","3000","1135","[""left"",""up""]","{""num_key_presses"":6,""num_perfect"":6,""num_errors"":0,""num_randdir"":0,""num_randdir_good_moves"":0,""num_whilered"":0,""num_whileblue"":0,""num_blue"":0,""num_good_moves"":6}","[418.57142857142856,409.47767857142856,0.1,417.57142857142856,409.47767857142856,101.7,417.57142857142856,410.47767857142856,202.3,417.57142857142856,410.47767857142856,307.4,403.57142857142856,428.47767857142856,411.5,186.57142857142856,230.47767857142856,517,18.57142857142857,111.47767857142857,617.4,29.57142857142857,80.47767857142857,722.2,35.57142857142857,75.47767857142857,822.8,50.57142857142857,87.47767857142857,927.2,305.57142857142856,174.47767857142856,1032,812.5714285714286,258.47767857142856,1132.5,991.5714285714286,261.47767857142856,1237.1,991.5714285714286,261.47767857142856,1337.4,991.5714285714286,261.47767857142856,1441.5,991.5714285714286,261.47767857142856,1542.5,991.5714285714286,261.47767857142856,1647.5,991.5714285714286,261.47767857142856,1751.7,991.5714285714286,261.47767857142856,1857.1,991.5714285714286,261.47767857142856,1961.4,991.5714285714286,261.47767857142856,2061.5,991.5714285714286,261.47767857142856,2167.1,991.5714285714286,261.47767857142856,2271.4,991.5714285714286,261.47767857142856,2371.4,991.5714285714286,261.47767857142856,2471.4,991.5714285714286,261.47767857142856,2571.6,991.5714285714286,261.47767857142856,2677.5,991.5714285714286,261.47767857142856,2777.8,991.5714285714286,261.47767857142856,2881.8,991.5714285714286,261.47767857142856,2981.8,991.5714285714286,261.47767857142856,3082.1,991.5714285714286,261.47767857142856,3182.8,991.5714285714286,261.47767857142856,3287.3,991.5714285714286,261.47767857142856,3391.6,991.5714285714286,261.47767857142856,3497.5,991.5714285714286,261.47767857142856,3597.5,991.5714285714286,261.47767857142856,3702.6,991.5714285714286,261.47767857142856,3807.3,991.5714285714286,261.47767857142856,3907.3,991.5714285714286,261.47767857142856,4007.8,991.5714285714286,261.47767857142856,4111.5,991.5714285714286,261.47767857142856,4216.7,991.5714285714286,261.47767857142856,4317,991.5714285714286,261.47767857142856,4421.6,991.5714285714286,261.47767857142856,4522.3,991.5714285714286,261.47767857142856,4627.7,991.5714285714286,261.47767857142856,4727.8,991.5714285714286,261.47767857142856,4831.8,991.5714285714286,261.47767857142856,4937.4]","[1339.3,1339.3,1000,0,339.3,""smooth"",""up"",""up"",""good_move"",4823.9,3484.4,3180.7,1339.5,303.7,""smooth"",""left"",""left"",""good_move"",7273.9,2449.6,2114,4824.3,335.6,""smooth"",""up"",""up"",""good_move"",10488.9,3214.3,2905.8,7274.6,308.5,""smooth"",""left"",""left"",""good_move"",13030,2540.9,2232.1,10489.1,308.8,""smooth"",""up"",""up"",""good_move"",15809.4,2779.2,2469.9,13030.2,309.3,""smooth"",""left"",""left"",""good_move""]"
"3263","","<div style=""width:500px;"">
  <p>What determined the result of this run?</p>
  </div>","100","html-slider-response","19","313978","0.0-7.0-1.1","110","1","2025-07-31 13:01:45","36c45c0696341be0efffe67d72a12abb","194.176.233.84","Mozilla/5.0 (Windows NT 10.0; Win64; x64) AppleWebKit/537.36 (KHTML, like Gecko) Chrome/138.0.0.0 Safari/537.36","WebKit","Chrome","138.0.0.0","Windows","10.0","https://app.prolific.com/","hu-HU,hu;q=0.9,en-US;q=0.8,en;q=0.7","61717173748006894b2b54ff","687a19d2168e237449fb8af4","688b5ef37b94071a3664b36c","0","61717173748006894b2b54ff","0","2025-07-31T13:07:00.022Z","","","","AttribQ","","","","","","","","","","","50","","","","","","","","","","","","","","","","","","","","","","","","","","",""
"1544","","<div style=""width:500px;"">
  <p>How much control did you have over the ball?</p>
  </div>","100","html-slider-response","20","315524","0.0-7.0-2.1","110","1","2025-07-31 13:01:45","36c45c0696341be0efffe67d72a12abb","194.176.233.84","Mozilla/5.0 (Windows NT 10.0; Win64; x64) AppleWebKit/537.36 (KHTML, like Gecko) Chrome/138.0.0.0 Safari/537.36","WebKit","Chrome","138.0.0.0","Windows","10.0","https://app.prolific.com/","hu-HU,hu;q=0.9,en-US;q=0.8,en;q=0.7","61717173748006894b2b54ff","687a19d2168e237449fb8af4","688b5ef37b94071a3664b36c","0","61717173748006894b2b54ff","0","2025-07-31T13:07:01.568Z","","","","ControlQ","","","","","","","","","","","50","","","","","","","","","","","","","","","","","","","","","","","","","","",""
"1411","","<div style=""width:500px;"">
  <p>How would you describe your current emotional state?</p>
  </div>","11","html-slider-response","21","316935","0.0-7.0-3.1","110","1","2025-07-31 13:01:45","36c45c0696341be0efffe67d72a12abb","194.176.233.84","Mozilla/5.0 (Windows NT 10.0; Win64; x64) AppleWebKit/537.36 (KHTML, like Gecko) Chrome/138.0.0.0 Safari/537.36","WebKit","Chrome","138.0.0.0","Windows","10.0","https://app.prolific.com/","hu-HU,hu;q=0.9,en-US;q=0.8,en;q=0.7","61717173748006894b2b54ff","687a19d2168e237449fb8af4","688b5ef37b94071a3664b36c","0","61717173748006894b2b54ff","0","2025-07-31T13:07:02.980Z","","","","StressQ","","","","","","","","","","","50","","","","","","","","","","","","","","","","","","","","","","","","","","",""
"2984","","<div style=""width:500px;"">
  <p>What best describes how you currently feel?</p>
  </div>","87","html-slider-response","22","319920","0.0-7.0-4.1","110","1","2025-07-31 13:01:45","36c45c0696341be0efffe67d72a12abb","194.176.233.84","Mozilla/5.0 (Windows NT 10.0; Win64; x64) AppleWebKit/537.36 (KHTML, like Gecko) Chrome/138.0.0.0 Safari/537.36","WebKit","Chrome","138.0.0.0","Windows","10.0","https://app.prolific.com/","hu-HU,hu;q=0.9,en-US;q=0.8,en;q=0.7","61717173748006894b2b54ff","687a19d2168e237449fb8af4","688b5ef37b94071a3664b36c","0","61717173748006894b2b54ff","0","2025-07-31T13:07:05.964Z","","","","MotivationQ","","","","","","","","","","","50","","","","","","","","","","","","","","","","","","","","","","","","","","",""
"","","","","ctl-task-cpt","23","361509","0.0-7.0-0.2","110","1","2025-07-31 13:01:45","36c45c0696341be0efffe67d72a12abb","194.176.233.84","Mozilla/5.0 (Windows NT 10.0; Win64; x64) AppleWebKit/537.36 (KHTML, like Gecko) Chrome/138.0.0.0 Safari/537.36","WebKit","Chrome","138.0.0.0","Windows","10.0","https://app.prolific.com/","hu-HU,hu;q=0.9,en-US;q=0.8,en;q=0.7","61717173748006894b2b54ff","687a19d2168e237449fb8af4","688b5ef37b94071a3664b36c","0","61717173748006894b2b54ff","0","2025-07-31T13:07:47.553Z","","","","","","","","","","","","","","","","win-only","0","g1:NW,g2:SE","0.8","3","0","321415","953.7","5956.8","38570.6","1","4","8","6","2","8","7","18","11","0.13636363636363635","1151.5","3000","195","[""down"",""right""]","{""num_key_presses"":10,""num_perfect"":7,""num_errors"":1,""num_randdir"":2,""num_randdir_good_moves"":0,""num_whilered"":0,""num_whileblue"":1,""num_blue"":3,""num_good_moves"":8}","[420.57142857142856,421.47767857142856,0.1,419.57142857142856,421.47767857142856,102.9,419.57142857142856,421.47767857142856,202.9,419.57142857142856,421.47767857142856,302.9,419.57142857142856,421.47767857142856,403.1,420.57142857142856,423.47767857142856,506.5,677.5714285714286,722.4776785714286,606.7,697.5714285714286,735.4776785714286,707.4,691.5714285714286,723.4776785714286,808,699.5714285714286,723.4776785714286,913,803.5714285714286,738.4776785714286,1017.5,810.5714285714286,741.4776785714286,1117.7,807.5714285714286,743.4776785714286,1221.7,807.5714285714286,743.4776785714286,1326.7,1112.5714285714287,719.4776785714286,1427.2,1245.5714285714287,688.4776785714286,1531.5,1245.5714285714287,688.4776785714286,1632.3,1245.5714285714287,688.4776785714286,1732.3,1245.5714285714287,688.4776785714286,1837.7,1245.5714285714287,688.4776785714286,1937.7,1245.5714285714287,688.4776785714286,2037.7,1245.5714285714287,688.4776785714286,2137.7,1245.5714285714287,688.4776785714286,2237.7,1245.5714285714287,688.4776785714286,2337.7,1245.5714285714287,688.4776785714286,2442.9,1245.5714285714287,688.4776785714286,2546.9,1245.5714285714287,688.4776785714286,2647.1,1245.5714285714287,688.4776785714286,2753,1245.5714285714287,688.4776785714286,2858.3,1245.5714285714287,688.4776785714286,2962,1245.5714285714287,688.4776785714286,3067.4,1245.5714285714287,688.4776785714286,3167.4,1245.5714285714287,688.4776785714286,3268.3,1245.5714285714287,688.4776785714286,3371.7,1245.5714285714287,688.4776785714286,3476.6,1245.5714285714287,688.4776785714286,3576.9,1245.5714285714287,688.4776785714286,3682,1245.5714285714287,688.4776785714286,3782.3,1245.5714285714287,688.4776785714286,3886.9,1245.5714285714287,688.4776785714286,3992.1,1245.5714285714287,688.4776785714286,4092.9,1245.5714285714287,688.4776785714286,4197,1245.5714285714287,688.4776785714286,4297.5,1245.5714285714287,688.4776785714286,4401.5,1245.5714285714287,688.4776785714286,4503,1245.5714285714287,688.4776785714286,4607,1245.5714285714287,688.4776785714286,4712.8,1245.5714285714287,688.4776785714286,4817.2,1245.5714285714287,688.4776785714286,4917.3]","[5180.3,5180.3,2937.5,2009.5,233.3,""smooth"",""right"",""right"",""good_move"",11124.9,5943.4,2899,7954.1,271.8,""oops"",""down"",""up"",""bad_move"",14542.7,3417.3,2659,11125.4,758.3,""oops"",""right"",""up"",""bad_move"",16914.2,2371.2,2083.7,14543,287.5,""smooth"",""down"",""down"",""good_move"",19566.6,2652,2389.1,16914.6,262.9,""smooth"",""down"",""down"",""good_move"",22016.6,2449.7,2143.5,19566.9,306.2,""smooth"",""down"",""down"",""good_move"",24573.8,2557,2290.1,22016.8,266.9,""smooth"",""right"",""right"",""good_move"",26791,2217.1,1983.1,24574,234,""smooth"",""down"",""down"",""good_move"",30005.9,3214.6,3012,26791.3,202.6,""while_blue"",""right"",""right"",""good_move"",32528.2,2522,2291.2,30006.2,230.8,""smooth"",""down"",""down"",""good_move""]"
"3717","","<div style=""width:500px;"">
  <p>What determined the result of this run?</p>
  </div>","73","html-slider-response","24","365227","0.0-7.0-1.2","110","1","2025-07-31 13:01:45","36c45c0696341be0efffe67d72a12abb","194.176.233.84","Mozilla/5.0 (Windows NT 10.0; Win64; x64) AppleWebKit/537.36 (KHTML, like Gecko) Chrome/138.0.0.0 Safari/537.36","WebKit","Chrome","138.0.0.0","Windows","10.0","https://app.prolific.com/","hu-HU,hu;q=0.9,en-US;q=0.8,en;q=0.7","61717173748006894b2b54ff","687a19d2168e237449fb8af4","688b5ef37b94071a3664b36c","0","61717173748006894b2b54ff","0","2025-07-31T13:07:51.271Z","","","","AttribQ","","","","","","","","","","","50","","","","","","","","","","","","","","","","","","","","","","","","","","",""
"3671","","<div style=""width:500px;"">
  <p>How much control did you have over the ball?</p>
  </div>","72","html-slider-response","25","368899","0.0-7.0-2.2","110","1","2025-07-31 13:01:45","36c45c0696341be0efffe67d72a12abb","194.176.233.84","Mozilla/5.0 (Windows NT 10.0; Win64; x64) AppleWebKit/537.36 (KHTML, like Gecko) Chrome/138.0.0.0 Safari/537.36","WebKit","Chrome","138.0.0.0","Windows","10.0","https://app.prolific.com/","hu-HU,hu;q=0.9,en-US;q=0.8,en;q=0.7","61717173748006894b2b54ff","687a19d2168e237449fb8af4","688b5ef37b94071a3664b36c","0","61717173748006894b2b54ff","0","2025-07-31T13:07:54.943Z","","","","ControlQ","","","","","","","","","","","50","","","","","","","","","","","","","","","","","","","","","","","","","","",""
"34082","","<div style=""width:500px;"">
  <p>How would you describe your current emotional state?</p>
  </div>","18","html-slider-response","26","402982","0.0-7.0-3.2","110","1","2025-07-31 13:01:45","36c45c0696341be0efffe67d72a12abb","194.176.233.84","Mozilla/5.0 (Windows NT 10.0; Win64; x64) AppleWebKit/537.36 (KHTML, like Gecko) Chrome/138.0.0.0 Safari/537.36","WebKit","Chrome","138.0.0.0","Windows","10.0","https://app.prolific.com/","hu-HU,hu;q=0.9,en-US;q=0.8,en;q=0.7","61717173748006894b2b54ff","687a19d2168e237449fb8af4","688b5ef37b94071a3664b36c","0","61717173748006894b2b54ff","0","2025-07-31T13:08:29.026Z","","","","StressQ","","","","","","","","","","","50","","","","","","","","","","","","","","","","","","","","","","","","","","",""
"1641","","<div style=""width:500px;"">
  <p>What best describes how you currently feel?</p>
  </div>","73","html-slider-response","27","404624","0.0-7.0-4.2","110","1","2025-07-31 13:01:45","36c45c0696341be0efffe67d72a12abb","194.176.233.84","Mozilla/5.0 (Windows NT 10.0; Win64; x64) AppleWebKit/537.36 (KHTML, like Gecko) Chrome/138.0.0.0 Safari/537.36","WebKit","Chrome","138.0.0.0","Windows","10.0","https://app.prolific.com/","hu-HU,hu;q=0.9,en-US;q=0.8,en;q=0.7","61717173748006894b2b54ff","687a19d2168e237449fb8af4","688b5ef37b94071a3664b36c","0","61717173748006894b2b54ff","0","2025-07-31T13:08:30.668Z","","","","MotivationQ","","","","","","","","","","","50","","","","","","","","","","","","","","","","","","","","","","","","","","",""
"","","","","ctl-task-cpt","28","431616","0.0-7.0-0.3","110","1","2025-07-31 13:01:45","36c45c0696341be0efffe67d72a12abb","194.176.233.84","Mozilla/5.0 (Windows NT 10.0; Win64; x64) AppleWebKit/537.36 (KHTML, like Gecko) Chrome/138.0.0.0 Safari/537.36","WebKit","Chrome","138.0.0.0","Windows","10.0","https://app.prolific.com/","hu-HU,hu;q=0.9,en-US;q=0.8,en;q=0.7","61717173748006894b2b54ff","687a19d2168e237449fb8af4","688b5ef37b94071a3664b36c","0","61717173748006894b2b54ff","0","2025-07-31T13:08:57.660Z","","","","","","","","","","","","","","","","win-only","3","g1:SW,g2:NE","0.7","4","0","406118.2","954.4","5956.4","23975.7","1","4","4","6","2","4","3","21","18","0.1590909090909091","1342.9","3000","1105","[""up"",""right""]","{""num_key_presses"":8,""num_perfect"":6,""num_errors"":1,""num_randdir"":1,""num_randdir_good_moves"":1,""num_whilered"":0,""num_whileblue"":1,""num_blue"":1,""num_good_moves"":7}","[418.57142857142856,425.47767857142856,0.2,418.57142857142856,424.47767857142856,101.7,429.57142857142856,427.47767857142856,206.4,479.57142857142856,427.47767857142856,306.8,615.5714285714286,362.47767857142856,407.5,715.5714285714286,210.47767857142856,511.2,791.5714285714286,91.47767857142857,612.7,792.5714285714286,90.47767857142857,717.3,792.5714285714286,90.47767857142857,821.4,792.5714285714286,91.47767857142857,927.3,792.5714285714286,91.47767857142857,1031,790.5714285714286,94.47767857142857,1131.8,786.5714285714286,99.47767857142857,1236.6,786.5714285714286,99.47767857142857,1336.6,786.5714285714286,99.47767857142857,1437.8,835.5714285714286,164.47767857142856,1541.3,951.5714285714286,251.47767857142856,1646.6,956.5714285714286,254.47767857142856,1751.7,956.5714285714286,254.47767857142856,1856.2,956.5714285714286,254.47767857142856,1961.7,956.5714285714286,254.47767857142856,2062.6,956.5714285714286,254.47767857142856,2166,956.5714285714286,254.47767857142856,2267.5,956.5714285714286,254.47767857142856,2367.5,956.5714285714286,254.47767857142856,2467.5,956.5714285714286,254.47767857142856,2572,956.5714285714286,254.47767857142856,2677.4,956.5714285714286,254.47767857142856,2781.2,956.5714285714286,254.47767857142856,2881.2,956.5714285714286,254.47767857142856,2982.1,956.5714285714286,254.47767857142856,3087.4,956.5714285714286,254.47767857142856,3191,956.5714285714286,254.47767857142856,3296.2,956.5714285714286,254.47767857142856,3396.2,956.5714285714286,254.47767857142856,3501.6,956.5714285714286,254.47767857142856,3601.8,956.5714285714286,254.47767857142856,3705.9,956.5714285714286,254.47767857142856,3806,956.5714285714286,254.47767857142856,3906.1,956.5714285714286,254.47767857142856,4006.3,956.5714285714286,254.47767857142856,4112.4,956.5714285714286,254.47767857142856,4217.5,956.5714285714286,254.47767857142856,4321.4,956.5714285714286,254.47767857142856,4421.7,956.5714285714286,254.47767857142856,4526,956.5714285714286,254.47767857142856,4627.3,956.5714285714286,254.47767857142856,4731.1,956.5714285714286,254.47767857142856,4836.1,956.5714285714286,254.47767857142856,4936.8]","[1273.9,1273.9,1000,0,273.9,""smooth"",""right"",""right"",""good_move"",3620.6,2346.4,2057.2,1274.2,289.2,""smooth"",""up"",""up"",""good_move"",5572.9,1952.1,1679.5,3620.8,272.6,""smooth"",""up"",""up"",""good_move"",7945,2372,2121.2,5573.1,250.8,""while_blue"",""right"",""down"",""bad_move"",10479.1,2533.3,2207.2,7945.8,326.1,""oops"",""right"",""right"",""good_move"",13197.1,2717.7,2448.6,10479.4,269.1,""smooth"",""up"",""up"",""good_move"",15708,2510.7,2236.9,13197.3,273.8,""smooth"",""up"",""up"",""good_move"",17930.8,2222.5,1990.7,15708.3,231.8,""smooth"",""right"",""right"",""good_move""]"
"24926","","<div style=""width:500px;"">
  <p>What determined the result of this run?</p>
  </div>","85","html-slider-response","29","456544","0.0-7.0-1.3","110","1","2025-07-31 13:01:45","36c45c0696341be0efffe67d72a12abb","194.176.233.84","Mozilla/5.0 (Windows NT 10.0; Win64; x64) AppleWebKit/537.36 (KHTML, like Gecko) Chrome/138.0.0.0 Safari/537.36","WebKit","Chrome","138.0.0.0","Windows","10.0","https://app.prolific.com/","hu-HU,hu;q=0.9,en-US;q=0.8,en;q=0.7","61717173748006894b2b54ff","687a19d2168e237449fb8af4","688b5ef37b94071a3664b36c","0","61717173748006894b2b54ff","0","2025-07-31T13:09:22.588Z","","","","AttribQ","","","","","","","","","","","50","","","","","","","","","","","","","","","","","","","","","","","","","","",""
"3006","","<div style=""width:500px;"">
  <p>How much control did you have over the ball?</p>
  </div>","80","html-slider-response","30","459551","0.0-7.0-2.3","110","1","2025-07-31 13:01:45","36c45c0696341be0efffe67d72a12abb","194.176.233.84","Mozilla/5.0 (Windows NT 10.0; Win64; x64) AppleWebKit/537.36 (KHTML, like Gecko) Chrome/138.0.0.0 Safari/537.36","WebKit","Chrome","138.0.0.0","Windows","10.0","https://app.prolific.com/","hu-HU,hu;q=0.9,en-US;q=0.8,en;q=0.7","61717173748006894b2b54ff","687a19d2168e237449fb8af4","688b5ef37b94071a3664b36c","0","61717173748006894b2b54ff","0","2025-07-31T13:09:25.595Z","","","","ControlQ","","","","","","","","","","","50","","","","","","","","","","","","","","","","","","","","","","","","","","",""
"1935","","<div style=""width:500px;"">
  <p>How would you describe your current emotional state?</p>
  </div>","15","html-slider-response","31","461487","0.0-7.0-3.3","110","1","2025-07-31 13:01:45","36c45c0696341be0efffe67d72a12abb","194.176.233.84","Mozilla/5.0 (Windows NT 10.0; Win64; x64) AppleWebKit/537.36 (KHTML, like Gecko) Chrome/138.0.0.0 Safari/537.36","WebKit","Chrome","138.0.0.0","Windows","10.0","https://app.prolific.com/","hu-HU,hu;q=0.9,en-US;q=0.8,en;q=0.7","61717173748006894b2b54ff","687a19d2168e237449fb8af4","688b5ef37b94071a3664b36c","0","61717173748006894b2b54ff","0","2025-07-31T13:09:27.531Z","","","","StressQ","","","","","","","","","","","50","","","","","","","","","","","","","","","","","","","","","","","","","","",""
"2591","","<div style=""width:500px;"">
  <p>What best describes how you currently feel?</p>
  </div>","78","html-slider-response","32","464079","0.0-7.0-4.3","110","1","2025-07-31 13:01:45","36c45c0696341be0efffe67d72a12abb","194.176.233.84","Mozilla/5.0 (Windows NT 10.0; Win64; x64) AppleWebKit/537.36 (KHTML, like Gecko) Chrome/138.0.0.0 Safari/537.36","WebKit","Chrome","138.0.0.0","Windows","10.0","https://app.prolific.com/","hu-HU,hu;q=0.9,en-US;q=0.8,en;q=0.7","61717173748006894b2b54ff","687a19d2168e237449fb8af4","688b5ef37b94071a3664b36c","0","61717173748006894b2b54ff","0","2025-07-31T13:09:30.123Z","","","","MotivationQ","","","","","","","","","","","50","","","","","","","","","","","","","","","","","","","","","","","","","","",""
"","","","","ctl-task-cpt","33","513018","0.0-7.0-0.4","110","1","2025-07-31 13:01:45","36c45c0696341be0efffe67d72a12abb","194.176.233.84","Mozilla/5.0 (Windows NT 10.0; Win64; x64) AppleWebKit/537.36 (KHTML, like Gecko) Chrome/138.0.0.0 Safari/537.36","WebKit","Chrome","138.0.0.0","Windows","10.0","https://app.prolific.com/","hu-HU,hu;q=0.9,en-US;q=0.8,en;q=0.7","61717173748006894b2b54ff","687a19d2168e237449fb8af4","688b5ef37b94071a3664b36c","0","61717173748006894b2b54ff","0","2025-07-31T13:10:19.062Z","","","","","","","","","","","","","","","","win-only","2","g1:SE,g2:NW","0.6","5","0","465573","750.9","5755.3","45921.2","1","4","4","6","2","-4","-7","14","21","0.10606060606060606","940.8","3000","-3015","[""left"",""up""]","{""num_key_presses"":14,""num_perfect"":7,""num_errors"":3,""num_randdir"":4,""num_randdir_good_moves"":1,""num_whilered"":0,""num_whileblue"":3,""num_blue"":3,""num_good_moves"":9}","[416.57142857142856,419.47767857142856,0.3,416.57142857142856,419.47767857142856,104.6,416.57142857142856,419.47767857142856,204.7,416.57142857142856,419.47767857142856,305.4,402.57142857142856,413.47767857142856,410.6,248.57142857142856,243.47767857142856,516.9,152.57142857142856,139.47767857142856,619.6,138.57142857142856,117.47767857142857,720,127.57142857142857,104.47767857142857,820.2,114.57142857142857,87.47767857142857,921.5,114.57142857142857,87.47767857142857,1025.1,159.57142857142856,107.47767857142857,1129.9,627.5714285714286,199.47767857142856,1229.9,1032.5714285714287,279.47767857142856,1334.6,1052.5714285714287,286.47767857142856,1440.3,1052.5714285714287,286.47767857142856,1544.6,1052.5714285714287,286.47767857142856,1644.8,1052.5714285714287,286.47767857142856,1744.8,1052.5714285714287,286.47767857142856,1849.8,1052.5714285714287,286.47767857142856,1949.9,1052.5714285714287,286.47767857142856,2055.3,1052.5714285714287,286.47767857142856,2155.4,1052.5714285714287,286.47767857142856,2260.1,1052.5714285714287,286.47767857142856,2360.2,1052.5714285714287,286.47767857142856,2465,1052.5714285714287,286.47767857142856,2565.8,1052.5714285714287,286.47767857142856,2670.5,1052.5714285714287,286.47767857142856,2774.8,1052.5714285714287,286.47767857142856,2875,1052.5714285714287,286.47767857142856,2975,1052.5714285714287,286.47767857142856,3079.5,1052.5714285714287,286.47767857142856,3179.6,1052.5714285714287,286.47767857142856,3284.6,1052.5714285714287,286.47767857142856,3389.9,1052.5714285714287,286.47767857142856,3494.5,1052.5714285714287,286.47767857142856,3594.9,1052.5714285714287,286.47767857142856,3695,1052.5714285714287,286.47767857142856,3800,1052.5714285714287,286.47767857142856,3900.2,1052.5714285714287,286.47767857142856,4001.2,1052.5714285714287,286.47767857142856,4106.2,1052.5714285714287,286.47767857142856,4211.3,1052.5714285714287,286.47767857142856,4315,1052.5714285714287,286.47767857142856,4419.7,1052.5714285714287,286.47767857142856,4520,1052.5714285714287,286.47767857142856,4625.4,1052.5714285714287,286.47767857142856,4729.5,1052.5714285714287,286.47767857142856,4834.6,1052.5714285714287,286.47767857142856,4939.8]","[1302.7,1302.7,1000,0,302.7,""oops"",""up"",""right"",""bad_move"",4287.6,2984.4,2702.5,1303.2,281.9,""smooth"",""up"",""up"",""good_move"",7127.5,2839.5,2588.8,4288,250.7,""smooth"",""left"",""left"",""good_move"",10394.6,3266.6,3017.5,7128,249.1,""while_blue"",""left"",""right"",""bad_move"",13783.7,3388.9,2973,10394.8,415.9,""oops"",""left"",""right"",""bad_move"",17275.1,3491.4,3243.7,13783.8,247.7,""smooth"",""left"",""left"",""good_move"",20468.7,3193.1,2937.3,17275.6,255.8,""smooth"",""left"",""left"",""good_move"",22600.7,2131.5,1880.3,20469.2,251.2,""smooth"",""left"",""left"",""good_move"",24879.9,2279,2041,22600.9,238,""oops"",""left"",""right"",""bad_move"",27369.1,2488.7,2256.3,24880.5,232.3,""smooth"",""up"",""up"",""good_move"",30101.8,2732.4,2541.7,27369.5,190.7,""while_blue"",""left"",""left"",""good_move"",32354.2,2252.2,2021.1,30102.1,231,""oops"",""left"",""up"",""good_move"",34466.3,2111.9,1795.6,32354.4,316.3,""while_blue"",""left"",""right"",""bad_move"",37435,2968.5,2735.4,34466.5,233.1,""smooth"",""left"",""left"",""good_move""]"
"3323","","<div style=""width:500px;"">
  <p>What determined the result of this run?</p>
  </div>","16","html-slider-response","34","516343","0.0-7.0-1.4","110","1","2025-07-31 13:01:45","36c45c0696341be0efffe67d72a12abb","194.176.233.84","Mozilla/5.0 (Windows NT 10.0; Win64; x64) AppleWebKit/537.36 (KHTML, like Gecko) Chrome/138.0.0.0 Safari/537.36","WebKit","Chrome","138.0.0.0","Windows","10.0","https://app.prolific.com/","hu-HU,hu;q=0.9,en-US;q=0.8,en;q=0.7","61717173748006894b2b54ff","687a19d2168e237449fb8af4","688b5ef37b94071a3664b36c","0","61717173748006894b2b54ff","0","2025-07-31T13:10:22.387Z","","","","AttribQ","","","","","","","","","","","50","","","","","","","","","","","","","","","","","","","","","","","","","","",""
"2119","","<div style=""width:500px;"">
  <p>How much control did you have over the ball?</p>
  </div>","20","html-slider-response","35","518463","0.0-7.0-2.4","110","1","2025-07-31 13:01:45","36c45c0696341be0efffe67d72a12abb","194.176.233.84","Mozilla/5.0 (Windows NT 10.0; Win64; x64) AppleWebKit/537.36 (KHTML, like Gecko) Chrome/138.0.0.0 Safari/537.36","WebKit","Chrome","138.0.0.0","Windows","10.0","https://app.prolific.com/","hu-HU,hu;q=0.9,en-US;q=0.8,en;q=0.7","61717173748006894b2b54ff","687a19d2168e237449fb8af4","688b5ef37b94071a3664b36c","0","61717173748006894b2b54ff","0","2025-07-31T13:10:24.507Z","","","","ControlQ","","","","","","","","","","","50","","","","","","","","","","","","","","","","","","","","","","","","","","",""
"1461","","<div style=""width:500px;"">
  <p>How would you describe your current emotional state?</p>
  </div>","38","html-slider-response","36","519924","0.0-7.0-3.4","110","1","2025-07-31 13:01:45","36c45c0696341be0efffe67d72a12abb","194.176.233.84","Mozilla/5.0 (Windows NT 10.0; Win64; x64) AppleWebKit/537.36 (KHTML, like Gecko) Chrome/138.0.0.0 Safari/537.36","WebKit","Chrome","138.0.0.0","Windows","10.0","https://app.prolific.com/","hu-HU,hu;q=0.9,en-US;q=0.8,en;q=0.7","61717173748006894b2b54ff","687a19d2168e237449fb8af4","688b5ef37b94071a3664b36c","0","61717173748006894b2b54ff","0","2025-07-31T13:10:25.969Z","","","","StressQ","","","","","","","","","","","50","","","","","","","","","","","","","","","","","","","","","","","","","","",""
"1352","","<div style=""width:500px;"">
  <p>What best describes how you currently feel?</p>
  </div>","61","html-slider-response","37","521278","0.0-7.0-4.4","110","1","2025-07-31 13:01:45","36c45c0696341be0efffe67d72a12abb","194.176.233.84","Mozilla/5.0 (Windows NT 10.0; Win64; x64) AppleWebKit/537.36 (KHTML, like Gecko) Chrome/138.0.0.0 Safari/537.36","WebKit","Chrome","138.0.0.0","Windows","10.0","https://app.prolific.com/","hu-HU,hu;q=0.9,en-US;q=0.8,en;q=0.7","61717173748006894b2b54ff","687a19d2168e237449fb8af4","688b5ef37b94071a3664b36c","0","61717173748006894b2b54ff","0","2025-07-31T13:10:27.322Z","","","","MotivationQ","","","","","","","","","","","50","","","","","","","","","","","","","","","","","","","","","","","","","","",""
"","","","","ctl-task-cpt","38","556276","0.0-7.0-0.5","110","1","2025-07-31 13:01:45","36c45c0696341be0efffe67d72a12abb","194.176.233.84","Mozilla/5.0 (Windows NT 10.0; Win64; x64) AppleWebKit/537.36 (KHTML, like Gecko) Chrome/138.0.0.0 Safari/537.36","WebKit","Chrome","138.0.0.0","Windows","10.0","https://app.prolific.com/","hu-HU,hu;q=0.9,en-US;q=0.8,en;q=0.7","61717173748006894b2b54ff","687a19d2168e237449fb8af4","688b5ef37b94071a3664b36c","0","61717173748006894b2b54ff","0","2025-07-31T13:11:02.320Z","","","","","","","","","","","","","","","","win-only","0","g1:NW,g2:SE","0.5","6","0","522772.1","627.5","5630.8","31980.6","1","4","8","6","2","8","7","21","14","0.1590909090909091","478","3000","415","[""down"",""right""]","{""num_key_presses"":10,""num_perfect"":5,""num_errors"":1,""num_randdir"":4,""num_randdir_good_moves"":3,""num_whilered"":0,""num_whileblue"":1,""num_blue"":1,""num_good_moves"":8}","[414.57142857142856,423.47767857142856,0.3,414.57142857142856,423.47767857142856,103.1,414.57142857142856,423.47767857142856,208,414.57142857142856,423.47767857142856,308.3,672.5714285714286,608.4776785714286,413.1,764.5714285714286,699.4776785714286,514,764.5714285714286,701.4776785714286,614.1,828.5714285714286,724.4776785714286,718.1,1093.5714285714287,660.4776785714286,823,1114.5714285714287,651.4776785714286,923.3,1114.5714285714287,651.4776785714286,1028.3,1114.5714285714287,651.4776785714286,1133.8,1114.5714285714287,651.4776785714286,1234.2,1114.5714285714287,651.4776785714286,1338,1114.5714285714287,651.4776785714286,1443.8,1114.5714285714287,651.4776785714286,1548.5,1114.5714285714287,651.4776785714286,1648.8,1114.5714285714287,651.4776785714286,1753.1,1114.5714285714287,651.4776785714286,1853.2,1114.5714285714287,651.4776785714286,1958.7,1114.5714285714287,651.4776785714286,2062.8,1114.5714285714287,651.4776785714286,2163.2,1114.5714285714287,651.4776785714286,2268.4,1114.5714285714287,651.4776785714286,2368.6,1114.5714285714287,651.4776785714286,2473.3,1114.5714285714287,651.4776785714286,2578.1,1114.5714285714287,651.4776785714286,2684.2,1114.5714285714287,651.4776785714286,2787.9,1114.5714285714287,651.4776785714286,2892.9,1114.5714285714287,651.4776785714286,2992.9,1114.5714285714287,651.4776785714286,3092.9,1114.5714285714287,651.4776785714286,3192.9,1114.5714285714287,651.4776785714286,3293.7,1114.5714285714287,651.4776785714286,3398.7,1114.5714285714287,651.4776785714286,3498.7,1114.5714285714287,651.4776785714286,3602.9,1114.5714285714287,651.4776785714286,3703.1,1114.5714285714287,651.4776785714286,3803.3,1114.5714285714287,651.4776785714286,3908.4,1114.5714285714287,651.4776785714286,4013.3,1114.5714285714287,651.4776785714286,4113.3,1114.5714285714287,651.4776785714286,4219.4,1114.5714285714287,651.4776785714286,4323.3,1114.5714285714287,651.4776785714286,4423.4,1114.5714285714287,651.4776785714286,4527.9,1114.5714285714287,651.4776785714286,4627.9,1114.5714285714287,651.4776785714286,4728.2,1114.5714285714287,651.4776785714286,4828.5,1114.5714285714287,651.4776785714286,4934.3]","[1324.8,1324.8,1000,0,324.8,""oops"",""right"",""right"",""good_move"",3777.5,2452.2,2145.7,1325.3,306.5,""smooth"",""down"",""down"",""good_move"",6132.6,2354.8,2032.5,3777.9,322.2,""oops"",""right"",""down"",""good_move"",8752.1,2619.4,2372,6132.7,247.4,""while_blue"",""right"",""left"",""bad_move"",11794.1,3041.4,2764.2,8752.7,277.2,""smooth"",""right"",""right"",""good_move"",14653.4,2858.8,2595,11794.6,263.8,""oops"",""right"",""left"",""bad_move"",17471,2817.3,2573.4,14653.7,243.9,""smooth"",""right"",""right"",""good_move"",20506.5,3035.2,2657.9,17471.3,377.4,""smooth"",""right"",""right"",""good_move"",23860,3353,3088.8,20507,264.2,""oops"",""right"",""right"",""good_move"",26263.4,2403.3,2137.7,23860.1,265.6,""smooth"",""down"",""down"",""good_move""]"
"2575","","<div style=""width:500px;"">
  <p>What determined the result of this run?</p>
  </div>","69","html-slider-response","39","558852","0.0-7.0-1.5","110","1","2025-07-31 13:01:45","36c45c0696341be0efffe67d72a12abb","194.176.233.84","Mozilla/5.0 (Windows NT 10.0; Win64; x64) AppleWebKit/537.36 (KHTML, like Gecko) Chrome/138.0.0.0 Safari/537.36","WebKit","Chrome","138.0.0.0","Windows","10.0","https://app.prolific.com/","hu-HU,hu;q=0.9,en-US;q=0.8,en;q=0.7","61717173748006894b2b54ff","687a19d2168e237449fb8af4","688b5ef37b94071a3664b36c","0","61717173748006894b2b54ff","0","2025-07-31T13:11:04.896Z","","","","AttribQ","","","","","","","","","","","50","","","","","","","","","","","","","","","","","","","","","","","","","","",""
"7298","","<div style=""width:500px;"">
  <p>How much control did you have over the ball?</p>
  </div>","73","html-slider-response","40","566151","0.0-7.0-2.5","110","1","2025-07-31 13:01:45","36c45c0696341be0efffe67d72a12abb","194.176.233.84","Mozilla/5.0 (Windows NT 10.0; Win64; x64) AppleWebKit/537.36 (KHTML, like Gecko) Chrome/138.0.0.0 Safari/537.36","WebKit","Chrome","138.0.0.0","Windows","10.0","https://app.prolific.com/","hu-HU,hu;q=0.9,en-US;q=0.8,en;q=0.7","61717173748006894b2b54ff","687a19d2168e237449fb8af4","688b5ef37b94071a3664b36c","0","61717173748006894b2b54ff","0","2025-07-31T13:11:12.195Z","","","","ControlQ","","","","","","","","","","","50","","","","","","","","","","","","","","","","","","","","","","","","","","",""
"1538","","<div style=""width:500px;"">
  <p>How would you describe your current emotional state?</p>
  </div>","26","html-slider-response","41","567690","0.0-7.0-3.5","110","1","2025-07-31 13:01:45","36c45c0696341be0efffe67d72a12abb","194.176.233.84","Mozilla/5.0 (Windows NT 10.0; Win64; x64) AppleWebKit/537.36 (KHTML, like Gecko) Chrome/138.0.0.0 Safari/537.36","WebKit","Chrome","138.0.0.0","Windows","10.0","https://app.prolific.com/","hu-HU,hu;q=0.9,en-US;q=0.8,en;q=0.7","61717173748006894b2b54ff","687a19d2168e237449fb8af4","688b5ef37b94071a3664b36c","0","61717173748006894b2b54ff","0","2025-07-31T13:11:13.734Z","","","","StressQ","","","","","","","","","","","50","","","","","","","","","","","","","","","","","","","","","","","","","","",""
"1593","","<div style=""width:500px;"">
  <p>What best describes how you currently feel?</p>
  </div>","76","html-slider-response","42","569284","0.0-7.0-4.5","110","1","2025-07-31 13:01:45","36c45c0696341be0efffe67d72a12abb","194.176.233.84","Mozilla/5.0 (Windows NT 10.0; Win64; x64) AppleWebKit/537.36 (KHTML, like Gecko) Chrome/138.0.0.0 Safari/537.36","WebKit","Chrome","138.0.0.0","Windows","10.0","https://app.prolific.com/","hu-HU,hu;q=0.9,en-US;q=0.8,en;q=0.7","61717173748006894b2b54ff","687a19d2168e237449fb8af4","688b5ef37b94071a3664b36c","0","61717173748006894b2b54ff","0","2025-07-31T13:11:15.328Z","","","","MotivationQ","","","","","","","","","","","50","","","","","","","","","","","","","","","","","","","","","","","","","","",""
"","","","","ctl-task-cpt","43","608308","0.0-7.0-0.6","110","1","2025-07-31 13:01:45","36c45c0696341be0efffe67d72a12abb","194.176.233.84","Mozilla/5.0 (Windows NT 10.0; Win64; x64) AppleWebKit/537.36 (KHTML, like Gecko) Chrome/138.0.0.0 Safari/537.36","WebKit","Chrome","138.0.0.0","Windows","10.0","https://app.prolific.com/","hu-HU,hu;q=0.9,en-US;q=0.8,en;q=0.7","61717173748006894b2b54ff","687a19d2168e237449fb8af4","688b5ef37b94071a3664b36c","0","61717173748006894b2b54ff","0","2025-07-31T13:11:54.352Z","","","","","","","","","","","","","","","","win-only","0","g1:NW,g2:SE","0.4","7","0","570778.2","545.2","5546.2","36006.1","1","4","4","6","1","-1","-3","18","21","0.13636363636363635","2083.3","3000","-3010","[""left"",""up""]","{""num_key_presses"":10,""num_perfect"":4,""num_errors"":2,""num_randdir"":4,""num_randdir_good_moves"":1,""num_whilered"":0,""num_whileblue"":2,""num_blue"":2,""num_good_moves"":5}","[407.57142857142856,410.47767857142856,0.1,407.57142857142856,410.47767857142856,100.7,407.57142857142856,410.47767857142856,200.7,443.57142857142856,453.47767857142856,301.1,646.5714285714286,662.4776785714286,401.1,688.5714285714286,700.4776785714286,505.3,688.5714285714286,700.4776785714286,606,688.5714285714286,700.4776785714286,711,688.5714285714286,700.4776785714286,816.1,688.5714285714286,700.4776785714286,920.3,688.5714285714286,700.4776785714286,1020.5,688.5714285714286,700.4776785714286,1125.7,688.5714285714286,698.4776785714286,1231.4,585.5714285714286,577.4776785714286,1331.5,443.57142857142856,446.47767857142856,1431.5,374.57142857142856,409.47767857142856,1535.1,374.57142857142856,409.47767857142856,1640,335.57142857142856,375.47767857142856,1741,153.57142857142856,195.47767857142856,1846.7,107.57142857142857,146.47767857142856,1946.9,89.57142857142857,106.47767857142857,2050.8,86.57142857142857,95.47767857142857,2151.1,238.57142857142856,113.47767857142857,2251.5,740.5714285714286,154.47767857142856,2356,1037.5714285714287,176.47767857142856,2461,1046.5714285714287,176.47767857142856,2561.1,1046.5714285714287,176.47767857142856,2661.4,1046.5714285714287,176.47767857142856,2766.1,1046.5714285714287,176.47767857142856,2870.4,1046.5714285714287,176.47767857142856,2975.4,1046.5714285714287,176.47767857142856,3080.8,1046.5714285714287,176.47767857142856,3181.2,1046.5714285714287,176.47767857142856,3285.1,1046.5714285714287,176.47767857142856,3385.1,1046.5714285714287,176.47767857142856,3485.6,1046.5714285714287,176.47767857142856,3590.6,1046.5714285714287,176.47767857142856,3690.9,1046.5714285714287,176.47767857142856,3790.9,1046.5714285714287,176.47767857142856,3890.9,1046.5714285714287,176.47767857142856,3996.6,1046.5714285714287,176.47767857142856,4100.8,1046.5714285714287,176.47767857142856,4200.9,1046.5714285714287,176.47767857142856,4300.9,1046.5714285714287,176.47767857142856,4400.9,1046.5714285714287,176.47767857142856,4501.2,1046.5714285714287,176.47767857142856,4605.3,1046.5714285714287,176.47767857142856,4705.5,1046.5714285714287,176.47767857142856,4811.3,1046.5714285714287,176.47767857142856,4916.1]","[1298.2,1298.2,1000,0,298.2,""smooth"",""up"",""up"",""good_move"",3990.8,2692.1,2407,1298.7,285.1,""smooth"",""left"",""left"",""good_move"",7194.7,3203.5,2950.7,3991.2,252.8,""oops"",""up"",""down"",""bad_move"",10161.8,2967,2696.3,7194.9,270.7,""oops"",""up"",""left"",""good_move"",12809.3,2647.2,2307.2,10162.1,340,""while_blue"",""up"",""down"",""bad_move"",15842.4,3032.7,2572.5,12809.7,460.2,""oops"",""up"",""down"",""bad_move"",19160,3317.4,3046.5,15842.6,270.9,""oops"",""up"",""down"",""bad_move"",22072.6,2912.3,2383.3,19160.3,529,""smooth"",""up"",""up"",""good_move"",24269.2,2196.3,1934,22073,262.3,""smooth"",""up"",""up"",""good_move"",27376.3,3106.8,2820.5,24269.5,286.3,""while_blue"",""up"",""down"",""bad_move""]"
"2356","","<div style=""width:500px;"">
  <p>What determined the result of this run?</p>
  </div>","10","html-slider-response","44","610665","0.0-7.0-1.6","110","1","2025-07-31 13:01:45","36c45c0696341be0efffe67d72a12abb","194.176.233.84","Mozilla/5.0 (Windows NT 10.0; Win64; x64) AppleWebKit/537.36 (KHTML, like Gecko) Chrome/138.0.0.0 Safari/537.36","WebKit","Chrome","138.0.0.0","Windows","10.0","https://app.prolific.com/","hu-HU,hu;q=0.9,en-US;q=0.8,en;q=0.7","61717173748006894b2b54ff","687a19d2168e237449fb8af4","688b5ef37b94071a3664b36c","0","61717173748006894b2b54ff","0","2025-07-31T13:11:56.709Z","","","","AttribQ","","","","","","","","","","","50","","","","","","","","","","","","","","","","","","","","","","","","","","",""
"1565","","<div style=""width:500px;"">
  <p>How much control did you have over the ball?</p>
  </div>","21","html-slider-response","45","612231","0.0-7.0-2.6","110","1","2025-07-31 13:01:45","36c45c0696341be0efffe67d72a12abb","194.176.233.84","Mozilla/5.0 (Windows NT 10.0; Win64; x64) AppleWebKit/537.36 (KHTML, like Gecko) Chrome/138.0.0.0 Safari/537.36","WebKit","Chrome","138.0.0.0","Windows","10.0","https://app.prolific.com/","hu-HU,hu;q=0.9,en-US;q=0.8,en;q=0.7","61717173748006894b2b54ff","687a19d2168e237449fb8af4","688b5ef37b94071a3664b36c","0","61717173748006894b2b54ff","0","2025-07-31T13:11:58.275Z","","","","ControlQ","","","","","","","","","","","50","","","","","","","","","","","","","","","","","","","","","","","","","","",""
"1479","","<div style=""width:500px;"">
  <p>How would you describe your current emotional state?</p>
  </div>","35","html-slider-response","46","613710","0.0-7.0-3.6","110","1","2025-07-31 13:01:45","36c45c0696341be0efffe67d72a12abb","194.176.233.84","Mozilla/5.0 (Windows NT 10.0; Win64; x64) AppleWebKit/537.36 (KHTML, like Gecko) Chrome/138.0.0.0 Safari/537.36","WebKit","Chrome","138.0.0.0","Windows","10.0","https://app.prolific.com/","hu-HU,hu;q=0.9,en-US;q=0.8,en;q=0.7","61717173748006894b2b54ff","687a19d2168e237449fb8af4","688b5ef37b94071a3664b36c","0","61717173748006894b2b54ff","0","2025-07-31T13:11:59.755Z","","","","StressQ","","","","","","","","","","","50","","","","","","","","","","","","","","","","","","","","","","","","","","",""
"1495","","<div style=""width:500px;"">
  <p>What best describes how you currently feel?</p>
  </div>","68","html-slider-response","47","615207","0.0-7.0-4.6","110","1","2025-07-31 13:01:45","36c45c0696341be0efffe67d72a12abb","194.176.233.84","Mozilla/5.0 (Windows NT 10.0; Win64; x64) AppleWebKit/537.36 (KHTML, like Gecko) Chrome/138.0.0.0 Safari/537.36","WebKit","Chrome","138.0.0.0","Windows","10.0","https://app.prolific.com/","hu-HU,hu;q=0.9,en-US;q=0.8,en;q=0.7","61717173748006894b2b54ff","687a19d2168e237449fb8af4","688b5ef37b94071a3664b36c","0","61717173748006894b2b54ff","0","2025-07-31T13:12:01.251Z","","","","MotivationQ","","","","","","","","","","","50","","","","","","","","","","","","","","","","","","","","","","","","","","",""
"","","","","ctl-task-cpt","48","662255","0.0-7.0-0.7","110","1","2025-07-31 13:01:45","36c45c0696341be0efffe67d72a12abb","194.176.233.84","Mozilla/5.0 (Windows NT 10.0; Win64; x64) AppleWebKit/537.36 (KHTML, like Gecko) Chrome/138.0.0.0 Safari/537.36","WebKit","Chrome","138.0.0.0","Windows","10.0","https://app.prolific.com/","hu-HU,hu;q=0.9,en-US;q=0.8,en;q=0.7","61717173748006894b2b54ff","687a19d2168e237449fb8af4","688b5ef37b94071a3664b36c","0","61717173748006894b2b54ff","0","2025-07-31T13:12:48.299Z","","","","","","","","","","","","","","","","win-only","1","g1:NE,g2:SW","0.3","8","0","616701.2","626.9","5630.4","44030.5","1","4","8","6","2","-8","-11","7","18","0.05303030303030303","632.3","3000","-3010","[""down"",""left""]","{""num_key_presses"":12,""num_perfect"":3,""num_errors"":3,""num_randdir"":6,""num_randdir_good_moves"":2,""num_whilered"":0,""num_whileblue"":3,""num_blue"":4,""num_good_moves"":6}","[419.57142857142856,420.47767857142856,0.2,419.57142857142856,420.47767857142856,104.6,419.57142857142856,420.47767857142856,208.5,419.57142857142856,420.47767857142856,308.5,376.57142857142856,486.47767857142856,409.6,146.57142857142856,748.4776785714286,514,88.57142857142857,772.4776785714286,619.3,88.57142857142857,771.4776785714286,724.4,305.57142857142856,705.4776785714286,824.5,853.5714285714286,653.4776785714286,924.6,1160.5714285714287,628.4776785714286,1024.9,1167.5714285714287,625.4776785714286,1130,1167.5714285714287,625.4776785714286,1233.3,1167.5714285714287,625.4776785714286,1333.4,1167.5714285714287,625.4776785714286,1434.3,1167.5714285714287,625.4776785714286,1534.4,1167.5714285714287,625.4776785714286,1634.5,1167.5714285714287,625.4776785714286,1738.8,1167.5714285714287,625.4776785714286,1843.6,1167.5714285714287,625.4776785714286,1944,1167.5714285714287,625.4776785714286,2049.3,1167.5714285714287,625.4776785714286,2153.7,1167.5714285714287,625.4776785714286,2253.9,1167.5714285714287,625.4776785714286,2359.1,1167.5714285714287,625.4776785714286,2460,1167.5714285714287,625.4776785714286,2560,1167.5714285714287,625.4776785714286,2660.1,1167.5714285714287,625.4776785714286,2764,1167.5714285714287,625.4776785714286,2869,1167.5714285714287,625.4776785714286,2973.9,1167.5714285714287,625.4776785714286,3074.3,1167.5714285714287,625.4776785714286,3174.5,1167.5714285714287,625.4776785714286,3279,1167.5714285714287,625.4776785714286,3379.6,1167.5714285714287,625.4776785714286,3483.7,1167.5714285714287,625.4776785714286,3584.3,1167.5714285714287,625.4776785714286,3684.6,1167.5714285714287,625.4776785714286,3788.7,1167.5714285714287,625.4776785714286,3888.8,1167.5714285714287,625.4776785714286,3993.6,1167.5714285714287,625.4776785714286,4093.6,1167.5714285714287,625.4776785714286,4194,1167.5714285714287,625.4776785714286,4298.7,1167.5714285714287,625.4776785714286,4398.8,1167.5714285714287,625.4776785714286,4499.6,1167.5714285714287,625.4776785714286,4603.6,1167.5714285714287,625.4776785714286,4708.9,1167.5714285714287,625.4776785714286,4813.7,1167.5714285714287,625.4776785714286,4914.5]","[1284.1,1284.1,1000.2,0,283.9,""while_blue"",""left"",""left"",""good_move"",6920.9,5636.3,2176.3,4250,494.6,""oops"",""down"",""down"",""good_move"",9511.1,2589.7,2162.5,6921.4,427.2,""smooth"",""left"",""left"",""good_move"",12615.3,3103.6,2818.1,9511.8,285.4,""while_blue"",""down"",""up"",""bad_move"",15967,3351.4,3017.1,12615.6,334.3,""smooth"",""down"",""down"",""good_move"",18933.1,2965.8,2658.6,15967.3,307.2,""oops"",""down"",""left"",""good_move"",22737.4,3803.9,3515.1,18933.5,288.8,""oops"",""down"",""right"",""bad_move"",25387.2,2649.5,2367.9,22737.7,281.6,""smooth"",""down"",""down"",""good_move"",27925.3,2537.7,2267.7,25387.6,270,""oops"",""left"",""up"",""bad_move"",31018.7,3093,2804.1,27925.7,288.9,""while_blue"",""down"",""up"",""bad_move"",33976.4,2957,2638.4,31019.4,318.6,""oops"",""down"",""right"",""bad_move"",36715.5,2738.9,2444.4,33976.6,294.5,""oops"",""down"",""right"",""bad_move""]"
"2661","","<div style=""width:500px;"">
  <p>What determined the result of this run?</p>
  </div>","0","html-slider-response","49","664917","0.0-7.0-1.7","110","1","2025-07-31 13:01:45","36c45c0696341be0efffe67d72a12abb","194.176.233.84","Mozilla/5.0 (Windows NT 10.0; Win64; x64) AppleWebKit/537.36 (KHTML, like Gecko) Chrome/138.0.0.0 Safari/537.36","WebKit","Chrome","138.0.0.0","Windows","10.0","https://app.prolific.com/","hu-HU,hu;q=0.9,en-US;q=0.8,en;q=0.7","61717173748006894b2b54ff","687a19d2168e237449fb8af4","688b5ef37b94071a3664b36c","0","61717173748006894b2b54ff","0","2025-07-31T13:12:50.961Z","","","","AttribQ","","","","","","","","","","","50","","","","","","","","","","","","","","","","","","","","","","","","","","",""
"1644","","<div style=""width:500px;"">
  <p>How much control did you have over the ball?</p>
  </div>","0","html-slider-response","50","666562","0.0-7.0-2.7","110","1","2025-07-31 13:01:45","36c45c0696341be0efffe67d72a12abb","194.176.233.84","Mozilla/5.0 (Windows NT 10.0; Win64; x64) AppleWebKit/537.36 (KHTML, like Gecko) Chrome/138.0.0.0 Safari/537.36","WebKit","Chrome","138.0.0.0","Windows","10.0","https://app.prolific.com/","hu-HU,hu;q=0.9,en-US;q=0.8,en;q=0.7","61717173748006894b2b54ff","687a19d2168e237449fb8af4","688b5ef37b94071a3664b36c","0","61717173748006894b2b54ff","0","2025-07-31T13:12:52.606Z","","","","ControlQ","","","","","","","","","","","50","","","","","","","","","","","","","","","","","","","","","","","","","","",""
"1586","","<div style=""width:500px;"">
  <p>How would you describe your current emotional state?</p>
  </div>","76","html-slider-response","51","668148","0.0-7.0-3.7","110","1","2025-07-31 13:01:45","36c45c0696341be0efffe67d72a12abb","194.176.233.84","Mozilla/5.0 (Windows NT 10.0; Win64; x64) AppleWebKit/537.36 (KHTML, like Gecko) Chrome/138.0.0.0 Safari/537.36","WebKit","Chrome","138.0.0.0","Windows","10.0","https://app.prolific.com/","hu-HU,hu;q=0.9,en-US;q=0.8,en;q=0.7","61717173748006894b2b54ff","687a19d2168e237449fb8af4","688b5ef37b94071a3664b36c","0","61717173748006894b2b54ff","0","2025-07-31T13:12:54.192Z","","","","StressQ","","","","","","","","","","","50","","","","","","","","","","","","","","","","","","","","","","","","","","",""
"997","","<div style=""width:500px;"">
  <p>What best describes how you currently feel?</p>
  </div>","70","html-slider-response","52","669147","0.0-7.0-4.7","110","1","2025-07-31 13:01:45","36c45c0696341be0efffe67d72a12abb","194.176.233.84","Mozilla/5.0 (Windows NT 10.0; Win64; x64) AppleWebKit/537.36 (KHTML, like Gecko) Chrome/138.0.0.0 Safari/537.36","WebKit","Chrome","138.0.0.0","Windows","10.0","https://app.prolific.com/","hu-HU,hu;q=0.9,en-US;q=0.8,en;q=0.7","61717173748006894b2b54ff","687a19d2168e237449fb8af4","688b5ef37b94071a3664b36c","0","61717173748006894b2b54ff","0","2025-07-31T13:12:55.191Z","","","","MotivationQ","","","","","","","","","","","50","","","","","","","","","","","","","","","","","","","","","","","","","","",""
"","","","","ctl-task-cpt","53","712630","0.0-7.0-0.8","110","1","2025-07-31 13:01:45","36c45c0696341be0efffe67d72a12abb","194.176.233.84","Mozilla/5.0 (Windows NT 10.0; Win64; x64) AppleWebKit/537.36 (KHTML, like Gecko) Chrome/138.0.0.0 Safari/537.36","WebKit","Chrome","138.0.0.0","Windows","10.0","https://app.prolific.com/","hu-HU,hu;q=0.9,en-US;q=0.8,en;q=0.7","61717173748006894b2b54ff","687a19d2168e237449fb8af4","688b5ef37b94071a3664b36c","0","61717173748006894b2b54ff","0","2025-07-31T13:13:38.675Z","","","","","","","","","","","","","","","","win-only","1","g1:NE,g2:SW","0.4","9","0","670641.4","394.2","5395.6","40465.3","1","4","4","6","2","-4","-4","3","7","0.022727272727272728","3044.8","3000","-3015","[""down"",""left""]","{""num_key_presses"":10,""num_perfect"":4,""num_errors"":0,""num_randdir"":6,""num_randdir_good_moves"":1,""num_whilered"":0,""num_whileblue"":0,""num_blue"":2,""num_good_moves"":5}","[420.57142857142856,418.47767857142856,0.1,420.57142857142856,418.47767857142856,101.7,423.57142857142856,416.47767857142856,206.4,494.57142857142856,405.47767857142856,306.9,376.57142857142856,542.4776785714286,407.3,107.57142857142857,754.4776785714286,512.1,99.57142857142857,760.4776785714286,617.2,397.57142857142856,488.47767857142856,717.3,701.5714285714286,275.47767857142856,821.2,701.5714285714286,275.47767857142856,921.9,534.5714285714286,448.47767857142856,1027.4,329.57142857142856,539.4776785714286,1127.7,349.57142857142856,487.47767857142856,1231.9,414.57142857142856,438.47767857142856,1337.2,287.57142857142856,625.4776785714286,1443,218.57142857142856,662.4776785714286,1546.1,346.57142857142856,506.47767857142856,1651.8,275.57142857142856,594.4776785714286,1756.6,-51.42857142857143,720.4776785714286,1857.1,282.57142857142856,337.47767857142856,1961.8,761.5714285714286,137.47767857142856,2062.3,761.5714285714286,137.47767857142856,2166.6,771.5714285714286,110.47767857142857,2267.5,775.5714285714286,86.47767857142857,2372.1,773.5714285714286,86.47767857142857,2476.4,763.5714285714286,90.47767857142857,2576.6,419.57142857142856,346.47767857142856,2676.7,86.57142857142857,647.4776785714286,2776.7,114.57142857142857,668.4776785714286,2882.1,116.57142857142857,695.4776785714286,2982.1,92.57142857142857,745.4776785714286,3086,115.57142857142857,741.4776785714286,3187.4,566.5714285714286,664.4776785714286,3289.5,1184.5714285714287,635.4776785714286,3392.1,1301.5714285714287,612.4776785714286,3492.1,1301.5714285714287,612.4776785714286,3592.6,1301.5714285714287,612.4776785714286,3696.3,1301.5714285714287,612.4776785714286,3796.4,1301.5714285714287,612.4776785714286,3897.6,1301.5714285714287,612.4776785714286,4001.7,1301.5714285714287,612.4776785714286,4101.8,1301.5714285714287,612.4776785714286,4206.3,1301.5714285714287,612.4776785714286,4307.1,1301.5714285714287,612.4776785714286,4412.2,1301.5714285714287,612.4776785714286,4512.2,1301.5714285714287,612.4776785714286,4617.1,1301.5714285714287,612.4776785714286,4722.1,1301.5714285714287,612.4776785714286,4826.5,1301.5714285714287,612.4776785714286,4931.4]","[1427.6,1427.6,1000,0,427.6,""smooth"",""down"",""down"",""good_move"",4500.1,3072.1,2766.5,1428,305.6,""oops"",""left"",""up"",""bad_move"",7106.2,2605.8,2323.4,4500.4,282.4,""smooth"",""left"",""left"",""good_move"",9310.2,2203.7,1887.7,7106.5,316,""oops"",""down"",""down"",""good_move"",12082.4,2771.9,2534.2,9310.5,237.7,""oops"",""left"",""right"",""bad_move"",14850.3,2767.4,2524.5,12082.9,242.9,""smooth"",""left"",""left"",""good_move"",17819.7,2969.1,2740.9,14850.6,228.2,""oops"",""left"",""up"",""bad_move"",20485.7,2665.7,2393.6,17820,272.1,""smooth"",""left"",""left"",""good_move"",22711.4,2225.3,1985.7,20486.1,239.6,""oops"",""down"",""right"",""bad_move"",24864.7,2153,1833.4,22711.7,319.6,""oops"",""down"",""right"",""bad_move""]"
"1533","","<div style=""width:500px;"">
  <p>What determined the result of this run?</p>
  </div>","0","html-slider-response","54","714165","0.0-7.0-1.8","110","1","2025-07-31 13:01:45","36c45c0696341be0efffe67d72a12abb","194.176.233.84","Mozilla/5.0 (Windows NT 10.0; Win64; x64) AppleWebKit/537.36 (KHTML, like Gecko) Chrome/138.0.0.0 Safari/537.36","WebKit","Chrome","138.0.0.0","Windows","10.0","https://app.prolific.com/","hu-HU,hu;q=0.9,en-US;q=0.8,en;q=0.7","61717173748006894b2b54ff","687a19d2168e237449fb8af4","688b5ef37b94071a3664b36c","0","61717173748006894b2b54ff","0","2025-07-31T13:13:40.209Z","","","","AttribQ","","","","","","","","","","","50","","","","","","","","","","","","","","","","","","","","","","","","","","",""
"1272","","<div style=""width:500px;"">
  <p>How much control did you have over the ball?</p>
  </div>","0","html-slider-response","55","715438","0.0-7.0-2.8","110","1","2025-07-31 13:01:45","36c45c0696341be0efffe67d72a12abb","194.176.233.84","Mozilla/5.0 (Windows NT 10.0; Win64; x64) AppleWebKit/537.36 (KHTML, like Gecko) Chrome/138.0.0.0 Safari/537.36","WebKit","Chrome","138.0.0.0","Windows","10.0","https://app.prolific.com/","hu-HU,hu;q=0.9,en-US;q=0.8,en;q=0.7","61717173748006894b2b54ff","687a19d2168e237449fb8af4","688b5ef37b94071a3664b36c","0","61717173748006894b2b54ff","0","2025-07-31T13:13:41.482Z","","","","ControlQ","","","","","","","","","","","50","","","","","","","","","","","","","","","","","","","","","","","","","","",""
"2018","","<div style=""width:500px;"">
  <p>How would you describe your current emotional state?</p>
  </div>","77","html-slider-response","56","717457","0.0-7.0-3.8","110","1","2025-07-31 13:01:45","36c45c0696341be0efffe67d72a12abb","194.176.233.84","Mozilla/5.0 (Windows NT 10.0; Win64; x64) AppleWebKit/537.36 (KHTML, like Gecko) Chrome/138.0.0.0 Safari/537.36","WebKit","Chrome","138.0.0.0","Windows","10.0","https://app.prolific.com/","hu-HU,hu;q=0.9,en-US;q=0.8,en;q=0.7","61717173748006894b2b54ff","687a19d2168e237449fb8af4","688b5ef37b94071a3664b36c","0","61717173748006894b2b54ff","0","2025-07-31T13:13:43.501Z","","","","StressQ","","","","","","","","","","","50","","","","","","","","","","","","","","","","","","","","","","","","","","",""
"2461","","<div style=""width:500px;"">
  <p>What best describes how you currently feel?</p>
  </div>","38","html-slider-response","57","719920","0.0-7.0-4.8","110","1","2025-07-31 13:01:45","36c45c0696341be0efffe67d72a12abb","194.176.233.84","Mozilla/5.0 (Windows NT 10.0; Win64; x64) AppleWebKit/537.36 (KHTML, like Gecko) Chrome/138.0.0.0 Safari/537.36","WebKit","Chrome","138.0.0.0","Windows","10.0","https://app.prolific.com/","hu-HU,hu;q=0.9,en-US;q=0.8,en;q=0.7","61717173748006894b2b54ff","687a19d2168e237449fb8af4","688b5ef37b94071a3664b36c","0","61717173748006894b2b54ff","0","2025-07-31T13:13:45.964Z","","","","MotivationQ","","","","","","","","","","","50","","","","","","","","","","","","","","","","","","","","","","","","","","",""
"","","","","ctl-task-cpt","58","750314","0.0-7.0-0.9","110","1","2025-07-31 13:01:45","36c45c0696341be0efffe67d72a12abb","194.176.233.84","Mozilla/5.0 (Windows NT 10.0; Win64; x64) AppleWebKit/537.36 (KHTML, like Gecko) Chrome/138.0.0.0 Safari/537.36","WebKit","Chrome","138.0.0.0","Windows","10.0","https://app.prolific.com/","hu-HU,hu;q=0.9,en-US;q=0.8,en;q=0.7","61717173748006894b2b54ff","687a19d2168e237449fb8af4","688b5ef37b94071a3664b36c","0","61717173748006894b2b54ff","0","2025-07-31T13:14:16.358Z","","","","","","","","","","","","","","","","win-only","0","g1:NW,g2:SE","0.5","10","0","721414.1","762.5","5765.4","27375.6","1","4","8","6","2","8","6","9","3","0.06818181818181818","820","3000","1175","[""down"",""right""]","{""num_key_presses"":8,""num_perfect"":4,""num_errors"":2,""num_randdir"":2,""num_randdir_good_moves"":1,""num_whilered"":0,""num_whileblue"":2,""num_blue"":2,""num_good_moves"":7}","[413.57142857142856,422.47767857142856,0.2,414.57142857142856,422.47767857142856,102.7,414.57142857142856,422.47767857142856,202.8,423.57142857142856,429.47767857142856,303.1,644.5714285714286,678.4776785714286,408.3,686.5714285714286,712.4776785714286,512.8,696.5714285714286,710.4776785714286,613.6,777.5714285714286,710.4776785714286,713.6,790.5714285714286,714.4776785714286,818.6,791.5714285714286,716.4776785714286,923.1,810.5714285714286,730.4776785714286,1023.3,806.5714285714286,731.4776785714286,1129.3,859.5714285714286,701.4776785714286,1232.8,909.5714285714286,682.4776785714286,1334.4,909.5714285714286,682.4776785714286,1437.9,909.5714285714286,682.4776785714286,1538.2,909.5714285714286,682.4776785714286,1638.7,909.5714285714286,682.4776785714286,1742.8,909.5714285714286,682.4776785714286,1842.8,909.5714285714286,682.4776785714286,1942.9,909.5714285714286,682.4776785714286,2043.4,909.5714285714286,682.4776785714286,2143.6,909.5714285714286,682.4776785714286,2248.7,909.5714285714286,682.4776785714286,2353,909.5714285714286,682.4776785714286,2454.6,909.5714285714286,682.4776785714286,2557.9,909.5714285714286,682.4776785714286,2657.9,909.5714285714286,682.4776785714286,2758.3,909.5714285714286,682.4776785714286,2863.1,909.5714285714286,682.4776785714286,2968.3,909.5714285714286,682.4776785714286,3068.3,909.5714285714286,682.4776785714286,3168.3,909.5714285714286,682.4776785714286,3273.9,909.5714285714286,682.4776785714286,3377.7,909.5714285714286,682.4776785714286,3477.7,909.5714285714286,682.4776785714286,3577.8,909.5714285714286,682.4776785714286,3677.8,909.5714285714286,682.4776785714286,3778.6,909.5714285714286,682.4776785714286,3882.7,909.5714285714286,682.4776785714286,3983.5,909.5714285714286,682.4776785714286,4083.7,909.5714285714286,682.4776785714286,4187.9,909.5714285714286,682.4776785714286,4288.4,909.5714285714286,682.4776785714286,4393.1,909.5714285714286,682.4776785714286,4498.4,909.5714285714286,682.4776785714286,4598.6,909.5714285714286,682.4776785714286,4699.5,909.5714285714286,682.4776785714286,4802.8,909.5714285714286,682.4776785714286,4903.5]","[1343.8,1343.8,1000,0,343.8,""smooth"",""right"",""right"",""good_move"",4055.6,2711.1,2421.6,1344.5,289.5,""while_blue"",""down"",""down"",""good_move"",7136.4,3080.4,2779.4,4056,301,""oops"",""right"",""up"",""bad_move"",10296.4,3159.6,2869.6,7136.8,290,""smooth"",""right"",""right"",""good_move"",12915.5,2618.8,2330.4,10296.7,288.4,""oops"",""down"",""down"",""good_move"",16417.1,3501.1,3209.2,12916,291.9,""while_blue"",""right"",""right"",""good_move"",18825.3,2407.6,2085.1,16417.7,322.5,""smooth"",""down"",""down"",""good_move"",21523.8,2698.3,2380.8,18825.6,317.4,""smooth"",""down"",""down"",""good_move""]"
"15090","","<div style=""width:500px;"">
  <p>What determined the result of this run?</p>
  </div>","73","html-slider-response","59","765405","0.0-7.0-1.9","110","1","2025-07-31 13:01:45","36c45c0696341be0efffe67d72a12abb","194.176.233.84","Mozilla/5.0 (Windows NT 10.0; Win64; x64) AppleWebKit/537.36 (KHTML, like Gecko) Chrome/138.0.0.0 Safari/537.36","WebKit","Chrome","138.0.0.0","Windows","10.0","https://app.prolific.com/","hu-HU,hu;q=0.9,en-US;q=0.8,en;q=0.7","61717173748006894b2b54ff","687a19d2168e237449fb8af4","688b5ef37b94071a3664b36c","0","61717173748006894b2b54ff","0","2025-07-31T13:14:31.449Z","","","","AttribQ","","","","","","","","","","","50","","","","","","","","","","","","","","","","","","","","","","","","","","",""
"13586","","<div style=""width:500px;"">
  <p>How much control did you have over the ball?</p>
  </div>","56","html-slider-response","60","778992","0.0-7.0-2.9","110","1","2025-07-31 13:01:45","36c45c0696341be0efffe67d72a12abb","194.176.233.84","Mozilla/5.0 (Windows NT 10.0; Win64; x64) AppleWebKit/537.36 (KHTML, like Gecko) Chrome/138.0.0.0 Safari/537.36","WebKit","Chrome","138.0.0.0","Windows","10.0","https://app.prolific.com/","hu-HU,hu;q=0.9,en-US;q=0.8,en;q=0.7","61717173748006894b2b54ff","687a19d2168e237449fb8af4","688b5ef37b94071a3664b36c","0","61717173748006894b2b54ff","0","2025-07-31T13:14:45.036Z","","","","ControlQ","","","","","","","","","","","50","","","","","","","","","","","","","","","","","","","","","","","","","","",""
"1375","","<div style=""width:500px;"">
  <p>How would you describe your current emotional state?</p>
  </div>","61","html-slider-response","61","780369","0.0-7.0-3.9","110","1","2025-07-31 13:01:45","36c45c0696341be0efffe67d72a12abb","194.176.233.84","Mozilla/5.0 (Windows NT 10.0; Win64; x64) AppleWebKit/537.36 (KHTML, like Gecko) Chrome/138.0.0.0 Safari/537.36","WebKit","Chrome","138.0.0.0","Windows","10.0","https://app.prolific.com/","hu-HU,hu;q=0.9,en-US;q=0.8,en;q=0.7","61717173748006894b2b54ff","687a19d2168e237449fb8af4","688b5ef37b94071a3664b36c","0","61717173748006894b2b54ff","0","2025-07-31T13:14:46.413Z","","","","StressQ","","","","","","","","","","","50","","","","","","","","","","","","","","","","","","","","","","","","","","",""
"1972","","<div style=""width:500px;"">
  <p>What best describes how you currently feel?</p>
  </div>","69","html-slider-response","62","782342","0.0-7.0-4.9","110","1","2025-07-31 13:01:45","36c45c0696341be0efffe67d72a12abb","194.176.233.84","Mozilla/5.0 (Windows NT 10.0; Win64; x64) AppleWebKit/537.36 (KHTML, like Gecko) Chrome/138.0.0.0 Safari/537.36","WebKit","Chrome","138.0.0.0","Windows","10.0","https://app.prolific.com/","hu-HU,hu;q=0.9,en-US;q=0.8,en;q=0.7","61717173748006894b2b54ff","687a19d2168e237449fb8af4","688b5ef37b94071a3664b36c","0","61717173748006894b2b54ff","0","2025-07-31T13:14:48.386Z","","","","MotivationQ","","","","","","","","","","","50","","","","","","","","","","","","","","","","","","","","","","","","","","",""
"","","","","ctl-task-cpt","63","822577","0.0-7.0-0.10","110","1","2025-07-31 13:01:45","36c45c0696341be0efffe67d72a12abb","194.176.233.84","Mozilla/5.0 (Windows NT 10.0; Win64; x64) AppleWebKit/537.36 (KHTML, like Gecko) Chrome/138.0.0.0 Safari/537.36","WebKit","Chrome","138.0.0.0","Windows","10.0","https://app.prolific.com/","hu-HU,hu;q=0.9,en-US;q=0.8,en;q=0.7","61717173748006894b2b54ff","687a19d2168e237449fb8af4","688b5ef37b94071a3664b36c","0","61717173748006894b2b54ff","0","2025-07-31T13:15:28.621Z","","","","","","","","","","","","","","","","win-only","2","g1:SE,g2:NW","0.6","11","0","783836.3","850.2","5851.5","37215.8","1","4","8","6","2","-8","-10","0","9","0","823.5","3000","-3010","[""left"",""up""]","{""num_key_presses"":11,""num_perfect"":5,""num_errors"":2,""num_randdir"":4,""num_randdir_good_moves"":1,""num_whilered"":0,""num_whileblue"":2,""num_blue"":2,""num_good_moves"":7}","[423.57142857142856,420.47767857142856,0.3,423.57142857142856,420.47767857142856,100.7,423.57142857142856,420.47767857142856,201,427.57142857142856,423.47767857142856,301.9,442.57142857142856,435.47767857142856,406.1,272.57142857142856,260.47767857142856,510.9,156.57142857142856,152.47767857142856,616.3,141.57142857142856,125.47767857142857,721.7,100.57142857142857,81.47767857142857,829.2,100.57142857142857,81.47767857142857,930.2,137.57142857142856,90.47767857142857,1032.7,544.5714285714286,134.47767857142856,1135.4,846.5714285714286,168.47767857142856,1236.1,846.5714285714286,168.47767857142856,1341.9,846.5714285714286,168.47767857142856,1445.7,846.5714285714286,168.47767857142856,1550.8,846.5714285714286,168.47767857142856,1651,846.5714285714286,168.47767857142856,1751.1,846.5714285714286,168.47767857142856,1851.3,846.5714285714286,168.47767857142856,1951.4,846.5714285714286,168.47767857142856,2055.4,846.5714285714286,168.47767857142856,2157.2,846.5714285714286,168.47767857142856,2260.7,846.5714285714286,168.47767857142856,2360.7,846.5714285714286,168.47767857142856,2460.7,846.5714285714286,168.47767857142856,2566.6,846.5714285714286,168.47767857142856,2670.5,846.5714285714286,168.47767857142856,2770.5,846.5714285714286,168.47767857142856,2871.3,846.5714285714286,168.47767857142856,2976.4,846.5714285714286,168.47767857142856,3076.9,846.5714285714286,168.47767857142856,3180.5,846.5714285714286,168.47767857142856,3282,846.5714285714286,168.47767857142856,3385.5,846.5714285714286,168.47767857142856,3485.6,846.5714285714286,168.47767857142856,3587.3,846.5714285714286,168.47767857142856,3690.8,846.5714285714286,168.47767857142856,3791.9,846.5714285714286,168.47767857142856,3896.4,846.5714285714286,168.47767857142856,4000.8,846.5714285714286,168.47767857142856,4100.9,846.5714285714286,168.47767857142856,4201.2,846.5714285714286,168.47767857142856,4306.4,846.5714285714286,168.47767857142856,4410.5,846.5714285714286,168.47767857142856,4515.5,846.5714285714286,168.47767857142856,4615.6,846.5714285714286,168.47767857142856,4716.1,846.5714285714286,168.47767857142856,4821,846.5714285714286,168.47767857142856,4921.3]","[1326.3,1326.3,1000,0,326.3,""smooth"",""up"",""up"",""good_move"",3639.5,2312.8,2028.7,1326.7,284.1,""smooth"",""left"",""left"",""good_move"",6384.6,2744.8,2420.4,3639.9,324.4,""smooth"",""up"",""up"",""good_move"",9376.2,2991.2,2760.1,6385,231.1,""while_blue"",""left"",""left"",""good_move"",12477,3100.4,2823.4,9376.6,277,""oops"",""up"",""down"",""bad_move"",15259.2,2781.9,2388.8,12477.3,393.1,""smooth"",""up"",""up"",""good_move"",17417.7,2158.1,1874.2,15259.6,283.9,""while_blue"",""up"",""down"",""bad_move"",20437.8,3019.9,2730.8,17418,289,""oops"",""up"",""down"",""bad_move"",23689.9,3251.8,2917.5,20438.1,334.3,""oops"",""up"",""right"",""bad_move"",26148.9,2458.7,2115.6,23690.2,343.1,""oops"",""up"",""left"",""good_move"",28886.9,2737.6,2459.2,26149.3,278.4,""smooth"",""up"",""up"",""good_move""]"
"1346","","<div style=""width:500px;"">
  <p>What determined the result of this run?</p>
  </div>","0","html-slider-response","64","823924","0.0-7.0-1.10","110","1","2025-07-31 13:01:45","36c45c0696341be0efffe67d72a12abb","194.176.233.84","Mozilla/5.0 (Windows NT 10.0; Win64; x64) AppleWebKit/537.36 (KHTML, like Gecko) Chrome/138.0.0.0 Safari/537.36","WebKit","Chrome","138.0.0.0","Windows","10.0","https://app.prolific.com/","hu-HU,hu;q=0.9,en-US;q=0.8,en;q=0.7","61717173748006894b2b54ff","687a19d2168e237449fb8af4","688b5ef37b94071a3664b36c","0","61717173748006894b2b54ff","0","2025-07-31T13:15:29.968Z","","","","AttribQ","","","","","","","","","","","50","","","","","","","","","","","","","","","","","","","","","","","","","","",""
"2604","","<div style=""width:500px;"">
  <p>How much control did you have over the ball?</p>
  </div>","10","html-slider-response","65","826529","0.0-7.0-2.10","110","1","2025-07-31 13:01:45","36c45c0696341be0efffe67d72a12abb","194.176.233.84","Mozilla/5.0 (Windows NT 10.0; Win64; x64) AppleWebKit/537.36 (KHTML, like Gecko) Chrome/138.0.0.0 Safari/537.36","WebKit","Chrome","138.0.0.0","Windows","10.0","https://app.prolific.com/","hu-HU,hu;q=0.9,en-US;q=0.8,en;q=0.7","61717173748006894b2b54ff","687a19d2168e237449fb8af4","688b5ef37b94071a3664b36c","0","61717173748006894b2b54ff","0","2025-07-31T13:15:32.574Z","","","","ControlQ","","","","","","","","","","","50","","","","","","","","","","","","","","","","","","","","","","","","","","",""
"1417","","<div style=""width:500px;"">
  <p>How would you describe your current emotional state?</p>
  </div>","80","html-slider-response","66","827950","0.0-7.0-3.10","110","1","2025-07-31 13:01:45","36c45c0696341be0efffe67d72a12abb","194.176.233.84","Mozilla/5.0 (Windows NT 10.0; Win64; x64) AppleWebKit/537.36 (KHTML, like Gecko) Chrome/138.0.0.0 Safari/537.36","WebKit","Chrome","138.0.0.0","Windows","10.0","https://app.prolific.com/","hu-HU,hu;q=0.9,en-US;q=0.8,en;q=0.7","61717173748006894b2b54ff","687a19d2168e237449fb8af4","688b5ef37b94071a3664b36c","0","61717173748006894b2b54ff","0","2025-07-31T13:15:33.994Z","","","","StressQ","","","","","","","","","","","50","","","","","","","","","","","","","","","","","","","","","","","","","","",""
"1441","","<div style=""width:500px;"">
  <p>What best describes how you currently feel?</p>
  </div>","8","html-slider-response","67","829392","0.0-7.0-4.10","110","1","2025-07-31 13:01:45","36c45c0696341be0efffe67d72a12abb","194.176.233.84","Mozilla/5.0 (Windows NT 10.0; Win64; x64) AppleWebKit/537.36 (KHTML, like Gecko) Chrome/138.0.0.0 Safari/537.36","WebKit","Chrome","138.0.0.0","Windows","10.0","https://app.prolific.com/","hu-HU,hu;q=0.9,en-US;q=0.8,en;q=0.7","61717173748006894b2b54ff","687a19d2168e237449fb8af4","688b5ef37b94071a3664b36c","0","61717173748006894b2b54ff","0","2025-07-31T13:15:35.436Z","","","","MotivationQ","","","","","","","","","","","50","","","","","","","","","","","","","","","","","","","","","","","","","","",""
"","","","","ctl-task-cpt","68","851882","0.0-7.0-0.11","110","1","2025-07-31 13:01:45","36c45c0696341be0efffe67d72a12abb","194.176.233.84","Mozilla/5.0 (Windows NT 10.0; Win64; x64) AppleWebKit/537.36 (KHTML, like Gecko) Chrome/138.0.0.0 Safari/537.36","WebKit","Chrome","138.0.0.0","Windows","10.0","https://app.prolific.com/","hu-HU,hu;q=0.9,en-US;q=0.8,en;q=0.7","61717173748006894b2b54ff","687a19d2168e237449fb8af4","688b5ef37b94071a3664b36c","0","61717173748006894b2b54ff","0","2025-07-31T13:15:57.926Z","","","","","","","","","","","","","","","","win-only","2","g1:SE,g2:NW","0.7","12","0","830886.5","729.1","5732.5","19470.7","1","4","4","6","2","4","4","4","0","0.030303030303030304","572.1","3000","1320","[""left"",""up""]","{""num_key_presses"":6,""num_perfect"":4,""num_errors"":0,""num_randdir"":2,""num_randdir_good_moves"":2,""num_whilered"":0,""num_whileblue"":0,""num_blue"":0,""num_good_moves"":6}","[416.57142857142856,417.47767857142856,0.2,416.57142857142856,418.47767857142856,102.7,416.57142857142856,418.47767857142856,206.8,567.5714285714286,416.47767857142856,310.1,389.57142857142856,200.47767857142856,412.2,42.57142857142857,42.47767857142857,516.6,33.57142857142857,38.47767857142857,616.7,35.57142857142857,39.47767857142857,717.8,90.57142857142857,70.47767857142857,821.4,543.5714285714286,207.47767857142856,921.7,1015.5714285714286,293.47767857142856,1026.9,1015.5714285714286,293.47767857142856,1131.6,1015.5714285714286,293.47767857142856,1231.9,1015.5714285714286,293.47767857142856,1332.1,1015.5714285714286,293.47767857142856,1436.8,1015.5714285714286,293.47767857142856,1536.9,1015.5714285714286,293.47767857142856,1637.1,1015.5714285714286,293.47767857142856,1737.3,1015.5714285714286,293.47767857142856,1842.1,1015.5714285714286,293.47767857142856,1942.3,1015.5714285714286,293.47767857142856,2043.6,1015.5714285714286,293.47767857142856,2146.3,1015.5714285714286,293.47767857142856,2246.4,1015.5714285714286,293.47767857142856,2353.4,1015.5714285714286,293.47767857142856,2456.2,1015.5714285714286,293.47767857142856,2557.2,1015.5714285714286,293.47767857142856,2662.5,1015.5714285714286,293.47767857142856,2766.7,1015.5714285714286,293.47767857142856,2867.5,1015.5714285714286,293.47767857142856,2971.3,1015.5714285714286,293.47767857142856,3072.7,1015.5714285714286,293.47767857142856,3176.4,1015.5714285714286,293.47767857142856,3276.6,1015.5714285714286,293.47767857142856,3376.6,1015.5714285714286,293.47767857142856,3476.6,1015.5714285714286,293.47767857142856,3576.7,1015.5714285714286,293.47767857142856,3682,1015.5714285714286,293.47767857142856,3786.9,1015.5714285714286,293.47767857142856,3891.9,1015.5714285714286,293.47767857142856,3992,1015.5714285714286,293.47767857142856,4092.8,1015.5714285714286,293.47767857142856,4197.1,1015.5714285714286,293.47767857142856,4297.3,1015.5714285714286,293.47767857142856,4401.5,1015.5714285714286,293.47767857142856,4503.7,1015.5714285714286,293.47767857142856,4606.9,1015.5714285714286,293.47767857142856,4711.6,1015.5714285714286,293.47767857142856,4811.6,1015.5714285714286,293.47767857142856,4911.9]","[1308.2,1308.2,1000,0,308.2,""smooth"",""up"",""up"",""good_move"",3654.8,2346,2062,1308.8,284,""oops"",""left"",""up"",""good_move"",6363.1,2707.8,2426.7,3655.3,281.1,""smooth"",""left"",""left"",""good_move"",9198.9,2835.4,2527.2,6363.5,308.2,""oops"",""left"",""left"",""good_move"",11408.9,2209.8,1927.4,9199.1,282.4,""smooth"",""up"",""up"",""good_move"",13650.2,2240.9,1972.7,11409.3,268.2,""smooth"",""left"",""left"",""good_move""]"
"3685","","<div style=""width:500px;"">
  <p>What determined the result of this run?</p>
  </div>","89","html-slider-response","69","855568","0.0-7.0-1.11","110","1","2025-07-31 13:01:45","36c45c0696341be0efffe67d72a12abb","194.176.233.84","Mozilla/5.0 (Windows NT 10.0; Win64; x64) AppleWebKit/537.36 (KHTML, like Gecko) Chrome/138.0.0.0 Safari/537.36","WebKit","Chrome","138.0.0.0","Windows","10.0","https://app.prolific.com/","hu-HU,hu;q=0.9,en-US;q=0.8,en;q=0.7","61717173748006894b2b54ff","687a19d2168e237449fb8af4","688b5ef37b94071a3664b36c","0","61717173748006894b2b54ff","0","2025-07-31T13:16:01.612Z","","","","AttribQ","","","","","","","","","","","50","","","","","","","","","","","","","","","","","","","","","","","","","","",""
"3061","","<div style=""width:500px;"">
  <p>How much control did you have over the ball?</p>
  </div>","100","html-slider-response","70","858630","0.0-7.0-2.11","110","1","2025-07-31 13:01:45","36c45c0696341be0efffe67d72a12abb","194.176.233.84","Mozilla/5.0 (Windows NT 10.0; Win64; x64) AppleWebKit/537.36 (KHTML, like Gecko) Chrome/138.0.0.0 Safari/537.36","WebKit","Chrome","138.0.0.0","Windows","10.0","https://app.prolific.com/","hu-HU,hu;q=0.9,en-US;q=0.8,en;q=0.7","61717173748006894b2b54ff","687a19d2168e237449fb8af4","688b5ef37b94071a3664b36c","0","61717173748006894b2b54ff","0","2025-07-31T13:16:04.674Z","","","","ControlQ","","","","","","","","","","","50","","","","","","","","","","","","","","","","","","","","","","","","","","",""
"1434","","<div style=""width:500px;"">
  <p>How would you describe your current emotional state?</p>
  </div>","28","html-slider-response","71","860065","0.0-7.0-3.11","110","1","2025-07-31 13:01:45","36c45c0696341be0efffe67d72a12abb","194.176.233.84","Mozilla/5.0 (Windows NT 10.0; Win64; x64) AppleWebKit/537.36 (KHTML, like Gecko) Chrome/138.0.0.0 Safari/537.36","WebKit","Chrome","138.0.0.0","Windows","10.0","https://app.prolific.com/","hu-HU,hu;q=0.9,en-US;q=0.8,en;q=0.7","61717173748006894b2b54ff","687a19d2168e237449fb8af4","688b5ef37b94071a3664b36c","0","61717173748006894b2b54ff","0","2025-07-31T13:16:06.109Z","","","","StressQ","","","","","","","","","","","50","","","","","","","","","","","","","","","","","","","","","","","","","","",""
"2844","","<div style=""width:500px;"">
  <p>What best describes how you currently feel?</p>
  </div>","66","html-slider-response","72","862910","0.0-7.0-4.11","110","1","2025-07-31 13:01:45","36c45c0696341be0efffe67d72a12abb","194.176.233.84","Mozilla/5.0 (Windows NT 10.0; Win64; x64) AppleWebKit/537.36 (KHTML, like Gecko) Chrome/138.0.0.0 Safari/537.36","WebKit","Chrome","138.0.0.0","Windows","10.0","https://app.prolific.com/","hu-HU,hu;q=0.9,en-US;q=0.8,en;q=0.7","61717173748006894b2b54ff","687a19d2168e237449fb8af4","688b5ef37b94071a3664b36c","0","61717173748006894b2b54ff","0","2025-07-31T13:16:08.954Z","","","","MotivationQ","","","","","","","","","","","50","","","","","","","","","","","","","","","","","","","","","","","","","","",""
"","","","","ctl-task-cpt","73","896603","0.0-7.0-0.12","110","1","2025-07-31 13:01:45","36c45c0696341be0efffe67d72a12abb","194.176.233.84","Mozilla/5.0 (Windows NT 10.0; Win64; x64) AppleWebKit/537.36 (KHTML, like Gecko) Chrome/138.0.0.0 Safari/537.36","WebKit","Chrome","138.0.0.0","Windows","10.0","https://app.prolific.com/","hu-HU,hu;q=0.9,en-US;q=0.8,en;q=0.7","61717173748006894b2b54ff","687a19d2168e237449fb8af4","688b5ef37b94071a3664b36c","0","61717173748006894b2b54ff","0","2025-07-31T13:16:42.647Z","","","","","","","","","","","","","","","","win-only","0","g1:NW,g2:SE","0.8","13","0","864404.4","558.1","5560.5","30675","1","4","8","6","2","-8","-8","0","4","0","631.1","3000","-3005","[""down"",""right""]","{""num_key_presses"":8,""num_perfect"":6,""num_errors"":0,""num_randdir"":2,""num_randdir_good_moves"":0,""num_whilered"":0,""num_whileblue"":0,""num_blue"":0,""num_good_moves"":6}","[409.57142857142856,409.47767857142856,0.1,407.57142857142856,408.47767857142856,103.5,407.57142857142856,408.47767857142856,207.1,435.57142857142856,434.47767857142856,307.7,666.5714285714286,716.4776785714286,413.7,677.5714285714286,733.4776785714286,517,739.5714285714286,750.4776785714286,617.1,761.5714285714286,753.4776785714286,722.7,839.5714285714286,705.4776785714286,823.8,961.5714285714286,659.4776785714286,928,964.5714285714286,656.4776785714286,1028,964.5714285714286,656.4776785714286,1132.8,964.5714285714286,656.4776785714286,1233.4,964.5714285714286,656.4776785714286,1337.4,964.5714285714286,656.4776785714286,1437.8,964.5714285714286,656.4776785714286,1542.1,964.5714285714286,656.4776785714286,1642.5,964.5714285714286,656.4776785714286,1748,964.5714285714286,656.4776785714286,1853,964.5714285714286,656.4776785714286,1953.7,964.5714285714286,656.4776785714286,2053.7,964.5714285714286,656.4776785714286,2153.9,964.5714285714286,656.4776785714286,2257.6,964.5714285714286,656.4776785714286,2362.3,964.5714285714286,656.4776785714286,2462.4,964.5714285714286,656.4776785714286,2562.5,964.5714285714286,656.4776785714286,2662.7,964.5714285714286,656.4776785714286,2762.9,964.5714285714286,656.4776785714286,2867.9,964.5714285714286,656.4776785714286,2968,964.5714285714286,656.4776785714286,3072,964.5714285714286,656.4776785714286,3172.7,964.5714285714286,656.4776785714286,3273.4,964.5714285714286,656.4776785714286,3373.5,964.5714285714286,656.4776785714286,3477.6,964.5714285714286,656.4776785714286,3578,964.5714285714286,656.4776785714286,3682.9,964.5714285714286,656.4776785714286,3787.3,964.5714285714286,656.4776785714286,3887.7,964.5714285714286,656.4776785714286,3992.4,964.5714285714286,656.4776785714286,4093.2,964.5714285714286,656.4776785714286,4197.7,964.5714285714286,656.4776785714286,4298,964.5714285714286,656.4776785714286,4401.9,964.5714285714286,656.4776785714286,4503,964.5714285714286,656.4776785714286,4607.2,964.5714285714286,656.4776785714286,4708.3,964.5714285714286,656.4776785714286,4812.4,964.5714285714286,656.4776785714286,4912.5]","[1305.8,1305.8,1000,0,305.8,""smooth"",""right"",""right"",""good_move"",4100.4,2794.1,2504.5,1306.3,289.6,""smooth"",""down"",""down"",""good_move"",7198.5,3097.6,2838.2,4100.9,259.4,""oops"",""right"",""up"",""bad_move"",10169.4,2970.5,2736.4,7198.9,234.1,""smooth"",""down"",""down"",""good_move"",12800.7,2631,2337.5,10169.7,293.5,""smooth"",""down"",""down"",""good_move"",16398.6,3597.6,2610.1,12801,987.5,""oops"",""right"",""left"",""bad_move"",19789.7,3390.6,3109.2,16399.1,281.4,""smooth"",""right"",""right"",""good_move"",22604.8,2814.7,2550.3,19790.2,264.3,""smooth"",""right"",""right"",""good_move""]"
"1226","","<div style=""width:500px;"">
  <p>What determined the result of this run?</p>
