"rt","response_timestamp","stimulus","response","trial_type","trial_index","time_elapsed","internal_node_id","run_id","condition","recorded_at","source_code_version","ip","user_agent","device","browser","browser_version","platform","platform_version","referer","accept_language","PROLIFIC_PID","STUDY_ID","SESSION_ID","BATCH","prolific_id","batch","realtime","success","question_order","question_id","eventType","responses","item_order","radio_event_ids","radio_event_times","key_event_times","mouse_event_times","straightlining","zigzagging","honeypot","view_history","slider_start","which_type","canvas_config","goals_layout","control_level","trial_number","tutorial_trial_number","trial_start_time","phase1_start_time","phase2_start_time","phase3_start_time","goal_1_value","goal_1_distance","goal_2_value","goal_2_distance","goal_selected","outcome","outcome_total","participant_final_score","participant_initial_score","participant_final_score_prop","goal_choice_rt","allocated_time","allocated_time_remaining","goal_direction","counts","mouse_movements","key_presses"
"11432","1754478629914","<p style='font-size:40px;line-height:1.25'><strong>Welcome to the experiment!</strong></p><p style='font-size:1.1em;line-height:1.25'>Thank you for participanting in our experiment again! You will be asked to play the Dysfunctional Ball Game again. We will briefly recap the rules before we start.</p><p style='font-size:1.1em;line-height:1.25'>Press <strong>Next</strong> to continue.</p>","0","custom-html-button-response","0","11436","0.0-0.0","183","1","2025-08-06 11:10:16","36c45c0696341be0efffe67d72a12abb","196.15.217.218","Mozilla/5.0 (Windows NT 10.0; Win64; x64) AppleWebKit/537.36 (KHTML, like Gecko) Chrome/138.0.0.0 Safari/537.36","WebKit","Chrome","138.0.0.0","Windows","10.0","https://app.prolific.com/","en-US,en;q=0.9","61715a02a3c88f5fb082a424","687a1a965b9f5b85a264363e","689337f2b78515a834ed8c50","1","61715a02a3c88f5fb082a424","1","2025-08-06T11:10:29.916Z","","","","","","","","","","","","","","","","","","","","","","","","","","","","","","","","","","","","","","","","","",""
"8350","","","","fullscreen","1","20794","0.0-1.0","183","1","2025-08-06 11:10:16","36c45c0696341be0efffe67d72a12abb","196.15.217.218","Mozilla/5.0 (Windows NT 10.0; Win64; x64) AppleWebKit/537.36 (KHTML, like Gecko) Chrome/138.0.0.0 Safari/537.36","WebKit","Chrome","138.0.0.0","Windows","10.0","https://app.prolific.com/","en-US,en;q=0.9","61715a02a3c88f5fb082a424","687a1a965b9f5b85a264363e","689337f2b78515a834ed8c50","1","61715a02a3c88f5fb082a424","1","","true","","","","","","","","","","","","","","","","","","","","","","","","","","","","","","","","","","","","","","","","",""
"9462","1754478648739"," <p style='font-size:1.1em;line-height:1.25'>Thank you for closing all other tabs.</p><p style='font-size:1.1em;line-height:1.25'>We will now invite you to fill in some questionnaires, before starting the game.<br>This will take about 5 minutes.<br></p><p style='font-size:1.1em;line-height:1.25'>Press the <strong>Next</strong> button to continue.</p>","0","custom-html-button-response","2","30259","0.0-2.0","183","1","2025-08-06 11:10:16","36c45c0696341be0efffe67d72a12abb","196.15.217.218","Mozilla/5.0 (Windows NT 10.0; Win64; x64) AppleWebKit/537.36 (KHTML, like Gecko) Chrome/138.0.0.0 Safari/537.36","WebKit","Chrome","138.0.0.0","Windows","10.0","https://app.prolific.com/","en-US,en;q=0.9","61715a02a3c88f5fb082a424","687a1a965b9f5b85a264363e","689337f2b78515a834ed8c50","1","61715a02a3c88f5fb082a424","1","2025-08-06T11:10:48.740Z","","","","","","","","","","","","","","","","","","","","","","","","","","","","","","","","","","","","","","","","","",""
"1853","","","{""assigned_sex"":""female""}","survey-multi-choice","3","32116","0.0-3.0-0.0","183","1","2025-08-06 11:10:16","36c45c0696341be0efffe67d72a12abb","196.15.217.218","Mozilla/5.0 (Windows NT 10.0; Win64; x64) AppleWebKit/537.36 (KHTML, like Gecko) Chrome/138.0.0.0 Safari/537.36","WebKit","Chrome","138.0.0.0","Windows","10.0","https://app.prolific.com/","en-US,en;q=0.9","61715a02a3c88f5fb082a424","687a1a965b9f5b85a264363e","689337f2b78515a834ed8c50","1","61715a02a3c88f5fb082a424","1","","","[0]","0","demographics","","","","","","","","","","","","","","","","","","","","","","","","","","","","","","","","","","","","","",""
"8753","1754478659350","<p style='font-size:1.1em;line-height:1.25'>In the following, we will perform a baseline assessment. This means that we will ask you a few questions relating to your experiences over the past month.<br></p><p style='font-size:1.1em;line-height:1.25'>Press the <strong>Next</strong> button to continue.</p>","0","custom-html-button-response","4","40870","0.0-4.0-0.0","183","1","2025-08-06 11:10:16","36c45c0696341be0efffe67d72a12abb","196.15.217.218","Mozilla/5.0 (Windows NT 10.0; Win64; x64) AppleWebKit/537.36 (KHTML, like Gecko) Chrome/138.0.0.0 Safari/537.36","WebKit","Chrome","138.0.0.0","Windows","10.0","https://app.prolific.com/","en-US,en;q=0.9","61715a02a3c88f5fb082a424","687a1a965b9f5b85a264363e","689337f2b78515a834ed8c50","1","61715a02a3c88f5fb082a424","1","2025-08-06T11:10:59.351Z","","","","","","","","","","","","","","","","","","","","","","","","","","","","","","","","","","","","","","","","","",""
"227812.5","","","","survey-template","5","268688","0.0-4.0-1.0","183","1","2025-08-06 11:10:16","36c45c0696341be0efffe67d72a12abb","196.15.217.218","Mozilla/5.0 (Windows NT 10.0; Win64; x64) AppleWebKit/537.36 (KHTML, like Gecko) Chrome/138.0.0.0 Safari/537.36","WebKit","Chrome","138.0.0.0","Windows","10.0","https://app.prolific.com/","en-US,en;q=0.9","61715a02a3c88f5fb082a424","687a1a965b9f5b85a264363e","689337f2b78515a834ed8c50","1","61715a02a3c88f5fb082a424","1","2025-08-06T11:14:47.168Z","","","","pss","{""Q01"":""3"",""Q02"":""4"",""Q03"":""4"",""Q04"":""2"",""Q05"":""2"",""Q06"":""4"",""Q07"":""3"",""Q08"":""2"",""Q09"":""3"",""Q10"":""4""}","[0,1,2,3,4,5,6,7,8,9]","[""Q01"",""Q02"",""Q03"",""Q04"",""Q05"",""Q06"",""Q07"",""Q08"",""Q09"",""Q10""]","[19834.599999964237,25467.5,29839.399999976158,34926.09999996424,194335.5,200935.79999995232,207594.89999997616,213228.29999995232,221261,226847.69999998808]","[]","[0.19999998807907104,19834.599999964237,25467.5,29839.399999976158,34926.09999996424,194335.5,200935.79999995232,207594.89999997616,212628.09999996424,213228.29999995232,220457.59999996424,221261,226847.69999998808,227807.5]","0.4","0.4444444444444444","0","","","","","","","","","","","","","","","","","","","","","","","","","","","","",""
"5624","1754478892793","<p style='font-size:1.1em;line-height:1.25'>Thank you for your answers! Now we will ask you a few more questions relating to your feelings in the last 24 hours.<br></p><p style='font-size:1.1em;line-height:1.25'>Press the <strong>Next</strong> button to continue.</p>","0","custom-html-button-response","6","274314","0.0-4.0-2.0","183","1","2025-08-06 11:10:16","36c45c0696341be0efffe67d72a12abb","196.15.217.218","Mozilla/5.0 (Windows NT 10.0; Win64; x64) AppleWebKit/537.36 (KHTML, like Gecko) Chrome/138.0.0.0 Safari/537.36","WebKit","Chrome","138.0.0.0","Windows","10.0","https://app.prolific.com/","en-US,en;q=0.9","61715a02a3c88f5fb082a424","687a1a965b9f5b85a264363e","689337f2b78515a834ed8c50","1","61715a02a3c88f5fb082a424","1","2025-08-06T11:14:52.794Z","","","","","","","","","","","","","","","","","","","","","","","","","","","","","","","","","","","","","","","","","",""
"84340","","","","survey-template","7","358658","0.0-4.0-3.0","183","1","2025-08-06 11:10:16","36c45c0696341be0efffe67d72a12abb","196.15.217.218","Mozilla/5.0 (Windows NT 10.0; Win64; x64) AppleWebKit/537.36 (KHTML, like Gecko) Chrome/138.0.0.0 Safari/537.36","WebKit","Chrome","138.0.0.0","Windows","10.0","https://app.prolific.com/","en-US,en;q=0.9","61715a02a3c88f5fb082a424","687a1a965b9f5b85a264363e","689337f2b78515a834ed8c50","1","61715a02a3c88f5fb082a424","1","2025-08-06T11:16:17.138Z","","","","drsp","{""Q01"":""1"",""Q02"":""0"",""Q03"":""0"",""Q04"":""2"",""Q05"":""0"",""Q06"":""1"",""Q07"":""0"",""Q08"":""0"",""Q09"":""2"",""Q10"":""2"",""Q11"":""3"",""Q12"":""5"",""Q13"":""5"",""Q14"":""5"",""Q15"":""4"",""Q16"":""5"",""Q17"":""3"",""Q18"":""2"",""Q19"":""5"",""Q20"":""3"",""Q21"":""4"",""Q22"":""1""}","[0,1,2,3,4,5,6,7,8,9,10,11,12,13,14,15,16,17,18,19,20,21]","[""Q01"",""Q02"",""Q03"",""Q04"",""Q05"",""Q06"",""Q07"",""Q08"",""Q09"",""Q10"",""Q11"",""Q12"",""Q13"",""Q14"",""Q15"",""Q16"",""Q17"",""Q17"",""Q18"",""Q19"",""Q20"",""Q21"",""Q22""]","[6094.599999964237,9049.199999988079,11106.800000011921,13241.899999976158,15266.699999988079,17869.19999998808,19969.099999964237,24042,28407.19999998808,32455.899999976158,35326.89999997616,38726.39999997616,41676,44067.5,47823.30000001192,52047,54146.5,56433.19999998808,60319.09999996424,66347.5,71824.39999997616,77718.39999997616,82885.30000001192]","[]","[0,6094.599999964237,9049.199999988079,11106.800000011921,13241.899999976158,15266.699999988079,17869.19999998808,19969.099999964237,24042,27431.69999998808,28407.19999998808,32455.899999976158,35326.89999997616,38726.39999997616,41676,44067.5,47823.30000001192,52047,54146.5,56433.19999998808,59478.09999996424,60319.09999996424,66347.5,71824.39999997616,77718.39999997616,82885.30000001192,84333.59999996424]","0.22727272727272727","0.38095238095238093","0","","","","","","","","","","","","","","","","","","","","","","","","","","","","",""
"36613.80000001192","","","","survey-template","8","395274","0.0-4.0-4.0","183","1","2025-08-06 11:10:16","36c45c0696341be0efffe67d72a12abb","196.15.217.218","Mozilla/5.0 (Windows NT 10.0; Win64; x64) AppleWebKit/537.36 (KHTML, like Gecko) Chrome/138.0.0.0 Safari/537.36","WebKit","Chrome","138.0.0.0","Windows","10.0","https://app.prolific.com/","en-US,en;q=0.9","61715a02a3c88f5fb082a424","687a1a965b9f5b85a264363e","689337f2b78515a834ed8c50","1","61715a02a3c88f5fb082a424","1","2025-08-06T11:16:53.755Z","","","","stress","{""Q01"":""2"",""Q02"":""2"",""Q03"":""2""}","[0,1,2]","[""Q01"",""Q01"",""Q02"",""Q03""]","[11696.800000011921,15949.900000035763,21341.69999998808,35434.5]","[]","[11696.800000011921,15949.900000035763,21341.69999998808,33957.10000002384,34586.69999998808,35434.5,36612.40000003576]","0.6666666666666666","1","0","","","","","","","","","","","","","","","","","","","","","","","","","","","","",""
"41244","","","","instructions","9","436520","0.0-5.0-0.0","183","1","2025-08-06 11:10:16","36c45c0696341be0efffe67d72a12abb","196.15.217.218","Mozilla/5.0 (Windows NT 10.0; Win64; x64) AppleWebKit/537.36 (KHTML, like Gecko) Chrome/138.0.0.0 Safari/537.36","WebKit","Chrome","138.0.0.0","Windows","10.0","https://app.prolific.com/","en-US,en;q=0.9","61715a02a3c88f5fb082a424","687a1a965b9f5b85a264363e","689337f2b78515a834ed8c50","1","61715a02a3c88f5fb082a424","1","","","","","","","","","","","","","","","[{""page_index"":0,""viewing_time"":41244}]","","","","","","","","","","","","","","","","","","","","","","","","","","","",""
"18967","","<p>Before you start with this game please answer the following three questions yourself. </p>
  <p>Through this game, we measure several aspects of your cognitive performance, such as reaction times, multi-tasking capabilities </p>
  <p>and the ability to assess the situation you are in.</p>
  <p></p>
  <p><b>How good do you usually are in such tasks?</b></p>","89","html-slider-response","10","455489","0.0-6.0-0.0","183","1","2025-08-06 11:10:16","36c45c0696341be0efffe67d72a12abb","196.15.217.218","Mozilla/5.0 (Windows NT 10.0; Win64; x64) AppleWebKit/537.36 (KHTML, like Gecko) Chrome/138.0.0.0 Safari/537.36","WebKit","Chrome","138.0.0.0","Windows","10.0","https://app.prolific.com/","en-US,en;q=0.9","61715a02a3c88f5fb082a424","687a1a965b9f5b85a264363e","689337f2b78515a834ed8c50","1","61715a02a3c88f5fb082a424","1","2025-08-06T11:17:53.970Z","","","","PreSkillQ","","","","","","","","","","","50","","","","","","","","","","","","","","","","","","","","","","","","","","",""
"6748","","<div style=""width:500px;"">
  <p>How well do you think you will perform in this task compared to other participants?</p>
  </div>","73","html-slider-response","11","462240","0.0-6.0-1.0","183","1","2025-08-06 11:10:16","36c45c0696341be0efffe67d72a12abb","196.15.217.218","Mozilla/5.0 (Windows NT 10.0; Win64; x64) AppleWebKit/537.36 (KHTML, like Gecko) Chrome/138.0.0.0 Safari/537.36","WebKit","Chrome","138.0.0.0","Windows","10.0","https://app.prolific.com/","en-US,en;q=0.9","61715a02a3c88f5fb082a424","687a1a965b9f5b85a264363e","689337f2b78515a834ed8c50","1","61715a02a3c88f5fb082a424","1","2025-08-06T11:18:00.720Z","","","","PrePerfQ","","","","","","","","","","","50","","","","","","","","","","","","","","","","","","","","","","","","","","",""
"5524","","<div style=""width:500px;"">
  <p>What best describes how you currently feel?</p>
  </div>","40","html-slider-response","12","467766","0.0-6.0-2.0","183","1","2025-08-06 11:10:16","36c45c0696341be0efffe67d72a12abb","196.15.217.218","Mozilla/5.0 (Windows NT 10.0; Win64; x64) AppleWebKit/537.36 (KHTML, like Gecko) Chrome/138.0.0.0 Safari/537.36","WebKit","Chrome","138.0.0.0","Windows","10.0","https://app.prolific.com/","en-US,en;q=0.9","61715a02a3c88f5fb082a424","687a1a965b9f5b85a264363e","689337f2b78515a834ed8c50","1","61715a02a3c88f5fb082a424","1","2025-08-06T11:18:06.246Z","","","","PreMotivationQ","","","","","","","","","","","50","","","","","","","","","","","","","","","","","","","","","","","","","","",""
"","","","","ctl-task-cpt","13","488839","0.0-7.0-0.0","183","1","2025-08-06 11:10:16","36c45c0696341be0efffe67d72a12abb","196.15.217.218","Mozilla/5.0 (Windows NT 10.0; Win64; x64) AppleWebKit/537.36 (KHTML, like Gecko) Chrome/138.0.0.0 Safari/537.36","WebKit","Chrome","138.0.0.0","Windows","10.0","https://app.prolific.com/","en-US,en;q=0.9","61715a02a3c88f5fb082a424","687a1a965b9f5b85a264363e","689337f2b78515a834ed8c50","1","61715a02a3c88f5fb082a424","1","2025-08-06T11:18:27.319Z","","","","","","","","","","","","","","","","win-only","0","g1:NW,g2:SE","1","1","0","470911.7","2708.3","7714","18058","1","4","4","6","1","1","1","1","0","0.007575757575757576","5005.7","3000","1605","[""left"",""up""]","{""num_key_presses"":4,""num_perfect"":4,""num_errors"":0,""num_randdir"":0,""num_randdir_good_moves"":0,""num_whilered"":0,""num_whileblue"":0,""num_blue"":0,""num_good_moves"":4}","[420.3214133126395,416.57142761775424,1.3,420.3214133126395,416.57142761775424,105.1,420.3214133126395,416.57142761775424,206,420.3214133126395,416.57142761775424,306.7,414.0714133126395,416.57142761775424,408.7,414.0714133126395,416.57142761775424,514.2,414.0714133126395,416.57142761775424,623.1,414.0714133126395,416.57142761775424,730.6,414.0714133126395,416.57142761775424,830.7,414.0714133126395,416.57142761775424,933.4,414.0714133126395,416.57142761775424,1038.4,414.0714133126395,416.57142761775424,1138.7,414.0714133126395,416.57142761775424,1245,414.0714133126395,416.57142761775424,1347.8,414.0714133126395,416.57142761775424,1456.4,414.0714133126395,416.57142761775424,1559.1,414.0714133126395,416.57142761775424,1660.5,414.0714133126395,416.57142761775424,1762.3,414.0714133126395,416.57142761775424,1862.6,414.0714133126395,416.57142761775424,1969.4,414.0714133126395,416.57142761775424,2076.4,414.0714133126395,416.57142761775424,2177.7,414.0714133126395,416.57142761775424,2278.4,414.0714133126395,416.57142761775424,2383.7,414.0714133126395,416.57142761775424,2483.7,414.0714133126395,416.57142761775424,2585.9,414.0714133126395,416.57142761775424,2688.2,414.0714133126395,416.57142761775424,2792.8,414.0714133126395,416.57142761775424,2893.2,414.0714133126395,416.57142761775424,2998.5,414.0714133126395,416.57142761775424,3100.8,414.0714133126395,416.57142761775424,3202.5,414.0714133126395,416.57142761775424,3308.5,414.0714133126395,416.57142761775424,3408.8,414.0714133126395,416.57142761775424,3517.3,414.0714133126395,416.57142761775424,3618,414.0714133126395,416.57142761775424,3724,414.0714133126395,416.57142761775424,3824.8,414.0714133126395,416.57142761775424,3927.4,414.0714133126395,416.57142761775424,4032.7,414.0714133126395,416.57142761775424,4133.3,414.0714133126395,416.57142761775424,4241.2,414.0714133126395,416.57142761775424,4341.3,414.0714133126395,416.57142761775424,4441.3,414.0714133126395,416.57142761775424,4542.4,414.0714133126395,416.57142761775424,4649.3,414.0714133126395,416.57142761775424,4749.5,414.0714133126395,416.57142761775424,4856.2,414.0714133126395,416.57142761775424,4956.5]","[1386.1,1386.1,1000,0,386.1,""smooth"",""left"",""left"",""good_move"",4582.9,3196.2,2559,1386.8,637.1,""smooth"",""left"",""left"",""good_move"",7664.7,3081,2781.8,4583.8,299.1,""smooth"",""up"",""up"",""good_move"",10250.6,2585.3,2292.4,7665.3,292.9,""smooth"",""up"",""up"",""good_move""]"
"5963","","<div style=""width:500px;"">
  <p>What determined the result of this run?</p>
  </div>","100","html-slider-response","14","494804","0.0-7.0-1.0","183","1","2025-08-06 11:10:16","36c45c0696341be0efffe67d72a12abb","196.15.217.218","Mozilla/5.0 (Windows NT 10.0; Win64; x64) AppleWebKit/537.36 (KHTML, like Gecko) Chrome/138.0.0.0 Safari/537.36","WebKit","Chrome","138.0.0.0","Windows","10.0","https://app.prolific.com/","en-US,en;q=0.9","61715a02a3c88f5fb082a424","687a1a965b9f5b85a264363e","689337f2b78515a834ed8c50","1","61715a02a3c88f5fb082a424","1","2025-08-06T11:18:33.284Z","","","","AttribQ","","","","","","","","","","","50","","","","","","","","","","","","","","","","","","","","","","","","","","",""
"4626","","<div style=""width:500px;"">
  <p>How much control did you have over the ball?</p>
  </div>","100","html-slider-response","15","499432","0.0-7.0-2.0","183","1","2025-08-06 11:10:16","36c45c0696341be0efffe67d72a12abb","196.15.217.218","Mozilla/5.0 (Windows NT 10.0; Win64; x64) AppleWebKit/537.36 (KHTML, like Gecko) Chrome/138.0.0.0 Safari/537.36","WebKit","Chrome","138.0.0.0","Windows","10.0","https://app.prolific.com/","en-US,en;q=0.9","61715a02a3c88f5fb082a424","687a1a965b9f5b85a264363e","689337f2b78515a834ed8c50","1","61715a02a3c88f5fb082a424","1","2025-08-06T11:18:37.912Z","","","","ControlQ","","","","","","","","","","","50","","","","","","","","","","","","","","","","","","","","","","","","","","",""
"4963","","<div style=""width:500px;"">
  <p>How would you describe your current emotional state?</p>
  </div>","57","html-slider-response","16","504396","0.0-7.0-3.0","183","1","2025-08-06 11:10:16","36c45c0696341be0efffe67d72a12abb","196.15.217.218","Mozilla/5.0 (Windows NT 10.0; Win64; x64) AppleWebKit/537.36 (KHTML, like Gecko) Chrome/138.0.0.0 Safari/537.36","WebKit","Chrome","138.0.0.0","Windows","10.0","https://app.prolific.com/","en-US,en;q=0.9","61715a02a3c88f5fb082a424","687a1a965b9f5b85a264363e","689337f2b78515a834ed8c50","1","61715a02a3c88f5fb082a424","1","2025-08-06T11:18:42.877Z","","","","StressQ","","","","","","","","","","","50","","","","","","","","","","","","","","","","","","","","","","","","","","",""
"6126","","<div style=""width:500px;"">
  <p>What best describes how you currently feel?</p>
  </div>","73","html-slider-response","17","510524","0.0-7.0-4.0","183","1","2025-08-06 11:10:16","36c45c0696341be0efffe67d72a12abb","196.15.217.218","Mozilla/5.0 (Windows NT 10.0; Win64; x64) AppleWebKit/537.36 (KHTML, like Gecko) Chrome/138.0.0.0 Safari/537.36","WebKit","Chrome","138.0.0.0","Windows","10.0","https://app.prolific.com/","en-US,en;q=0.9","61715a02a3c88f5fb082a424","687a1a965b9f5b85a264363e","689337f2b78515a834ed8c50","1","61715a02a3c88f5fb082a424","1","2025-08-06T11:18:49.004Z","","","","MotivationQ","","","","","","","","","","","50","","","","","","","","","","","","","","","","","","","","","","","","","","",""
"","","","","ctl-task-cpt","18","542298","0.0-7.0-0.1","183","1","2025-08-06 11:10:16","36c45c0696341be0efffe67d72a12abb","196.15.217.218","Mozilla/5.0 (Windows NT 10.0; Win64; x64) AppleWebKit/537.36 (KHTML, like Gecko) Chrome/138.0.0.0 Safari/537.36","WebKit","Chrome","138.0.0.0","Windows","10.0","https://app.prolific.com/","en-US,en;q=0.9","61715a02a3c88f5fb082a424","687a1a965b9f5b85a264363e","689337f2b78515a834ed8c50","1","61715a02a3c88f5fb082a424","1","2025-08-06T11:19:20.778Z","","","","","","","","","","","","","","","","win-only","0","g1:NW,g2:SE","0.9","2","0","513664.4","2631.8","7638","28766.4","1","4","8","6","1","1","0","1","1","0.007575757575757576","1724.4","3000","1010","[""left"",""up""]","{""num_key_presses"":8,""num_perfect"":7,""num_errors"":1,""num_randdir"":0,""num_randdir_good_moves"":0,""num_whilered"":0,""num_whileblue"":1,""num_blue"":1,""num_good_moves"":6}","[421.5714133126395,416.57142761775424,0.6,421.5714133126395,416.57142761775424,107.1,421.5714133126395,416.57142761775424,213.3,421.5714133126395,416.57142761775424,316.3,421.5714133126395,416.57142761775424,420.4,785.3214133126395,749.0714276177542,524.3,794.0714133126395,765.3214276177542,626.6,794.0714133126395,765.3214276177542,730.5,794.0714133126395,765.3214276177542,835.1,794.0714133126395,765.3214276177542,935.4,794.0714133126395,765.3214276177542,1037.9,794.0714133126395,765.3214276177542,1141.9,629.0714133126395,711.5714276177542,1246.3,207.8214133126395,319.07142761775424,1346.7,81.5714133126395,95.32142761775425,1446.8,74.0714133126395,86.57142761775425,1550.4,60.32141331263951,75.32142761775425,1653.7,60.32141331263951,75.32142761775425,1754.4,61.57141331263951,76.57142761775425,1854.4,135.3214133126395,119.07142761775425,1954.7,186.5714133126395,141.57142761775424,2056.5,186.5714133126395,141.57142761775424,2162.1,186.5714133126395,141.57142761775424,2269.5,186.5714133126395,141.57142761775424,2378.4,186.5714133126395,141.57142761775424,2485.3,186.5714133126395,141.57142761775424,2586.6,186.5714133126395,141.57142761775424,2693.4,186.5714133126395,141.57142761775424,2793.6,186.5714133126395,141.57142761775424,2894.4,186.5714133126395,141.57142761775424,2994.7,186.5714133126395,141.57142761775424,3095.4,186.5714133126395,141.57142761775424,3200.7,186.5714133126395,141.57142761775424,3301,186.5714133126395,141.57142761775424,3409.5,186.5714133126395,141.57142761775424,3509.7,186.5714133126395,141.57142761775424,3617.9,186.5714133126395,141.57142761775424,3724.9,186.5714133126395,141.57142761775424,3832.7,186.5714133126395,141.57142761775424,3933.9,186.5714133126395,141.57142761775424,4034,186.5714133126395,141.57142761775424,4140.9,186.5714133126395,141.57142761775424,4247.9,186.5714133126395,141.57142761775424,4349.1,186.5714133126395,141.57142761775424,4449.6,186.5714133126395,141.57142761775424,4556,186.5714133126395,141.57142761775424,4656.5,186.5714133126395,141.57142761775424,4760.7,186.5714133126395,141.57142761775424,4864.3,186.5714133126395,141.57142761775424,4964.4]","[1360.8,1360.8,1000,0,360.8,""smooth"",""right"",""right"",""bad_move"",4143.7,2782.3,2492.3,1361.5,289.9,""smooth"",""left"",""left"",""good_move"",6614.5,2470.3,2092.7,4144.2,377.6,""smooth"",""left"",""left"",""good_move"",9743,3128.3,2829.1,6614.7,299.2,""smooth"",""left"",""left"",""good_move"",13266,3522.4,3231.9,9743.6,290.5,""smooth"",""up"",""up"",""good_move"",15498.7,2232,1967.6,13266.7,264.4,""while_blue"",""up"",""right"",""bad_move"",18304,2801.6,2402.1,15502.4,399.5,""smooth"",""left"",""left"",""good_move"",21007.2,2702.5,2369.5,18304.7,333,""smooth"",""up"",""up"",""good_move""]"
"4839","","<div style=""width:500px;"">
  <p>What determined the result of this run?</p>
  </div>","100","html-slider-response","19","547138","0.0-7.0-1.1","183","1","2025-08-06 11:10:16","36c45c0696341be0efffe67d72a12abb","196.15.217.218","Mozilla/5.0 (Windows NT 10.0; Win64; x64) AppleWebKit/537.36 (KHTML, like Gecko) Chrome/138.0.0.0 Safari/537.36","WebKit","Chrome","138.0.0.0","Windows","10.0","https://app.prolific.com/","en-US,en;q=0.9","61715a02a3c88f5fb082a424","687a1a965b9f5b85a264363e","689337f2b78515a834ed8c50","1","61715a02a3c88f5fb082a424","1","2025-08-06T11:19:25.619Z","","","","AttribQ","","","","","","","","","","","50","","","","","","","","","","","","","","","","","","","","","","","","","","",""
"4272","","<div style=""width:500px;"">
  <p>How much control did you have over the ball?</p>
  </div>","100","html-slider-response","20","551412","0.0-7.0-2.1","183","1","2025-08-06 11:10:16","36c45c0696341be0efffe67d72a12abb","196.15.217.218","Mozilla/5.0 (Windows NT 10.0; Win64; x64) AppleWebKit/537.36 (KHTML, like Gecko) Chrome/138.0.0.0 Safari/537.36","WebKit","Chrome","138.0.0.0","Windows","10.0","https://app.prolific.com/","en-US,en;q=0.9","61715a02a3c88f5fb082a424","687a1a965b9f5b85a264363e","689337f2b78515a834ed8c50","1","61715a02a3c88f5fb082a424","1","2025-08-06T11:19:29.893Z","","","","ControlQ","","","","","","","","","","","50","","","","","","","","","","","","","","","","","","","","","","","","","","",""
"4936","","<div style=""width:500px;"">
  <p>How would you describe your current emotional state?</p>
  </div>","65","html-slider-response","21","556350","0.0-7.0-3.1","183","1","2025-08-06 11:10:16","36c45c0696341be0efffe67d72a12abb","196.15.217.218","Mozilla/5.0 (Windows NT 10.0; Win64; x64) AppleWebKit/537.36 (KHTML, like Gecko) Chrome/138.0.0.0 Safari/537.36","WebKit","Chrome","138.0.0.0","Windows","10.0","https://app.prolific.com/","en-US,en;q=0.9","61715a02a3c88f5fb082a424","687a1a965b9f5b85a264363e","689337f2b78515a834ed8c50","1","61715a02a3c88f5fb082a424","1","2025-08-06T11:19:34.830Z","","","","StressQ","","","","","","","","","","","50","","","","","","","","","","","","","","","","","","","","","","","","","","",""
"4060","","<div style=""width:500px;"">
  <p>What best describes how you currently feel?</p>
  </div>","78","html-slider-response","22","560412","0.0-7.0-4.1","183","1","2025-08-06 11:10:16","36c45c0696341be0efffe67d72a12abb","196.15.217.218","Mozilla/5.0 (Windows NT 10.0; Win64; x64) AppleWebKit/537.36 (KHTML, like Gecko) Chrome/138.0.0.0 Safari/537.36","WebKit","Chrome","138.0.0.0","Windows","10.0","https://app.prolific.com/","en-US,en;q=0.9","61715a02a3c88f5fb082a424","687a1a965b9f5b85a264363e","689337f2b78515a834ed8c50","1","61715a02a3c88f5fb082a424","1","2025-08-06T11:19:38.892Z","","","","MotivationQ","","","","","","","","","","","50","","","","","","","","","","","","","","","","","","","","","","","","","","",""
"","","","","ctl-task-cpt","23","602443","0.0-7.0-0.2","183","1","2025-08-06 11:10:16","36c45c0696341be0efffe67d72a12abb","196.15.217.218","Mozilla/5.0 (Windows NT 10.0; Win64; x64) AppleWebKit/537.36 (KHTML, like Gecko) Chrome/138.0.0.0 Safari/537.36","WebKit","Chrome","138.0.0.0","Windows","10.0","https://app.prolific.com/","en-US,en;q=0.9","61715a02a3c88f5fb082a424","687a1a965b9f5b85a264363e","689337f2b78515a834ed8c50","1","61715a02a3c88f5fb082a424","1","2025-08-06T11:20:20.924Z","","","","","","","","","","","","","","","","win-only","3","g1:SW,g2:NE","0.8","3","0","563554.7","1679.4","6683.8","39024.8","1","4","4","6","2","-4","-6","0","1","0","1805.2","3000","-2625","[""up"",""right""]","{""num_key_presses"":10,""num_perfect"":6,""num_errors"":2,""num_randdir"":2,""num_randdir_good_moves"":0,""num_whilered"":0,""num_whileblue"":2,""num_blue"":3,""num_good_moves"":6}","[411.5714133126395,414.07142761775424,0.3,411.5714133126395,414.07142761775424,103.1,411.5714133126395,414.07142761775424,206.7,411.5714133126395,414.07142761775424,312.8,411.5714133126395,414.07142761775424,421.2,411.5714133126395,414.07142761775424,521.2,411.5714133126395,414.07142761775424,622.9,411.5714133126395,414.07142761775424,723.4,416.5714133126395,411.57142761775424,823.5,417.8214133126395,411.57142761775424,928.1,417.8214133126395,411.57142761775424,1028.8,440.3214133126395,396.57142761775424,1131.4,457.8214133126395,371.57142761775424,1232.8,491.5714133126395,340.32142761775424,1338.2,751.5714133126395,50.32142761775425,1445.5,754.0714133126395,47.82142761775425,1551.6,756.5714133126395,51.57142761775425,1655.4,756.5714133126395,62.82142761775425,1758,756.5714133126395,62.82142761775425,1861.1,757.8214133126395,64.07142761775425,1963,822.8214133126395,106.57142761775425,2068.6,836.5714133126395,116.57142761775425,2169.5,840.3214133126395,121.57142761775425,2270,840.3214133126395,121.57142761775425,2373.4,840.3214133126395,121.57142761775425,2474.3,840.3214133126395,121.57142761775425,2574.6,840.3214133126395,121.57142761775425,2676.5,840.3214133126395,121.57142761775425,2781.9,840.3214133126395,121.57142761775425,2883.6,840.3214133126395,121.57142761775425,2990.6,840.3214133126395,121.57142761775425,3091.4,840.3214133126395,121.57142761775425,3191.9,840.3214133126395,121.57142761775425,3292.2,840.3214133126395,121.57142761775425,3393.3,840.3214133126395,121.57142761775425,3497.4,840.3214133126395,121.57142761775425,3601.5,840.3214133126395,121.57142761775425,3708.6,840.3214133126395,121.57142761775425,3808.7,840.3214133126395,121.57142761775425,3909,840.3214133126395,121.57142761775425,4012.5,840.3214133126395,121.57142761775425,4121,840.3214133126395,121.57142761775425,4223.6,840.3214133126395,121.57142761775425,4325.7,840.3214133126395,121.57142761775425,4428.4,840.3214133126395,121.57142761775425,4529.3,840.3214133126395,121.57142761775425,4630,840.3214133126395,121.57142761775425,4732.8,840.3214133126395,121.57142761775425,4836.3,840.3214133126395,121.57142761775425,4938.1]","[4662.6,4662.6,2321.1,2002.6,338.9,""smooth"",""right"",""right"",""good_move"",7222.1,2558.5,1993.5,4663.6,565,""smooth"",""up"",""up"",""good_move"",10363.8,3141.3,2682.8,7222.5,458.6,""oops"",""up"",""left"",""bad_move"",13380.3,3015,2546.5,10365.3,468.5,""smooth"",""right"",""right"",""good_move"",16126.4,2745.9,2386.7,13380.5,359.3,""smooth"",""right"",""right"",""good_move"",19106,2979.2,2693.6,16126.8,285.6,""smooth"",""right"",""right"",""good_move"",21519.4,2413,2117.7,19106.4,295.3,""oops"",""up"",""down"",""bad_move"",23948.5,2428.5,2143.4,21520,285.1,""while_blue"",""up"",""down"",""bad_move"",26450.3,2501.2,1940.2,23949.1,561,""smooth"",""up"",""up"",""good_move"",29370.4,2919.7,2601.2,26450.7,318.5,""while_blue"",""up"",""down"",""bad_move""]"
"9718","","<div style=""width:500px;"">
  <p>What determined the result of this run?</p>
  </div>","26","html-slider-response","24","612164","0.0-7.0-1.2","183","1","2025-08-06 11:10:16","36c45c0696341be0efffe67d72a12abb","196.15.217.218","Mozilla/5.0 (Windows NT 10.0; Win64; x64) AppleWebKit/537.36 (KHTML, like Gecko) Chrome/138.0.0.0 Safari/537.36","WebKit","Chrome","138.0.0.0","Windows","10.0","https://app.prolific.com/","en-US,en;q=0.9","61715a02a3c88f5fb082a424","687a1a965b9f5b85a264363e","689337f2b78515a834ed8c50","1","61715a02a3c88f5fb082a424","1","2025-08-06T11:20:30.644Z","","","","AttribQ","","","","","","","","","","","50","","","","","","","","","","","","","","","","","","","","","","","","","","",""
"5456","","<div style=""width:500px;"">
  <p>How much control did you have over the ball?</p>
  </div>","24","html-slider-response","25","617621","0.0-7.0-2.2","183","1","2025-08-06 11:10:16","36c45c0696341be0efffe67d72a12abb","196.15.217.218","Mozilla/5.0 (Windows NT 10.0; Win64; x64) AppleWebKit/537.36 (KHTML, like Gecko) Chrome/138.0.0.0 Safari/537.36","WebKit","Chrome","138.0.0.0","Windows","10.0","https://app.prolific.com/","en-US,en;q=0.9","61715a02a3c88f5fb082a424","687a1a965b9f5b85a264363e","689337f2b78515a834ed8c50","1","61715a02a3c88f5fb082a424","1","2025-08-06T11:20:36.102Z","","","","ControlQ","","","","","","","","","","","50","","","","","","","","","","","","","","","","","","","","","","","","","","",""
"3200","","<div style=""width:500px;"">
  <p>How would you describe your current emotional state?</p>
  </div>","78","html-slider-response","26","620823","0.0-7.0-3.2","183","1","2025-08-06 11:10:16","36c45c0696341be0efffe67d72a12abb","196.15.217.218","Mozilla/5.0 (Windows NT 10.0; Win64; x64) AppleWebKit/537.36 (KHTML, like Gecko) Chrome/138.0.0.0 Safari/537.36","WebKit","Chrome","138.0.0.0","Windows","10.0","https://app.prolific.com/","en-US,en;q=0.9","61715a02a3c88f5fb082a424","687a1a965b9f5b85a264363e","689337f2b78515a834ed8c50","1","61715a02a3c88f5fb082a424","1","2025-08-06T11:20:39.304Z","","","","StressQ","","","","","","","","","","","50","","","","","","","","","","","","","","","","","","","","","","","","","","",""
"22768","","<div style=""width:500px;"">
  <p>What best describes how you currently feel?</p>
  </div>","82","html-slider-response","27","643593","0.0-7.0-4.2","183","1","2025-08-06 11:10:16","36c45c0696341be0efffe67d72a12abb","196.15.217.218","Mozilla/5.0 (Windows NT 10.0; Win64; x64) AppleWebKit/537.36 (KHTML, like Gecko) Chrome/138.0.0.0 Safari/537.36","WebKit","Chrome","138.0.0.0","Windows","10.0","https://app.prolific.com/","en-US,en;q=0.9","61715a02a3c88f5fb082a424","687a1a965b9f5b85a264363e","689337f2b78515a834ed8c50","1","61715a02a3c88f5fb082a424","1","2025-08-06T11:21:02.073Z","","","","MotivationQ","","","","","","","","","","","50","","","","","","","","","","","","","","","","","","","","","","","","","","",""
"","","","","ctl-task-cpt","28","670233","0.0-7.0-0.3","183","1","2025-08-06 11:10:16","36c45c0696341be0efffe67d72a12abb","196.15.217.218","Mozilla/5.0 (Windows NT 10.0; Win64; x64) AppleWebKit/537.36 (KHTML, like Gecko) Chrome/138.0.0.0 Safari/537.36","WebKit","Chrome","138.0.0.0","Windows","10.0","https://app.prolific.com/","en-US,en;q=0.9","61715a02a3c88f5fb082a424","687a1a965b9f5b85a264363e","689337f2b78515a834ed8c50","1","61715a02a3c88f5fb082a424","1","2025-08-06T11:21:28.713Z","","","","","","","","","","","","","","","","win-only","1","g1:NE,g2:SW","0.7","4","0","646733.9","2881.5","7887.5","23624.4","1","4","8","6","1","1","1","1","0","0.007575757575757576","2392.5","3000","975","[""up"",""right""]","{""num_key_presses"":6,""num_perfect"":4,""num_errors"":0,""num_randdir"":2,""num_randdir_good_moves"":1,""num_whilered"":0,""num_whileblue"":0,""num_blue"":0,""num_good_moves"":5}","[419.0714133126395,416.57142761775424,1.2,419.0714133126395,416.57142761775424,112.9,419.0714133126395,416.57142761775424,221.5,419.0714133126395,416.57142761775424,338.3,416.5714133126395,416.57142761775424,458.5,416.5714133126395,416.57142761775424,560.3,416.5714133126395,416.57142761775424,665.7,416.5714133126395,416.57142761775424,776.5,416.5714133126395,416.57142761775424,884.9,416.5714133126395,416.57142761775424,986.9,416.5714133126395,416.57142761775424,1092.5,416.5714133126395,416.57142761775424,1209.2,416.5714133126395,416.57142761775424,1310.4,416.5714133126395,416.57142761775424,1415.3,416.5714133126395,416.57142761775424,1517,416.5714133126395,416.57142761775424,1624.6,416.5714133126395,416.57142761775424,1732,525.3214133126395,260.32142761775424,1860.7,586.5714133126395,191.57142761775424,1963.1,649.0714133126395,175.32142761775424,2068,746.5714133126395,136.57142761775424,2183.4,771.5714133126395,106.57142761775425,2291.9,771.5714133126395,99.07142761775425,2396.2,771.5714133126395,99.07142761775425,2502.1,771.5714133126395,99.07142761775425,2606,771.5714133126395,99.07142761775425,2708.2,771.5714133126395,99.07142761775425,2809.9,771.5714133126395,99.07142761775425,2911.7,771.5714133126395,99.07142761775425,3016.9,771.5714133126395,99.07142761775425,3119.1,771.5714133126395,99.07142761775425,3222.1,771.5714133126395,99.07142761775425,3341,771.5714133126395,99.07142761775425,3445.7,771.5714133126395,99.07142761775425,3547.8,771.5714133126395,99.07142761775425,3649.5,771.5714133126395,99.07142761775425,3759.8,771.5714133126395,99.07142761775425,3860,771.5714133126395,99.07142761775425,3965.7,771.5714133126395,99.07142761775425,4072.1,771.5714133126395,99.07142761775425,4175.3,771.5714133126395,99.07142761775425,4279.5,771.5714133126395,99.07142761775425,4381.6,771.5714133126395,99.07142761775425,4484.2,771.5714133126395,99.07142761775425,4584.2,771.5714133126395,99.07142761775425,4685.9,771.5714133126395,99.07142761775425,4791.5,771.5714133126395,99.07142761775425,4898.6,771.5714133126395,99.07142761775425,4998.8]","[1454.8,1454.8,1000,0,454.8,""smooth"",""right"",""right"",""good_move"",4083.5,2628.2,2210.4,1455.4,417.7,""smooth"",""right"",""right"",""good_move"",6844.9,2761.1,2393.4,4083.8,367.7,""oops"",""up"",""down"",""bad_move"",9817.6,2972,2603.4,6845.6,368.6,""smooth"",""up"",""up"",""good_move"",13226.4,3408.3,3105.5,9818.2,302.7,""smooth"",""up"",""up"",""good_move"",15647.6,2420.8,2078,13226.8,342.8,""oops"",""up"",""up"",""good_move""]"
"5295","","<div style=""width:500px;"">
  <p>What determined the result of this run?</p>
  </div>","82","html-slider-response","29","675529","0.0-7.0-1.3","183","1","2025-08-06 11:10:16","36c45c0696341be0efffe67d72a12abb","196.15.217.218","Mozilla/5.0 (Windows NT 10.0; Win64; x64) AppleWebKit/537.36 (KHTML, like Gecko) Chrome/138.0.0.0 Safari/537.36","WebKit","Chrome","138.0.0.0","Windows","10.0","https://app.prolific.com/","en-US,en;q=0.9","61715a02a3c88f5fb082a424","687a1a965b9f5b85a264363e","689337f2b78515a834ed8c50","1","61715a02a3c88f5fb082a424","1","2025-08-06T11:21:34.009Z","","","","AttribQ","","","","","","","","","","","50","","","","","","","","","","","","","","","","","","","","","","","","","","",""
"4324","","<div style=""width:500px;"">
  <p>How much control did you have over the ball?</p>
  </div>","20","html-slider-response","30","679855","0.0-7.0-2.3","183","1","2025-08-06 11:10:16","36c45c0696341be0efffe67d72a12abb","196.15.217.218","Mozilla/5.0 (Windows NT 10.0; Win64; x64) AppleWebKit/537.36 (KHTML, like Gecko) Chrome/138.0.0.0 Safari/537.36","WebKit","Chrome","138.0.0.0","Windows","10.0","https://app.prolific.com/","en-US,en;q=0.9","61715a02a3c88f5fb082a424","687a1a965b9f5b85a264363e","689337f2b78515a834ed8c50","1","61715a02a3c88f5fb082a424","1","2025-08-06T11:21:38.335Z","","","","ControlQ","","","","","","","","","","","50","","","","","","","","","","","","","","","","","","","","","","","","","","",""
"3988","","<div style=""width:500px;"">
  <p>How would you describe your current emotional state?</p>
  </div>","80","html-slider-response","31","683845","0.0-7.0-3.3","183","1","2025-08-06 11:10:16","36c45c0696341be0efffe67d72a12abb","196.15.217.218","Mozilla/5.0 (Windows NT 10.0; Win64; x64) AppleWebKit/537.36 (KHTML, like Gecko) Chrome/138.0.0.0 Safari/537.36","WebKit","Chrome","138.0.0.0","Windows","10.0","https://app.prolific.com/","en-US,en;q=0.9","61715a02a3c88f5fb082a424","687a1a965b9f5b85a264363e","689337f2b78515a834ed8c50","1","61715a02a3c88f5fb082a424","1","2025-08-06T11:21:42.326Z","","","","StressQ","","","","","","","","","","","50","","","","","","","","","","","","","","","","","","","","","","","","","","",""
"5152","","<div style=""width:500px;"">
  <p>What best describes how you currently feel?</p>
  </div>","67","html-slider-response","32","688998","0.0-7.0-4.3","183","1","2025-08-06 11:10:16","36c45c0696341be0efffe67d72a12abb","196.15.217.218","Mozilla/5.0 (Windows NT 10.0; Win64; x64) AppleWebKit/537.36 (KHTML, like Gecko) Chrome/138.0.0.0 Safari/537.36","WebKit","Chrome","138.0.0.0","Windows","10.0","https://app.prolific.com/","en-US,en;q=0.9","61715a02a3c88f5fb082a424","687a1a965b9f5b85a264363e","689337f2b78515a834ed8c50","1","61715a02a3c88f5fb082a424","1","2025-08-06T11:21:47.479Z","","","","MotivationQ","","","","","","","","","","","50","","","","","","","","","","","","","","","","","","","","","","","","","","",""
"","","","","ctl-task-cpt","33","712342","0.0-7.0-0.4","183","1","2025-08-06 11:10:16","36c45c0696341be0efffe67d72a12abb","196.15.217.218","Mozilla/5.0 (Windows NT 10.0; Win64; x64) AppleWebKit/537.36 (KHTML, like Gecko) Chrome/138.0.0.0 Safari/537.36","WebKit","Chrome","138.0.0.0","Windows","10.0","https://app.prolific.com/","en-US,en;q=0.9","61715a02a3c88f5fb082a424","687a1a965b9f5b85a264363e","689337f2b78515a834ed8c50","1","61715a02a3c88f5fb082a424","1","2025-08-06T11:22:10.822Z","","","","","","","","","","","","","","","","win-only","0","g1:NW,g2:SE","0.6","5","0","692140.5","1384.8","6390.8","20319.8","1","4","8","6","1","1","1","2","1","0.015151515151515152","1843.9","3000","1640","[""left"",""up""]","{""num_key_presses"":4,""num_perfect"":2,""num_errors"":0,""num_randdir"":2,""num_randdir_good_moves"":2,""num_whilered"":0,""num_whileblue"":0,""num_blue"":1,""num_good_moves"":4}","[417.8214133126395,409.07142761775424,1.6,417.8214133126395,409.07142761775424,104,426.5714133126395,409.07142761775424,222.9,434.0714133126395,409.07142761775424,329.1,434.0714133126395,407.82142761775424,438.1,434.0714133126395,407.82142761775424,543.6,434.0714133126395,407.82142761775424,645.9,434.0714133126395,407.82142761775424,751.4,401.5714133126395,399.07142761775424,852.4,401.5714133126395,399.07142761775424,954.3,401.5714133126395,399.07142761775424,1060.9,397.8214133126395,399.07142761775424,1162.6,390.3214133126395,397.82142761775424,1267.1,241.5714133126395,356.57142761775424,1368.7,86.5714133126395,201.57142761775424,1481.3,71.5714133126395,157.82142761775424,1582.2,70.3214133126395,139.07142761775424,1690.7,81.5714133126395,90.32142761775425,1791.5,81.5714133126395,87.82142761775425,1894.5,111.5714133126395,96.57142761775425,2000.7,547.8214133126395,206.57142761775424,2102.8,567.8214133126395,214.07142761775424,2227.1,567.8214133126395,214.07142761775424,2330.8,567.8214133126395,214.07142761775424,2434.3,567.8214133126395,214.07142761775424,2536.8,567.8214133126395,214.07142761775424,2644.8,567.8214133126395,214.07142761775424,2748.9,567.8214133126395,214.07142761775424,2850.6,567.8214133126395,214.07142761775424,2957.9,567.8214133126395,214.07142761775424,3062.8,567.8214133126395,214.07142761775424,3165.1,567.8214133126395,214.07142761775424,3271.2,567.8214133126395,214.07142761775424,3373.3,567.8214133126395,214.07142761775424,3474.4,567.8214133126395,214.07142761775424,3582.4,567.8214133126395,214.07142761775424,3686.4,567.8214133126395,214.07142761775424,3789.9,567.8214133126395,214.07142761775424,3892.1,567.8214133126395,214.07142761775424,3996.8,567.8214133126395,214.07142761775424,4102.1,567.8214133126395,214.07142761775424,4203.7,567.8214133126395,214.07142761775424,4303.8,567.8214133126395,214.07142761775424,4405.3,567.8214133126395,214.07142761775424,4506.3,567.8214133126395,214.07142761775424,4611,567.8214133126395,214.07142761775424,4713.8,567.8214133126395,214.07142761775424,4817.8,567.8214133126395,214.07142761775424,4918.9]","[5446.9,5446.9,2964.6,2007.9,474.5,""smooth"",""up"",""up"",""good_move"",8325.9,2878.1,2336,5447.8,542.1,""oops"",""up"",""up"",""good_move"",10586.5,2260.3,1895.8,8326.2,364.5,""smooth"",""left"",""left"",""good_move"",13820.7,3233.7,2825.2,10587,408.5,""oops"",""left"",""left"",""good_move""]"
"5416","","<div style=""width:500px;"">
  <p>What determined the result of this run?</p>
  </div>","82","html-slider-response","34","717763","0.0-7.0-1.4","183","1","2025-08-06 11:10:16","36c45c0696341be0efffe67d72a12abb","196.15.217.218","Mozilla/5.0 (Windows NT 10.0; Win64; x64) AppleWebKit/537.36 (KHTML, like Gecko) Chrome/138.0.0.0 Safari/537.36","WebKit","Chrome","138.0.0.0","Windows","10.0","https://app.prolific.com/","en-US,en;q=0.9","61715a02a3c88f5fb082a424","687a1a965b9f5b85a264363e","689337f2b78515a834ed8c50","1","61715a02a3c88f5fb082a424","1","2025-08-06T11:22:16.245Z","","","","AttribQ","","","","","","","","","","","50","","","","","","","","","","","","","","","","","","","","","","","","","","",""
"3879","","<div style=""width:500px;"">
  <p>How much control did you have over the ball?</p>
  </div>","31","html-slider-response","35","721652","0.0-7.0-2.4","183","1","2025-08-06 11:10:16","36c45c0696341be0efffe67d72a12abb","196.15.217.218","Mozilla/5.0 (Windows NT 10.0; Win64; x64) AppleWebKit/537.36 (KHTML, like Gecko) Chrome/138.0.0.0 Safari/537.36","WebKit","Chrome","138.0.0.0","Windows","10.0","https://app.prolific.com/","en-US,en;q=0.9","61715a02a3c88f5fb082a424","687a1a965b9f5b85a264363e","689337f2b78515a834ed8c50","1","61715a02a3c88f5fb082a424","1","2025-08-06T11:22:20.133Z","","","","ControlQ","","","","","","","","","","","50","","","","","","","","","","","","","","","","","","","","","","","","","","",""
"4246","","<div style=""width:500px;"">
  <p>How would you describe your current emotional state?</p>
  </div>","80","html-slider-response","36","725902","0.0-7.0-3.4","183","1","2025-08-06 11:10:16","36c45c0696341be0efffe67d72a12abb","196.15.217.218","Mozilla/5.0 (Windows NT 10.0; Win64; x64) AppleWebKit/537.36 (KHTML, like Gecko) Chrome/138.0.0.0 Safari/537.36","WebKit","Chrome","138.0.0.0","Windows","10.0","https://app.prolific.com/","en-US,en;q=0.9","61715a02a3c88f5fb082a424","687a1a965b9f5b85a264363e","689337f2b78515a834ed8c50","1","61715a02a3c88f5fb082a424","1","2025-08-06T11:22:24.384Z","","","","StressQ","","","","","","","","","","","50","","","","","","","","","","","","","","","","","","","","","","","","","","",""
"4879","","<div style=""width:500px;"">
  <p>What best describes how you currently feel?</p>
  </div>","75","html-slider-response","37","730795","0.0-7.0-4.4","183","1","2025-08-06 11:10:16","36c45c0696341be0efffe67d72a12abb","196.15.217.218","Mozilla/5.0 (Windows NT 10.0; Win64; x64) AppleWebKit/537.36 (KHTML, like Gecko) Chrome/138.0.0.0 Safari/537.36","WebKit","Chrome","138.0.0.0","Windows","10.0","https://app.prolific.com/","en-US,en;q=0.9","61715a02a3c88f5fb082a424","687a1a965b9f5b85a264363e","689337f2b78515a834ed8c50","1","61715a02a3c88f5fb082a424","1","2025-08-06T11:22:29.276Z","","","","MotivationQ","","","","","","","","","","","50","","","","","","","","","","","","","","","","","","","","","","","","","","",""
"","","","","ctl-task-cpt","38","766957","0.0-7.0-0.5","183","1","2025-08-06 11:10:16","36c45c0696341be0efffe67d72a12abb","196.15.217.218","Mozilla/5.0 (Windows NT 10.0; Win64; x64) AppleWebKit/537.36 (KHTML, like Gecko) Chrome/138.0.0.0 Safari/537.36","WebKit","Chrome","138.0.0.0","Windows","10.0","https://app.prolific.com/","en-US,en;q=0.9","61715a02a3c88f5fb082a424","687a1a965b9f5b85a264363e","689337f2b78515a834ed8c50","1","61715a02a3c88f5fb082a424","1","2025-08-06T11:23:05.437Z","","","","","","","","","","","","","","","","win-only","3","g1:SW,g2:NE","0.5","6","0","733952.8","1268.7","6272.8","33122.9","1","4","4","6","1","-1","-1","1","2","0.007575757575757576","1392.2","3000","-2390","[""down"",""left""]","{""num_key_presses"":7,""num_perfect"":4,""num_errors"":0,""num_randdir"":3,""num_randdir_good_moves"":1,""num_whilered"":0,""num_whileblue"":0,""num_blue"":2,""num_good_moves"":5}","[410.3214133126395,417.82142761775424,0.4,412.8214133126395,417.82142761775424,100,416.5714133126395,417.82142761775424,205,416.5714133126395,417.82142761775424,305.2,416.5714133126395,417.82142761775424,411.3,436.5714133126395,400.32142761775424,511.4,446.5714133126395,389.07142761775424,612.1,447.8214133126395,389.07142761775424,716,444.0714133126395,392.82142761775424,817.5,341.5714133126395,512.8214276177542,924.2,165.3214133126395,646.5714276177542,1029.3,121.5714133126395,665.3214276177542,1131.5,92.8214133126395,711.5714276177542,1233.5,54.07141331263951,771.5714276177542,1336.5,54.07141331263951,771.5714276177542,1444.2,115.3214133126395,726.5714276177542,1565.4,317.8214133126395,675.3214276177542,1665.6,341.5714133126395,647.8214276177542,1768.7,341.5714133126395,647.8214276177542,1877,341.5714133126395,647.8214276177542,1980.6,341.5714133126395,647.8214276177542,2082.5,341.5714133126395,647.8214276177542,2185.6,341.5714133126395,647.8214276177542,2288.6,341.5714133126395,647.8214276177542,2391.4,341.5714133126395,647.8214276177542,2493.6,341.5714133126395,647.8214276177542,2595.7,341.5714133126395,647.8214276177542,2705.5,341.5714133126395,647.8214276177542,2808.7,341.5714133126395,647.8214276177542,2911.7,341.5714133126395,647.8214276177542,3013.8,341.5714133126395,647.8214276177542,3120,341.5714133126395,647.8214276177542,3223.5,341.5714133126395,647.8214276177542,3333.3,341.5714133126395,647.8214276177542,3438,341.5714133126395,647.8214276177542,3548.3,341.5714133126395,647.8214276177542,3658.9,341.5714133126395,647.8214276177542,3759.5,341.5714133126395,647.8214276177542,3864.6,341.5714133126395,647.8214276177542,3978.7,341.5714133126395,647.8214276177542,4087.2,341.5714133126395,647.8214276177542,4210,341.5714133126395,647.8214276177542,4312.2,341.5714133126395,647.8214276177542,4415.2,341.5714133126395,647.8214276177542,4515.6,341.5714133126395,647.8214276177542,4617.9,341.5714133126395,647.8214276177542,4724.4,341.5714133126395,647.8214276177542,4827.9,341.5714133126395,647.8214276177542,4931.6]","[1848.6,1848.6,1000,0,848.6,""oops"",""down"",""right"",""bad_move"",4540.1,2690.5,2207.5,1849.6,483,""smooth"",""left"",""left"",""good_move"",10506.3,5965.2,2236.9,7838.3,431.1,""oops"",""left"",""down"",""good_move"",17238.1,6730.2,2663.9,14143.4,430.9,""oops"",""left"",""right"",""bad_move"",19545.1,2305.4,1594.3,17239.7,711.1,""smooth"",""down"",""down"",""good_move"",21859.7,2313.8,1966.4,19546.1,347.3,""smooth"",""left"",""left"",""good_move"",24189,2328.1,1952.2,21860.9,375.9,""smooth"",""left"",""left"",""good_move""]"
"5587","","<div style=""width:500px;"">
  <p>What determined the result of this run?</p>
  </div>","51","html-slider-response","39","772547","0.0-7.0-1.5","183","1","2025-08-06 11:10:16","36c45c0696341be0efffe67d72a12abb","196.15.217.218","Mozilla/5.0 (Windows NT 10.0; Win64; x64) AppleWebKit/537.36 (KHTML, like Gecko) Chrome/138.0.0.0 Safari/537.36","WebKit","Chrome","138.0.0.0","Windows","10.0","https://app.prolific.com/","en-US,en;q=0.9","61715a02a3c88f5fb082a424","687a1a965b9f5b85a264363e","689337f2b78515a834ed8c50","1","61715a02a3c88f5fb082a424","1","2025-08-06T11:23:11.027Z","","","","AttribQ","","","","","","","","","","","50","","","","","","","","","","","","","","","","","","","","","","","","","","",""
"11214","","<div style=""width:500px;"">
  <p>How much control did you have over the ball?</p>
  </div>","77","html-slider-response","40","783764","0.0-7.0-2.5","183","1","2025-08-06 11:10:16","36c45c0696341be0efffe67d72a12abb","196.15.217.218","Mozilla/5.0 (Windows NT 10.0; Win64; x64) AppleWebKit/537.36 (KHTML, like Gecko) Chrome/138.0.0.0 Safari/537.36","WebKit","Chrome","138.0.0.0","Windows","10.0","https://app.prolific.com/","en-US,en;q=0.9","61715a02a3c88f5fb082a424","687a1a965b9f5b85a264363e","689337f2b78515a834ed8c50","1","61715a02a3c88f5fb082a424","1","2025-08-06T11:23:22.244Z","","","","ControlQ","","","","","","","","","","","50","","","","","","","","","","","","","","","","","","","","","","","","","","",""
"5470","","<div style=""width:500px;"">
  <p>How would you describe your current emotional state?</p>
  </div>","77","html-slider-response","41","789245","0.0-7.0-3.5","183","1","2025-08-06 11:10:16","36c45c0696341be0efffe67d72a12abb","196.15.217.218","Mozilla/5.0 (Windows NT 10.0; Win64; x64) AppleWebKit/537.36 (KHTML, like Gecko) Chrome/138.0.0.0 Safari/537.36","WebKit","Chrome","138.0.0.0","Windows","10.0","https://app.prolific.com/","en-US,en;q=0.9","61715a02a3c88f5fb082a424","687a1a965b9f5b85a264363e","689337f2b78515a834ed8c50","1","61715a02a3c88f5fb082a424","1","2025-08-06T11:23:27.726Z","","","","StressQ","","","","","","","","","","","50","","","","","","","","","","","","","","","","","","","","","","","","","","",""
"5228","","<div style=""width:500px;"">
  <p>What best describes how you currently feel?</p>
  </div>","77","html-slider-response","42","794483","0.0-7.0-4.5","183","1","2025-08-06 11:10:16","36c45c0696341be0efffe67d72a12abb","196.15.217.218","Mozilla/5.0 (Windows NT 10.0; Win64; x64) AppleWebKit/537.36 (KHTML, like Gecko) Chrome/138.0.0.0 Safari/537.36","WebKit","Chrome","138.0.0.0","Windows","10.0","https://app.prolific.com/","en-US,en;q=0.9","61715a02a3c88f5fb082a424","687a1a965b9f5b85a264363e","689337f2b78515a834ed8c50","1","61715a02a3c88f5fb082a424","1","2025-08-06T11:23:32.965Z","","","","MotivationQ","","","","","","","","","","","50","","","","","","","","","","","","","","","","","","","","","","","","","","",""
"","","","","ctl-task-cpt","43","836696","0.0-7.0-0.6","183","1","2025-08-06 11:10:16","36c45c0696341be0efffe67d72a12abb","196.15.217.218","Mozilla/5.0 (Windows NT 10.0; Win64; x64) AppleWebKit/537.36 (KHTML, like Gecko) Chrome/138.0.0.0 Safari/537.36","WebKit","Chrome","138.0.0.0","Windows","10.0","https://app.prolific.com/","en-US,en;q=0.9","61715a02a3c88f5fb082a424","687a1a965b9f5b85a264363e","689337f2b78515a834ed8c50","1","61715a02a3c88f5fb082a424","1","2025-08-06T11:24:15.176Z","","","","","","","","","","","","","","","","win-only","3","g1:SW,g2:NE","0.4","7","0","797636.6","9385.7","14387.8","39182.7","1","4","8","6","1","-1","-1","0","1","0","5001.8","3000","-2040","[""down"",""left""]","{""num_key_presses"":6,""num_perfect"":3,""num_errors"":0,""num_randdir"":3,""num_randdir_good_moves"":0,""num_whilered"":0,""num_whileblue"":0,""num_blue"":1,""num_good_moves"":3}","[415.3214133126395,421.57142761775424,1.3,415.3214133126395,421.57142761775424,109,415.3214133126395,421.57142761775424,214.5,415.3214133126395,421.57142761775424,317.9,415.3214133126395,421.57142761775424,419.7,415.3214133126395,421.57142761775424,523.9,415.3214133126395,421.57142761775424,628.2,415.3214133126395,421.57142761775424,730.1,415.3214133126395,421.57142761775424,833.9,415.3214133126395,421.57142761775424,937.5,415.3214133126395,421.57142761775424,1041,415.3214133126395,421.57142761775424,1147.8,415.3214133126395,421.57142761775424,1251.1,415.3214133126395,421.57142761775424,1360.2,415.3214133126395,421.57142761775424,1460.8,415.3214133126395,421.57142761775424,1562.5,415.3214133126395,421.57142761775424,1676.5,415.3214133126395,421.57142761775424,1777,415.3214133126395,421.57142761775424,1881.5,415.3214133126395,421.57142761775424,1981.9,415.3214133126395,421.57142761775424,2082.5,415.3214133126395,421.57142761775424,2189.3,415.3214133126395,421.57142761775424,2292.7,415.3214133126395,421.57142761775424,2394.3,415.3214133126395,421.57142761775424,2500.6,415.3214133126395,421.57142761775424,2606.4,415.3214133126395,421.57142761775424,2715.5,415.3214133126395,421.57142761775424,2816.4,415.3214133126395,421.57142761775424,2918,415.3214133126395,421.57142761775424,3022.3,415.3214133126395,421.57142761775424,3133.6,415.3214133126395,421.57142761775424,3239.5,415.3214133126395,421.57142761775424,3341.2,415.3214133126395,421.57142761775424,3441.4,415.3214133126395,421.57142761775424,3543.9,415.3214133126395,421.57142761775424,3645.1,415.3214133126395,421.57142761775424,3749.6,415.3214133126395,421.57142761775424,3856.5,415.3214133126395,421.57142761775424,3958.6,415.3214133126395,421.57142761775424,4061.6,415.3214133126395,421.57142761775424,4163.9,415.3214133126395,421.57142761775424,4265.2,415.3214133126395,421.57142761775424,4368.9,415.3214133126395,421.57142761775424,4473,415.3214133126395,421.57142761775424,4580.1,415.3214133126395,421.57142761775424,4681.4,415.3214133126395,421.57142761775424,4783.8,415.3214133126395,421.57142761775424,4890.4,415.3214133126395,421.57142761775424,4999]","[2861,2861.1,1000,0,1861.1,""oops"",""down"",""right"",""bad_move"",4991.4,2126.8,1807.9,2864.8,318.7,""smooth"",""down"",""down"",""good_move"",8207.3,3214.7,2846.6,4992.6,368.2,""smooth"",""down"",""down"",""good_move"",12165.4,3957.7,2763.3,8207.7,1194.4,""oops"",""left"",""right"",""bad_move"",19235.5,7069.2,3031.2,15826.1,378.2,""oops"",""left"",""up"",""bad_move"",21662.3,2424,2047.8,19238.3,376.2,""smooth"",""left"",""left"",""good_move""]"
"14896","","<div style=""width:500px;"">
  <p>What determined the result of this run?</p>
  </div>","2","html-slider-response","44","851597","0.0-7.0-1.6","183","1","2025-08-06 11:10:16","36c45c0696341be0efffe67d72a12abb","196.15.217.218","Mozilla/5.0 (Windows NT 10.0; Win64; x64) AppleWebKit/537.36 (KHTML, like Gecko) Chrome/138.0.0.0 Safari/537.36","WebKit","Chrome","138.0.0.0","Windows","10.0","https://app.prolific.com/","en-US,en;q=0.9","61715a02a3c88f5fb082a424","687a1a965b9f5b85a264363e","689337f2b78515a834ed8c50","1","61715a02a3c88f5fb082a424","1","2025-08-06T11:24:30.077Z","","","","AttribQ","","","","","","","","","","","50","","","","","","","","","","","","","","","","","","","","","","","","","","",""
"4551","","<div style=""width:500px;"">
  <p>How much control did you have over the ball?</p>
  </div>","16","html-slider-response","45","856150","0.0-7.0-2.6","183","1","2025-08-06 11:10:16","36c45c0696341be0efffe67d72a12abb","196.15.217.218","Mozilla/5.0 (Windows NT 10.0; Win64; x64) AppleWebKit/537.36 (KHTML, like Gecko) Chrome/138.0.0.0 Safari/537.36","WebKit","Chrome","138.0.0.0","Windows","10.0","https://app.prolific.com/","en-US,en;q=0.9","61715a02a3c88f5fb082a424","687a1a965b9f5b85a264363e","689337f2b78515a834ed8c50","1","61715a02a3c88f5fb082a424","1","2025-08-06T11:24:34.630Z","","","","ControlQ","","","","","","","","","","","50","","","","","","","","","","","","","","","","","","","","","","","","","","",""
"2534","","<div style=""width:500px;"">
  <p>How would you describe your current emotional state?</p>
  </div>","77","html-slider-response","46","858684","0.0-7.0-3.6","183","1","2025-08-06 11:10:16","36c45c0696341be0efffe67d72a12abb","196.15.217.218","Mozilla/5.0 (Windows NT 10.0; Win64; x64) AppleWebKit/537.36 (KHTML, like Gecko) Chrome/138.0.0.0 Safari/537.36","WebKit","Chrome","138.0.0.0","Windows","10.0","https://app.prolific.com/","en-US,en;q=0.9","61715a02a3c88f5fb082a424","687a1a965b9f5b85a264363e","689337f2b78515a834ed8c50","1","61715a02a3c88f5fb082a424","1","2025-08-06T11:24:37.165Z","","","","StressQ","","","","","","","","","","","50","","","","","","","","","","","","","","","","","","","","","","","","","","",""
"1791","","<div style=""width:500px;"">
  <p>What best describes how you currently feel?</p>
  </div>","87","html-slider-response","47","860477","0.0-7.0-4.6","183","1","2025-08-06 11:10:16","36c45c0696341be0efffe67d72a12abb","196.15.217.218","Mozilla/5.0 (Windows NT 10.0; Win64; x64) AppleWebKit/537.36 (KHTML, like Gecko) Chrome/138.0.0.0 Safari/537.36","WebKit","Chrome","138.0.0.0","Windows","10.0","https://app.prolific.com/","en-US,en;q=0.9","61715a02a3c88f5fb082a424","687a1a965b9f5b85a264363e","689337f2b78515a834ed8c50","1","61715a02a3c88f5fb082a424","1","2025-08-06T11:24:38.957Z","","","","MotivationQ","","","","","","","","","","","50","","","","","","","","","","","","","","","","","","","","","","","","","","",""
"","","","","ctl-task-cpt","48","909812","0.0-7.0-0.7","183","1","2025-08-06 11:10:16","36c45c0696341be0efffe67d72a12abb","196.15.217.218","Mozilla/5.0 (Windows NT 10.0; Win64; x64) AppleWebKit/537.36 (KHTML, like Gecko) Chrome/138.0.0.0 Safari/537.36","WebKit","Chrome","138.0.0.0","Windows","10.0","https://app.prolific.com/","en-US,en;q=0.9","61715a02a3c88f5fb082a424","687a1a965b9f5b85a264363e","689337f2b78515a834ed8c50","1","61715a02a3c88f5fb082a424","1","2025-08-06T11:25:28.292Z","","","","","","","","","","","","","","","","win-only","2","g1:SE,g2:NW","0.3","8","0","863617.9","1255.5","6260.4","46299.5","1","4","4","6","1","1","1","1","0","0.007575757575757576","1400.5","3000","980","[""down"",""right""]","{""num_key_presses"":8,""num_perfect"":2,""num_errors"":0,""num_randdir"":6,""num_randdir_good_moves"":4,""num_whilered"":0,""num_whileblue"":0,""num_blue"":4,""num_good_moves"":6}","[407.8214133126395,422.82142761775424,0.5,407.8214133126395,422.82142761775424,109.3,407.8214133126395,422.82142761775424,219.1,407.8214133126395,422.82142761775424,319.7,407.8214133126395,422.82142761775424,421.8,411.5714133126395,422.82142761775424,526.2,411.5714133126395,422.82142761775424,632.8,420.3214133126395,447.82142761775424,748.2,549.0714133126395,575.3214276177542,859.7,649.0714133126395,637.8214276177542,963.8,672.8214133126395,692.8214276177542,1075.4,712.8214133126395,777.8214276177542,1187.7,729.0714133126395,777.8214276177542,1290.1,750.3214133126395,775.3214276177542,1391.3,750.3214133126395,774.0714276177542,1503.7,750.3214133126395,771.5714276177542,1608.2,750.3214133126395,771.5714276177542,1715,747.8214133126395,769.0714276177542,1826.2,742.8214133126395,764.0714276177542,1936,742.8214133126395,764.0714276177542,2047.7,742.8214133126395,764.0714276177542,2156,742.8214133126395,764.0714276177542,2258.6,742.8214133126395,764.0714276177542,2361.9,742.8214133126395,764.0714276177542,2463.4,742.8214133126395,764.0714276177542,2571.8,742.8214133126395,764.0714276177542,2680.2,742.8214133126395,764.0714276177542,2781,742.8214133126395,764.0714276177542,2888.9,742.8214133126395,764.0714276177542,2992.9,742.8214133126395,764.0714276177542,3095.3,742.8214133126395,764.0714276177542,3200.6,742.8214133126395,764.0714276177542,3310.6,742.8214133126395,764.0714276177542,3418.7,742.8214133126395,764.0714276177542,3527.9,742.8214133126395,764.0714276177542,3636.3,742.8214133126395,764.0714276177542,3740.6,742.8214133126395,764.0714276177542,3850.9,742.8214133126395,764.0714276177542,3955.9,742.8214133126395,764.0714276177542,4059.7,742.8214133126395,764.0714276177542,4168.2,742.8214133126395,764.0714276177542,4279,742.8214133126395,764.0714276177542,4379.6,742.8214133126395,764.0714276177542,4487.6,742.8214133126395,764.0714276177542,4590.3,742.8214133126395,764.0714276177542,4693.5,742.8214133126395,764.0714276177542,4797.5,742.8214133126395,764.0714276177542,4901.2]","[1866.1,1866.1,1000,0,866.1,""oops"",""down"",""up"",""bad_move"",6694.8,4827.9,2709,1866.9,2118.9,""smooth"",""down"",""down"",""good_move"",17513.7,10818.5,2240.1,14900.4,373.2,""oops"",""down"",""down"",""good_move"",20694.3,3180.4,2767.4,17513.9,413,""oops"",""down"",""up"",""bad_move"",26683,5988.3,1713.8,24589.5,379.7,""oops"",""right"",""right"",""good_move"",30228.6,3545.3,2300.5,26683.3,1244.8,""smooth"",""right"",""right"",""good_move"",33463,3234.1,2876.4,30229,357.6,""oops"",""down"",""down"",""good_move"",39694.7,6231.4,2379.8,36892.1,422.8,""oops"",""down"",""down"",""good_move""]"
"4565","","<div style=""width:500px;"">
  <p>What determined the result of this run?</p>
  </div>","18","html-slider-response","49","914379","0.0-7.0-1.7","183","1","2025-08-06 11:10:16","36c45c0696341be0efffe67d72a12abb","196.15.217.218","Mozilla/5.0 (Windows NT 10.0; Win64; x64) AppleWebKit/537.36 (KHTML, like Gecko) Chrome/138.0.0.0 Safari/537.36","WebKit","Chrome","138.0.0.0","Windows","10.0","https://app.prolific.com/","en-US,en;q=0.9","61715a02a3c88f5fb082a424","687a1a965b9f5b85a264363e","689337f2b78515a834ed8c50","1","61715a02a3c88f5fb082a424","1","2025-08-06T11:25:32.859Z","","","","AttribQ","","","","","","","","","","","50","","","","","","","","","","","","","","","","","","","","","","","","","","",""
"5638","","<div style=""width:500px;"">
  <p>How much control did you have over the ball?</p>
  </div>","23","html-slider-response","50","920020","0.0-7.0-2.7","183","1","2025-08-06 11:10:16","36c45c0696341be0efffe67d72a12abb","196.15.217.218","Mozilla/5.0 (Windows NT 10.0; Win64; x64) AppleWebKit/537.36 (KHTML, like Gecko) Chrome/138.0.0.0 Safari/537.36","WebKit","Chrome","138.0.0.0","Windows","10.0","https://app.prolific.com/","en-US,en;q=0.9","61715a02a3c88f5fb082a424","687a1a965b9f5b85a264363e","689337f2b78515a834ed8c50","1","61715a02a3c88f5fb082a424","1","2025-08-06T11:25:38.500Z","","","","ControlQ","","","","","","","","","","","50","","","","","","","","","","","","","","","","","","","","","","","","","","",""
"4600","","<div style=""width:500px;"">
  <p>How would you describe your current emotional state?</p>
  </div>","66","html-slider-response","51","924625","0.0-7.0-3.7","183","1","2025-08-06 11:10:16","36c45c0696341be0efffe67d72a12abb","196.15.217.218","Mozilla/5.0 (Windows NT 10.0; Win64; x64) AppleWebKit/537.36 (KHTML, like Gecko) Chrome/138.0.0.0 Safari/537.36","WebKit","Chrome","138.0.0.0","Windows","10.0","https://app.prolific.com/","en-US,en;q=0.9","61715a02a3c88f5fb082a424","687a1a965b9f5b85a264363e","689337f2b78515a834ed8c50","1","61715a02a3c88f5fb082a424","1","2025-08-06T11:25:43.105Z","","","","StressQ","","","","","","","","","","","50","","","","","","","","","","","","","","","","","","","","","","","","","","",""
"3499","","<div style=""width:500px;"">
  <p>What best describes how you currently feel?</p>
  </div>","77","html-slider-response","52","928127","0.0-7.0-4.7","183","1","2025-08-06 11:10:16","36c45c0696341be0efffe67d72a12abb","196.15.217.218","Mozilla/5.0 (Windows NT 10.0; Win64; x64) AppleWebKit/537.36 (KHTML, like Gecko) Chrome/138.0.0.0 Safari/537.36","WebKit","Chrome","138.0.0.0","Windows","10.0","https://app.prolific.com/","en-US,en;q=0.9","61715a02a3c88f5fb082a424","687a1a965b9f5b85a264363e","689337f2b78515a834ed8c50","1","61715a02a3c88f5fb082a424","1","2025-08-06T11:25:46.607Z","","","","MotivationQ","","","","","","","","","","","50","","","","","","","","","","","","","","","","","","","","","","","","","","",""
"","","","","ctl-task-cpt","53","993508","0.0-7.0-0.8","183","1","2025-08-06 11:10:16","36c45c0696341be0efffe67d72a12abb","196.15.217.218","Mozilla/5.0 (Windows NT 10.0; Win64; x64) AppleWebKit/537.36 (KHTML, like Gecko) Chrome/138.0.0.0 Safari/537.36","WebKit","Chrome","138.0.0.0","Windows","10.0","https://app.prolific.com/","en-US,en;q=0.9","61715a02a3c88f5fb082a424","687a1a965b9f5b85a264363e","689337f2b78515a834ed8c50","1","61715a02a3c88f5fb082a424","1","2025-08-06T11:26:51.988Z","","","","","","","","","","","","","","","","win-only","3","g1:SW,g2:NE","0.4","9","0","931269.2","1677.7","6685","62360.4","1","4","8","6","2","-8","-9","0","1","0","2977.8","3000","-1265","[""up"",""right""]","{""num_key_presses"":18,""num_perfect"":7,""num_errors"":1,""num_randdir"":10,""num_randdir_good_moves"":3,""num_whilered"":0,""num_whileblue"":1,""num_blue"":2,""num_good_moves"":11}","[412.8214133126395,417.82142761775424,0.4,412.8214133126395,417.82142761775424,103.1,427.8214133126395,419.07142761775424,212.2,597.8214133126395,439.07142761775424,321.4,615.3214133126395,439.07142761775424,431.2,615.3214133126395,441.57142761775424,535.3,614.0714133126395,441.57142761775424,635.5,612.8214133126395,446.57142761775424,749.3,575.3214133126395,472.82142761775424,859,335.3214133126395,632.8214276177542,969,96.5714133126395,760.3214276177542,1073.9,84.0714133126395,771.5714276177542,1182.3,81.5714133126395,771.5714276177542,1285.4,80.3214133126395,771.5714276177542,1386.5,80.3214133126395,771.5714276177542,1502.2,80.3214133126395,771.5714276177542,1614.1,80.3214133126395,771.5714276177542,1724.8,80.3214133126395,771.5714276177542,1831.4,80.3214133126395,771.5714276177542,1934.7,80.3214133126395,771.5714276177542,2042.1,80.3214133126395,771.5714276177542,2143.9,419.0714133126395,430.32142761775424,2256.4,626.5714133126395,245.32142761775424,2362.6,664.0714133126395,226.57142761775424,2471.5,711.5714133126395,186.57142761775424,2579.5,734.0714133126395,141.57142761775424,2683.1,740.3214133126395,131.57142761775424,2788.6,797.8214133126395,85.32142761775425,2889.6,802.8214133126395,81.57142761775425,2996.9,802.8214133126395,81.57142761775425,3102.7,802.8214133126395,81.57142761775425,3212.5,842.8214133126395,92.82142761775425,3313.1,856.5714133126395,97.82142761775425,3417.5,856.5714133126395,97.82142761775425,3524.4,856.5714133126395,97.82142761775425,3629.3,856.5714133126395,97.82142761775425,3740.1,856.5714133126395,97.82142761775425,3840.1,856.5714133126395,97.82142761775425,3949.1,856.5714133126395,97.82142761775425,4057.3,856.5714133126395,97.82142761775425,4167.4,856.5714133126395,97.82142761775425,4272.5,856.5714133126395,97.82142761775425,4373,856.5714133126395,97.82142761775425,4475.7,856.5714133126395,97.82142761775425,4580.6,856.5714133126395,97.82142761775425,4680.8,856.5714133126395,97.82142761775425,4787.2,856.5714133126395,97.82142761775425,4890.8,856.5714133126395,97.82142761775425,4993.1]","[5381,5381,3003.7,2002.2,375.1,""smooth"",""up"",""up"",""good_move"",8896.7,3514.9,2458.3,5381.8,1056.6,""smooth"",""right"",""right"",""good_move"",11754.7,2857.6,2242.8,8897.1,614.8,""oops"",""up"",""left"",""bad_move"",14700.2,2944.9,2556.9,11755.3,388,""oops"",""right"",""down"",""bad_move"",17393.3,2692.7,2346,14700.6,346.7,""smooth"",""right"",""right"",""good_move"",19913.8,2520.3,2126.8,17393.5,393.5,""oops"",""right"",""down"",""bad_move"",22236.6,2322.4,1977,19914.2,345.4,""oops"",""right"",""right"",""good_move"",24600.8,2364,1940.1,22236.8,423.9,""while_blue"",""right"",""right"",""good_move"",27074.2,2473,2128.6,24601.2,344.4,""oops"",""up"",""down"",""bad_move"",29682.5,2608.1,2217.7,27074.5,390.4,""oops"",""up"",""left"",""bad_move"",32667.7,2984.4,2633,29683.3,351.4,""smooth"",""up"",""up"",""good_move"",35221.1,2552.6,1952,32668.5,600.6,""oops"",""up"",""right"",""good_move"",38359.2,3137.8,2789.4,35221.4,348.4,""smooth"",""up"",""up"",""good_move"",42055.3,3695.8,3299,38359.5,396.8,""oops"",""up"",""down"",""bad_move"",45323.3,3267.6,2891.9,42055.7,375.7,""oops"",""up"",""up"",""good_move"",48076.8,2753.3,2365.9,45323.5,387.4,""oops"",""up"",""down"",""bad_move"",50386.4,2309.4,1804.1,48077,505.3,""smooth"",""up"",""up"",""good_move"",52715.6,2328.5,2028.9,50387.2,299.5,""smooth"",""up"",""up"",""good_move""]"
"6789","","<div style=""width:500px;"">
  <p>What determined the result of this run?</p>
  </div>","1","html-slider-response","54","1000298","0.0-7.0-1.8","183","1","2025-08-06 11:10:16","36c45c0696341be0efffe67d72a12abb","196.15.217.218","Mozilla/5.0 (Windows NT 10.0; Win64; x64) AppleWebKit/537.36 (KHTML, like Gecko) Chrome/138.0.0.0 Safari/537.36","WebKit","Chrome","138.0.0.0","Windows","10.0","https://app.prolific.com/","en-US,en;q=0.9","61715a02a3c88f5fb082a424","687a1a965b9f5b85a264363e","689337f2b78515a834ed8c50","1","61715a02a3c88f5fb082a424","1","2025-08-06T11:26:58.778Z","","","","AttribQ","","","","","","","","","","","50","","","","","","","","","","","","","","","","","","","","","","","","","","",""
"4550","","<div style=""width:500px;"">
  <p>How much control did you have over the ball?</p>
  </div>","0","html-slider-response","55","1004849","0.0-7.0-2.8","183","1","2025-08-06 11:10:16","36c45c0696341be0efffe67d72a12abb","196.15.217.218","Mozilla/5.0 (Windows NT 10.0; Win64; x64) AppleWebKit/537.36 (KHTML, like Gecko) Chrome/138.0.0.0 Safari/537.36","WebKit","Chrome","138.0.0.0","Windows","10.0","https://app.prolific.com/","en-US,en;q=0.9","61715a02a3c88f5fb082a424","687a1a965b9f5b85a264363e","689337f2b78515a834ed8c50","1","61715a02a3c88f5fb082a424","1","2025-08-06T11:27:03.329Z","","","","ControlQ","","","","","","","","","","","50","","","","","","","","","","","","","","","","","","","","","","","","","","",""
"5362","","<div style=""width:500px;"">
  <p>How would you describe your current emotional state?</p>
  </div>","63","html-slider-response","56","1010212","0.0-7.0-3.8","183","1","2025-08-06 11:10:16","36c45c0696341be0efffe67d72a12abb","196.15.217.218","Mozilla/5.0 (Windows NT 10.0; Win64; x64) AppleWebKit/537.36 (KHTML, like Gecko) Chrome/138.0.0.0 Safari/537.36","WebKit","Chrome","138.0.0.0","Windows","10.0","https://app.prolific.com/","en-US,en;q=0.9","61715a02a3c88f5fb082a424","687a1a965b9f5b85a264363e","689337f2b78515a834ed8c50","1","61715a02a3c88f5fb082a424","1","2025-08-06T11:27:08.692Z","","","","StressQ","","","","","","","","","","","50","","","","","","","","","","","","","","","","","","","","","","","","","","",""
"2649","","<div style=""width:500px;"">
  <p>What best describes how you currently feel?</p>
  </div>","63","html-slider-response","57","1012862","0.0-7.0-4.8","183","1","2025-08-06 11:10:16","36c45c0696341be0efffe67d72a12abb","196.15.217.218","Mozilla/5.0 (Windows NT 10.0; Win64; x64) AppleWebKit/537.36 (KHTML, like Gecko) Chrome/138.0.0.0 Safari/537.36","WebKit","Chrome","138.0.0.0","Windows","10.0","https://app.prolific.com/","en-US,en;q=0.9","61715a02a3c88f5fb082a424","687a1a965b9f5b85a264363e","689337f2b78515a834ed8c50","1","61715a02a3c88f5fb082a424","1","2025-08-06T11:27:11.342Z","","","","MotivationQ","","","","","","","","","","","50","","","","","","","","","","","","","","","","","","","","","","","","","","",""
"","","","","ctl-task-cpt","58","1038129","0.0-7.0-0.9","183","1","2025-08-06 11:10:16","36c45c0696341be0efffe67d72a12abb","196.15.217.218","Mozilla/5.0 (Windows NT 10.0; Win64; x64) AppleWebKit/537.36 (KHTML, like Gecko) Chrome/138.0.0.0 Safari/537.36","WebKit","Chrome","138.0.0.0","Windows","10.0","https://app.prolific.com/","en-US,en;q=0.9","61715a02a3c88f5fb082a424","687a1a965b9f5b85a264363e","689337f2b78515a834ed8c50","1","61715a02a3c88f5fb082a424","1","2025-08-06T11:27:36.609Z","","","","","","","","","","","","","","","","win-only","0","g1:NW,g2:SE","0.5","10","0","1016002.3","1145","6155.9","22245.6","1","4","4","6","1","1","1","1","0","0.007575757575757576","2137.4","3000","2125","[""left"",""up""]","{""num_key_presses"":6,""num_perfect"":3,""num_errors"":0,""num_randdir"":3,""num_randdir_good_moves"":2,""num_whilered"":0,""num_whileblue"":0,""num_blue"":0,""num_good_moves"":5}","[409.0714133126395,416.57142761775424,0.1,409.0714133126395,416.57142761775424,108,409.0714133126395,416.57142761775424,213.8,409.0714133126395,416.57142761775424,326.8,409.0714133126395,416.57142761775424,429.2,411.5714133126395,411.57142761775424,533.1,444.0714133126395,409.07142761775424,647.5,457.8214133126395,409.07142761775424,756.7,457.8214133126395,409.07142761775424,870.1,457.8214133126395,409.07142761775424,978.9,457.8214133126395,409.07142761775424,1085.8,457.8214133126395,409.07142761775424,1190.3,456.5714133126395,406.57142761775424,1296.9,456.5714133126395,406.57142761775424,1401.2,456.5714133126395,406.57142761775424,1514.6,440.3214133126395,391.57142761775424,1629.2,302.8214133126395,321.57142761775424,1743.1,245.3214133126395,234.07142761775424,1850.3,172.8214133126395,132.82142761775424,1950.3,72.8214133126395,14.071427617754253,2059.4,72.8214133126395,14.071427617754253,2162.3,75.3214133126395,12.821427617754253,2263.8,77.8214133126395,12.821427617754253,2372.2,341.5714133126395,136.57142761775424,2472.5,486.5714133126395,185.32142761775424,2579.1,487.8214133126395,182.82142761775424,2683.5,487.8214133126395,182.82142761775424,2791.6,487.8214133126395,182.82142761775424,2895,487.8214133126395,182.82142761775424,3002.4,487.8214133126395,182.82142761775424,3113,487.8214133126395,182.82142761775424,3217.7,487.8214133126395,182.82142761775424,3327.3,487.8214133126395,182.82142761775424,3431.6,487.8214133126395,182.82142761775424,3542.9,487.8214133126395,182.82142761775424,3649.5,487.8214133126395,182.82142761775424,3760.8,487.8214133126395,182.82142761775424,3868.2,487.8214133126395,182.82142761775424,3968.9,487.8214133126395,182.82142761775424,4075.6,487.8214133126395,182.82142761775424,4179.1,487.8214133126395,182.82142761775424,4284.8,487.8214133126395,182.82142761775424,4393,487.8214133126395,182.82142761775424,4505.1,487.8214133126395,182.82142761775424,4618.1,487.8214133126395,182.82142761775424,4721,487.8214133126395,182.82142761775424,4824.6,487.8214133126395,182.82142761775424,4934.5]","[1521.7,1521.7,1000,0,521.7,""smooth"",""left"",""left"",""good_move"",4912.7,3390.3,2825.8,1522.4,564.5,""smooth"",""left"",""left"",""good_move"",7831.8,2918.8,2540.3,4913,378.5,""oops"",""up"",""up"",""good_move"",10376.9,2544.4,1428.1,7832.5,1116.3,""oops"",""up"",""right"",""bad_move"",13290.6,2913.1,2585.5,10377.5,327.6,""smooth"",""up"",""up"",""good_move"",15862.4,2571.1,2261.8,13291.4,309.2,""oops"",""left"",""left"",""good_move""]"
"6628","","<div style=""width:500px;"">
  <p>What determined the result of this run?</p>
  </div>","3","html-slider-response","59","1044758","0.0-7.0-1.9","183","1","2025-08-06 11:10:16","36c45c0696341be0efffe67d72a12abb","196.15.217.218","Mozilla/5.0 (Windows NT 10.0; Win64; x64) AppleWebKit/537.36 (KHTML, like Gecko) Chrome/138.0.0.0 Safari/537.36","WebKit","Chrome","138.0.0.0","Windows","10.0","https://app.prolific.com/","en-US,en;q=0.9","61715a02a3c88f5fb082a424","687a1a965b9f5b85a264363e","689337f2b78515a834ed8c50","1","61715a02a3c88f5fb082a424","1","2025-08-06T11:27:43.238Z","","","","AttribQ","","","","","","","","","","","50","","","","","","","","","","","","","","","","","","","","","","","","","","",""
"4835","","<div style=""width:500px;"">
  <p>How much control did you have over the ball?</p>
  </div>","8","html-slider-response","60","1049594","0.0-7.0-2.9","183","1","2025-08-06 11:10:16","36c45c0696341be0efffe67d72a12abb","196.15.217.218","Mozilla/5.0 (Windows NT 10.0; Win64; x64) AppleWebKit/537.36 (KHTML, like Gecko) Chrome/138.0.0.0 Safari/537.36","WebKit","Chrome","138.0.0.0","Windows","10.0","https://app.prolific.com/","en-US,en;q=0.9","61715a02a3c88f5fb082a424","687a1a965b9f5b85a264363e","689337f2b78515a834ed8c50","1","61715a02a3c88f5fb082a424","1","2025-08-06T11:27:48.074Z","","","","ControlQ","","","","","","","","","","","50","","","","","","","","","","","","","","","","","","","","","","","","","","",""
"4140","","<div style=""width:500px;"">
  <p>How would you describe your current emotional state?</p>
  </div>","68","html-slider-response","61","1053736","0.0-7.0-3.9","183","1","2025-08-06 11:10:16","36c45c0696341be0efffe67d72a12abb","196.15.217.218","Mozilla/5.0 (Windows NT 10.0; Win64; x64) AppleWebKit/537.36 (KHTML, like Gecko) Chrome/138.0.0.0 Safari/537.36","WebKit","Chrome","138.0.0.0","Windows","10.0","https://app.prolific.com/","en-US,en;q=0.9","61715a02a3c88f5fb082a424","687a1a965b9f5b85a264363e","689337f2b78515a834ed8c50","1","61715a02a3c88f5fb082a424","1","2025-08-06T11:27:52.216Z","","","","StressQ","","","","","","","","","","","50","","","","","","","","","","","","","","","","","","","","","","","","","","",""
"6545","","<div style=""width:500px;"">
  <p>What best describes how you currently feel?</p>
  </div>","31","html-slider-response","62","1060282","0.0-7.0-4.9","183","1","2025-08-06 11:10:16","36c45c0696341be0efffe67d72a12abb","196.15.217.218","Mozilla/5.0 (Windows NT 10.0; Win64; x64) AppleWebKit/537.36 (KHTML, like Gecko) Chrome/138.0.0.0 Safari/537.36","WebKit","Chrome","138.0.0.0","Windows","10.0","https://app.prolific.com/","en-US,en;q=0.9","61715a02a3c88f5fb082a424","687a1a965b9f5b85a264363e","689337f2b78515a834ed8c50","1","61715a02a3c88f5fb082a424","1","2025-08-06T11:27:58.762Z","","","","MotivationQ","","","","","","","","","","","50","","","","","","","","","","","","","","","","","","","","","","","","","","",""
"","","","","ctl-task-cpt","63","1096649","0.0-7.0-0.10","183","1","2025-08-06 11:10:16","36c45c0696341be0efffe67d72a12abb","196.15.217.218","Mozilla/5.0 (Windows NT 10.0; Win64; x64) AppleWebKit/537.36 (KHTML, like Gecko) Chrome/138.0.0.0 Safari/537.36","WebKit","Chrome","138.0.0.0","Windows","10.0","https://app.prolific.com/","en-US,en;q=0.9","61715a02a3c88f5fb082a424","687a1a965b9f5b85a264363e","689337f2b78515a834ed8c50","1","61715a02a3c88f5fb082a424","1","2025-08-06T11:28:35.129Z","","","","","","","","","","","","","","","","win-only","2","g1:SE,g2:NW","0.6","11","0","1063423.2","4070.9","9084.6","33337.4","1","4","8","6","2","-8","-8","0","1","0","5013.6","3000","-1035","[""left"",""up""]","{""num_key_presses"":6,""num_perfect"":3,""num_errors"":0,""num_randdir"":3,""num_randdir_good_moves"":1,""num_whilered"":0,""num_whileblue"":0,""num_blue"":0,""num_good_moves"":4}","[416.5714133126395,412.82142761775424,0.5,416.5714133126395,412.82142761775424,102.1,419.0714133126395,412.82142761775424,207.8,422.8214133126395,411.57142761775424,321.7,422.8214133126395,411.57142761775424,426.7,422.8214133126395,411.57142761775424,541.4,422.8214133126395,411.57142761775424,653.1,422.8214133126395,411.57142761775424,756.7,422.8214133126395,411.57142761775424,872.1,422.8214133126395,411.57142761775424,978.2,422.8214133126395,411.57142761775424,1087.7,422.8214133126395,411.57142761775424,1194.3,422.8214133126395,411.57142761775424,1304.4,422.8214133126395,411.57142761775424,1406.9,422.8214133126395,411.57142761775424,1508,422.8214133126395,411.57142761775424,1612.8,422.8214133126395,411.57142761775424,1719.1,422.8214133126395,411.57142761775424,1820.5,422.8214133126395,411.57142761775424,1930.9,422.8214133126395,411.57142761775424,2045.7,422.8214133126395,411.57142761775424,2149.9,422.8214133126395,411.57142761775424,2255.8,422.8214133126395,411.57142761775424,2356.9,422.8214133126395,411.57142761775424,2457.6,422.8214133126395,411.57142761775424,2564.9,422.8214133126395,411.57142761775424,2674.8,422.8214133126395,411.57142761775424,2782.2,422.8214133126395,411.57142761775424,2886.7,422.8214133126395,411.57142761775424,2996.5,422.8214133126395,411.57142761775424,3104.8,422.8214133126395,411.57142761775424,3214.8,422.8214133126395,411.57142761775424,3326.4,422.8214133126395,411.57142761775424,3433.3,422.8214133126395,411.57142761775424,3540.2,422.8214133126395,411.57142761775424,3644.6,422.8214133126395,411.57142761775424,3748.1,422.8214133126395,411.57142761775424,3850.4,422.8214133126395,411.57142761775424,3955.3,422.8214133126395,411.57142761775424,4063.2,422.8214133126395,411.57142761775424,4165.7,422.8214133126395,411.57142761775424,4268.5,422.8214133126395,411.57142761775424,4373.4,422.8214133126395,411.57142761775424,4484.2,422.8214133126395,411.57142761775424,4585.3,422.8214133126395,411.57142761775424,4692.5,422.8214133126395,411.57142761775424,4793.6,422.8214133126395,411.57142761775424,4898.1,422.8214133126395,411.57142761775424,4999.3]","[2388.4,2388.4,1000,0,1388.4,""oops"",""up"",""right"",""bad_move"",5727,3337.9,2128.9,2389.1,1209,""oops"",""up"",""down"",""bad_move"",9332.1,3604.7,2333.1,5727.4,1271.6,""smooth"",""left"",""left"",""good_move"",12509.2,3176.6,1547.6,9332.6,1629,""oops"",""left"",""left"",""good_move"",15452.8,2943.3,2045.7,12509.5,897.6,""smooth"",""left"",""left"",""good_move"",19825.5,4372.3,2669.4,15453.2,1702.9,""smooth"",""left"",""left"",""good_move""]"
"22017","","<div style=""width:500px;"">
  <p>What determined the result of this run?</p>
  </div>","3","html-slider-response","64","1118669","0.0-7.0-1.10","183","1","2025-08-06 11:10:16","36c45c0696341be0efffe67d72a12abb","196.15.217.218","Mozilla/5.0 (Windows NT 10.0; Win64; x64) AppleWebKit/537.36 (KHTML, like Gecko) Chrome/138.0.0.0 Safari/537.36","WebKit","Chrome","138.0.0.0","Windows","10.0","https://app.prolific.com/","en-US,en;q=0.9","61715a02a3c88f5fb082a424","687a1a965b9f5b85a264363e","689337f2b78515a834ed8c50","1","61715a02a3c88f5fb082a424","1","2025-08-06T11:28:57.149Z","","","","AttribQ","","","","","","","","","","","50","","","","","","","","","","","","","","","","","","","","","","","","","","",""
"1934","","<div style=""width:500px;"">
  <p>How much control did you have over the ball?</p>
  </div>","0","html-slider-response","65","1120604","0.0-7.0-2.10","183","1","2025-08-06 11:10:16","36c45c0696341be0efffe67d72a12abb","196.15.217.218","Mozilla/5.0 (Windows NT 10.0; Win64; x64) AppleWebKit/537.36 (KHTML, like Gecko) Chrome/138.0.0.0 Safari/537.36","WebKit","Chrome","138.0.0.0","Windows","10.0","https://app.prolific.com/","en-US,en;q=0.9","61715a02a3c88f5fb082a424","687a1a965b9f5b85a264363e","689337f2b78515a834ed8c50","1","61715a02a3c88f5fb082a424","1","2025-08-06T11:28:59.084Z","","","","ControlQ","","","","","","","","","","","50","","","","","","","","","","","","","","","","","","","","","","","","","","",""
"2248","","<div style=""width:500px;"">
  <p>How would you describe your current emotional state?</p>
  </div>","61","html-slider-response","66","1122853","0.0-7.0-3.10","183","1","2025-08-06 11:10:16","36c45c0696341be0efffe67d72a12abb","196.15.217.218","Mozilla/5.0 (Windows NT 10.0; Win64; x64) AppleWebKit/537.36 (KHTML, like Gecko) Chrome/138.0.0.0 Safari/537.36","WebKit","Chrome","138.0.0.0","Windows","10.0","https://app.prolific.com/","en-US,en;q=0.9","61715a02a3c88f5fb082a424","687a1a965b9f5b85a264363e","689337f2b78515a834ed8c50","1","61715a02a3c88f5fb082a424","1","2025-08-06T11:29:01.333Z","","","","StressQ","","","","","","","","","","","50","","","","","","","","","","","","","","","","","","","","","","","","","","",""
"2272","","<div style=""width:500px;"">
  <p>What best describes how you currently feel?</p>
  </div>","58","html-slider-response","67","1125126","0.0-7.0-4.10","183","1","2025-08-06 11:10:16","36c45c0696341be0efffe67d72a12abb","196.15.217.218","Mozilla/5.0 (Windows NT 10.0; Win64; x64) AppleWebKit/537.36 (KHTML, like Gecko) Chrome/138.0.0.0 Safari/537.36","WebKit","Chrome","138.0.0.0","Windows","10.0","https://app.prolific.com/","en-US,en;q=0.9","61715a02a3c88f5fb082a424","687a1a965b9f5b85a264363e","689337f2b78515a834ed8c50","1","61715a02a3c88f5fb082a424","1","2025-08-06T11:29:03.606Z","","","","MotivationQ","","","","","","","","","","","50","","","","","","","","","","","","","","","","","","","","","","","","","","",""
"","","","","ctl-task-cpt","68","1155407","0.0-7.0-0.11","183","1","2025-08-06 11:10:16","36c45c0696341be0efffe67d72a12abb","196.15.217.218","Mozilla/5.0 (Windows NT 10.0; Win64; x64) AppleWebKit/537.36 (KHTML, like Gecko) Chrome/138.0.0.0 Safari/537.36","WebKit","Chrome","138.0.0.0","Windows","10.0","https://app.prolific.com/","en-US,en;q=0.9","61715a02a3c88f5fb082a424","687a1a965b9f5b85a264363e","689337f2b78515a834ed8c50","1","61715a02a3c88f5fb082a424","1","2025-08-06T11:29:33.887Z","","","","","","","","","","","","","","","","win-only","3","g1:SW,g2:NE","0.7","12","0","1128266.7","1801.1","6809.8","27252","1","4","4","6","1","1","1","1","0","0.007575757575757576","4032.6","3000","2225","[""down"",""left""]","{""num_key_presses"":6,""num_perfect"":4,""num_errors"":0,""num_randdir"":2,""num_randdir_good_moves"":1,""num_whilered"":0,""num_whileblue"":0,""num_blue"":1,""num_good_moves"":5}","[422.8214133126395,415.32142761775424,0.3,422.8214133126395,415.32142761775424,113.4,422.8214133126395,415.32142761775424,222.1,429.0714133126395,405.32142761775424,334.7,434.0714133126395,366.57142761775424,436.5,430.3214133126395,336.57142761775424,549.7,430.3214133126395,336.57142761775424,655.6,430.3214133126395,336.57142761775424,760.6,430.3214133126395,336.57142761775424,869.3,430.3214133126395,336.57142761775424,972.2,430.3214133126395,336.57142761775424,1089.5,430.3214133126395,336.57142761775424,1194.2,430.3214133126395,336.57142761775424,1297.9,430.3214133126395,336.57142761775424,1407.3,430.3214133126395,336.57142761775424,1513,430.3214133126395,336.57142761775424,1631.6,430.3214133126395,336.57142761775424,1735.5,430.3214133126395,336.57142761775424,1843.5,430.3214133126395,336.57142761775424,1956.1,430.3214133126395,336.57142761775424,2070.3,430.3214133126395,336.57142761775424,2178.6,430.3214133126395,336.57142761775424,2279.1,430.3214133126395,336.57142761775424,2387.5,430.3214133126395,336.57142761775424,2490.5,430.3214133126395,336.57142761775424,2593.6,430.3214133126395,336.57142761775424,2701.3,430.3214133126395,336.57142761775424,2802.8,430.3214133126395,336.57142761775424,2910.2,430.3214133126395,336.57142761775424,3020.3,430.3214133126395,336.57142761775424,3136.9,231.5714133126395,479.07142761775424,3253.6,156.5714133126395,546.5714276177542,3356.2,46.57141331263951,600.3214276177542,3458.5,77.8214133126395,529.0714276177542,3559.4,82.8214133126395,530.3214276177542,3676.5,111.5714133126395,739.0714276177542,3791,110.3214133126395,725.3214276177542,3911,107.8214133126395,721.5714276177542,4021.2,107.8214133126395,721.5714276177542,4126.7,105.3214133126395,724.0714276177542,4242.9,104.0714133126395,724.0714276177542,4344.8,104.0714133126395,724.0714276177542,4449.3,104.0714133126395,724.0714276177542,4555.9,104.0714133126395,724.0714276177542,4659,104.0714133126395,724.0714276177542,4770.3,104.0714133126395,724.0714276177542,4876.5,104.0714133126395,724.0714276177542,4981]","[1612.4,1612.5,1000,0,612.5,""smooth"",""down"",""down"",""good_move"",4303,2689.8,2324.6,1613.2,365.2,""smooth"",""down"",""down"",""good_move"",6788.1,2484.7,2108,4303.4,376.7,""oops"",""left"",""right"",""bad_move"",9833.8,3045.4,2690.3,6788.4,355.1,""smooth"",""left"",""left"",""good_move"",12662.1,2827.6,2491,9834.5,336.6,""smooth"",""left"",""left"",""good_move"",20206.2,7543.9,2814.2,16951.8,440.2,""oops"",""left"",""left"",""good_move""]"
"22014","","<div style=""width:500px;"">
  <p>What determined the result of this run?</p>
  </div>","25","html-slider-response","69","1177423","0.0-7.0-1.11","183","1","2025-08-06 11:10:16","36c45c0696341be0efffe67d72a12abb","196.15.217.218","Mozilla/5.0 (Windows NT 10.0; Win64; x64) AppleWebKit/537.36 (KHTML, like Gecko) Chrome/138.0.0.0 Safari/537.36","WebKit","Chrome","138.0.0.0","Windows","10.0","https://app.prolific.com/","en-US,en;q=0.9","61715a02a3c88f5fb082a424","687a1a965b9f5b85a264363e","689337f2b78515a834ed8c50","1","61715a02a3c88f5fb082a424","1","2025-08-06T11:29:55.903Z","","","","AttribQ","","","","","","","","","","","50","","","","","","","","","","","","","","","","","","","","","","","","","","",""
"3103","","<div style=""width:500px;"">
  <p>How much control did you have over the ball?</p>
  </div>","12","html-slider-response","70","1180527","0.0-7.0-2.11","183","1","2025-08-06 11:10:16","36c45c0696341be0efffe67d72a12abb","196.15.217.218","Mozilla/5.0 (Windows NT 10.0; Win64; x64) AppleWebKit/537.36 (KHTML, like Gecko) Chrome/138.0.0.0 Safari/537.36","WebKit","Chrome","138.0.0.0","Windows","10.0","https://app.prolific.com/","en-US,en;q=0.9","61715a02a3c88f5fb082a424","687a1a965b9f5b85a264363e","689337f2b78515a834ed8c50","1","61715a02a3c88f5fb082a424","1","2025-08-06T11:29:59.008Z","","","","ControlQ","","","","","","","","","","","50","","","","","","","","","","","","","","","","","","","","","","","","","","",""
"3376","","<div style=""width:500px;"">
  <p>How would you describe your current emotional state?</p>
  </div>","59","html-slider-response","71","1183904","0.0-7.0-3.11","183","1","2025-08-06 11:10:16","36c45c0696341be0efffe67d72a12abb","196.15.217.218","Mozilla/5.0 (Windows NT 10.0; Win64; x64) AppleWebKit/537.36 (KHTML, like Gecko) Chrome/138.0.0.0 Safari/537.36","WebKit","Chrome","138.0.0.0","Windows","10.0","https://app.prolific.com/","en-US,en;q=0.9","61715a02a3c88f5fb082a424","687a1a965b9f5b85a264363e","689337f2b78515a834ed8c50","1","61715a02a3c88f5fb082a424","1","2025-08-06T11:30:02.384Z","","","","StressQ","","","","","","","","","","","50","","","","","","","","","","","","","","","","","","","","","","","","","","",""
"2293","","<div style=""width:500px;"">
  <p>What best describes how you currently feel?</p>
  </div>","65","html-slider-response","72","1186198","0.0-7.0-4.11","183","1","2025-08-06 11:10:16","36c45c0696341be0efffe67d72a12abb","196.15.217.218","Mozilla/5.0 (Windows NT 10.0; Win64; x64) AppleWebKit/537.36 (KHTML, like Gecko) Chrome/138.0.0.0 Safari/537.36","WebKit","Chrome","138.0.0.0","Windows","10.0","https://app.prolific.com/","en-US,en;q=0.9","61715a02a3c88f5fb082a424","687a1a965b9f5b85a264363e","689337f2b78515a834ed8c50","1","61715a02a3c88f5fb082a424","1","2025-08-06T11:30:04.678Z","","","","MotivationQ","","","","","","","","","","","50","","","","","","","","","","","","","","","","","","","","","","","","","","",""
"","","","","ctl-task-cpt","73","1218715","0.0-7.0-0.12","183","1","2025-08-06 11:10:16","36c45c0696341be0efffe67d72a12abb","196.15.217.218","Mozilla/5.0 (Windows NT 10.0; Win64; x64) AppleWebKit/537.36 (KHTML, like Gecko) Chrome/138.0.0.0 Safari/537.36","WebKit","Chrome","138.0.0.0","Windows","10.0","https://app.prolific.com/","en-US,en;q=0.9","61715a02a3c88f5fb082a424","687a1a965b9f5b85a264363e","689337f2b78515a834ed8c50","1","61715a02a3c88f5fb082a424","1","2025-08-06T11:30:37.195Z","","","","","","","","","","","","","","","","win-only","1","g1:NE,g2:SW","0.8","13","0","1189338.8","1047.7","6052.7","29491.3","1","4","4","6","1","1","1","2","1","0.015151515151515152","1316.5","3000","945","[""up"",""right""]","{""num_key_presses"":4,""num_perfect"":3,""num_errors"":0,""num_randdir"":1,""num_randdir_good_moves"":1,""num_whilered"":0,""num_whileblue"":0,""num_blue"":2,""num_good_moves"":4}","[411.5714133126395,407.82142761775424,0.3,411.5714133126395,407.82142761775424,107.3,411.5714133126395,407.82142761775424,215.1,411.5714133126395,407.82142761775424,320.9,411.5714133126395,407.82142761775424,450.1,431.5714133126395,386.57142761775424,570.8,497.8214133126395,362.82142761775424,690.4,615.3214133126395,289.07142761775424,793.3,681.5714133126395,204.07142761775424,897.4,706.5714133126395,174.07142761775424,998.4,722.8214133126395,145.32142761775424,1103.8,749.0714133126395,101.57142761775425,1222.2,756.5714133126395,81.57142761775425,1322.4,756.5714133126395,81.57142761775425,1443.4,756.5714133126395,81.57142761775425,1551.1,756.5714133126395,81.57142761775425,1656.5,756.5714133126395,81.57142761775425,1758.2,756.5714133126395,81.57142761775425,1859,756.5714133126395,81.57142761775425,1973.1,756.5714133126395,81.57142761775425,2084,756.5714133126395,81.57142761775425,2193.6,756.5714133126395,81.57142761775425,2299,756.5714133126395,81.57142761775425,2405,756.5714133126395,81.57142761775425,2509.4,756.5714133126395,81.57142761775425,2614.5,756.5714133126395,81.57142761775425,2718.5,756.5714133126395,81.57142761775425,2824.5,756.5714133126395,81.57142761775425,2927.4,756.5714133126395,81.57142761775425,3035,756.5714133126395,81.57142761775425,3149.9,756.5714133126395,81.57142761775425,3259.5,756.5714133126395,81.57142761775425,3366.9,756.5714133126395,81.57142761775425,3478.3,756.5714133126395,81.57142761775425,3584.5,756.5714133126395,81.57142761775425,3694.8,756.5714133126395,81.57142761775425,3803,756.5714133126395,81.57142761775425,3907.6,756.5714133126395,81.57142761775425,4016.4,756.5714133126395,81.57142761775425,4128.4,756.5714133126395,81.57142761775425,4228.5,756.5714133126395,81.57142761775425,4338.1,756.5714133126395,81.57142761775425,4445.5,756.5714133126395,81.57142761775425,4558,756.5714133126395,81.57142761775425,4669.8,756.5714133126395,81.57142761775425,4778,756.5714133126395,81.57142761775425,4886.1,756.5714133126395,81.57142761775425,4987.3]","[8585.6,8585.6,2717.4,2022.4,3845.8,""smooth"",""up"",""up"",""good_move"",15736.8,7150.2,2812.7,12187.2,736.9,""oops"",""up"",""up"",""good_move"",20290.3,4552.8,2493.4,15737.5,2059.4,""smooth"",""right"",""right"",""good_move"",23149.8,2858.7,2351.7,20291.1,507,""smooth"",""right"",""right"",""good_move""]"
"10547","","<div style=""width:500px;"">
  <p>What determined the result of this run?</p>
  </div>","28","html-slider-response","74","1229263","0.0-7.0-1.12","183","1","2025-08-06 11:10:16","36c45c0696341be0efffe67d72a12abb","196.15.217.218","Mozilla/5.0 (Windows NT 10.0; Win64; x64) AppleWebKit/537.36 (KHTML, like Gecko) Chrome/138.0.0.0 Safari/537.36","WebKit","Chrome","138.0.0.0","Windows","10.0","https://app.prolific.com/","en-US,en;q=0.9","61715a02a3c88f5fb082a424","687a1a965b9f5b85a264363e","689337f2b78515a834ed8c50","1","61715a02a3c88f5fb082a424","1","2025-08-06T11:30:47.743Z","","","","AttribQ","","","","","","","","","","","50","","","","","","","","","","","","","","","","","","","","","","","","","","",""
"7462","","<div style=""width:500px;"">
  <p>How much control did you have over the ball?</p>
  </div>","20","html-slider-response","75","1236726","0.0-7.0-2.12","183","1","2025-08-06 11:10:16","36c45c0696341be0efffe67d72a12abb","196.15.217.218","Mozilla/5.0 (Windows NT 10.0; Win64; x64) AppleWebKit/537.36 (KHTML, like Gecko) Chrome/138.0.0.0 Safari/537.36","WebKit","Chrome","138.0.0.0","Windows","10.0","https://app.prolific.com/","en-US,en;q=0.9","61715a02a3c88f5fb082a424","687a1a965b9f5b85a264363e","689337f2b78515a834ed8c50","1","61715a02a3c88f5fb082a424","1","2025-08-06T11:30:55.206Z","","","","ControlQ","","","","","","","","","","","50","","","","","","","","","","","","","","","","","","","","","","","","","","",""
"5022","","<div style=""width:500px;"">
  <p>How would you describe your current emotional state?</p>
  </div>","70","html-slider-response","76","1241750","0.0-7.0-3.12","183","1","2025-08-06 11:10:16","36c45c0696341be0efffe67d72a12abb","196.15.217.218","Mozilla/5.0 (Windows NT 10.0; Win64; x64) AppleWebKit/537.36 (KHTML, like Gecko) Chrome/138.0.0.0 Safari/537.36","WebKit","Chrome","138.0.0.0","Windows","10.0","https://app.prolific.com/","en-US,en;q=0.9","61715a02a3c88f5fb082a424","687a1a965b9f5b85a264363e","689337f2b78515a834ed8c50","1","61715a02a3c88f5fb082a424","1","2025-08-06T11:31:00.230Z","","","","StressQ","","","","","","","","","","","50","","","","","","","","","","","","","","","","","","","","","","","","","","",""
"5985","","<div style=""width:500px;"">
  <p>What best describes how you currently feel?</p>
  </div>","70","html-slider-response","77","1247735","0.0-7.0-4.12","183","1","2025-08-06 11:10:16","36c45c0696341be0efffe67d72a12abb","196.15.217.218","Mozilla/5.0 (Windows NT 10.0; Win64; x64) AppleWebKit/537.36 (KHTML, like Gecko) Chrome/138.0.0.0 Safari/537.36","WebKit","Chrome","138.0.0.0","Windows","10.0","https://app.prolific.com/","en-US,en;q=0.9","61715a02a3c88f5fb082a424","687a1a965b9f5b85a264363e","689337f2b78515a834ed8c50","1","61715a02a3c88f5fb082a424","1","2025-08-06T11:31:06.216Z","","","","MotivationQ","","","","","","","","","","","50","","","","","","","","","","","","","","","","","","","","","","","","","","",""
