"rt","response_timestamp","stimulus","response","trial_type","trial_index","time_elapsed","internal_node_id","run_id","condition","recorded_at","source_code_version","ip","user_agent","device","browser","browser_version","platform","platform_version","referer","accept_language","PROLIFIC_PID","STUDY_ID","SESSION_ID","BATCH","prolific_id","batch","realtime","success","question_order","question_id","eventType","responses","item_order","radio_event_ids","radio_event_times","key_event_times","mouse_event_times","straightlining","zigzagging","honeypot","view_history","slider_start","which_type","canvas_config","goals_layout","control_level","trial_number","tutorial_trial_number","trial_start_time","phase1_start_time","phase2_start_time","phase3_start_time","goal_1_value","goal_1_distance","goal_2_value","goal_2_distance","goal_selected","outcome","outcome_total","participant_final_score","participant_initial_score","participant_final_score_prop","goal_choice_rt","allocated_time","allocated_time_remaining","goal_direction","counts","mouse_movements","key_presses"
"1862","1754475070395","<p style='font-size:40px;line-height:1.25'><strong>Welcome to the experiment!</strong></p><p style='font-size:1.1em;line-height:1.25'>Thank you for participanting in our experiment again! You will be asked to play the Dysfunctional Ball Game again. We will briefly recap the rules before we start.</p><p style='font-size:1.1em;line-height:1.25'>Press <strong>Next</strong> to continue.</p>","0","custom-html-button-response","0","1863","0.0-0.0","176","1","2025-08-06 10:11:07","36c45c0696341be0efffe67d72a12abb","178.166.40.254","Mozilla/5.0 (Windows NT 10.0; Win64; x64) AppleWebKit/537.36 (KHTML, like Gecko) Chrome/138.0.0.0 Safari/537.36 Edg/138.0.0.0","WebKit","Edge","138.0.0.0","Windows","10.0","https://app.prolific.com/","en-GB,en;q=0.9,en-US;q=0.8,pt-BR;q=0.7,pt-PT;q=0.6,pt;q=0.5","6172d51173f6962cef6b18cf","6877649eabb845cf142cd221","68932a320cd3368dcd0a1b8a","1","6172d51173f6962cef6b18cf","1","2025-08-06T10:11:10.396Z","","","","","","","","","","","","","","","","","","","","","","","","","","","","","","","","","","","","","","","","","",""
"2570","","","","fullscreen","1","5448","0.0-1.0","176","1","2025-08-06 10:11:07","36c45c0696341be0efffe67d72a12abb","178.166.40.254","Mozilla/5.0 (Windows NT 10.0; Win64; x64) AppleWebKit/537.36 (KHTML, like Gecko) Chrome/138.0.0.0 Safari/537.36 Edg/138.0.0.0","WebKit","Edge","138.0.0.0","Windows","10.0","https://app.prolific.com/","en-GB,en;q=0.9,en-US;q=0.8,pt-BR;q=0.7,pt-PT;q=0.6,pt;q=0.5","6172d51173f6962cef6b18cf","6877649eabb845cf142cd221","68932a320cd3368dcd0a1b8a","1","6172d51173f6962cef6b18cf","1","","true","","","","","","","","","","","","","","","","","","","","","","","","","","","","","","","","","","","","","","","","",""
"3635","1754475077617"," <p style='font-size:1.1em;line-height:1.25'>Thank you for closing all other tabs.</p><p style='font-size:1.1em;line-height:1.25'>We will now invite you to fill in some questionnaires, before starting the game.<br>This will take about 5 minutes.<br></p><p style='font-size:1.1em;line-height:1.25'>Press the <strong>Next</strong> button to continue.</p>","0","custom-html-button-response","2","9084","0.0-2.0","176","1","2025-08-06 10:11:07","36c45c0696341be0efffe67d72a12abb","178.166.40.254","Mozilla/5.0 (Windows NT 10.0; Win64; x64) AppleWebKit/537.36 (KHTML, like Gecko) Chrome/138.0.0.0 Safari/537.36 Edg/138.0.0.0","WebKit","Edge","138.0.0.0","Windows","10.0","https://app.prolific.com/","en-GB,en;q=0.9,en-US;q=0.8,pt-BR;q=0.7,pt-PT;q=0.6,pt;q=0.5","6172d51173f6962cef6b18cf","6877649eabb845cf142cd221","68932a320cd3368dcd0a1b8a","1","6172d51173f6962cef6b18cf","1","2025-08-06T10:11:17.617Z","","","","","","","","","","","","","","","","","","","","","","","","","","","","","","","","","","","","","","","","","",""
"4050","","","{""assigned_sex"":""female""}","survey-multi-choice","3","13135","0.0-3.0-0.0","176","1","2025-08-06 10:11:07","36c45c0696341be0efffe67d72a12abb","178.166.40.254","Mozilla/5.0 (Windows NT 10.0; Win64; x64) AppleWebKit/537.36 (KHTML, like Gecko) Chrome/138.0.0.0 Safari/537.36 Edg/138.0.0.0","WebKit","Edge","138.0.0.0","Windows","10.0","https://app.prolific.com/","en-GB,en;q=0.9,en-US;q=0.8,pt-BR;q=0.7,pt-PT;q=0.6,pt;q=0.5","6172d51173f6962cef6b18cf","6877649eabb845cf142cd221","68932a320cd3368dcd0a1b8a","1","6172d51173f6962cef6b18cf","1","","","[0]","0","demographics","","","","","","","","","","","","","","","","","","","","","","","","","","","","","","","","","","","","","",""
"5883","1754475087552","<p style='font-size:1.1em;line-height:1.25'>In the following, we will perform a baseline assessment. This means that we will ask you a few questions relating to your experiences over the past month.<br></p><p style='font-size:1.1em;line-height:1.25'>Press the <strong>Next</strong> button to continue.</p>","0","custom-html-button-response","4","19019","0.0-4.0-0.0","176","1","2025-08-06 10:11:07","36c45c0696341be0efffe67d72a12abb","178.166.40.254","Mozilla/5.0 (Windows NT 10.0; Win64; x64) AppleWebKit/537.36 (KHTML, like Gecko) Chrome/138.0.0.0 Safari/537.36 Edg/138.0.0.0","WebKit","Edge","138.0.0.0","Windows","10.0","https://app.prolific.com/","en-GB,en;q=0.9,en-US;q=0.8,pt-BR;q=0.7,pt-PT;q=0.6,pt;q=0.5","6172d51173f6962cef6b18cf","6877649eabb845cf142cd221","68932a320cd3368dcd0a1b8a","1","6172d51173f6962cef6b18cf","1","2025-08-06T10:11:27.552Z","","","","","","","","","","","","","","","","","","","","","","","","","","","","","","","","","","","","","","","","","",""
"62095.60000000056","","","","survey-template","5","81117","0.0-4.0-1.0","176","1","2025-08-06 10:11:07","36c45c0696341be0efffe67d72a12abb","178.166.40.254","Mozilla/5.0 (Windows NT 10.0; Win64; x64) AppleWebKit/537.36 (KHTML, like Gecko) Chrome/138.0.0.0 Safari/537.36 Edg/138.0.0.0","WebKit","Edge","138.0.0.0","Windows","10.0","https://app.prolific.com/","en-GB,en;q=0.9,en-US;q=0.8,pt-BR;q=0.7,pt-PT;q=0.6,pt;q=0.5","6172d51173f6962cef6b18cf","6877649eabb845cf142cd221","68932a320cd3368dcd0a1b8a","1","6172d51173f6962cef6b18cf","1","2025-08-06T10:12:29.650Z","","","","pss","{""Q01"":""2"",""Q02"":""0"",""Q03"":""1"",""Q04"":""0"",""Q05"":""0"",""Q06"":""1"",""Q07"":""2"",""Q08"":""0"",""Q09"":""1"",""Q10"":""0""}","[0,1,2,3,4,5,6,7,8,9]","[""Q01"",""Q02"",""Q03"",""Q04"",""Q05"",""Q06"",""Q07"",""Q08"",""Q08"",""Q09"",""Q10""]","[5336.5,11962.800000000745,15331.700000000186,21316.10000000056,26400.900000000373,35937.300000000745,43115,47767.300000000745,48692.10000000056,54697.10000000056,61249.200000000186]","[]","[0.7000000001862645,5336.5,11962.800000000745,14794.800000000745,15331.700000000186,20199.60000000056,21316.10000000056,26400.900000000373,34462.800000000745,34893.90000000037,35937.300000000745,43115,47767.300000000745,48692.10000000056,54697.10000000056,60759.10000000056,61249.200000000186,62094.700000000186]","0.3","0.3333333333333333","0","","","","","","","","","","","","","","","","","","","","","","","","","","","","",""
"3508","1754475153159","<p style='font-size:1.1em;line-height:1.25'>Thank you for your answers! Now we will ask you a few more questions relating to your feelings in the last 24 hours.<br></p><p style='font-size:1.1em;line-height:1.25'>Press the <strong>Next</strong> button to continue.</p>","0","custom-html-button-response","6","84626","0.0-4.0-2.0","176","1","2025-08-06 10:11:07","36c45c0696341be0efffe67d72a12abb","178.166.40.254","Mozilla/5.0 (Windows NT 10.0; Win64; x64) AppleWebKit/537.36 (KHTML, like Gecko) Chrome/138.0.0.0 Safari/537.36 Edg/138.0.0.0","WebKit","Edge","138.0.0.0","Windows","10.0","https://app.prolific.com/","en-GB,en;q=0.9,en-US;q=0.8,pt-BR;q=0.7,pt-PT;q=0.6,pt;q=0.5","6172d51173f6962cef6b18cf","6877649eabb845cf142cd221","68932a320cd3368dcd0a1b8a","1","6172d51173f6962cef6b18cf","1","2025-08-06T10:12:33.159Z","","","","","","","","","","","","","","","","","","","","","","","","","","","","","","","","","","","","","","","","","",""
"100938.59999999963","","","","survey-template","7","185568","0.0-4.0-3.0","176","1","2025-08-06 10:11:07","36c45c0696341be0efffe67d72a12abb","178.166.40.254","Mozilla/5.0 (Windows NT 10.0; Win64; x64) AppleWebKit/537.36 (KHTML, like Gecko) Chrome/138.0.0.0 Safari/537.36 Edg/138.0.0.0","WebKit","Edge","138.0.0.0","Windows","10.0","https://app.prolific.com/","en-GB,en;q=0.9,en-US;q=0.8,pt-BR;q=0.7,pt-PT;q=0.6,pt;q=0.5","6172d51173f6962cef6b18cf","6877649eabb845cf142cd221","68932a320cd3368dcd0a1b8a","1","6172d51173f6962cef6b18cf","1","2025-08-06T10:14:14.101Z","","","","drsp","{""Q01"":""0"",""Q02"":""0"",""Q03"":""0"",""Q04"":""0"",""Q05"":""1"",""Q06"":""0"",""Q07"":""2"",""Q08"":""0"",""Q09"":""3"",""Q10"":""4"",""Q11"":""5"",""Q12"":""0"",""Q13"":""5"",""Q14"":""0"",""Q15"":""1"",""Q16"":""1"",""Q17"":""0"",""Q18"":""0"",""Q19"":""4"",""Q20"":""3"",""Q21"":""2"",""Q22"":""0""}","[0,1,2,3,4,5,6,7,8,9,10,11,12,13,14,15,16,17,18,19,20,21]","[""Q01"",""Q02"",""Q03"",""Q04"",""Q05"",""Q06"",""Q07"",""Q08"",""Q08"",""Q09"",""Q09"",""Q10"",""Q10"",""Q11"",""Q12"",""Q13"",""Q14"",""Q15"",""Q15"",""Q16"",""Q16"",""Q17"",""Q18"",""Q19"",""Q19"",""Q20"",""Q21"",""Q21"",""Q21"",""Q22"",""Q22""]","[3380.0999999996275,4316.899999999441,7348.0999999996275,8047.199999999255,9147.199999999255,11743.299999999814,14648,16802.89999999944,20014.299999999814,23801.39999999944,25367.199999999255,27812.699999999255,28503.39999999944,30435.199999999255,35190.299999999814,37393.59999999963,39446.699999999255,42724.799999999814,47707.699999999255,53522.39999999944,60757.89999999944,62913,63783.5,79324.39999999944,81961.79999999981,85694.09999999963,88995.69999999925,90044.09999999963,91605.89999999944,96593.79999999981,99684.09999999963]","[]","[0.6999999992549419,3380.0999999996275,4316.899999999441,6121.0999999996275,7348.0999999996275,8047.199999999255,9147.199999999255,11743.299999999814,14236.099999999627,14648,16802.89999999944,20014.299999999814,23801.39999999944,25367.199999999255,27812.699999999255,28503.39999999944,30435.199999999255,35190.299999999814,36487.199999999255,37393.59999999963,39446.699999999255,42724.799999999814,47707.699999999255,52598.39999999944,53095.699999999255,53522.39999999944,60757.89999999944,62913,63783.5,70713.59999999963,79324.39999999944,81961.79999999981,85694.09999999963,88995.69999999925,90044.09999999963,91149.89999999944,91605.89999999944,96593.79999999981,99684.09999999963,100936.79999999981]","0.5","0.5238095238095238","0","","","","","","","","","","","","","","","","","","","","","","","","","","","","",""
"9595.200000000186","","","","survey-template","8","195164","0.0-4.0-4.0","176","1","2025-08-06 10:11:07","36c45c0696341be0efffe67d72a12abb","178.166.40.254","Mozilla/5.0 (Windows NT 10.0; Win64; x64) AppleWebKit/537.36 (KHTML, like Gecko) Chrome/138.0.0.0 Safari/537.36 Edg/138.0.0.0","WebKit","Edge","138.0.0.0","Windows","10.0","https://app.prolific.com/","en-GB,en;q=0.9,en-US;q=0.8,pt-BR;q=0.7,pt-PT;q=0.6,pt;q=0.5","6172d51173f6962cef6b18cf","6877649eabb845cf142cd221","68932a320cd3368dcd0a1b8a","1","6172d51173f6962cef6b18cf","1","2025-08-06T10:14:23.697Z","","","","stress","{""Q01"":""0"",""Q02"":""1"",""Q03"":""0""}","[0,1,2]","[""Q01"",""Q02"",""Q03""]","[2399.9000000003725,5370.799999999814,8905.799999999814]","[]","[2399.9000000003725,5030.700000000186,5370.799999999814,8561.599999999627,8905.799999999814,9594.900000000373]","0.6666666666666666","0","0","","","","","","","","","","","","","","","","","","","","","","","","","","","","",""
"2677","","","","instructions","9","197842","0.0-5.0-0.0","176","1","2025-08-06 10:11:07","36c45c0696341be0efffe67d72a12abb","178.166.40.254","Mozilla/5.0 (Windows NT 10.0; Win64; x64) AppleWebKit/537.36 (KHTML, like Gecko) Chrome/138.0.0.0 Safari/537.36 Edg/138.0.0.0","WebKit","Edge","138.0.0.0","Windows","10.0","https://app.prolific.com/","en-GB,en;q=0.9,en-US;q=0.8,pt-BR;q=0.7,pt-PT;q=0.6,pt;q=0.5","6172d51173f6962cef6b18cf","6877649eabb845cf142cd221","68932a320cd3368dcd0a1b8a","1","6172d51173f6962cef6b18cf","1","","","","","","","","","","","","","","","[{""page_index"":0,""viewing_time"":2677}]","","","","","","","","","","","","","","","","","","","","","","","","","","","",""
"2622","","<p>Before you start with this game please answer the following three questions yourself. </p>
  <p>Through this game, we measure several aspects of your cognitive performance, such as reaction times, multi-tasking capabilities </p>
  <p>and the ability to assess the situation you are in.</p>
  <p></p>
  <p><b>How good do you usually are in such tasks?</b></p>","0","html-slider-response","10","200464","0.0-6.0-0.0","176","1","2025-08-06 10:11:07","36c45c0696341be0efffe67d72a12abb","178.166.40.254","Mozilla/5.0 (Windows NT 10.0; Win64; x64) AppleWebKit/537.36 (KHTML, like Gecko) Chrome/138.0.0.0 Safari/537.36 Edg/138.0.0.0","WebKit","Edge","138.0.0.0","Windows","10.0","https://app.prolific.com/","en-GB,en;q=0.9,en-US;q=0.8,pt-BR;q=0.7,pt-PT;q=0.6,pt;q=0.5","6172d51173f6962cef6b18cf","6877649eabb845cf142cd221","68932a320cd3368dcd0a1b8a","1","6172d51173f6962cef6b18cf","1","2025-08-06T10:14:28.997Z","","","","PreSkillQ","","","","","","","","","","","50","","","","","","","","","","","","","","","","","","","","","","","","","","",""
"2115","","<div style=""width:500px;"">
  <p>How well do you think you will perform in this task compared to other participants?</p>
  </div>","0","html-slider-response","11","202580","0.0-6.0-1.0","176","1","2025-08-06 10:11:07","36c45c0696341be0efffe67d72a12abb","178.166.40.254","Mozilla/5.0 (Windows NT 10.0; Win64; x64) AppleWebKit/537.36 (KHTML, like Gecko) Chrome/138.0.0.0 Safari/537.36 Edg/138.0.0.0","WebKit","Edge","138.0.0.0","Windows","10.0","https://app.prolific.com/","en-GB,en;q=0.9,en-US;q=0.8,pt-BR;q=0.7,pt-PT;q=0.6,pt;q=0.5","6172d51173f6962cef6b18cf","6877649eabb845cf142cd221","68932a320cd3368dcd0a1b8a","1","6172d51173f6962cef6b18cf","1","2025-08-06T10:14:31.113Z","","","","PrePerfQ","","","","","","","","","","","50","","","","","","","","","","","","","","","","","","","","","","","","","","",""
"2926","","<div style=""width:500px;"">
  <p>What best describes how you currently feel?</p>
  </div>","0","html-slider-response","12","205507","0.0-6.0-2.0","176","1","2025-08-06 10:11:07","36c45c0696341be0efffe67d72a12abb","178.166.40.254","Mozilla/5.0 (Windows NT 10.0; Win64; x64) AppleWebKit/537.36 (KHTML, like Gecko) Chrome/138.0.0.0 Safari/537.36 Edg/138.0.0.0","WebKit","Edge","138.0.0.0","Windows","10.0","https://app.prolific.com/","en-GB,en;q=0.9,en-US;q=0.8,pt-BR;q=0.7,pt-PT;q=0.6,pt;q=0.5","6172d51173f6962cef6b18cf","6877649eabb845cf142cd221","68932a320cd3368dcd0a1b8a","1","6172d51173f6962cef6b18cf","1","2025-08-06T10:14:34.040Z","","","","PreMotivationQ","","","","","","","","","","","50","","","","","","","","","","","","","","","","","","","","","","","","","","",""
"","","","","ctl-task-cpt","13","241905","0.0-7.0-0.0","176","1","2025-08-06 10:11:07","36c45c0696341be0efffe67d72a12abb","178.166.40.254","Mozilla/5.0 (Windows NT 10.0; Win64; x64) AppleWebKit/537.36 (KHTML, like Gecko) Chrome/138.0.0.0 Safari/537.36 Edg/138.0.0.0","WebKit","Edge","138.0.0.0","Windows","10.0","https://app.prolific.com/","en-GB,en;q=0.9,en-US;q=0.8,pt-BR;q=0.7,pt-PT;q=0.6,pt;q=0.5","6172d51173f6962cef6b18cf","6877649eabb845cf142cd221","68932a320cd3368dcd0a1b8a","1","6172d51173f6962cef6b18cf","1","2025-08-06T10:15:10.438Z","","","","","","","","","","","","","","","","win-only","0","g1:NW,g2:SE","1","1","0","206660.9","1264.9","6266.2","33392.2","1","4","4","6","2","4","4","4","0","0.030303030303030304","1514.3","3000","635","[""down"",""right""]","{""num_key_presses"":6,""num_perfect"":6,""num_errors"":0,""num_randdir"":0,""num_randdir_good_moves"":0,""num_whilered"":0,""num_whileblue"":0,""num_blue"":3,""num_good_moves"":6}","[417.57142857142856,421.47767857142856,0.1,417.57142857142856,421.47767857142856,100.8,417.57142857142856,421.47767857142856,205.8,414.57142857142856,420.47767857142856,305.8,341.57142857142856,398.47767857142856,405.8,284.57142857142856,353.47767857142856,505.8,113.57142857142857,214.47767857142856,606.1,73.57142857142857,145.47767857142856,710.8,67.57142857142857,120.47767857142857,811.5,73.57142857142857,119.47767857142857,916,339.57142857142856,343.47767857142856,1016,743.5714285714286,646.4776785714286,1116,781.5714285714286,704.4776785714286,1220.8,775.5714285714286,713.4776785714286,1320.8,752.5714285714286,740.4776785714286,1425.8,755.5714285714286,757.4776785714286,1526.7,754.5714285714286,757.4776785714286,1630.6,754.5714285714286,757.4776785714286,1730.7,843.5714285714286,720.4776785714286,1831.2,1042.5714285714287,642.4776785714286,1936,1053.5714285714287,636.4776785714286,2036.3,1058.5714285714287,636.4776785714286,2140.5,1058.5714285714287,636.4776785714286,2241.3,1058.5714285714287,636.4776785714286,2341.3,1058.5714285714287,636.4776785714286,2445.5,1058.5714285714287,636.4776785714286,2551.2,1058.5714285714287,636.4776785714286,2655.5,1058.5714285714287,636.4776785714286,2760.3,1058.5714285714287,636.4776785714286,2861.2,1058.5714285714287,636.4776785714286,2961.3,1058.5714285714287,636.4776785714286,3065.3,1058.5714285714287,636.4776785714286,3166.4,1058.5714285714287,636.4776785714286,3271.2,1058.5714285714287,636.4776785714286,3371.2,1058.5714285714287,636.4776785714286,3476.1,1058.5714285714287,636.4776785714286,3580.4,1058.5714285714287,636.4776785714286,3680.6,1058.5714285714287,636.4776785714286,3782.3,1058.5714285714287,636.4776785714286,3885.7,1058.5714285714287,636.4776785714286,3985.9,1058.5714285714287,636.4776785714286,4086.1,1058.5714285714287,636.4776785714286,4186.1,1058.5714285714287,636.4776785714286,4286.2,1058.5714285714287,636.4776785714286,4386.2,1058.5714285714287,636.4776785714286,4490.2,1058.5714285714287,636.4776785714286,4590.9,1058.5714285714287,636.4776785714286,4696.2,1058.5714285714287,636.4776785714286,4801.2,1058.5714285714287,636.4776785714286,4906.1]","[1409.1,1409.1,1000,0,409.1,""smooth"",""right"",""right"",""good_move"",4583.4,3174.1,2840.9,1409.3,333.2,""smooth"",""right"",""right"",""good_move"",10393.5,5809.9,2332.5,7699.8,361.2,""smooth"",""right"",""right"",""good_move"",13145.3,2751.7,2391.5,10393.6,360.2,""smooth"",""down"",""down"",""good_move"",24290.7,11145.1,3255.4,20480,555.3,""smooth"",""down"",""down"",""good_move"",27038.4,2747.5,2332.2,24290.9,415.3,""smooth"",""down"",""down"",""good_move""]"
"2825","","<div style=""width:500px;"">
  <p>What determined the result of this run?</p>
  </div>","97","html-slider-response","14","244730","0.0-7.0-1.0","176","1","2025-08-06 10:11:07","36c45c0696341be0efffe67d72a12abb","178.166.40.254","Mozilla/5.0 (Windows NT 10.0; Win64; x64) AppleWebKit/537.36 (KHTML, like Gecko) Chrome/138.0.0.0 Safari/537.36 Edg/138.0.0.0","WebKit","Edge","138.0.0.0","Windows","10.0","https://app.prolific.com/","en-GB,en;q=0.9,en-US;q=0.8,pt-BR;q=0.7,pt-PT;q=0.6,pt;q=0.5","6172d51173f6962cef6b18cf","6877649eabb845cf142cd221","68932a320cd3368dcd0a1b8a","1","6172d51173f6962cef6b18cf","1","2025-08-06T10:15:13.263Z","","","","AttribQ","","","","","","","","","","","50","","","","","","","","","","","","","","","","","","","","","","","","","","",""
"2416","","<div style=""width:500px;"">
  <p>How much control did you have over the ball?</p>
  </div>","100","html-slider-response","15","247147","0.0-7.0-2.0","176","1","2025-08-06 10:11:07","36c45c0696341be0efffe67d72a12abb","178.166.40.254","Mozilla/5.0 (Windows NT 10.0; Win64; x64) AppleWebKit/537.36 (KHTML, like Gecko) Chrome/138.0.0.0 Safari/537.36 Edg/138.0.0.0","WebKit","Edge","138.0.0.0","Windows","10.0","https://app.prolific.com/","en-GB,en;q=0.9,en-US;q=0.8,pt-BR;q=0.7,pt-PT;q=0.6,pt;q=0.5","6172d51173f6962cef6b18cf","6877649eabb845cf142cd221","68932a320cd3368dcd0a1b8a","1","6172d51173f6962cef6b18cf","1","2025-08-06T10:15:15.680Z","","","","ControlQ","","","","","","","","","","","50","","","","","","","","","","","","","","","","","","","","","","","","","","",""
"3650","","<div style=""width:500px;"">
  <p>How would you describe your current emotional state?</p>
  </div>","31","html-slider-response","16","250798","0.0-7.0-3.0","176","1","2025-08-06 10:11:07","36c45c0696341be0efffe67d72a12abb","178.166.40.254","Mozilla/5.0 (Windows NT 10.0; Win64; x64) AppleWebKit/537.36 (KHTML, like Gecko) Chrome/138.0.0.0 Safari/537.36 Edg/138.0.0.0","WebKit","Edge","138.0.0.0","Windows","10.0","https://app.prolific.com/","en-GB,en;q=0.9,en-US;q=0.8,pt-BR;q=0.7,pt-PT;q=0.6,pt;q=0.5","6172d51173f6962cef6b18cf","6877649eabb845cf142cd221","68932a320cd3368dcd0a1b8a","1","6172d51173f6962cef6b18cf","1","2025-08-06T10:15:19.331Z","","","","StressQ","","","","","","","","","","","50","","","","","","","","","","","","","","","","","","","","","","","","","","",""
"2954","","<div style=""width:500px;"">
  <p>What best describes how you currently feel?</p>
  </div>","9","html-slider-response","17","253753","0.0-7.0-4.0","176","1","2025-08-06 10:11:07","36c45c0696341be0efffe67d72a12abb","178.166.40.254","Mozilla/5.0 (Windows NT 10.0; Win64; x64) AppleWebKit/537.36 (KHTML, like Gecko) Chrome/138.0.0.0 Safari/537.36 Edg/138.0.0.0","WebKit","Edge","138.0.0.0","Windows","10.0","https://app.prolific.com/","en-GB,en;q=0.9,en-US;q=0.8,pt-BR;q=0.7,pt-PT;q=0.6,pt;q=0.5","6172d51173f6962cef6b18cf","6877649eabb845cf142cd221","68932a320cd3368dcd0a1b8a","1","6172d51173f6962cef6b18cf","1","2025-08-06T10:15:22.286Z","","","","MotivationQ","","","","","","","","","","","50","","","","","","","","","","","","","","","","","","","","","","","","","","",""
"","","","","ctl-task-cpt","18","289350","0.0-7.0-0.1","176","1","2025-08-06 10:11:07","36c45c0696341be0efffe67d72a12abb","178.166.40.254","Mozilla/5.0 (Windows NT 10.0; Win64; x64) AppleWebKit/537.36 (KHTML, like Gecko) Chrome/138.0.0.0 Safari/537.36 Edg/138.0.0.0","WebKit","Edge","138.0.0.0","Windows","10.0","https://app.prolific.com/","en-GB,en;q=0.9,en-US;q=0.8,pt-BR;q=0.7,pt-PT;q=0.6,pt;q=0.5","6172d51173f6962cef6b18cf","6877649eabb845cf142cd221","68932a320cd3368dcd0a1b8a","1","6172d51173f6962cef6b18cf","1","2025-08-06T10:15:57.883Z","","","","","","","","","","","","","","","","win-only","0","g1:NW,g2:SE","0.9","2","0","254906.6","857.7","5860.7","32590","1","4","8","6","2","8","8","12","4","0.09090909090909091","977.1","3000","985","[""down"",""right""]","{""num_key_presses"":6,""num_perfect"":5,""num_errors"":0,""num_randdir"":1,""num_randdir_good_moves"":1,""num_whilered"":0,""num_whileblue"":0,""num_blue"":3,""num_good_moves"":6}","[423.57142857142856,412.47767857142856,0,423.57142857142856,412.47767857142856,103.1,423.57142857142856,412.47767857142856,207.9,423.57142857142856,412.47767857142856,307.9,423.57142857142856,412.47767857142856,413.1,473.57142857142856,481.47767857142856,517.9,511.57142857142856,517.4776785714286,618.3,600.5714285714286,614.4776785714286,722.6,747.5714285714286,735.4776785714286,822.7,784.5714285714286,771.4776785714286,923,784.5714285714286,771.4776785714286,1027.8,784.5714285714286,771.4776785714286,1134,813.5714285714286,755.4776785714286,1237.8,979.5714285714286,659.4776785714286,1337.8,1008.5714285714286,649.4776785714286,1437.8,1009.5714285714286,649.4776785714286,1542.7,1009.5714285714286,649.4776785714286,1642.9,1009.5714285714286,649.4776785714286,1742.9,1009.5714285714286,649.4776785714286,1847.8,1009.5714285714286,649.4776785714286,1952.8,1009.5714285714286,649.4776785714286,2052.8,1009.5714285714286,649.4776785714286,2157.7,1009.5714285714286,649.4776785714286,2257.8,1009.5714285714286,649.4776785714286,2357.8,1009.5714285714286,649.4776785714286,2458.4,1009.5714285714286,649.4776785714286,2562.8,1009.5714285714286,649.4776785714286,2667.5,1009.5714285714286,649.4776785714286,2768.3,1009.5714285714286,649.4776785714286,2872.6,1009.5714285714286,649.4776785714286,2977.5,1009.5714285714286,649.4776785714286,3082.5,1009.5714285714286,649.4776785714286,3182.6,1009.5714285714286,649.4776785714286,3282.6,1009.5714285714286,649.4776785714286,3387.8,1009.5714285714286,649.4776785714286,3488.3,1009.5714285714286,649.4776785714286,3592.3,1009.5714285714286,649.4776785714286,3693.4,1009.5714285714286,649.4776785714286,3797.6,1009.5714285714286,649.4776785714286,3897.7,1009.5714285714286,649.4776785714286,4003,1009.5714285714286,649.4776785714286,4107.5,1009.5714285714286,649.4776785714286,4207.9,1009.5714285714286,649.4776785714286,4312.9,1009.5714285714286,649.4776785714286,4412.9,1009.5714285714286,649.4776785714286,4513,1009.5714285714286,649.4776785714286,4613.1,1009.5714285714286,649.4776785714286,4718.2,1009.5714285714286,649.4776785714286,4822.9,1009.5714285714286,649.4776785714286,4928.2]","[1327.2,1327.2,1000,0,327.2,""smooth"",""down"",""down"",""good_move"",4146.3,2818.9,2502.7,1327.4,316.2,""smooth"",""down"",""down"",""good_move"",6562.2,2415.7,2103.3,4146.5,312.4,""oops"",""down"",""right"",""good_move"",17437.6,10875.3,2455.1,14599.9,382.6,""smooth"",""down"",""down"",""good_move"",24040.1,6602.4,2805.1,20944.9,290.1,""smooth"",""right"",""right"",""good_move"",26644.1,2603.9,2175.8,24040.2,428.1,""smooth"",""right"",""right"",""good_move""]"
"2274","","<div style=""width:500px;"">
  <p>What determined the result of this run?</p>
  </div>","99","html-slider-response","19","291624","0.0-7.0-1.1","176","1","2025-08-06 10:11:07","36c45c0696341be0efffe67d72a12abb","178.166.40.254","Mozilla/5.0 (Windows NT 10.0; Win64; x64) AppleWebKit/537.36 (KHTML, like Gecko) Chrome/138.0.0.0 Safari/537.36 Edg/138.0.0.0","WebKit","Edge","138.0.0.0","Windows","10.0","https://app.prolific.com/","en-GB,en;q=0.9,en-US;q=0.8,pt-BR;q=0.7,pt-PT;q=0.6,pt;q=0.5","6172d51173f6962cef6b18cf","6877649eabb845cf142cd221","68932a320cd3368dcd0a1b8a","1","6172d51173f6962cef6b18cf","1","2025-08-06T10:16:00.157Z","","","","AttribQ","","","","","","","","","","","50","","","","","","","","","","","","","","","","","","","","","","","","","","",""
"2070","","<div style=""width:500px;"">
  <p>How much control did you have over the ball?</p>
  </div>","100","html-slider-response","20","293695","0.0-7.0-2.1","176","1","2025-08-06 10:11:07","36c45c0696341be0efffe67d72a12abb","178.166.40.254","Mozilla/5.0 (Windows NT 10.0; Win64; x64) AppleWebKit/537.36 (KHTML, like Gecko) Chrome/138.0.0.0 Safari/537.36 Edg/138.0.0.0","WebKit","Edge","138.0.0.0","Windows","10.0","https://app.prolific.com/","en-GB,en;q=0.9,en-US;q=0.8,pt-BR;q=0.7,pt-PT;q=0.6,pt;q=0.5","6172d51173f6962cef6b18cf","6877649eabb845cf142cd221","68932a320cd3368dcd0a1b8a","1","6172d51173f6962cef6b18cf","1","2025-08-06T10:16:02.228Z","","","","ControlQ","","","","","","","","","","","50","","","","","","","","","","","","","","","","","","","","","","","","","","",""
"2360","","<div style=""width:500px;"">
  <p>How would you describe your current emotional state?</p>
  </div>","37","html-slider-response","21","296056","0.0-7.0-3.1","176","1","2025-08-06 10:11:07","36c45c0696341be0efffe67d72a12abb","178.166.40.254","Mozilla/5.0 (Windows NT 10.0; Win64; x64) AppleWebKit/537.36 (KHTML, like Gecko) Chrome/138.0.0.0 Safari/537.36 Edg/138.0.0.0","WebKit","Edge","138.0.0.0","Windows","10.0","https://app.prolific.com/","en-GB,en;q=0.9,en-US;q=0.8,pt-BR;q=0.7,pt-PT;q=0.6,pt;q=0.5","6172d51173f6962cef6b18cf","6877649eabb845cf142cd221","68932a320cd3368dcd0a1b8a","1","6172d51173f6962cef6b18cf","1","2025-08-06T10:16:04.589Z","","","","StressQ","","","","","","","","","","","50","","","","","","","","","","","","","","","","","","","","","","","","","","",""
"2082","","<div style=""width:500px;"">
  <p>What best describes how you currently feel?</p>
  </div>","15","html-slider-response","22","298139","0.0-7.0-4.1","176","1","2025-08-06 10:11:07","36c45c0696341be0efffe67d72a12abb","178.166.40.254","Mozilla/5.0 (Windows NT 10.0; Win64; x64) AppleWebKit/537.36 (KHTML, like Gecko) Chrome/138.0.0.0 Safari/537.36 Edg/138.0.0.0","WebKit","Edge","138.0.0.0","Windows","10.0","https://app.prolific.com/","en-GB,en;q=0.9,en-US;q=0.8,pt-BR;q=0.7,pt-PT;q=0.6,pt;q=0.5","6172d51173f6962cef6b18cf","6877649eabb845cf142cd221","68932a320cd3368dcd0a1b8a","1","6172d51173f6962cef6b18cf","1","2025-08-06T10:16:06.672Z","","","","MotivationQ","","","","","","","","","","","50","","","","","","","","","","","","","","","","","","","","","","","","","","",""
"","","","","ctl-task-cpt","23","334061","0.0-7.0-0.2","176","1","2025-08-06 10:11:07","36c45c0696341be0efffe67d72a12abb","178.166.40.254","Mozilla/5.0 (Windows NT 10.0; Win64; x64) AppleWebKit/537.36 (KHTML, like Gecko) Chrome/138.0.0.0 Safari/537.36 Edg/138.0.0.0","WebKit","Edge","138.0.0.0","Windows","10.0","https://app.prolific.com/","en-GB,en;q=0.9,en-US;q=0.8,pt-BR;q=0.7,pt-PT;q=0.6,pt;q=0.5","6172d51173f6962cef6b18cf","6877649eabb845cf142cd221","68932a320cd3368dcd0a1b8a","1","6172d51173f6962cef6b18cf","1","2025-08-06T10:16:42.594Z","","","","","","","","","","","","","","","","win-only","1","g1:NE,g2:SW","0.8","3","0","299292.6","1086.2","6090.6","32905.2","1","4","4","6","1","1","0","12","12","0.09090909090909091","1627.2","3000","475","[""up"",""right""]","{""num_key_presses"":8,""num_perfect"":6,""num_errors"":1,""num_randdir"":1,""num_randdir_good_moves"":0,""num_whilered"":0,""num_whileblue"":1,""num_blue"":3,""num_good_moves"":6}","[425.57142857142856,411.47767857142856,0.2,425.57142857142856,411.47767857142856,116.7,425.57142857142856,411.47767857142856,219.9,425.57142857142856,411.47767857142856,324.9,425.57142857142856,411.47767857142856,424.9,425.57142857142856,411.47767857142856,529.3,425.57142857142856,411.47767857142856,629.8,427.57142857142856,403.47767857142856,734.1,430.57142857142856,390.47767857142856,834.9,451.57142857142856,369.47767857142856,939.1,543.5714285714286,289.47767857142856,1039.8,609.5714285714286,213.47767857142856,1139.8,695.5714285714286,151.47767857142856,1244.8,744.5714285714286,106.47767857142857,1344.8,753.5714285714286,90.47767857142857,1444.9,753.5714285714286,89.47767857142857,1549.2,753.5714285714286,89.47767857142857,1649.8,753.5714285714286,89.47767857142857,1749.8,753.5714285714286,89.47767857142857,1849.9,891.5714285714286,184.47767857142856,1955,1110.5714285714287,341.47767857142856,2059.7,1121.5714285714287,372.47767857142856,2159.9,1120.5714285714287,372.47767857142856,2264.4,1120.5714285714287,372.47767857142856,2369.9,1120.5714285714287,372.47767857142856,2469.9,1120.5714285714287,372.47767857142856,2574.2,1120.5714285714287,372.47767857142856,2674.5,1120.5714285714287,372.47767857142856,2774.8,1120.5714285714287,372.47767857142856,2879.4,1120.5714285714287,372.47767857142856,2979.6,1120.5714285714287,372.47767857142856,3084.4,1120.5714285714287,372.47767857142856,3189.4,1120.5714285714287,372.47767857142856,3294.3,1120.5714285714287,372.47767857142856,3399.2,1120.5714285714287,372.47767857142856,3499.2,1120.5714285714287,372.47767857142856,3604.2,1120.5714285714287,372.47767857142856,3704.6,1120.5714285714287,372.47767857142856,3804.6,1120.5714285714287,372.47767857142856,3909.1,1120.5714285714287,372.47767857142856,4009.1,1120.5714285714287,372.47767857142856,4109.3,1120.5714285714287,372.47767857142856,4214.1,1120.5714285714287,372.47767857142856,4319,1120.5714285714287,372.47767857142856,4419.7,1120.5714285714287,372.47767857142856,4524,1120.5714285714287,372.47767857142856,4624,1120.5714285714287,372.47767857142856,4724.2,1120.5714285714287,372.47767857142856,4828.9,1120.5714285714287,372.47767857142856,4928.9]","[8306.6,8306.6,2382.4,5479.5,444.7,""smooth"",""up"",""up"",""good_move"",10831.2,2524.4,2153.7,8306.8,370.7,""smooth"",""right"",""right"",""good_move"",13247.2,2415.8,2053,10831.4,362.8,""smooth"",""up"",""up"",""good_move"",15974.2,2726.8,2387.5,13247.4,339.3,""oops"",""right"",""left"",""bad_move"",18810.4,2836,2540.1,15974.4,295.9,""while_blue"",""right"",""down"",""bad_move"",21302.2,2491.5,2042.6,18810.7,448.9,""smooth"",""right"",""right"",""good_move"",23788.6,2486.3,2186.4,21302.3,299.9,""smooth"",""right"",""right"",""good_move"",26718.3,2929.6,2632.8,23788.7,296.8,""smooth"",""up"",""up"",""good_move""]"
"5518","","<div style=""width:500px;"">
  <p>What determined the result of this run?</p>
  </div>","98","html-slider-response","24","339580","0.0-7.0-1.2","176","1","2025-08-06 10:11:07","36c45c0696341be0efffe67d72a12abb","178.166.40.254","Mozilla/5.0 (Windows NT 10.0; Win64; x64) AppleWebKit/537.36 (KHTML, like Gecko) Chrome/138.0.0.0 Safari/537.36 Edg/138.0.0.0","WebKit","Edge","138.0.0.0","Windows","10.0","https://app.prolific.com/","en-GB,en;q=0.9,en-US;q=0.8,pt-BR;q=0.7,pt-PT;q=0.6,pt;q=0.5","6172d51173f6962cef6b18cf","6877649eabb845cf142cd221","68932a320cd3368dcd0a1b8a","1","6172d51173f6962cef6b18cf","1","2025-08-06T10:16:48.113Z","","","","AttribQ","","","","","","","","","","","50","","","","","","","","","","","","","","","","","","","","","","","","","","",""
"1301","","<div style=""width:500px;"">
  <p>How much control did you have over the ball?</p>
  </div>","100","html-slider-response","25","340882","0.0-7.0-2.2","176","1","2025-08-06 10:11:07","36c45c0696341be0efffe67d72a12abb","178.166.40.254","Mozilla/5.0 (Windows NT 10.0; Win64; x64) AppleWebKit/537.36 (KHTML, like Gecko) Chrome/138.0.0.0 Safari/537.36 Edg/138.0.0.0","WebKit","Edge","138.0.0.0","Windows","10.0","https://app.prolific.com/","en-GB,en;q=0.9,en-US;q=0.8,pt-BR;q=0.7,pt-PT;q=0.6,pt;q=0.5","6172d51173f6962cef6b18cf","6877649eabb845cf142cd221","68932a320cd3368dcd0a1b8a","1","6172d51173f6962cef6b18cf","1","2025-08-06T10:16:49.415Z","","","","ControlQ","","","","","","","","","","","50","","","","","","","","","","","","","","","","","","","","","","","","","","",""
"4213","","<div style=""width:500px;"">
  <p>How would you describe your current emotional state?</p>
  </div>","20","html-slider-response","26","345096","0.0-7.0-3.2","176","1","2025-08-06 10:11:07","36c45c0696341be0efffe67d72a12abb","178.166.40.254","Mozilla/5.0 (Windows NT 10.0; Win64; x64) AppleWebKit/537.36 (KHTML, like Gecko) Chrome/138.0.0.0 Safari/537.36 Edg/138.0.0.0","WebKit","Edge","138.0.0.0","Windows","10.0","https://app.prolific.com/","en-GB,en;q=0.9,en-US;q=0.8,pt-BR;q=0.7,pt-PT;q=0.6,pt;q=0.5","6172d51173f6962cef6b18cf","6877649eabb845cf142cd221","68932a320cd3368dcd0a1b8a","1","6172d51173f6962cef6b18cf","1","2025-08-06T10:16:53.629Z","","","","StressQ","","","","","","","","","","","50","","","","","","","","","","","","","","","","","","","","","","","","","","",""
"2593","","<div style=""width:500px;"">
  <p>What best describes how you currently feel?</p>
  </div>","42","html-slider-response","27","347690","0.0-7.0-4.2","176","1","2025-08-06 10:11:07","36c45c0696341be0efffe67d72a12abb","178.166.40.254","Mozilla/5.0 (Windows NT 10.0; Win64; x64) AppleWebKit/537.36 (KHTML, like Gecko) Chrome/138.0.0.0 Safari/537.36 Edg/138.0.0.0","WebKit","Edge","138.0.0.0","Windows","10.0","https://app.prolific.com/","en-GB,en;q=0.9,en-US;q=0.8,pt-BR;q=0.7,pt-PT;q=0.6,pt;q=0.5","6172d51173f6962cef6b18cf","6877649eabb845cf142cd221","68932a320cd3368dcd0a1b8a","1","6172d51173f6962cef6b18cf","1","2025-08-06T10:16:56.223Z","","","","MotivationQ","","","","","","","","","","","50","","","","","","","","","","","","","","","","","","","","","","","","","","",""
"","","","","ctl-task-cpt","28","366744","0.0-7.0-0.3","176","1","2025-08-06 10:11:07","36c45c0696341be0efffe67d72a12abb","178.166.40.254","Mozilla/5.0 (Windows NT 10.0; Win64; x64) AppleWebKit/537.36 (KHTML, like Gecko) Chrome/138.0.0.0 Safari/537.36 Edg/138.0.0.0","WebKit","Edge","138.0.0.0","Windows","10.0","https://app.prolific.com/","en-GB,en;q=0.9,en-US;q=0.8,pt-BR;q=0.7,pt-PT;q=0.6,pt;q=0.5","6172d51173f6962cef6b18cf","6877649eabb845cf142cd221","68932a320cd3368dcd0a1b8a","1","6172d51173f6962cef6b18cf","1","2025-08-06T10:17:15.277Z","","","","","","","","","","","","","","","","win-only","3","g1:SW,g2:NE","0.7","4","0","348844.1","1039.1","6041.5","16036","1","4","8","6","1","1","1","13","12","0.09848484848484848","1680.3","3000","1790","[""down"",""left""]","{""num_key_presses"":4,""num_perfect"":4,""num_errors"":0,""num_randdir"":0,""num_randdir_good_moves"":0,""num_whilered"":0,""num_whileblue"":0,""num_blue"":0,""num_good_moves"":4}","[409.57142857142856,418.47767857142856,0.2,409.57142857142856,418.47767857142856,101.1,409.57142857142856,418.47767857142856,201.2,409.57142857142856,418.47767857142856,301.2,409.57142857142856,418.47767857142856,401.5,417.57142857142856,414.47767857142856,501.8,420.57142857142856,411.47767857142856,606.9,420.57142857142856,411.47767857142856,711.1,420.57142857142856,411.47767857142856,811.9,420.57142857142856,411.47767857142856,916.8,415.57142857142856,413.47767857142856,1016.9,358.57142857142856,460.47767857142856,1121.2,286.57142857142856,516.4776785714286,1222,242.57142857142856,560.4776785714286,1326.9,94.57142857142857,688.4776785714286,1426.9,51.57142857142857,739.4776785714286,1527,51.57142857142857,753.4776785714286,1631.5,50.57142857142857,759.4776785714286,1732,50.57142857142857,759.4776785714286,1837,10.57142857142857,755.4776785714286,1937,-145.42857142857144,707.4776785714286,2042,-147.42857142857144,700.4776785714286,2146,-155.42857142857144,702.4776785714286,2247.1,-155.42857142857144,702.4776785714286,2351.9,-155.42857142857144,702.4776785714286,2455.9,-155.42857142857144,702.4776785714286,2556.5,-155.42857142857144,702.4776785714286,2661.4,-155.42857142857144,702.4776785714286,2766.1,-155.42857142857144,702.4776785714286,2866.4,-155.42857142857144,702.4776785714286,2966.9,-155.42857142857144,702.4776785714286,3067,-155.42857142857144,702.4776785714286,3171.1,-155.42857142857144,702.4776785714286,3271.4,-155.42857142857144,702.4776785714286,3371.9,-155.42857142857144,702.4776785714286,3476.9,-155.42857142857144,702.4776785714286,3576.9,-155.42857142857144,702.4776785714286,3676.9,-155.42857142857144,702.4776785714286,3781.4,-155.42857142857144,702.4776785714286,3881.6,-155.42857142857144,702.4776785714286,3981.7,-155.42857142857144,702.4776785714286,4081.9,-155.42857142857144,702.4776785714286,4182,-155.42857142857144,702.4776785714286,4286.4,-155.42857142857144,702.4776785714286,4386.9,-155.42857142857144,702.4776785714286,4491.8,-155.42857142857144,702.4776785714286,4591.9,-155.42857142857144,702.4776785714286,4696.4,-155.42857142857144,702.4776785714286,4801.1,-155.42857142857144,702.4776785714286,4901.2]","[1270.8,1270.8,1000,0,270.8,""smooth"",""down"",""down"",""good_move"",4300.8,3029.8,2668.6,1271,361.2,""smooth"",""down"",""down"",""good_move"",7174,2873,2545.4,4301,327.6,""smooth"",""left"",""left"",""good_move"",9901.8,2727.5,2451.8,7174.3,275.7,""smooth"",""left"",""left"",""good_move""]"
"5811","","<div style=""width:500px;"">
  <p>What determined the result of this run?</p>
  </div>","100","html-slider-response","29","372556","0.0-7.0-1.3","176","1","2025-08-06 10:11:07","36c45c0696341be0efffe67d72a12abb","178.166.40.254","Mozilla/5.0 (Windows NT 10.0; Win64; x64) AppleWebKit/537.36 (KHTML, like Gecko) Chrome/138.0.0.0 Safari/537.36 Edg/138.0.0.0","WebKit","Edge","138.0.0.0","Windows","10.0","https://app.prolific.com/","en-GB,en;q=0.9,en-US;q=0.8,pt-BR;q=0.7,pt-PT;q=0.6,pt;q=0.5","6172d51173f6962cef6b18cf","6877649eabb845cf142cd221","68932a320cd3368dcd0a1b8a","1","6172d51173f6962cef6b18cf","1","2025-08-06T10:17:21.089Z","","","","AttribQ","","","","","","","","","","","50","","","","","","","","","","","","","","","","","","","","","","","","","","",""
"2803","","<div style=""width:500px;"">
  <p>How much control did you have over the ball?</p>
  </div>","100","html-slider-response","30","375360","0.0-7.0-2.3","176","1","2025-08-06 10:11:07","36c45c0696341be0efffe67d72a12abb","178.166.40.254","Mozilla/5.0 (Windows NT 10.0; Win64; x64) AppleWebKit/537.36 (KHTML, like Gecko) Chrome/138.0.0.0 Safari/537.36 Edg/138.0.0.0","WebKit","Edge","138.0.0.0","Windows","10.0","https://app.prolific.com/","en-GB,en;q=0.9,en-US;q=0.8,pt-BR;q=0.7,pt-PT;q=0.6,pt;q=0.5","6172d51173f6962cef6b18cf","6877649eabb845cf142cd221","68932a320cd3368dcd0a1b8a","1","6172d51173f6962cef6b18cf","1","2025-08-06T10:17:23.893Z","","","","ControlQ","","","","","","","","","","","50","","","","","","","","","","","","","","","","","","","","","","","","","","",""
"2724","","<div style=""width:500px;"">
  <p>How would you describe your current emotional state?</p>
  </div>","7","html-slider-response","31","378084","0.0-7.0-3.3","176","1","2025-08-06 10:11:07","36c45c0696341be0efffe67d72a12abb","178.166.40.254","Mozilla/5.0 (Windows NT 10.0; Win64; x64) AppleWebKit/537.36 (KHTML, like Gecko) Chrome/138.0.0.0 Safari/537.36 Edg/138.0.0.0","WebKit","Edge","138.0.0.0","Windows","10.0","https://app.prolific.com/","en-GB,en;q=0.9,en-US;q=0.8,pt-BR;q=0.7,pt-PT;q=0.6,pt;q=0.5","6172d51173f6962cef6b18cf","6877649eabb845cf142cd221","68932a320cd3368dcd0a1b8a","1","6172d51173f6962cef6b18cf","1","2025-08-06T10:17:26.618Z","","","","StressQ","","","","","","","","","","","50","","","","","","","","","","","","","","","","","","","","","","","","","","",""
"1854","","<div style=""width:500px;"">
  <p>What best describes how you currently feel?</p>
  </div>","45","html-slider-response","32","379940","0.0-7.0-4.3","176","1","2025-08-06 10:11:07","36c45c0696341be0efffe67d72a12abb","178.166.40.254","Mozilla/5.0 (Windows NT 10.0; Win64; x64) AppleWebKit/537.36 (KHTML, like Gecko) Chrome/138.0.0.0 Safari/537.36 Edg/138.0.0.0","WebKit","Edge","138.0.0.0","Windows","10.0","https://app.prolific.com/","en-GB,en;q=0.9,en-US;q=0.8,pt-BR;q=0.7,pt-PT;q=0.6,pt;q=0.5","6172d51173f6962cef6b18cf","6877649eabb845cf142cd221","68932a320cd3368dcd0a1b8a","1","6172d51173f6962cef6b18cf","1","2025-08-06T10:17:28.473Z","","","","MotivationQ","","","","","","","","","","","50","","","","","","","","","","","","","","","","","","","","","","","","","","",""
"","","","","ctl-task-cpt","33","399308","0.0-7.0-0.4","176","1","2025-08-06 10:11:07","36c45c0696341be0efffe67d72a12abb","178.166.40.254","Mozilla/5.0 (Windows NT 10.0; Win64; x64) AppleWebKit/537.36 (KHTML, like Gecko) Chrome/138.0.0.0 Safari/537.36 Edg/138.0.0.0","WebKit","Edge","138.0.0.0","Windows","10.0","https://app.prolific.com/","en-GB,en;q=0.9,en-US;q=0.8,pt-BR;q=0.7,pt-PT;q=0.6,pt;q=0.5","6172d51173f6962cef6b18cf","6877649eabb845cf142cd221","68932a320cd3368dcd0a1b8a","1","6172d51173f6962cef6b18cf","1","2025-08-06T10:17:47.841Z","","","","","","","","","","","","","","","","win-only","3","g1:SW,g2:NE","0.6","5","0","381093.4","817.1","5820.5","16350.1","1","4","8","6","1","1","0","13","13","0.09848484848484848","1385.2","3000","2040","[""down"",""left""]","{""num_key_presses"":4,""num_perfect"":3,""num_errors"":1,""num_randdir"":0,""num_randdir_good_moves"":0,""num_whilered"":0,""num_whileblue"":1,""num_blue"":1,""num_good_moves"":4}","[413.57142857142856,421.47767857142856,0.2,413.57142857142856,421.47767857142856,103.8,413.57142857142856,421.47767857142856,208.6,413.57142857142856,421.47767857142856,308.6,413.57142857142856,421.47767857142856,408.6,423.57142857142856,419.47767857142856,508.6,426.57142857142856,418.47767857142856,613.8,426.57142857142856,418.47767857142856,718,426.57142857142856,418.47767857142856,818,416.57142857142856,420.47767857142856,918.4,209.57142857142856,538.4776785714286,1018.5,3.5714285714285694,701.4776785714286,1118.6,-6.428571428571431,731.4776785714286,1223.1,4.571428571428569,775.4776785714286,1323.3,5.571428571428569,776.4776785714286,1423.3,5.571428571428569,776.4776785714286,1528.3,-16.42857142857143,773.4776785714286,1628.3,-213.42857142857144,702.4776785714286,1728.5,-232.42857142857144,680.4776785714286,1828.5,-229.42857142857144,668.4776785714286,1928.6,-229.42857142857144,668.4776785714286,2033.5,-229.42857142857144,668.4776785714286,2133.6,-229.42857142857144,668.4776785714286,2238.5,-229.42857142857144,668.4776785714286,2338.6,-229.42857142857144,668.4776785714286,2438.7,-229.42857142857144,668.4776785714286,2543.1,-229.42857142857144,668.4776785714286,2643.8,-229.42857142857144,668.4776785714286,2748.5,-229.42857142857144,668.4776785714286,2848.6,-229.42857142857144,668.4776785714286,2953.6,-229.42857142857144,668.4776785714286,3053.6,-229.42857142857144,668.4776785714286,3153.8,-229.42857142857144,668.4776785714286,3258.6,-229.42857142857144,668.4776785714286,3358.7,-229.42857142857144,668.4776785714286,3463.2,-229.42857142857144,668.4776785714286,3563.2,-229.42857142857144,668.4776785714286,3663.6,-229.42857142857144,668.4776785714286,3763.8,-229.42857142857144,668.4776785714286,3868,-229.42857142857144,668.4776785714286,3968,-229.42857142857144,668.4776785714286,4068,-229.42857142857144,668.4776785714286,4168,-229.42857142857144,668.4776785714286,4268,-229.42857142857144,668.4776785714286,4368,-229.42857142857144,668.4776785714286,4468.1,-229.42857142857144,668.4776785714286,4568.2,-229.42857142857144,668.4776785714286,4668.2,-229.42857142857144,668.4776785714286,4768.2,-229.42857142857144,668.4776785714286,4873.5,-229.42857142857144,668.4776785714286,4978.3]","[1329.5,1329.5,1000,0,329.5,""smooth"",""down"",""down"",""good_move"",4614.6,3284.9,2992.1,1329.7,292.8,""smooth"",""left"",""left"",""good_move"",7470.7,2855.9,2504.1,4614.8,351.8,""smooth"",""left"",""left"",""good_move"",10439.4,2968.5,2679.1,7470.9,289.4,""while_blue"",""down"",""down"",""good_move""]"
"4240","","<div style=""width:500px;"">
  <p>What determined the result of this run?</p>
  </div>","97","html-slider-response","34","403549","0.0-7.0-1.4","176","1","2025-08-06 10:11:07","36c45c0696341be0efffe67d72a12abb","178.166.40.254","Mozilla/5.0 (Windows NT 10.0; Win64; x64) AppleWebKit/537.36 (KHTML, like Gecko) Chrome/138.0.0.0 Safari/537.36 Edg/138.0.0.0","WebKit","Edge","138.0.0.0","Windows","10.0","https://app.prolific.com/","en-GB,en;q=0.9,en-US;q=0.8,pt-BR;q=0.7,pt-PT;q=0.6,pt;q=0.5","6172d51173f6962cef6b18cf","6877649eabb845cf142cd221","68932a320cd3368dcd0a1b8a","1","6172d51173f6962cef6b18cf","1","2025-08-06T10:17:52.082Z","","","","AttribQ","","","","","","","","","","","50","","","","","","","","","","","","","","","","","","","","","","","","","","",""
"1801","","<div style=""width:500px;"">
  <p>How much control did you have over the ball?</p>
  </div>","91","html-slider-response","35","405350","0.0-7.0-2.4","176","1","2025-08-06 10:11:07","36c45c0696341be0efffe67d72a12abb","178.166.40.254","Mozilla/5.0 (Windows NT 10.0; Win64; x64) AppleWebKit/537.36 (KHTML, like Gecko) Chrome/138.0.0.0 Safari/537.36 Edg/138.0.0.0","WebKit","Edge","138.0.0.0","Windows","10.0","https://app.prolific.com/","en-GB,en;q=0.9,en-US;q=0.8,pt-BR;q=0.7,pt-PT;q=0.6,pt;q=0.5","6172d51173f6962cef6b18cf","6877649eabb845cf142cd221","68932a320cd3368dcd0a1b8a","1","6172d51173f6962cef6b18cf","1","2025-08-06T10:17:53.883Z","","","","ControlQ","","","","","","","","","","","50","","","","","","","","","","","","","","","","","","","","","","","","","","",""
"2997","","<div style=""width:500px;"">
  <p>How would you describe your current emotional state?</p>
  </div>","15","html-slider-response","36","408348","0.0-7.0-3.4","176","1","2025-08-06 10:11:07","36c45c0696341be0efffe67d72a12abb","178.166.40.254","Mozilla/5.0 (Windows NT 10.0; Win64; x64) AppleWebKit/537.36 (KHTML, like Gecko) Chrome/138.0.0.0 Safari/537.36 Edg/138.0.0.0","WebKit","Edge","138.0.0.0","Windows","10.0","https://app.prolific.com/","en-GB,en;q=0.9,en-US;q=0.8,pt-BR;q=0.7,pt-PT;q=0.6,pt;q=0.5","6172d51173f6962cef6b18cf","6877649eabb845cf142cd221","68932a320cd3368dcd0a1b8a","1","6172d51173f6962cef6b18cf","1","2025-08-06T10:17:56.881Z","","","","StressQ","","","","","","","","","","","50","","","","","","","","","","","","","","","","","","","","","","","","","","",""
"1501","","<div style=""width:500px;"">
  <p>What best describes how you currently feel?</p>
  </div>","60","html-slider-response","37","409850","0.0-7.0-4.4","176","1","2025-08-06 10:11:07","36c45c0696341be0efffe67d72a12abb","178.166.40.254","Mozilla/5.0 (Windows NT 10.0; Win64; x64) AppleWebKit/537.36 (KHTML, like Gecko) Chrome/138.0.0.0 Safari/537.36 Edg/138.0.0.0","WebKit","Edge","138.0.0.0","Windows","10.0","https://app.prolific.com/","en-GB,en;q=0.9,en-US;q=0.8,pt-BR;q=0.7,pt-PT;q=0.6,pt;q=0.5","6172d51173f6962cef6b18cf","6877649eabb845cf142cd221","68932a320cd3368dcd0a1b8a","1","6172d51173f6962cef6b18cf","1","2025-08-06T10:17:58.383Z","","","","MotivationQ","","","","","","","","","","","50","","","","","","","","","","","","","","","","","","","","","","","","","","",""
"","","","","ctl-task-cpt","38","450532","0.0-7.0-0.5","176","1","2025-08-06 10:11:07","36c45c0696341be0efffe67d72a12abb","178.166.40.254","Mozilla/5.0 (Windows NT 10.0; Win64; x64) AppleWebKit/537.36 (KHTML, like Gecko) Chrome/138.0.0.0 Safari/537.36 Edg/138.0.0.0","WebKit","Edge","138.0.0.0","Windows","10.0","https://app.prolific.com/","en-GB,en;q=0.9,en-US;q=0.8,pt-BR;q=0.7,pt-PT;q=0.6,pt;q=0.5","6172d51173f6962cef6b18cf","6877649eabb845cf142cd221","68932a320cd3368dcd0a1b8a","1","6172d51173f6962cef6b18cf","1","2025-08-06T10:18:39.065Z","","","","","","","","","","","","","","","","win-only","3","g1:SW,g2:NE","0.5","6","0","411003.6","787.2","5790.9","37665.6","1","4","4","6","1","-1","-2","11","13","0.08333333333333333","1205.1","3000","-3015","[""down"",""left""]","{""num_key_presses"":9,""num_perfect"":4,""num_errors"":1,""num_randdir"":4,""num_randdir_good_moves"":1,""num_whilered"":0,""num_whileblue"":1,""num_blue"":3,""num_good_moves"":6}","[412.57142857142856,408.47767857142856,0.1,412.57142857142856,408.47767857142856,105.2,412.57142857142856,408.47767857142856,208.3,412.57142857142856,408.47767857142856,308.3,412.57142857142856,408.47767857142856,408.4,419.57142857142856,408.47767857142856,513.7,450.57142857142856,405.47767857142856,618.6,428.57142857142856,408.47767857142856,718.6,325.57142857142856,477.47767857142856,818.6,59.57142857142857,676.4776785714286,918.6,43.57142857142857,693.4776785714286,1023.4,55.57142857142857,727.4776785714286,1123.7,57.57142857142857,744.4776785714286,1228.1,57.57142857142857,744.4776785714286,1328.7,-2.4285714285714306,726.4776785714286,1433.5,-158.42857142857144,659.4776785714286,1538,-151.42857142857144,627.4776785714286,1638,-150.42857142857144,626.4776785714286,1738.3,-150.42857142857144,625.4776785714286,1843.5,-150.42857142857144,625.4776785714286,1948.2,-150.42857142857144,625.4776785714286,2053.2,-150.42857142857144,625.4776785714286,2153.9,-150.42857142857144,625.4776785714286,2258,-150.42857142857144,625.4776785714286,2358.3,-150.42857142857144,625.4776785714286,2458.3,-150.42857142857144,625.4776785714286,2563.7,-150.42857142857144,625.4776785714286,2668.1,-150.42857142857144,625.4776785714286,2768.4,-150.42857142857144,625.4776785714286,2868.4,-150.42857142857144,625.4776785714286,2968.4,-150.42857142857144,625.4776785714286,3068.4,-150.42857142857144,625.4776785714286,3173,-150.42857142857144,625.4776785714286,3273.6,-150.42857142857144,625.4776785714286,3378.2,-150.42857142857144,625.4776785714286,3478.3,-150.42857142857144,625.4776785714286,3578.3,-150.42857142857144,625.4776785714286,3678.4,-150.42857142857144,625.4776785714286,3783.3,-150.42857142857144,625.4776785714286,3883.3,-150.42857142857144,625.4776785714286,3988,-150.42857142857144,625.4776785714286,4088,-150.42857142857144,625.4776785714286,4193.3,-150.42857142857144,625.4776785714286,4293.3,-150.42857142857144,625.4776785714286,4398.1,-150.42857142857144,625.4776785714286,4498.4,-150.42857142857144,625.4776785714286,4603.2,-150.42857142857144,625.4776785714286,4703.3,-150.42857142857144,625.4776785714286,4803.3,-150.42857142857144,625.4776785714286,4903.4]","[1382.2,1382.2,1000,0,382.2,""oops"",""left"",""up"",""bad_move"",4896,3513.6,3144.3,1382.4,369.3,""smooth"",""left"",""left"",""good_move"",10916.9,6020.8,2354.8,8184.2,377.9,""smooth"",""down"",""down"",""good_move"",13010,2092.9,1737.7,10917.1,355.2,""smooth"",""down"",""down"",""good_move"",15277.9,2267.8,1937.5,13010.1,330.3,""oops"",""down"",""up"",""bad_move"",20560.9,5282.8,1865,18309.4,386.5,""oops"",""down"",""left"",""good_move"",22976.9,2415.9,2111.7,20561,304.2,""oops"",""down"",""right"",""bad_move"",26910.2,3933,3637.1,22977.2,295.9,""while_blue"",""down"",""left"",""good_move"",29214.8,2304.5,1980.3,26910.3,324.2,""smooth"",""down"",""down"",""good_move""]"
"1934","","<div style=""width:500px;"">
  <p>What determined the result of this run?</p>
  </div>","4","html-slider-response","39","452466","0.0-7.0-1.5","176","1","2025-08-06 10:11:07","36c45c0696341be0efffe67d72a12abb","178.166.40.254","Mozilla/5.0 (Windows NT 10.0; Win64; x64) AppleWebKit/537.36 (KHTML, like Gecko) Chrome/138.0.0.0 Safari/537.36 Edg/138.0.0.0","WebKit","Edge","138.0.0.0","Windows","10.0","https://app.prolific.com/","en-GB,en;q=0.9,en-US;q=0.8,pt-BR;q=0.7,pt-PT;q=0.6,pt;q=0.5","6172d51173f6962cef6b18cf","6877649eabb845cf142cd221","68932a320cd3368dcd0a1b8a","1","6172d51173f6962cef6b18cf","1","2025-08-06T10:18:40.999Z","","","","AttribQ","","","","","","","","","","","50","","","","","","","","","","","","","","","","","","","","","","","","","","",""
"2568","","<div style=""width:500px;"">
  <p>How much control did you have over the ball?</p>
  </div>","32","html-slider-response","40","455035","0.0-7.0-2.5","176","1","2025-08-06 10:11:07","36c45c0696341be0efffe67d72a12abb","178.166.40.254","Mozilla/5.0 (Windows NT 10.0; Win64; x64) AppleWebKit/537.36 (KHTML, like Gecko) Chrome/138.0.0.0 Safari/537.36 Edg/138.0.0.0","WebKit","Edge","138.0.0.0","Windows","10.0","https://app.prolific.com/","en-GB,en;q=0.9,en-US;q=0.8,pt-BR;q=0.7,pt-PT;q=0.6,pt;q=0.5","6172d51173f6962cef6b18cf","6877649eabb845cf142cd221","68932a320cd3368dcd0a1b8a","1","6172d51173f6962cef6b18cf","1","2025-08-06T10:18:43.568Z","","","","ControlQ","","","","","","","","","","","50","","","","","","","","","","","","","","","","","","","","","","","","","","",""
"3513","","<div style=""width:500px;"">
  <p>How would you describe your current emotional state?</p>
  </div>","34","html-slider-response","41","458549","0.0-7.0-3.5","176","1","2025-08-06 10:11:07","36c45c0696341be0efffe67d72a12abb","178.166.40.254","Mozilla/5.0 (Windows NT 10.0; Win64; x64) AppleWebKit/537.36 (KHTML, like Gecko) Chrome/138.0.0.0 Safari/537.36 Edg/138.0.0.0","WebKit","Edge","138.0.0.0","Windows","10.0","https://app.prolific.com/","en-GB,en;q=0.9,en-US;q=0.8,pt-BR;q=0.7,pt-PT;q=0.6,pt;q=0.5","6172d51173f6962cef6b18cf","6877649eabb845cf142cd221","68932a320cd3368dcd0a1b8a","1","6172d51173f6962cef6b18cf","1","2025-08-06T10:18:47.082Z","","","","StressQ","","","","","","","","","","","50","","","","","","","","","","","","","","","","","","","","","","","","","","",""
"2211","","<div style=""width:500px;"">
  <p>What best describes how you currently feel?</p>
  </div>","60","html-slider-response","42","460761","0.0-7.0-4.5","176","1","2025-08-06 10:11:07","36c45c0696341be0efffe67d72a12abb","178.166.40.254","Mozilla/5.0 (Windows NT 10.0; Win64; x64) AppleWebKit/537.36 (KHTML, like Gecko) Chrome/138.0.0.0 Safari/537.36 Edg/138.0.0.0","WebKit","Edge","138.0.0.0","Windows","10.0","https://app.prolific.com/","en-GB,en;q=0.9,en-US;q=0.8,pt-BR;q=0.7,pt-PT;q=0.6,pt;q=0.5","6172d51173f6962cef6b18cf","6877649eabb845cf142cd221","68932a320cd3368dcd0a1b8a","1","6172d51173f6962cef6b18cf","1","2025-08-06T10:18:49.294Z","","","","MotivationQ","","","","","","","","","","","50","","","","","","","","","","","","","","","","","","","","","","","","","","",""
"","","","","ctl-task-cpt","43","498570","0.0-7.0-0.6","176","1","2025-08-06 10:11:07","36c45c0696341be0efffe67d72a12abb","178.166.40.254","Mozilla/5.0 (Windows NT 10.0; Win64; x64) AppleWebKit/537.36 (KHTML, like Gecko) Chrome/138.0.0.0 Safari/537.36 Edg/138.0.0.0","WebKit","Edge","138.0.0.0","Windows","10.0","https://app.prolific.com/","en-GB,en;q=0.9,en-US;q=0.8,pt-BR;q=0.7,pt-PT;q=0.6,pt;q=0.5","6172d51173f6962cef6b18cf","6877649eabb845cf142cd221","68932a320cd3368dcd0a1b8a","1","6172d51173f6962cef6b18cf","1","2025-08-06T10:19:27.103Z","","","","","","","","","","","","","","","","win-only","2","g1:SE,g2:NW","0.4","7","0","461915.3","1222.9","6225.2","34791.1","1","4","8","6","2","-8","-8","3","11","0.022727272727272728","2180.3","3000","-3015","[""left"",""up""]","{""num_key_presses"":9,""num_perfect"":4,""num_errors"":0,""num_randdir"":5,""num_randdir_good_moves"":1,""num_whilered"":0,""num_whileblue"":0,""num_blue"":1,""num_good_moves"":5}","[407.57142857142856,408.47767857142856,0.1,407.57142857142856,408.47767857142856,103.1,407.57142857142856,408.47767857142856,203.1,407.57142857142856,408.47767857142856,303.2,407.57142857142856,408.47767857142856,407.3,406.57142857142856,409.47767857142856,512.3,406.57142857142856,409.47767857142856,612.4,403.57142857142856,414.47767857142856,712.6,398.57142857142856,421.47767857142856,812.6,399.57142857142856,436.47767857142856,912.8,405.57142857142856,447.47767857142856,1012.8,423.57142857142856,454.47767857142856,1112.9,435.57142857142856,463.47767857142856,1213,452.57142857142856,484.47767857142856,1313.5,611.5714285714286,589.4776785714286,1414.2,709.5714285714286,684.4776785714286,1517.2,731.5714285714286,715.4776785714286,1617.4,735.5714285714286,723.4776785714286,1717.4,539.5714285714286,578.4776785714286,1817.6,170.57142857142856,186.47767857142856,1917.7,87.57142857142857,92.47767857142857,2017.8,86.57142857142857,90.47767857142857,2122.8,85.57142857142857,90.47767857142857,2227.8,82.57142857142857,90.47767857142857,2332.5,-89.42857142857143,131.47767857142856,2432.6,-128.42857142857144,152.47767857142856,2532.7,-128.42857142857144,152.47767857142856,2632.7,-128.42857142857144,152.47767857142856,2732.9,-128.42857142857144,152.47767857142856,2837.8,-128.42857142857144,152.47767857142856,2937.8,-128.42857142857144,152.47767857142856,3038,-128.42857142857144,152.47767857142856,3138.1,-128.42857142857144,152.47767857142856,3243.1,-128.42857142857144,152.47767857142856,3347.2,-128.42857142857144,152.47767857142856,3447.3,-128.42857142857144,152.47767857142856,3547.4,-128.42857142857144,152.47767857142856,3647.5,-128.42857142857144,152.47767857142856,3747.6,-128.42857142857144,152.47767857142856,3847.7,-128.42857142857144,152.47767857142856,3947.7,-128.42857142857144,152.47767857142856,4052.3,-128.42857142857144,152.47767857142856,4152.5,-128.42857142857144,152.47767857142856,4253.5,-128.42857142857144,152.47767857142856,4357.2,-128.42857142857144,152.47767857142856,4457.2,-128.42857142857144,152.47767857142856,4557.3,-128.42857142857144,152.47767857142856,4662.9,-128.42857142857144,152.47767857142856,4763,-128.42857142857144,152.47767857142856,4863,-128.42857142857144,152.47767857142856,4963.2]","[1340.9,1340.9,1000,0,340.9,""smooth"",""up"",""up"",""good_move"",4135.8,2794.7,2477.5,1341.1,317.2,""oops"",""up"",""down"",""bad_move"",6588,2451.9,2106.6,4136.1,345.3,""smooth"",""left"",""left"",""good_move"",8807,2218.6,1916.6,6588.4,302,""oops"",""up"",""right"",""bad_move"",15652,6844.8,3043.1,12300,308.9,""smooth"",""left"",""left"",""good_move"",17752.9,2100.6,1764.1,15652.3,336.5,""oops"",""left"",""left"",""good_move"",20692,2939,2569.4,17753,369.6,""oops"",""up"",""right"",""bad_move"",23241.8,2549.5,2263.4,20692.3,286.1,""oops"",""up"",""down"",""bad_move"",25867.9,2625.8,2317.9,23242.1,307.9,""smooth"",""up"",""up"",""good_move""]"
"2245","","<div style=""width:500px;"">
  <p>What determined the result of this run?</p>
  </div>","7","html-slider-response","44","500815","0.0-7.0-1.6","176","1","2025-08-06 10:11:07","36c45c0696341be0efffe67d72a12abb","178.166.40.254","Mozilla/5.0 (Windows NT 10.0; Win64; x64) AppleWebKit/537.36 (KHTML, like Gecko) Chrome/138.0.0.0 Safari/537.36 Edg/138.0.0.0","WebKit","Edge","138.0.0.0","Windows","10.0","https://app.prolific.com/","en-GB,en;q=0.9,en-US;q=0.8,pt-BR;q=0.7,pt-PT;q=0.6,pt;q=0.5","6172d51173f6962cef6b18cf","6877649eabb845cf142cd221","68932a320cd3368dcd0a1b8a","1","6172d51173f6962cef6b18cf","1","2025-08-06T10:19:29.348Z","","","","AttribQ","","","","","","","","","","","50","","","","","","","","","","","","","","","","","","","","","","","","","","",""
"2031","","<div style=""width:500px;"">
  <p>How much control did you have over the ball?</p>
  </div>","5","html-slider-response","45","502847","0.0-7.0-2.6","176","1","2025-08-06 10:11:07","36c45c0696341be0efffe67d72a12abb","178.166.40.254","Mozilla/5.0 (Windows NT 10.0; Win64; x64) AppleWebKit/537.36 (KHTML, like Gecko) Chrome/138.0.0.0 Safari/537.36 Edg/138.0.0.0","WebKit","Edge","138.0.0.0","Windows","10.0","https://app.prolific.com/","en-GB,en;q=0.9,en-US;q=0.8,pt-BR;q=0.7,pt-PT;q=0.6,pt;q=0.5","6172d51173f6962cef6b18cf","6877649eabb845cf142cd221","68932a320cd3368dcd0a1b8a","1","6172d51173f6962cef6b18cf","1","2025-08-06T10:19:31.380Z","","","","ControlQ","","","","","","","","","","","50","","","","","","","","","","","","","","","","","","","","","","","","","","",""
"2221","","<div style=""width:500px;"">
  <p>How would you describe your current emotional state?</p>
  </div>","100","html-slider-response","46","505069","0.0-7.0-3.6","176","1","2025-08-06 10:11:07","36c45c0696341be0efffe67d72a12abb","178.166.40.254","Mozilla/5.0 (Windows NT 10.0; Win64; x64) AppleWebKit/537.36 (KHTML, like Gecko) Chrome/138.0.0.0 Safari/537.36 Edg/138.0.0.0","WebKit","Edge","138.0.0.0","Windows","10.0","https://app.prolific.com/","en-GB,en;q=0.9,en-US;q=0.8,pt-BR;q=0.7,pt-PT;q=0.6,pt;q=0.5","6172d51173f6962cef6b18cf","6877649eabb845cf142cd221","68932a320cd3368dcd0a1b8a","1","6172d51173f6962cef6b18cf","1","2025-08-06T10:19:33.602Z","","","","StressQ","","","","","","","","","","","50","","","","","","","","","","","","","","","","","","","","","","","","","","",""
"2654","","<div style=""width:500px;"">
  <p>What best describes how you currently feel?</p>
  </div>","21","html-slider-response","47","507724","0.0-7.0-4.6","176","1","2025-08-06 10:11:07","36c45c0696341be0efffe67d72a12abb","178.166.40.254","Mozilla/5.0 (Windows NT 10.0; Win64; x64) AppleWebKit/537.36 (KHTML, like Gecko) Chrome/138.0.0.0 Safari/537.36 Edg/138.0.0.0","WebKit","Edge","138.0.0.0","Windows","10.0","https://app.prolific.com/","en-GB,en;q=0.9,en-US;q=0.8,pt-BR;q=0.7,pt-PT;q=0.6,pt;q=0.5","6172d51173f6962cef6b18cf","6877649eabb845cf142cd221","68932a320cd3368dcd0a1b8a","1","6172d51173f6962cef6b18cf","1","2025-08-06T10:19:36.257Z","","","","MotivationQ","","","","","","","","","","","50","","","","","","","","","","","","","","","","","","","","","","","","","","",""
"","","","","ctl-task-cpt","48","536497","0.0-7.0-0.7","176","1","2025-08-06 10:11:07","36c45c0696341be0efffe67d72a12abb","178.166.40.254","Mozilla/5.0 (Windows NT 10.0; Win64; x64) AppleWebKit/537.36 (KHTML, like Gecko) Chrome/138.0.0.0 Safari/537.36 Edg/138.0.0.0","WebKit","Edge","138.0.0.0","Windows","10.0","https://app.prolific.com/","en-GB,en;q=0.9,en-US;q=0.8,pt-BR;q=0.7,pt-PT;q=0.6,pt;q=0.5","6172d51173f6962cef6b18cf","6877649eabb845cf142cd221","68932a320cd3368dcd0a1b8a","1","6172d51173f6962cef6b18cf","1","2025-08-06T10:20:05.030Z","","","","","","","","","","","","","","","","win-only","3","g1:SW,g2:NE","0.3","8","0","508877.6","756.1","5760.6","25755.9","1","4","4","6","1","1","0","3","3","0.022727272727272728","1902.1","3000","1335","[""down"",""left""]","{""num_key_presses"":6,""num_perfect"":2,""num_errors"":1,""num_randdir"":3,""num_randdir_good_moves"":2,""num_whilered"":0,""num_whileblue"":1,""num_blue"":2,""num_good_moves"":5}","[421.57142857142856,411.47767857142856,0.1,421.57142857142856,411.47767857142856,104.6,421.57142857142856,411.47767857142856,204.7,421.57142857142856,412.47767857142856,304.9,419.57142857142856,413.47767857142856,404.9,419.57142857142856,413.47767857142856,508.9,419.57142857142856,413.47767857142856,609.1,412.57142857142856,415.47767857142856,709.1,403.57142857142856,419.47767857142856,809.3,401.57142857142856,421.47767857142856,909.3,401.57142857142856,421.47767857142856,1009.5,401.57142857142856,421.47767857142856,1109.7,401.57142857142856,421.47767857142856,1214.9,401.57142857142856,421.47767857142856,1314.9,400.57142857142856,421.47767857142856,1419,231.57142857142856,518.4776785714286,1519.1,140.57142857142856,645.4776785714286,1619.1,136.57142857142856,665.4776785714286,1719.9,111.57142857142857,719.4776785714286,1824.1,106.57142857142857,728.4776785714286,1924.1,106.57142857142857,728.4776785714286,2024.6,-7.428571428571431,681.4776785714286,2124.7,-126.42857142857143,605.4776785714286,2224.8,-152.42857142857144,564.4776785714286,2325,-152.42857142857144,549.4776785714286,2429,-152.42857142857144,548.4776785714286,2529.2,-152.42857142857144,548.4776785714286,2629.3,-152.42857142857144,548.4776785714286,2729.4,-152.42857142857144,548.4776785714286,2830.4,-152.42857142857144,548.4776785714286,2934.5,-152.42857142857144,548.4776785714286,3034.6,-152.42857142857144,548.4776785714286,3134.7,-152.42857142857144,548.4776785714286,3234.7,-152.42857142857144,548.4776785714286,3334.8,-152.42857142857144,548.4776785714286,3438.9,-152.42857142857144,548.4776785714286,3539,-152.42857142857144,548.4776785714286,3639.1,-152.42857142857144,548.4776785714286,3739.2,-152.42857142857144,548.4776785714286,3839.3,-152.42857142857144,548.4776785714286,3939.4,-152.42857142857144,548.4776785714286,4039.5,-152.42857142857144,548.4776785714286,4139.5,-152.42857142857144,548.4776785714286,4239.6,-152.42857142857144,548.4776785714286,4344.5,-152.42857142857144,548.4776785714286,4444.6,-152.42857142857144,548.4776785714286,4544.6,-152.42857142857144,548.4776785714286,4644.6,-152.42857142857144,548.4776785714286,4749.9,-152.42857142857144,548.4776785714286,4849.9,-152.42857142857144,548.4776785714286,4954.1]","[1360.2,1360.2,1000,0,360.2,""oops"",""down"",""down"",""good_move"",8335.5,6975,2937.2,5095.3,303,""oops"",""down"",""left"",""good_move"",11252.2,2916.6,2569.5,8335.7,347.1,""oops"",""down"",""up"",""bad_move"",14134.1,2881.6,2627.9,11252.5,253.7,""while_blue"",""down"",""down"",""good_move"",17649.1,3514.8,3177.5,14134.3,337.3,""smooth"",""down"",""down"",""good_move"",19906.4,2257.2,1912.6,17649.2,344.6,""smooth"",""left"",""left"",""good_move""]"
"2934","","<div style=""width:500px;"">
  <p>What determined the result of this run?</p>
  </div>","27","html-slider-response","49","539432","0.0-7.0-1.7","176","1","2025-08-06 10:11:07","36c45c0696341be0efffe67d72a12abb","178.166.40.254","Mozilla/5.0 (Windows NT 10.0; Win64; x64) AppleWebKit/537.36 (KHTML, like Gecko) Chrome/138.0.0.0 Safari/537.36 Edg/138.0.0.0","WebKit","Edge","138.0.0.0","Windows","10.0","https://app.prolific.com/","en-GB,en;q=0.9,en-US;q=0.8,pt-BR;q=0.7,pt-PT;q=0.6,pt;q=0.5","6172d51173f6962cef6b18cf","6877649eabb845cf142cd221","68932a320cd3368dcd0a1b8a","1","6172d51173f6962cef6b18cf","1","2025-08-06T10:20:07.965Z","","","","AttribQ","","","","","","","","","","","50","","","","","","","","","","","","","","","","","","","","","","","","","","",""
"3050","","<div style=""width:500px;"">
  <p>How much control did you have over the ball?</p>
  </div>","22","html-slider-response","50","542483","0.0-7.0-2.7","176","1","2025-08-06 10:11:07","36c45c0696341be0efffe67d72a12abb","178.166.40.254","Mozilla/5.0 (Windows NT 10.0; Win64; x64) AppleWebKit/537.36 (KHTML, like Gecko) Chrome/138.0.0.0 Safari/537.36 Edg/138.0.0.0","WebKit","Edge","138.0.0.0","Windows","10.0","https://app.prolific.com/","en-GB,en;q=0.9,en-US;q=0.8,pt-BR;q=0.7,pt-PT;q=0.6,pt;q=0.5","6172d51173f6962cef6b18cf","6877649eabb845cf142cd221","68932a320cd3368dcd0a1b8a","1","6172d51173f6962cef6b18cf","1","2025-08-06T10:20:11.016Z","","","","ControlQ","","","","","","","","","","","50","","","","","","","","","","","","","","","","","","","","","","","","","","",""
"2445","","<div style=""width:500px;"">
  <p>How would you describe your current emotional state?</p>
  </div>","70","html-slider-response","51","544929","0.0-7.0-3.7","176","1","2025-08-06 10:11:07","36c45c0696341be0efffe67d72a12abb","178.166.40.254","Mozilla/5.0 (Windows NT 10.0; Win64; x64) AppleWebKit/537.36 (KHTML, like Gecko) Chrome/138.0.0.0 Safari/537.36 Edg/138.0.0.0","WebKit","Edge","138.0.0.0","Windows","10.0","https://app.prolific.com/","en-GB,en;q=0.9,en-US;q=0.8,pt-BR;q=0.7,pt-PT;q=0.6,pt;q=0.5","6172d51173f6962cef6b18cf","6877649eabb845cf142cd221","68932a320cd3368dcd0a1b8a","1","6172d51173f6962cef6b18cf","1","2025-08-06T10:20:13.462Z","","","","StressQ","","","","","","","","","","","50","","","","","","","","","","","","","","","","","","","","","","","","","","",""
"2979","","<div style=""width:500px;"">
  <p>What best describes how you currently feel?</p>
  </div>","39","html-slider-response","52","547909","0.0-7.0-4.7","176","1","2025-08-06 10:11:07","36c45c0696341be0efffe67d72a12abb","178.166.40.254","Mozilla/5.0 (Windows NT 10.0; Win64; x64) AppleWebKit/537.36 (KHTML, like Gecko) Chrome/138.0.0.0 Safari/537.36 Edg/138.0.0.0","WebKit","Edge","138.0.0.0","Windows","10.0","https://app.prolific.com/","en-GB,en;q=0.9,en-US;q=0.8,pt-BR;q=0.7,pt-PT;q=0.6,pt;q=0.5","6172d51173f6962cef6b18cf","6877649eabb845cf142cd221","68932a320cd3368dcd0a1b8a","1","6172d51173f6962cef6b18cf","1","2025-08-06T10:20:16.442Z","","","","MotivationQ","","","","","","","","","","","50","","","","","","","","","","","","","","","","","","","","","","","","","","",""
"","","","","ctl-task-cpt","53","608857","0.0-7.0-0.8","176","1","2025-08-06 10:11:07","36c45c0696341be0efffe67d72a12abb","178.166.40.254","Mozilla/5.0 (Windows NT 10.0; Win64; x64) AppleWebKit/537.36 (KHTML, like Gecko) Chrome/138.0.0.0 Safari/537.36 Edg/138.0.0.0","WebKit","Edge","138.0.0.0","Windows","10.0","https://app.prolific.com/","en-GB,en;q=0.9,en-US;q=0.8,pt-BR;q=0.7,pt-PT;q=0.6,pt;q=0.5","6172d51173f6962cef6b18cf","6877649eabb845cf142cd221","68932a320cd3368dcd0a1b8a","1","6172d51173f6962cef6b18cf","1","2025-08-06T10:21:17.390Z","","","","","","","","","","","","","","","","win-only","1","g1:NE,g2:SW","0.4","9","0","549063.1","661","5665.3","57931","1","4","8","6","2","-8","-10","0","3","0","966","3000","-3015","[""down"",""left""]","{""num_key_presses"":10,""num_perfect"":4,""num_errors"":2,""num_randdir"":4,""num_randdir_good_moves"":1,""num_whilered"":0,""num_whileblue"":1,""num_blue"":8,""num_good_moves"":6}","[414.57142857142856,408.47767857142856,0.1,414.57142857142856,408.47767857142856,104.6,414.57142857142856,408.47767857142856,209.5,414.57142857142856,408.47767857142856,309.7,405.57142857142856,414.47767857142856,414.6,252.57142857142856,517.4776785714286,514.7,132.57142857142856,658.4776785714286,619.8,118.57142857142857,692.4776785714286,724.4,114.57142857142857,704.4776785714286,824.6,95.57142857142857,730.4776785714286,929.2,95.57142857142857,731.4776785714286,1029.8,95.57142857142857,732.4776785714286,1134.7,-35.42857142857143,693.4776785714286,1239.2,-173.42857142857144,632.4776785714286,1339.2,-164.42857142857144,600.4776785714286,1439.4,-159.42857142857144,596.4776785714286,1540.7,-162.42857142857144,594.4776785714286,1644.8,-162.42857142857144,594.4776785714286,1749.8,-162.42857142857144,594.4776785714286,1854.1,-162.42857142857144,594.4776785714286,1954.2,-162.42857142857144,594.4776785714286,2054.4,-162.42857142857144,594.4776785714286,2154.4,-162.42857142857144,594.4776785714286,2259.7,-162.42857142857144,594.4776785714286,2359.8,-162.42857142857144,594.4776785714286,2459.8,-162.42857142857144,594.4776785714286,2559.8,-162.42857142857144,594.4776785714286,2659.8,-162.42857142857144,594.4776785714286,2759.8,-162.42857142857144,594.4776785714286,2864.6,-162.42857142857144,594.4776785714286,2965.6,-162.42857142857144,594.4776785714286,3069.7,-162.42857142857144,594.4776785714286,3174.6,-162.42857142857144,594.4776785714286,3274.6,-162.42857142857144,594.4776785714286,3374.9,-162.42857142857144,594.4776785714286,3479.6,-162.42857142857144,594.4776785714286,3579.8,-162.42857142857144,594.4776785714286,3679.8,-162.42857142857144,594.4776785714286,3784.7,-162.42857142857144,594.4776785714286,3889.6,-162.42857142857144,594.4776785714286,3989.6,-162.42857142857144,594.4776785714286,4094.7,-162.42857142857144,594.4776785714286,4199.6,-162.42857142857144,594.4776785714286,4299.8,-162.42857142857144,594.4776785714286,4404.2,-162.42857142857144,594.4776785714286,4504.3,-162.42857142857144,594.4776785714286,4609.7,-162.42857142857144,594.4776785714286,4709.7,-162.42857142857144,594.4776785714286,4814.6,-162.42857142857144,594.4776785714286,4914.6]","[11289.2,11289.2,1920.9,8950.1,418.2,""smooth"",""down"",""down"",""good_move"",13411,2121.6,1785.2,11289.4,336.4,""smooth"",""down"",""down"",""good_move"",16331,2919.9,2571.7,13411.1,348.2,""oops"",""left"",""right"",""bad_move"",18898.9,2567.8,2240.5,16331.1,327.3,""oops"",""down"",""right"",""bad_move"",20962.8,2063.8,1715.7,18899.1,348.1,""smooth"",""down"",""down"",""good_move"",38073.1,17110,2505.1,35164.8,403.2,""smooth"",""left"",""left"",""good_move"",40566.7,2493.4,2181.5,38073.3,311.9,""oops"",""left"",""left"",""good_move"",43276.9,2710,2383.1,40566.9,326.9,""oops"",""left"",""right"",""bad_move"",45170,1892.9,2413.5,43277.1,-520.6,""error"",""-"",""-"",""no_move"",49654.1,4483.9,3140.1,46175.3,338.7,""while_blue"",""left"",""left"",""good_move""]"
"11516","","<div style=""width:500px;"">
  <p>What determined the result of this run?</p>
  </div>","0","html-slider-response","54","620373","0.0-7.0-1.8","176","1","2025-08-06 10:11:07","36c45c0696341be0efffe67d72a12abb","178.166.40.254","Mozilla/5.0 (Windows NT 10.0; Win64; x64) AppleWebKit/537.36 (KHTML, like Gecko) Chrome/138.0.0.0 Safari/537.36 Edg/138.0.0.0","WebKit","Edge","138.0.0.0","Windows","10.0","https://app.prolific.com/","en-GB,en;q=0.9,en-US;q=0.8,pt-BR;q=0.7,pt-PT;q=0.6,pt;q=0.5","6172d51173f6962cef6b18cf","6877649eabb845cf142cd221","68932a320cd3368dcd0a1b8a","1","6172d51173f6962cef6b18cf","1","2025-08-06T10:21:28.906Z","","","","AttribQ","","","","","","","","","","","50","","","","","","","","","","","","","","","","","","","","","","","","","","",""
"1760","","<div style=""width:500px;"">
  <p>How much control did you have over the ball?</p>
  </div>","0","html-slider-response","55","622134","0.0-7.0-2.8","176","1","2025-08-06 10:11:07","36c45c0696341be0efffe67d72a12abb","178.166.40.254","Mozilla/5.0 (Windows NT 10.0; Win64; x64) AppleWebKit/537.36 (KHTML, like Gecko) Chrome/138.0.0.0 Safari/537.36 Edg/138.0.0.0","WebKit","Edge","138.0.0.0","Windows","10.0","https://app.prolific.com/","en-GB,en;q=0.9,en-US;q=0.8,pt-BR;q=0.7,pt-PT;q=0.6,pt;q=0.5","6172d51173f6962cef6b18cf","6877649eabb845cf142cd221","68932a320cd3368dcd0a1b8a","1","6172d51173f6962cef6b18cf","1","2025-08-06T10:21:30.667Z","","","","ControlQ","","","","","","","","","","","50","","","","","","","","","","","","","","","","","","","","","","","","","","",""
"2140","","<div style=""width:500px;"">
  <p>How would you describe your current emotional state?</p>
  </div>","99","html-slider-response","56","624275","0.0-7.0-3.8","176","1","2025-08-06 10:11:07","36c45c0696341be0efffe67d72a12abb","178.166.40.254","Mozilla/5.0 (Windows NT 10.0; Win64; x64) AppleWebKit/537.36 (KHTML, like Gecko) Chrome/138.0.0.0 Safari/537.36 Edg/138.0.0.0","WebKit","Edge","138.0.0.0","Windows","10.0","https://app.prolific.com/","en-GB,en;q=0.9,en-US;q=0.8,pt-BR;q=0.7,pt-PT;q=0.6,pt;q=0.5","6172d51173f6962cef6b18cf","6877649eabb845cf142cd221","68932a320cd3368dcd0a1b8a","1","6172d51173f6962cef6b18cf","1","2025-08-06T10:21:32.808Z","","","","StressQ","","","","","","","","","","","50","","","","","","","","","","","","","","","","","","","","","","","","","","",""
"1846","","<div style=""width:500px;"">
  <p>What best describes how you currently feel?</p>
  </div>","10","html-slider-response","57","626122","0.0-7.0-4.8","176","1","2025-08-06 10:11:07","36c45c0696341be0efffe67d72a12abb","178.166.40.254","Mozilla/5.0 (Windows NT 10.0; Win64; x64) AppleWebKit/537.36 (KHTML, like Gecko) Chrome/138.0.0.0 Safari/537.36 Edg/138.0.0.0","WebKit","Edge","138.0.0.0","Windows","10.0","https://app.prolific.com/","en-GB,en;q=0.9,en-US;q=0.8,pt-BR;q=0.7,pt-PT;q=0.6,pt;q=0.5","6172d51173f6962cef6b18cf","6877649eabb845cf142cd221","68932a320cd3368dcd0a1b8a","1","6172d51173f6962cef6b18cf","1","2025-08-06T10:21:34.655Z","","","","MotivationQ","","","","","","","","","","","50","","","","","","","","","","","","","","","","","","","","","","","","","","",""
"","","","","ctl-task-cpt","58","656094","0.0-7.0-0.9","176","1","2025-08-06 10:11:07","36c45c0696341be0efffe67d72a12abb","178.166.40.254","Mozilla/5.0 (Windows NT 10.0; Win64; x64) AppleWebKit/537.36 (KHTML, like Gecko) Chrome/138.0.0.0 Safari/537.36 Edg/138.0.0.0","WebKit","Edge","138.0.0.0","Windows","10.0","https://app.prolific.com/","en-GB,en;q=0.9,en-US;q=0.8,pt-BR;q=0.7,pt-PT;q=0.6,pt;q=0.5","6172d51173f6962cef6b18cf","6877649eabb845cf142cd221","68932a320cd3368dcd0a1b8a","1","6172d51173f6962cef6b18cf","1","2025-08-06T10:22:04.627Z","","","","","","","","","","","","","","","","win-only","1","g1:NE,g2:SW","0.5","10","0","627275.6","836.4","5841.3","26955.9","1","4","4","6","1","1","1","1","0","0.007575757575757576","814.8","3000","1405","[""up"",""right""]","{""num_key_presses"":4,""num_perfect"":4,""num_errors"":0,""num_randdir"":0,""num_randdir_good_moves"":0,""num_whilered"":0,""num_whileblue"":0,""num_blue"":3,""num_good_moves"":4}","[419.57142857142856,427.47767857142856,0.2,419.57142857142856,427.47767857142856,117.1,419.57142857142856,427.47767857142856,219.1,419.57142857142856,427.47767857142856,319.3,419.57142857142856,427.47767857142856,419.4,537.5714285714286,259.47767857142856,520.2,673.5714285714286,121.47767857142857,624.4,707.5714285714286,86.47767857142857,724.5,725.5714285714286,68.47767857142857,824.7,725.5714285714286,68.47767857142857,933.3,742.5714285714286,81.47767857142857,1034.2,1072.5714285714287,272.47767857142856,1140.1,1165.5714285714287,325.47767857142856,1243.9,1165.5714285714287,326.47767857142856,1344.3,1165.5714285714287,326.47767857142856,1448.8,1165.5714285714287,326.47767857142856,1549.6,1165.5714285714287,326.47767857142856,1653.8,1165.5714285714287,326.47767857142856,1753.8,1165.5714285714287,326.47767857142856,1853.9,1165.5714285714287,326.47767857142856,1954,1165.5714285714287,326.47767857142856,2054.1,1165.5714285714287,326.47767857142856,2154.1,1165.5714285714287,326.47767857142856,2254.3,1165.5714285714287,326.47767857142856,2354.4,1165.5714285714287,326.47767857142856,2454.5,1165.5714285714287,326.47767857142856,2554.5,1165.5714285714287,326.47767857142856,2654.5,1165.5714285714287,326.47767857142856,2758.8,1165.5714285714287,326.47767857142856,2859,1165.5714285714287,326.47767857142856,2959,1165.5714285714287,326.47767857142856,3059,1165.5714285714287,326.47767857142856,3163.9,1165.5714285714287,326.47767857142856,3264,1165.5714285714287,326.47767857142856,3364,1165.5714285714287,326.47767857142856,3468.9,1165.5714285714287,326.47767857142856,3569,1165.5714285714287,326.47767857142856,3669.1,1165.5714285714287,326.47767857142856,3769.1,1165.5714285714287,326.47767857142856,3869.3,1165.5714285714287,326.47767857142856,3973.9,1165.5714285714287,326.47767857142856,4073.9,1165.5714285714287,326.47767857142856,4174.1,1165.5714285714287,326.47767857142856,4274.1,1165.5714285714287,326.47767857142856,4374.2,1165.5714285714287,326.47767857142856,4474.3,1165.5714285714287,326.47767857142856,4574.4,1165.5714285714287,326.47767857142856,4674.5,1165.5714285714287,326.47767857142856,4774.5,1165.5714285714287,326.47767857142856,4874.5,1165.5714285714287,326.47767857142856,4974.6]","[1343.9,1343.9,1000,0,343.9,""smooth"",""up"",""up"",""good_move"",12384.6,11040.5,2822.3,9109.1,453.2,""smooth"",""up"",""up"",""good_move"",18408.4,6023.6,2542.8,15423.9,441.7,""smooth"",""right"",""right"",""good_move"",21026.4,2617.9,2238.1,18408.5,379.8,""smooth"",""right"",""right"",""good_move""]"
"2750","","<div style=""width:500px;"">
  <p>What determined the result of this run?</p>
  </div>","77","html-slider-response","59","658845","0.0-7.0-1.9","176","1","2025-08-06 10:11:07","36c45c0696341be0efffe67d72a12abb","178.166.40.254","Mozilla/5.0 (Windows NT 10.0; Win64; x64) AppleWebKit/537.36 (KHTML, like Gecko) Chrome/138.0.0.0 Safari/537.36 Edg/138.0.0.0","WebKit","Edge","138.0.0.0","Windows","10.0","https://app.prolific.com/","en-GB,en;q=0.9,en-US;q=0.8,pt-BR;q=0.7,pt-PT;q=0.6,pt;q=0.5","6172d51173f6962cef6b18cf","6877649eabb845cf142cd221","68932a320cd3368dcd0a1b8a","1","6172d51173f6962cef6b18cf","1","2025-08-06T10:22:07.378Z","","","","AttribQ","","","","","","","","","","","50","","","","","","","","","","","","","","","","","","","","","","","","","","",""
"2426","","<div style=""width:500px;"">
  <p>How much control did you have over the ball?</p>
  </div>","73","html-slider-response","60","661272","0.0-7.0-2.9","176","1","2025-08-06 10:11:07","36c45c0696341be0efffe67d72a12abb","178.166.40.254","Mozilla/5.0 (Windows NT 10.0; Win64; x64) AppleWebKit/537.36 (KHTML, like Gecko) Chrome/138.0.0.0 Safari/537.36 Edg/138.0.0.0","WebKit","Edge","138.0.0.0","Windows","10.0","https://app.prolific.com/","en-GB,en;q=0.9,en-US;q=0.8,pt-BR;q=0.7,pt-PT;q=0.6,pt;q=0.5","6172d51173f6962cef6b18cf","6877649eabb845cf142cd221","68932a320cd3368dcd0a1b8a","1","6172d51173f6962cef6b18cf","1","2025-08-06T10:22:09.805Z","","","","ControlQ","","","","","","","","","","","50","","","","","","","","","","","","","","","","","","","","","","","","","","",""
"1805","","<div style=""width:500px;"">
  <p>How would you describe your current emotional state?</p>
  </div>","70","html-slider-response","61","663078","0.0-7.0-3.9","176","1","2025-08-06 10:11:07","36c45c0696341be0efffe67d72a12abb","178.166.40.254","Mozilla/5.0 (Windows NT 10.0; Win64; x64) AppleWebKit/537.36 (KHTML, like Gecko) Chrome/138.0.0.0 Safari/537.36 Edg/138.0.0.0","WebKit","Edge","138.0.0.0","Windows","10.0","https://app.prolific.com/","en-GB,en;q=0.9,en-US;q=0.8,pt-BR;q=0.7,pt-PT;q=0.6,pt;q=0.5","6172d51173f6962cef6b18cf","6877649eabb845cf142cd221","68932a320cd3368dcd0a1b8a","1","6172d51173f6962cef6b18cf","1","2025-08-06T10:22:11.611Z","","","","StressQ","","","","","","","","","","","50","","","","","","","","","","","","","","","","","","","","","","","","","","",""
"2108","","<div style=""width:500px;"">
  <p>What best describes how you currently feel?</p>
  </div>","21","html-slider-response","62","665187","0.0-7.0-4.9","176","1","2025-08-06 10:11:07","36c45c0696341be0efffe67d72a12abb","178.166.40.254","Mozilla/5.0 (Windows NT 10.0; Win64; x64) AppleWebKit/537.36 (KHTML, like Gecko) Chrome/138.0.0.0 Safari/537.36 Edg/138.0.0.0","WebKit","Edge","138.0.0.0","Windows","10.0","https://app.prolific.com/","en-GB,en;q=0.9,en-US;q=0.8,pt-BR;q=0.7,pt-PT;q=0.6,pt;q=0.5","6172d51173f6962cef6b18cf","6877649eabb845cf142cd221","68932a320cd3368dcd0a1b8a","1","6172d51173f6962cef6b18cf","1","2025-08-06T10:22:13.720Z","","","","MotivationQ","","","","","","","","","","","50","","","","","","","","","","","","","","","","","","","","","","","","","","",""
"","","","","ctl-task-cpt","63","687996","0.0-7.0-0.10","176","1","2025-08-06 10:11:07","36c45c0696341be0efffe67d72a12abb","178.166.40.254","Mozilla/5.0 (Windows NT 10.0; Win64; x64) AppleWebKit/537.36 (KHTML, like Gecko) Chrome/138.0.0.0 Safari/537.36 Edg/138.0.0.0","WebKit","Edge","138.0.0.0","Windows","10.0","https://app.prolific.com/","en-GB,en;q=0.9,en-US;q=0.8,pt-BR;q=0.7,pt-PT;q=0.6,pt;q=0.5","6172d51173f6962cef6b18cf","6877649eabb845cf142cd221","68932a320cd3368dcd0a1b8a","1","6172d51173f6962cef6b18cf","1","2025-08-06T10:22:36.529Z","","","","","","","","","","","","","","","","win-only","2","g1:SE,g2:NW","0.6","11","0","666341","957.1","5960.9","19790.7","1","4","8","6","1","1","1","2","1","0.015151515151515152","663","3000","1720","[""down"",""right""]","{""num_key_presses"":4,""num_perfect"":4,""num_errors"":0,""num_randdir"":0,""num_randdir_good_moves"":0,""num_whilered"":0,""num_whileblue"":0,""num_blue"":1,""num_good_moves"":4}","[414.57142857142856,422.47767857142856,0.2,414.57142857142856,422.47767857142856,103.8,414.57142857142856,422.47767857142856,208.2,414.57142857142856,422.47767857142856,308.7,425.57142857142856,456.47767857142856,413.1,676.5714285714286,668.4776785714286,513.4,751.5714285714286,734.4776785714286,618.3,751.5714285714286,734.4776785714286,718.6,761.5714285714286,734.4776785714286,818.6,922.5714285714286,702.4776785714286,918.7,1031.5714285714287,661.4776785714286,1023.8,1032.5714285714287,661.4776785714286,1123.8,1041.5714285714287,661.4776785714286,1228.5,1041.5714285714287,661.4776785714286,1333.4,1041.5714285714287,661.4776785714286,1439.2,1041.5714285714287,661.4776785714286,1543.1,1041.5714285714287,661.4776785714286,1644.1,1041.5714285714287,661.4776785714286,1750.2,1041.5714285714287,661.4776785714286,1853.1,1041.5714285714287,661.4776785714286,1953.1,1041.5714285714287,661.4776785714286,2058,1041.5714285714287,661.4776785714286,2158.2,1041.5714285714287,661.4776785714286,2258.2,1041.5714285714287,661.4776785714286,2358.3,1041.5714285714287,661.4776785714286,2458.4,1041.5714285714287,661.4776785714286,2563.6,1041.5714285714287,661.4776785714286,2663.6,1041.5714285714287,661.4776785714286,2768.5,1041.5714285714287,661.4776785714286,2868.5,1041.5714285714287,661.4776785714286,2968.7,1041.5714285714287,661.4776785714286,3073.8,1041.5714285714287,661.4776785714286,3178.1,1041.5714285714287,661.4776785714286,3278.7,1041.5714285714287,661.4776785714286,3378.7,1041.5714285714287,661.4776785714286,3483.1,1041.5714285714287,661.4776785714286,3583.1,1041.5714285714287,661.4776785714286,3683.5,1041.5714285714287,661.4776785714286,3783.6,1041.5714285714287,661.4776785714286,3883.9,1041.5714285714287,661.4776785714286,3988.7,1041.5714285714287,661.4776785714286,4088.7,1041.5714285714287,661.4776785714286,4194.1,1041.5714285714287,661.4776785714286,4298.3,1041.5714285714287,661.4776785714286,4398.3,1041.5714285714287,661.4776785714286,4498.4,1041.5714285714287,661.4776785714286,4598.6,1041.5714285714287,661.4776785714286,4703.5,1041.5714285714287,661.4776785714286,4803.6,1041.5714285714287,661.4776785714286,4903.7]","[4871.8,4871.8,2484.6,2009.3,377.9,""smooth"",""down"",""down"",""good_move"",7856.4,2984.3,2712.5,4872.1,271.8,""smooth"",""down"",""down"",""good_move"",10360.6,2504.1,2181.6,7856.5,322.5,""smooth"",""right"",""right"",""good_move"",13735.4,3374.6,3057.3,10360.8,317.3,""smooth"",""right"",""right"",""good_move""]"
"3691","","<div style=""width:500px;"">
  <p>What determined the result of this run?</p>
  </div>","20","html-slider-response","64","691688","0.0-7.0-1.10","176","1","2025-08-06 10:11:07","36c45c0696341be0efffe67d72a12abb","178.166.40.254","Mozilla/5.0 (Windows NT 10.0; Win64; x64) AppleWebKit/537.36 (KHTML, like Gecko) Chrome/138.0.0.0 Safari/537.36 Edg/138.0.0.0","WebKit","Edge","138.0.0.0","Windows","10.0","https://app.prolific.com/","en-GB,en;q=0.9,en-US;q=0.8,pt-BR;q=0.7,pt-PT;q=0.6,pt;q=0.5","6172d51173f6962cef6b18cf","6877649eabb845cf142cd221","68932a320cd3368dcd0a1b8a","1","6172d51173f6962cef6b18cf","1","2025-08-06T10:22:40.221Z","","","","AttribQ","","","","","","","","","","","50","","","","","","","","","","","","","","","","","","","","","","","","","","",""
"1450","","<div style=""width:500px;"">
  <p>How much control did you have over the ball?</p>
  </div>","76","html-slider-response","65","693139","0.0-7.0-2.10","176","1","2025-08-06 10:11:07","36c45c0696341be0efffe67d72a12abb","178.166.40.254","Mozilla/5.0 (Windows NT 10.0; Win64; x64) AppleWebKit/537.36 (KHTML, like Gecko) Chrome/138.0.0.0 Safari/537.36 Edg/138.0.0.0","WebKit","Edge","138.0.0.0","Windows","10.0","https://app.prolific.com/","en-GB,en;q=0.9,en-US;q=0.8,pt-BR;q=0.7,pt-PT;q=0.6,pt;q=0.5","6172d51173f6962cef6b18cf","6877649eabb845cf142cd221","68932a320cd3368dcd0a1b8a","1","6172d51173f6962cef6b18cf","1","2025-08-06T10:22:41.672Z","","","","ControlQ","","","","","","","","","","","50","","","","","","","","","","","","","","","","","","","","","","","","","","",""
"2259","","<div style=""width:500px;"">
  <p>How would you describe your current emotional state?</p>
  </div>","77","html-slider-response","66","695399","0.0-7.0-3.10","176","1","2025-08-06 10:11:07","36c45c0696341be0efffe67d72a12abb","178.166.40.254","Mozilla/5.0 (Windows NT 10.0; Win64; x64) AppleWebKit/537.36 (KHTML, like Gecko) Chrome/138.0.0.0 Safari/537.36 Edg/138.0.0.0","WebKit","Edge","138.0.0.0","Windows","10.0","https://app.prolific.com/","en-GB,en;q=0.9,en-US;q=0.8,pt-BR;q=0.7,pt-PT;q=0.6,pt;q=0.5","6172d51173f6962cef6b18cf","6877649eabb845cf142cd221","68932a320cd3368dcd0a1b8a","1","6172d51173f6962cef6b18cf","1","2025-08-06T10:22:43.932Z","","","","StressQ","","","","","","","","","","","50","","","","","","","","","","","","","","","","","","","","","","","","","","",""
"2001","","<div style=""width:500px;"">
  <p>What best describes how you currently feel?</p>
  </div>","30","html-slider-response","67","697401","0.0-7.0-4.10","176","1","2025-08-06 10:11:07","36c45c0696341be0efffe67d72a12abb","178.166.40.254","Mozilla/5.0 (Windows NT 10.0; Win64; x64) AppleWebKit/537.36 (KHTML, like Gecko) Chrome/138.0.0.0 Safari/537.36 Edg/138.0.0.0","WebKit","Edge","138.0.0.0","Windows","10.0","https://app.prolific.com/","en-GB,en;q=0.9,en-US;q=0.8,pt-BR;q=0.7,pt-PT;q=0.6,pt;q=0.5","6172d51173f6962cef6b18cf","6877649eabb845cf142cd221","68932a320cd3368dcd0a1b8a","1","6172d51173f6962cef6b18cf","1","2025-08-06T10:22:45.934Z","","","","MotivationQ","","","","","","","","","","","50","","","","","","","","","","","","","","","","","","","","","","","","","","",""
"","","","","ctl-task-cpt","68","719944","0.0-7.0-0.11","176","1","2025-08-06 10:11:07","36c45c0696341be0efffe67d72a12abb","178.166.40.254","Mozilla/5.0 (Windows NT 10.0; Win64; x64) AppleWebKit/537.36 (KHTML, like Gecko) Chrome/138.0.0.0 Safari/537.36 Edg/138.0.0.0","WebKit","Edge","138.0.0.0","Windows","10.0","https://app.prolific.com/","en-GB,en;q=0.9,en-US;q=0.8,pt-BR;q=0.7,pt-PT;q=0.6,pt;q=0.5","6172d51173f6962cef6b18cf","6877649eabb845cf142cd221","68932a320cd3368dcd0a1b8a","1","6172d51173f6962cef6b18cf","1","2025-08-06T10:23:08.477Z","","","","","","","","","","","","","","","","win-only","2","g1:SE,g2:NW","0.7","12","0","698554.6","816","5821","19525.2","1","4","4","6","1","1","1","3","2","0.022727272727272728","605.9","3000","995","[""down"",""right""]","{""num_key_presses"":6,""num_perfect"":5,""num_errors"":0,""num_randdir"":1,""num_randdir_good_moves"":0,""num_whilered"":0,""num_whileblue"":0,""num_blue"":0,""num_good_moves"":5}","[426.57142857142856,418.47767857142856,0.1,426.57142857142856,418.47767857142856,104.9,426.57142857142856,418.47767857142856,209.3,461.57142857142856,463.47767857142856,316,618.5714285714286,634.4776785714286,419.2,730.5714285714286,743.4776785714286,519.2,741.5714285714286,752.4776785714286,619.2,741.5714285714286,752.4776785714286,719.4,743.5714285714286,753.4776785714286,819.4,932.5714285714286,744.4776785714286,924.5,1116.5714285714287,709.4776785714286,1024.5,1151.5714285714287,702.4776785714286,1129.3,1153.5714285714287,702.4776785714286,1229.4,1153.5714285714287,702.4776785714286,1329.7,1153.5714285714287,702.4776785714286,1429.7,1153.5714285714287,702.4776785714286,1529.7,1153.5714285714287,702.4776785714286,1634.5,1153.5714285714287,702.4776785714286,1734.5,1153.5714285714287,702.4776785714286,1834.6,1153.5714285714287,702.4776785714286,1934.7,1153.5714285714287,702.4776785714286,2034.8,1153.5714285714287,702.4776785714286,2134.8,1153.5714285714287,702.4776785714286,2239.3,1153.5714285714287,702.4776785714286,2339.4,1153.5714285714287,702.4776785714286,2439.4,1153.5714285714287,702.4776785714286,2539.8,1153.5714285714287,702.4776785714286,2644.6,1153.5714285714287,702.4776785714286,2744.8,1153.5714285714287,702.4776785714286,2849.8,1153.5714285714287,702.4776785714286,2949.9,1153.5714285714287,702.4776785714286,3050.1,1153.5714285714287,702.4776785714286,3154.2,1153.5714285714287,702.4776785714286,3254.3,1153.5714285714287,702.4776785714286,3354.3,1153.5714285714287,702.4776785714286,3454.3,1153.5714285714287,702.4776785714286,3554.5,1153.5714285714287,702.4776785714286,3654.6,1153.5714285714287,702.4776785714286,3755.7,1153.5714285714287,702.4776785714286,3859.8,1153.5714285714287,702.4776785714286,3960.2,1153.5714285714287,702.4776785714286,4064.9,1153.5714285714287,702.4776785714286,4165,1153.5714285714287,702.4776785714286,4269.3,1153.5714285714287,702.4776785714286,4374.2,1153.5714285714287,702.4776785714286,4474.2,1153.5714285714287,702.4776785714286,4574.2,1153.5714285714287,702.4776785714286,4679.5,1153.5714285714287,702.4776785714286,4779.6,1153.5714285714287,702.4776785714286,4879.7,1153.5714285714287,702.4776785714286,4979.8]","[1331.9,1331.9,1000,0,331.9,""smooth"",""down"",""down"",""good_move"",4174.7,2842.5,2517.2,1332.2,325.3,""oops"",""down"",""left"",""bad_move"",6756.7,2581.8,2255.1,4174.9,326.7,""smooth"",""down"",""down"",""good_move"",8631.6,1874.7,1451.3,6756.9,423.4,""smooth"",""right"",""right"",""good_move"",11308.7,2676.7,2344,8632,332.7,""smooth"",""right"",""right"",""good_move"",13618.9,2310,2005.9,11308.9,304.1,""smooth"",""right"",""right"",""good_move""]"
"2141","","<div style=""width:500px;"">
  <p>What determined the result of this run?</p>
  </div>","68","html-slider-response","69","722086","0.0-7.0-1.11","176","1","2025-08-06 10:11:07","36c45c0696341be0efffe67d72a12abb","178.166.40.254","Mozilla/5.0 (Windows NT 10.0; Win64; x64) AppleWebKit/537.36 (KHTML, like Gecko) Chrome/138.0.0.0 Safari/537.36 Edg/138.0.0.0","WebKit","Edge","138.0.0.0","Windows","10.0","https://app.prolific.com/","en-GB,en;q=0.9,en-US;q=0.8,pt-BR;q=0.7,pt-PT;q=0.6,pt;q=0.5","6172d51173f6962cef6b18cf","6877649eabb845cf142cd221","68932a320cd3368dcd0a1b8a","1","6172d51173f6962cef6b18cf","1","2025-08-06T10:23:10.619Z","","","","AttribQ","","","","","","","","","","","50","","","","","","","","","","","","","","","","","","","","","","","","","","",""
"1889","","<div style=""width:500px;"">
  <p>How much control did you have over the ball?</p>
  </div>","81","html-slider-response","70","723976","0.0-7.0-2.11","176","1","2025-08-06 10:11:07","36c45c0696341be0efffe67d72a12abb","178.166.40.254","Mozilla/5.0 (Windows NT 10.0; Win64; x64) AppleWebKit/537.36 (KHTML, like Gecko) Chrome/138.0.0.0 Safari/537.36 Edg/138.0.0.0","WebKit","Edge","138.0.0.0","Windows","10.0","https://app.prolific.com/","en-GB,en;q=0.9,en-US;q=0.8,pt-BR;q=0.7,pt-PT;q=0.6,pt;q=0.5","6172d51173f6962cef6b18cf","6877649eabb845cf142cd221","68932a320cd3368dcd0a1b8a","1","6172d51173f6962cef6b18cf","1","2025-08-06T10:23:12.509Z","","","","ControlQ","","","","","","","","","","","50","","","","","","","","","","","","","","","","","","","","","","","","","","",""
"1558","","<div style=""width:500px;"">
  <p>How would you describe your current emotional state?</p>
  </div>","75","html-slider-response","71","725535","0.0-7.0-3.11","176","1","2025-08-06 10:11:07","36c45c0696341be0efffe67d72a12abb","178.166.40.254","Mozilla/5.0 (Windows NT 10.0; Win64; x64) AppleWebKit/537.36 (KHTML, like Gecko) Chrome/138.0.0.0 Safari/537.36 Edg/138.0.0.0","WebKit","Edge","138.0.0.0","Windows","10.0","https://app.prolific.com/","en-GB,en;q=0.9,en-US;q=0.8,pt-BR;q=0.7,pt-PT;q=0.6,pt;q=0.5","6172d51173f6962cef6b18cf","6877649eabb845cf142cd221","68932a320cd3368dcd0a1b8a","1","6172d51173f6962cef6b18cf","1","2025-08-06T10:23:14.068Z","","","","StressQ","","","","","","","","","","","50","","","","","","","","","","","","","","","","","","","","","","","","","","",""
"2095","","<div style=""width:500px;"">
  <p>What best describes how you currently feel?</p>
  </div>","1","html-slider-response","72","727631","0.0-7.0-4.11","176","1","2025-08-06 10:11:07","36c45c0696341be0efffe67d72a12abb","178.166.40.254","Mozilla/5.0 (Windows NT 10.0; Win64; x64) AppleWebKit/537.36 (KHTML, like Gecko) Chrome/138.0.0.0 Safari/537.36 Edg/138.0.0.0","WebKit","Edge","138.0.0.0","Windows","10.0","https://app.prolific.com/","en-GB,en;q=0.9,en-US;q=0.8,pt-BR;q=0.7,pt-PT;q=0.6,pt;q=0.5","6172d51173f6962cef6b18cf","6877649eabb845cf142cd221","68932a320cd3368dcd0a1b8a","1","6172d51173f6962cef6b18cf","1","2025-08-06T10:23:16.164Z","","","","MotivationQ","","","","","","","","","","","50","","","","","","","","","","","","","","","","","","","","","","","","","","",""
"","","","","ctl-task-cpt","73","762094","0.0-7.0-0.12","176","1","2025-08-06 10:11:07","36c45c0696341be0efffe67d72a12abb","178.166.40.254","Mozilla/5.0 (Windows NT 10.0; Win64; x64) AppleWebKit/537.36 (KHTML, like Gecko) Chrome/138.0.0.0 Safari/537.36 Edg/138.0.0.0","WebKit","Edge","138.0.0.0","Windows","10.0","https://app.prolific.com/","en-GB,en;q=0.9,en-US;q=0.8,pt-BR;q=0.7,pt-PT;q=0.6,pt;q=0.5","6172d51173f6962cef6b18cf","6877649eabb845cf142cd221","68932a320cd3368dcd0a1b8a","1","6172d51173f6962cef6b18cf","1","2025-08-06T10:23:50.627Z","","","","","","","","","","","","","","","","win-only","0","g1:NW,g2:SE","0.8","13","0","728784.7","747.1","5750.6","31445.1","1","4","4","6","1","1","1","4","3","0.030303030303030304","1403","3000","435","[""left"",""up""]","{""num_key_presses"":8,""num_perfect"":6,""num_errors"":0,""num_randdir"":2,""num_randdir_good_moves"":0,""num_whilered"":0,""num_whileblue"":0,""num_blue"":1,""num_good_moves"":6}","[422.57142857142856,409.47767857142856,0.1,422.57142857142856,409.47767857142856,103.3,422.57142857142856,409.47767857142856,203.9,422.57142857142856,410.47767857142856,308,596.5714285714286,552.4776785714286,408.2,756.5714285714286,702.4776785714286,508.3,758.5714285714286,710.4776785714286,608.4,519.5714285714286,578.4776785714286,708.6,212.57142857142856,333.47767857142856,813.5,140.57142857142856,230.47767857142856,913.5,96.57142857142857,176.47767857142856,1013.5,67.57142857142857,133.47767857142856,1119,66.57142857142857,129.47767857142856,1219,69.57142857142857,125.47767857142857,1323.2,71.57142857142857,121.47767857142857,1423.9,71.57142857142857,121.47767857142857,1528.3,67.57142857142857,121.47767857142857,1628.3,-7.428571428571431,148.47767857142856,1728.4,-115.42857142857143,219.47767857142856,1828.4,-190.42857142857144,277.47767857142856,1928.7,-233.42857142857144,321.47767857142856,2028.7,-233.42857142857144,324.47767857142856,2128.9,-233.42857142857144,324.47767857142856,2234.9,-233.42857142857144,324.47767857142856,2335,-233.42857142857144,324.47767857142856,2438,-233.42857142857144,324.47767857142856,2538.2,-233.42857142857144,324.47767857142856,2638.3,-233.42857142857144,324.47767857142856,2738.3,-233.42857142857144,324.47767857142856,2838.4,-233.42857142857144,324.47767857142856,2938.5,-233.42857142857144,324.47767857142856,3038.6,-233.42857142857144,324.47767857142856,3139.7,-233.42857142857144,324.47767857142856,3243.8,-233.42857142857144,324.47767857142856,3343.8,-233.42857142857144,324.47767857142856,3448.3,-233.42857142857144,324.47767857142856,3548.4,-233.42857142857144,324.47767857142856,3653.2,-233.42857142857144,324.47767857142856,3753.3,-233.42857142857144,324.47767857142856,3853.3,-233.42857142857144,324.47767857142856,3953.4,-233.42857142857144,324.47767857142856,4053.5,-233.42857142857144,324.47767857142856,4153.5,-233.42857142857144,324.47767857142856,4253.7,-233.42857142857144,324.47767857142856,4358.8,-233.42857142857144,324.47767857142856,4458.9,-233.42857142857144,324.47767857142856,4559,-233.42857142857144,324.47767857142856,4663,-233.42857142857144,324.47767857142856,4763.3,-233.42857142857144,324.47767857142856,4868.4,-233.42857142857144,324.47767857142856,4973.2]","[1340,1340,1000,0,340,""smooth"",""up"",""up"",""good_move"",4106.1,2765.8,2392.8,1340.3,373,""smooth"",""up"",""up"",""good_move"",6970,2863.8,2536.1,4106.2,327.7,""oops"",""left"",""right"",""bad_move"",9840.9,2870.7,2560.2,6970.2,310.5,""oops"",""left"",""right"",""bad_move"",12389.1,2547.9,2265.3,9841.2,282.6,""smooth"",""left"",""left"",""good_move"",15416.3,3027,2737.6,12389.3,289.4,""smooth"",""left"",""left"",""good_move"",22457.9,7041.4,2743.6,19324.9,389.4,""smooth"",""left"",""left"",""good_move"",25609.3,3151.2,2858.6,22458.1,292.6,""smooth"",""left"",""left"",""good_move""]"
