"rt","response_timestamp","stimulus","response","trial_type","trial_index","time_elapsed","internal_node_id","run_id","condition","recorded_at","source_code_version","ip","user_agent","device","browser","browser_version","platform","platform_version","referer","accept_language","PROLIFIC_PID","STUDY_ID","SESSION_ID","BATCH","prolific_id","batch","realtime","success","question_order","question_id","eventType","responses","item_order","radio_event_ids","radio_event_times","key_event_times","mouse_event_times","straightlining","zigzagging","honeypot","view_history","slider_start","which_type","canvas_config","goals_layout","control_level","trial_number","tutorial_trial_number","trial_start_time","phase1_start_time","phase2_start_time","phase3_start_time","goal_1_value","goal_1_distance","goal_2_value","goal_2_distance","goal_selected","outcome","outcome_total","participant_final_score","participant_initial_score","participant_final_score_prop","goal_choice_rt","allocated_time","allocated_time_remaining","goal_direction","counts","mouse_movements","key_presses"
"1491","1753865320184","<p style='font-size:40px;line-height:1.25'><strong>Welcome to the experiment!</strong></p><p style='font-size:1.1em;line-height:1.25'>Thank you for participanting in our experiment again! You will be asked to play the Dysfunctional Ball Game again. We will briefly recap the rules before we start.</p><p style='font-size:1.1em;line-height:1.25'>Press <strong>Next</strong> to continue.</p>","0","custom-html-button-response","0","1494","0.0-0.0","57","1","2025-07-30 08:48:37","36c45c0696341be0efffe67d72a12abb","136.226.168.84","Mozilla/5.0 (Windows NT 10.0; Win64; x64) AppleWebKit/537.36 (KHTML, like Gecko) Chrome/138.0.0.0 Safari/537.36","WebKit","Chrome","138.0.0.0","Windows","10.0","https://app.prolific.com/","en-GB,en-US;q=0.9,en;q=0.8","63e51ccb431bed8154fc6aae","687a19d2168e237449fb8af4","6889dc4e7f940aef6dce577b","0","63e51ccb431bed8154fc6aae","0","2025-07-30T08:48:40.186Z","","","","","","","","","","","","","","","","","","","","","","","","","","","","","","","","","","","","","","","","","",""
"2211","","","","fullscreen","1","4717","0.0-1.0","57","1","2025-07-30 08:48:37","36c45c0696341be0efffe67d72a12abb","136.226.168.84","Mozilla/5.0 (Windows NT 10.0; Win64; x64) AppleWebKit/537.36 (KHTML, like Gecko) Chrome/138.0.0.0 Safari/537.36","WebKit","Chrome","138.0.0.0","Windows","10.0","https://app.prolific.com/","en-GB,en-US;q=0.9,en;q=0.8","63e51ccb431bed8154fc6aae","687a19d2168e237449fb8af4","6889dc4e7f940aef6dce577b","0","63e51ccb431bed8154fc6aae","0","","true","","","","","","","","","","","","","","","","","","","","","","","","","","","","","","","","","","","","","","","","",""
"5582","1753865328991"," <p style='font-size:1.1em;line-height:1.25'>Thank you for closing all other tabs.</p><p style='font-size:1.1em;line-height:1.25'>We will now invite you to fill in some questionnaires, before starting the game.<br>This will take about 5 minutes.<br></p><p style='font-size:1.1em;line-height:1.25'>Press the <strong>Next</strong> button to continue.</p>","0","custom-html-button-response","2","10299","0.0-2.0","57","1","2025-07-30 08:48:37","36c45c0696341be0efffe67d72a12abb","136.226.168.84","Mozilla/5.0 (Windows NT 10.0; Win64; x64) AppleWebKit/537.36 (KHTML, like Gecko) Chrome/138.0.0.0 Safari/537.36","WebKit","Chrome","138.0.0.0","Windows","10.0","https://app.prolific.com/","en-GB,en-US;q=0.9,en;q=0.8","63e51ccb431bed8154fc6aae","687a19d2168e237449fb8af4","6889dc4e7f940aef6dce577b","0","63e51ccb431bed8154fc6aae","0","2025-07-30T08:48:48.991Z","","","","","","","","","","","","","","","","","","","","","","","","","","","","","","","","","","","","","","","","","",""
"2552","","","{""assigned_sex"":""male""}","survey-multi-choice","3","12853","0.0-3.0-0.0","57","1","2025-07-30 08:48:37","36c45c0696341be0efffe67d72a12abb","136.226.168.84","Mozilla/5.0 (Windows NT 10.0; Win64; x64) AppleWebKit/537.36 (KHTML, like Gecko) Chrome/138.0.0.0 Safari/537.36","WebKit","Chrome","138.0.0.0","Windows","10.0","https://app.prolific.com/","en-GB,en-US;q=0.9,en;q=0.8","63e51ccb431bed8154fc6aae","687a19d2168e237449fb8af4","6889dc4e7f940aef6dce577b","0","63e51ccb431bed8154fc6aae","0","","","[0]","0","demographics","","","","","","","","","","","","","","","","","","","","","","","","","","","","","","","","","","","","","",""
"1014","1753865332559","<p style='font-size:1.1em;line-height:1.25'>In the following, we will perform a baseline assessment. This means that we will ask you a few questions relating to your experiences over the past month.<br></p><p style='font-size:1.1em;line-height:1.25'>Press the <strong>Next</strong> button to continue.</p>","0","custom-html-button-response","4","13868","0.0-4.0-0.0","57","1","2025-07-30 08:48:37","36c45c0696341be0efffe67d72a12abb","136.226.168.84","Mozilla/5.0 (Windows NT 10.0; Win64; x64) AppleWebKit/537.36 (KHTML, like Gecko) Chrome/138.0.0.0 Safari/537.36","WebKit","Chrome","138.0.0.0","Windows","10.0","https://app.prolific.com/","en-GB,en-US;q=0.9,en;q=0.8","63e51ccb431bed8154fc6aae","687a19d2168e237449fb8af4","6889dc4e7f940aef6dce577b","0","63e51ccb431bed8154fc6aae","0","2025-07-30T08:48:52.560Z","","","","","","","","","","","","","","","","","","","","","","","","","","","","","","","","","","","","","","","","","",""
"34733.09999999963","","","","survey-template","5","48605","0.0-4.0-1.0","57","1","2025-07-30 08:48:37","36c45c0696341be0efffe67d72a12abb","136.226.168.84","Mozilla/5.0 (Windows NT 10.0; Win64; x64) AppleWebKit/537.36 (KHTML, like Gecko) Chrome/138.0.0.0 Safari/537.36","WebKit","Chrome","138.0.0.0","Windows","10.0","https://app.prolific.com/","en-GB,en-US;q=0.9,en;q=0.8","63e51ccb431bed8154fc6aae","687a19d2168e237449fb8af4","6889dc4e7f940aef6dce577b","0","63e51ccb431bed8154fc6aae","0","2025-07-30T08:49:27.298Z","","","","pss","{""Q01"":""2"",""Q02"":""2"",""Q03"":""3"",""Q04"":""2"",""Q05"":""2"",""Q06"":""3"",""Q07"":""2"",""Q08"":""2"",""Q09"":""2"",""Q10"":""3""}","[0,1,2,3,4,5,6,7,8,9]","[""Q01"",""Q02"",""Q03"",""Q04"",""Q05"",""Q06"",""Q07"",""Q08"",""Q09"",""Q10""]","[3763.5999999996275,10372.400000000373,11739.099999999627,14179.700000000186,17020.799999999814,20548.200000000186,23316.200000000186,26571.900000000373,30939.700000000186,33356]","[]","[0,3763.5999999996275,10372.400000000373,11739.099999999627,14179.700000000186,17020.799999999814,20548.200000000186,23316.200000000186,26571.900000000373,30939.700000000186,33356,34731.09999999963]","0.7","0.5555555555555556","0","","","","","","","","","","","","","","","","","","","","","","","","","","","","",""
"2276","1753865369574","<p style='font-size:1.1em;line-height:1.25'>Thank you for your answers! Now we will ask you a few more questions relating to your feelings in the last 24 hours.<br></p><p style='font-size:1.1em;line-height:1.25'>Press the <strong>Next</strong> button to continue.</p>","0","custom-html-button-response","6","50883","0.0-4.0-2.0","57","1","2025-07-30 08:48:37","36c45c0696341be0efffe67d72a12abb","136.226.168.84","Mozilla/5.0 (Windows NT 10.0; Win64; x64) AppleWebKit/537.36 (KHTML, like Gecko) Chrome/138.0.0.0 Safari/537.36","WebKit","Chrome","138.0.0.0","Windows","10.0","https://app.prolific.com/","en-GB,en-US;q=0.9,en;q=0.8","63e51ccb431bed8154fc6aae","687a19d2168e237449fb8af4","6889dc4e7f940aef6dce577b","0","63e51ccb431bed8154fc6aae","0","2025-07-30T08:49:29.575Z","","","","","","","","","","","","","","","","","","","","","","","","","","","","","","","","","","","","","","","","","",""
"63982.200000000186","","","","survey-template","7","114869","0.0-4.0-3.0","57","1","2025-07-30 08:48:37","36c45c0696341be0efffe67d72a12abb","136.226.168.84","Mozilla/5.0 (Windows NT 10.0; Win64; x64) AppleWebKit/537.36 (KHTML, like Gecko) Chrome/138.0.0.0 Safari/537.36","WebKit","Chrome","138.0.0.0","Windows","10.0","https://app.prolific.com/","en-GB,en-US;q=0.9,en;q=0.8","63e51ccb431bed8154fc6aae","687a19d2168e237449fb8af4","6889dc4e7f940aef6dce577b","0","63e51ccb431bed8154fc6aae","0","2025-07-30T08:50:33.561Z","","","","drsp","{""Q01"":""3"",""Q02"":""3"",""Q03"":""3"",""Q04"":""4"",""Q05"":""3"",""Q06"":""2"",""Q07"":""3"",""Q08"":""2"",""Q09"":""3"",""Q10"":""4"",""Q11"":""3"",""Q12"":""3"",""Q13"":""5"",""Q14"":""3"",""Q15"":""3"",""Q16"":""3"",""Q17"":""4"",""Q18"":""3"",""Q19"":""2"",""Q20"":""4"",""Q21"":""3"",""Q22"":""3""}","[0,1,2,3,4,5,6,7,8,9,10,11,12,13,14,15,16,17,18,19,20,21]","[""Q01"",""Q02"",""Q03"",""Q04"",""Q05"",""Q06"",""Q07"",""Q08"",""Q09"",""Q10"",""Q11"",""Q13"",""Q14"",""Q16"",""Q17"",""Q18"",""Q19"",""Q20"",""Q21"",""Q22"",""Q12"",""Q15""]","[2510.7000000001863,3663.2999999998137,4486.9000000003725,5583.700000000186,6742.9000000003725,10775.299999999814,11438.5,13319.600000000559,15135.200000000186,17175,18510.5,22846.700000000186,25279.10000000056,28775,29935.299999999814,31807.400000000373,36983.200000000186,44391.200000000186,50559.200000000186,53670.799999999814,57038.40000000037,60462.700000000186]","[]","[0,2510.7000000001863,3663.2999999998137,4486.9000000003725,5583.700000000186,6742.9000000003725,10775.299999999814,11438.5,13319.600000000559,15135.200000000186,17175,18510.5,21158.900000000373,22846.700000000186,25279.10000000056,27607.400000000373,28775,29935.299999999814,31807.400000000373,36983.200000000186,44391.200000000186,50559.200000000186,53670.799999999814,54263.10000000056,57038.40000000037,57879.200000000186,60462.700000000186,63975.10000000056]","0.6363636363636364","0.5714285714285714","0","","","","","","","","","","","","","","","","","","","","","","","","","","","","",""
"7885.200000000186","","","","survey-template","8","122756","0.0-4.0-4.0","57","1","2025-07-30 08:48:37","36c45c0696341be0efffe67d72a12abb","136.226.168.84","Mozilla/5.0 (Windows NT 10.0; Win64; x64) AppleWebKit/537.36 (KHTML, like Gecko) Chrome/138.0.0.0 Safari/537.36","WebKit","Chrome","138.0.0.0","Windows","10.0","https://app.prolific.com/","en-GB,en-US;q=0.9,en;q=0.8","63e51ccb431bed8154fc6aae","687a19d2168e237449fb8af4","6889dc4e7f940aef6dce577b","0","63e51ccb431bed8154fc6aae","0","2025-07-30T08:50:41.448Z","","","","stress","{""Q01"":""4"",""Q02"":""2"",""Q03"":""4""}","[0,1,2]","[""Q01"",""Q02"",""Q03""]","[2821.600000000559,3933.4000000003725,7382]","[]","[2821.600000000559,3933.4000000003725,6709.4000000003725,7382,7884.5]","0.6666666666666666","1","0","","","","","","","","","","","","","","","","","","","","","","","","","","","","",""
"18999","","","","instructions","9","141756","0.0-5.0-0.0","57","1","2025-07-30 08:48:37","36c45c0696341be0efffe67d72a12abb","136.226.168.84","Mozilla/5.0 (Windows NT 10.0; Win64; x64) AppleWebKit/537.36 (KHTML, like Gecko) Chrome/138.0.0.0 Safari/537.36","WebKit","Chrome","138.0.0.0","Windows","10.0","https://app.prolific.com/","en-GB,en-US;q=0.9,en;q=0.8","63e51ccb431bed8154fc6aae","687a19d2168e237449fb8af4","6889dc4e7f940aef6dce577b","0","63e51ccb431bed8154fc6aae","0","","","","","","","","","","","","","","","[{""page_index"":0,""viewing_time"":18999}]","","","","","","","","","","","","","","","","","","","","","","","","","","","",""
"6573","","<p>Before you start with this game please answer the following three questions yourself. </p>
  <p>Through this game, we measure several aspects of your cognitive performance, such as reaction times, multi-tasking capabilities </p>
  <p>and the ability to assess the situation you are in.</p>
  <p></p>
  <p><b>How good do you usually are in such tasks?</b></p>","65","html-slider-response","10","148332","0.0-6.0-0.0","57","1","2025-07-30 08:48:37","36c45c0696341be0efffe67d72a12abb","136.226.168.84","Mozilla/5.0 (Windows NT 10.0; Win64; x64) AppleWebKit/537.36 (KHTML, like Gecko) Chrome/138.0.0.0 Safari/537.36","WebKit","Chrome","138.0.0.0","Windows","10.0","https://app.prolific.com/","en-GB,en-US;q=0.9,en;q=0.8","63e51ccb431bed8154fc6aae","687a19d2168e237449fb8af4","6889dc4e7f940aef6dce577b","0","63e51ccb431bed8154fc6aae","0","2025-07-30T08:51:07.024Z","","","","PreSkillQ","","","","","","","","","","","50","","","","","","","","","","","","","","","","","","","","","","","","","","",""
"4334","","<div style=""width:500px;"">
  <p>How well do you think you will perform in this task compared to other participants?</p>
  </div>","52","html-slider-response","11","152668","0.0-6.0-1.0","57","1","2025-07-30 08:48:37","36c45c0696341be0efffe67d72a12abb","136.226.168.84","Mozilla/5.0 (Windows NT 10.0; Win64; x64) AppleWebKit/537.36 (KHTML, like Gecko) Chrome/138.0.0.0 Safari/537.36","WebKit","Chrome","138.0.0.0","Windows","10.0","https://app.prolific.com/","en-GB,en-US;q=0.9,en;q=0.8","63e51ccb431bed8154fc6aae","687a19d2168e237449fb8af4","6889dc4e7f940aef6dce577b","0","63e51ccb431bed8154fc6aae","0","2025-07-30T08:51:11.360Z","","","","PrePerfQ","","","","","","","","","","","50","","","","","","","","","","","","","","","","","","","","","","","","","","",""
"4342","","<div style=""width:500px;"">
  <p>What best describes how you currently feel?</p>
  </div>","46","html-slider-response","12","157012","0.0-6.0-2.0","57","1","2025-07-30 08:48:37","36c45c0696341be0efffe67d72a12abb","136.226.168.84","Mozilla/5.0 (Windows NT 10.0; Win64; x64) AppleWebKit/537.36 (KHTML, like Gecko) Chrome/138.0.0.0 Safari/537.36","WebKit","Chrome","138.0.0.0","Windows","10.0","https://app.prolific.com/","en-GB,en-US;q=0.9,en;q=0.8","63e51ccb431bed8154fc6aae","687a19d2168e237449fb8af4","6889dc4e7f940aef6dce577b","0","63e51ccb431bed8154fc6aae","0","2025-07-30T08:51:15.704Z","","","","PreMotivationQ","","","","","","","","","","","50","","","","","","","","","","","","","","","","","","","","","","","","","","",""
"","","","","ctl-task-cpt","13","189137","0.0-7.0-0.0","57","1","2025-07-30 08:48:37","36c45c0696341be0efffe67d72a12abb","136.226.168.84","Mozilla/5.0 (Windows NT 10.0; Win64; x64) AppleWebKit/537.36 (KHTML, like Gecko) Chrome/138.0.0.0 Safari/537.36","WebKit","Chrome","138.0.0.0","Windows","10.0","https://app.prolific.com/","en-GB,en-US;q=0.9,en;q=0.8","63e51ccb431bed8154fc6aae","687a19d2168e237449fb8af4","6889dc4e7f940aef6dce577b","0","63e51ccb431bed8154fc6aae","0","2025-07-30T08:51:47.829Z","","","","","","","","","","","","","","","","win-only","2","g1:SE,g2:NW","1","1","0","158337.4","1787.9","6790.9","29117.4","1","4","8","6","2","8","7","7","0","0.05303030303030303","5003","3000","930","[""left"",""up""]","{""num_key_presses"":7,""num_perfect"":6,""num_errors"":1,""num_randdir"":0,""num_randdir_good_moves"":0,""num_whilered"":0,""num_whileblue"":0,""num_blue"":1,""num_good_moves"":6}","[414.57142857142856,421.47767857142856,0.2,414.57142857142856,421.47767857142856,116,414.57142857142856,421.47767857142856,219.4,414.57142857142856,421.47767857142856,322.9,414.57142857142856,421.47767857142856,423.5,414.57142857142856,421.47767857142856,523.5,414.57142857142856,421.47767857142856,624.2,414.57142857142856,421.47767857142856,727.9,414.57142857142856,421.47767857142856,828.4,414.57142857142856,421.47767857142856,933.6,414.57142857142856,421.47767857142856,1038.6,414.57142857142856,421.47767857142856,1138.8,414.57142857142856,421.47767857142856,1243.4,414.57142857142856,421.47767857142856,1347.9,414.57142857142856,420.47767857142856,1448.7,414.57142857142856,419.47767857142856,1552.8,414.57142857142856,419.47767857142856,1658.4,414.57142857142856,419.47767857142856,1758.6,414.57142857142856,419.47767857142856,1858.6,414.57142857142856,419.47767857142856,1963.4,414.57142857142856,419.47767857142856,2063.4,414.57142857142856,419.47767857142856,2163.4,414.57142857142856,419.47767857142856,2268.8,414.57142857142856,419.47767857142856,2369.4,414.57142857142856,419.47767857142856,2473.4,414.57142857142856,419.47767857142856,2577.9,414.57142857142856,419.47767857142856,2678.4,414.57142857142856,419.47767857142856,2778.6,414.57142857142856,419.47767857142856,2883.7,414.57142857142856,419.47767857142856,2988.1,414.57142857142856,419.47767857142856,3094.1,414.57142857142856,419.47767857142856,3197.9,414.57142857142856,419.47767857142856,3298.4,414.57142857142856,419.47767857142856,3398.6,414.57142857142856,419.47767857142856,3504.3,414.57142857142856,419.47767857142856,3607.5,414.57142857142856,419.47767857142856,3707.5,414.57142857142856,419.47767857142856,3814.3,414.57142857142856,419.47767857142856,3918.9,414.57142857142856,419.47767857142856,4023.5,414.57142857142856,419.47767857142856,4123.5,414.57142857142856,419.47767857142856,4228.2,414.57142857142856,419.47767857142856,4332.6,414.57142857142856,419.47767857142856,4433.3,414.57142857142856,419.47767857142856,4537.8,414.57142857142856,419.47767857142856,4638.4,414.57142857142856,419.47767857142856,4738.5,414.57142857142856,419.47767857142856,4842.6,414.57142857142856,419.47767857142856,4943.3]","[540.6,540.6,1000,0,-459.4,""error"",""-"",""-"",""no_move"",4460.5,3919.8,2509,1541,410.5,""smooth"",""left"",""left"",""good_move"",7491.7,3030.8,2657.1,4461,373.6,""smooth"",""left"",""left"",""good_move"",10187.4,2695.4,2307.6,7492,387.8,""smooth"",""left"",""left"",""good_move"",12996.3,2808.7,2524,10187.6,284.7,""smooth"",""up"",""up"",""good_move"",15699.4,2702.8,2442.3,12996.6,260.5,""smooth"",""up"",""up"",""good_move"",22227.9,6528.4,2326.3,19511.2,390.5,""smooth"",""up"",""up"",""good_move""]"
"4600","","<div style=""width:500px;"">
  <p>What determined the result of this run?</p>
  </div>","90","html-slider-response","14","193739","0.0-7.0-1.0","57","1","2025-07-30 08:48:37","36c45c0696341be0efffe67d72a12abb","136.226.168.84","Mozilla/5.0 (Windows NT 10.0; Win64; x64) AppleWebKit/537.36 (KHTML, like Gecko) Chrome/138.0.0.0 Safari/537.36","WebKit","Chrome","138.0.0.0","Windows","10.0","https://app.prolific.com/","en-GB,en-US;q=0.9,en;q=0.8","63e51ccb431bed8154fc6aae","687a19d2168e237449fb8af4","6889dc4e7f940aef6dce577b","0","63e51ccb431bed8154fc6aae","0","2025-07-30T08:51:52.431Z","","","","AttribQ","","","","","","","","","","","50","","","","","","","","","","","","","","","","","","","","","","","","","","",""
"3928","","<div style=""width:500px;"">
  <p>How much control did you have over the ball?</p>
  </div>","86","html-slider-response","15","197668","0.0-7.0-2.0","57","1","2025-07-30 08:48:37","36c45c0696341be0efffe67d72a12abb","136.226.168.84","Mozilla/5.0 (Windows NT 10.0; Win64; x64) AppleWebKit/537.36 (KHTML, like Gecko) Chrome/138.0.0.0 Safari/537.36","WebKit","Chrome","138.0.0.0","Windows","10.0","https://app.prolific.com/","en-GB,en-US;q=0.9,en;q=0.8","63e51ccb431bed8154fc6aae","687a19d2168e237449fb8af4","6889dc4e7f940aef6dce577b","0","63e51ccb431bed8154fc6aae","0","2025-07-30T08:51:56.360Z","","","","ControlQ","","","","","","","","","","","50","","","","","","","","","","","","","","","","","","","","","","","","","","",""
"2847","","<div style=""width:500px;"">
  <p>How would you describe your current emotional state?</p>
  </div>","38","html-slider-response","16","200516","0.0-7.0-3.0","57","1","2025-07-30 08:48:37","36c45c0696341be0efffe67d72a12abb","136.226.168.84","Mozilla/5.0 (Windows NT 10.0; Win64; x64) AppleWebKit/537.36 (KHTML, like Gecko) Chrome/138.0.0.0 Safari/537.36","WebKit","Chrome","138.0.0.0","Windows","10.0","https://app.prolific.com/","en-GB,en-US;q=0.9,en;q=0.8","63e51ccb431bed8154fc6aae","687a19d2168e237449fb8af4","6889dc4e7f940aef6dce577b","0","63e51ccb431bed8154fc6aae","0","2025-07-30T08:51:59.208Z","","","","StressQ","","","","","","","","","","","50","","","","","","","","","","","","","","","","","","","","","","","","","","",""
"12053","","<div style=""width:500px;"">
  <p>What best describes how you currently feel?</p>
  </div>","54","html-slider-response","17","212571","0.0-7.0-4.0","57","1","2025-07-30 08:48:37","36c45c0696341be0efffe67d72a12abb","136.226.168.84","Mozilla/5.0 (Windows NT 10.0; Win64; x64) AppleWebKit/537.36 (KHTML, like Gecko) Chrome/138.0.0.0 Safari/537.36","WebKit","Chrome","138.0.0.0","Windows","10.0","https://app.prolific.com/","en-GB,en-US;q=0.9,en;q=0.8","63e51ccb431bed8154fc6aae","687a19d2168e237449fb8af4","6889dc4e7f940aef6dce577b","0","63e51ccb431bed8154fc6aae","0","2025-07-30T08:52:11.263Z","","","","MotivationQ","","","","","","","","","","","50","","","","","","","","","","","","","","","","","","","","","","","","","","",""
"","","","","ctl-task-cpt","18","232218","0.0-7.0-0.1","57","1","2025-07-30 08:48:37","36c45c0696341be0efffe67d72a12abb","136.226.168.84","Mozilla/5.0 (Windows NT 10.0; Win64; x64) AppleWebKit/537.36 (KHTML, like Gecko) Chrome/138.0.0.0 Safari/537.36","WebKit","Chrome","138.0.0.0","Windows","10.0","https://app.prolific.com/","en-GB,en-US;q=0.9,en;q=0.8","63e51ccb431bed8154fc6aae","687a19d2168e237449fb8af4","6889dc4e7f940aef6dce577b","0","63e51ccb431bed8154fc6aae","0","2025-07-30T08:52:30.910Z","","","","","","","","","","","","","","","","win-only","1","g1:NE,g2:SW","0.9","2","0","213893.3","1087.9","6092.1","16641.4","1","4","4","6","1","1","1","8","7","0.06060606060606061","5004.1","3000","1545","[""up"",""right""]","{""num_key_presses"":4,""num_perfect"":4,""num_errors"":0,""num_randdir"":0,""num_randdir_good_moves"":0,""num_whilered"":0,""num_whileblue"":0,""num_blue"":0,""num_good_moves"":4}","[420.57142857142856,414.47767857142856,0.2,420.57142857142856,414.47767857142856,103.7,420.57142857142856,414.47767857142856,207.8,420.57142857142856,414.47767857142856,312.4,420.57142857142856,414.47767857142856,417.9,420.57142857142856,414.47767857142856,518.5,420.57142857142856,414.47767857142856,623.1,420.57142857142856,414.47767857142856,724.7,420.57142857142856,414.47767857142856,828.4,420.57142857142856,414.47767857142856,933.4,420.57142857142856,414.47767857142856,1037.4,420.57142857142856,414.47767857142856,1137.6,420.57142857142856,414.47767857142856,1237.8,420.57142857142856,414.47767857142856,1337.9,420.57142857142856,414.47767857142856,1442.3,420.57142857142856,414.47767857142856,1542.8,420.57142857142856,414.47767857142856,1642.9,420.57142857142856,414.47767857142856,1743.5,420.57142857142856,414.47767857142856,1848.5,420.57142857142856,414.47767857142856,1948.5,420.57142857142856,414.47767857142856,2052.4,420.57142857142856,414.47767857142856,2152.8,420.57142857142856,414.47767857142856,2258.6,420.57142857142856,414.47767857142856,2362.3,420.57142857142856,414.47767857142856,2462.5,420.57142857142856,414.47767857142856,2563.2,420.57142857142856,414.47767857142856,2668.4,420.57142857142856,414.47767857142856,2768.5,420.57142857142856,414.47767857142856,2873.5,420.57142857142856,414.47767857142856,2977.5,420.57142857142856,414.47767857142856,3078.6,420.57142857142856,414.47767857142856,3182.4,420.57142857142856,414.47767857142856,3282.6,420.57142857142856,414.47767857142856,3382.9,420.57142857142856,414.47767857142856,3487.8,420.57142857142856,414.47767857142856,3587.9,420.57142857142856,414.47767857142856,3688.4,420.57142857142856,414.47767857142856,3788.7,420.57142857142856,414.47767857142856,3892.7,420.57142857142856,414.47767857142856,3998.4,420.57142857142856,414.47767857142856,4103.3,420.57142857142856,414.47767857142856,4208.2,420.57142857142856,414.47767857142856,4313.4,420.57142857142856,414.47767857142856,4417.5,420.57142857142856,414.47767857142856,4517.5,420.57142857142856,414.47767857142856,4618.2,420.57142857142856,414.47767857142856,4718.3,420.57142857142856,414.47767857142856,4818.4,420.57142857142856,414.47767857142856,4923.5]","[1578.5,1578.5,1000,0,578.5,""smooth"",""up"",""up"",""good_move"",4027.1,2448.4,2087,1578.7,361.4,""smooth"",""right"",""right"",""good_move"",7962.7,3935.3,3628.5,4027.4,306.8,""smooth"",""up"",""up"",""good_move"",10458.1,2495.3,2260.5,7962.8,234.8,""smooth"",""right"",""right"",""good_move""]"
"2169","","<div style=""width:500px;"">
  <p>What determined the result of this run?</p>
  </div>","91","html-slider-response","19","234387","0.0-7.0-1.1","57","1","2025-07-30 08:48:37","36c45c0696341be0efffe67d72a12abb","136.226.168.84","Mozilla/5.0 (Windows NT 10.0; Win64; x64) AppleWebKit/537.36 (KHTML, like Gecko) Chrome/138.0.0.0 Safari/537.36","WebKit","Chrome","138.0.0.0","Windows","10.0","https://app.prolific.com/","en-GB,en-US;q=0.9,en;q=0.8","63e51ccb431bed8154fc6aae","687a19d2168e237449fb8af4","6889dc4e7f940aef6dce577b","0","63e51ccb431bed8154fc6aae","0","2025-07-30T08:52:33.080Z","","","","AttribQ","","","","","","","","","","","50","","","","","","","","","","","","","","","","","","","","","","","","","","",""
"2486","","<div style=""width:500px;"">
  <p>How much control did you have over the ball?</p>
  </div>","90","html-slider-response","20","236875","0.0-7.0-2.1","57","1","2025-07-30 08:48:37","36c45c0696341be0efffe67d72a12abb","136.226.168.84","Mozilla/5.0 (Windows NT 10.0; Win64; x64) AppleWebKit/537.36 (KHTML, like Gecko) Chrome/138.0.0.0 Safari/537.36","WebKit","Chrome","138.0.0.0","Windows","10.0","https://app.prolific.com/","en-GB,en-US;q=0.9,en;q=0.8","63e51ccb431bed8154fc6aae","687a19d2168e237449fb8af4","6889dc4e7f940aef6dce577b","0","63e51ccb431bed8154fc6aae","0","2025-07-30T08:52:35.567Z","","","","ControlQ","","","","","","","","","","","50","","","","","","","","","","","","","","","","","","","","","","","","","","",""
"2471","","<div style=""width:500px;"">
  <p>How would you describe your current emotional state?</p>
  </div>","34","html-slider-response","21","239347","0.0-7.0-3.1","57","1","2025-07-30 08:48:37","36c45c0696341be0efffe67d72a12abb","136.226.168.84","Mozilla/5.0 (Windows NT 10.0; Win64; x64) AppleWebKit/537.36 (KHTML, like Gecko) Chrome/138.0.0.0 Safari/537.36","WebKit","Chrome","138.0.0.0","Windows","10.0","https://app.prolific.com/","en-GB,en-US;q=0.9,en;q=0.8","63e51ccb431bed8154fc6aae","687a19d2168e237449fb8af4","6889dc4e7f940aef6dce577b","0","63e51ccb431bed8154fc6aae","0","2025-07-30T08:52:38.039Z","","","","StressQ","","","","","","","","","","","50","","","","","","","","","","","","","","","","","","","","","","","","","","",""
"2007","","<div style=""width:500px;"">
  <p>What best describes how you currently feel?</p>
  </div>","58","html-slider-response","22","241355","0.0-7.0-4.1","57","1","2025-07-30 08:48:37","36c45c0696341be0efffe67d72a12abb","136.226.168.84","Mozilla/5.0 (Windows NT 10.0; Win64; x64) AppleWebKit/537.36 (KHTML, like Gecko) Chrome/138.0.0.0 Safari/537.36","WebKit","Chrome","138.0.0.0","Windows","10.0","https://app.prolific.com/","en-GB,en-US;q=0.9,en;q=0.8","63e51ccb431bed8154fc6aae","687a19d2168e237449fb8af4","6889dc4e7f940aef6dce577b","0","63e51ccb431bed8154fc6aae","0","2025-07-30T08:52:40.048Z","","","","MotivationQ","","","","","","","","","","","50","","","","","","","","","","","","","","","","","","","","","","","","","","",""
"","","","","ctl-task-cpt","23","267339","0.0-7.0-0.2","57","1","2025-07-30 08:48:37","36c45c0696341be0efffe67d72a12abb","136.226.168.84","Mozilla/5.0 (Windows NT 10.0; Win64; x64) AppleWebKit/537.36 (KHTML, like Gecko) Chrome/138.0.0.0 Safari/537.36","WebKit","Chrome","138.0.0.0","Windows","10.0","https://app.prolific.com/","en-GB,en-US;q=0.9,en;q=0.8","63e51ccb431bed8154fc6aae","687a19d2168e237449fb8af4","6889dc4e7f940aef6dce577b","0","63e51ccb431bed8154fc6aae","0","2025-07-30T08:53:06.031Z","","","","","","","","","","","","","","","","win-only","3","g1:SW,g2:NE","0.8","3","0","242680.5","1027.9","6030.8","22965.8","1","4","4","6","1","1","1","9","8","0.06818181818181818","5002.9","3000","1490","[""down"",""left""]","{""num_key_presses"":4,""num_perfect"":4,""num_errors"":0,""num_randdir"":0,""num_randdir_good_moves"":0,""num_whilered"":0,""num_whileblue"":0,""num_blue"":2,""num_good_moves"":4}","[421.57142857142856,422.47767857142856,0.1,421.57142857142856,422.47767857142856,107,421.57142857142856,422.47767857142856,207.4,421.57142857142856,422.47767857142856,308.3,421.57142857142856,422.47767857142856,412.8,421.57142857142856,422.47767857142856,513.3,418.57142857142856,420.47767857142856,613.3,405.57142857142856,420.47767857142856,717.5,380.57142857142856,470.47767857142856,817.5,318.57142857142856,528.4776785714286,917.8,-270.42857142857144,481.47767857142856,1022.8,-313.42857142857144,481.47767857142856,1122.8,-254.42857142857144,484.47767857142856,1222.9,-181.42857142857144,489.47767857142856,1323,-182.42857142857144,483.47767857142856,1423.1,-180.42857142857144,479.47767857142856,1527.5,-180.42857142857144,479.47767857142856,1633.2,-180.42857142857144,479.47767857142856,1733.5,-180.42857142857144,479.47767857142856,1838.4,-180.42857142857144,479.47767857142856,1943.3,-180.42857142857144,479.47767857142856,2047.9,-180.42857142857144,479.47767857142856,2148.2,-180.42857142857144,479.47767857142856,2249.8,-180.42857142857144,479.47767857142856,2352.8,-180.42857142857144,479.47767857142856,2453.7,-180.42857142857144,479.47767857142856,2557.5,-180.42857142857144,479.47767857142856,2659.2,-180.42857142857144,479.47767857142856,2762.6,-180.42857142857144,479.47767857142856,2862.6,-180.42857142857144,479.47767857142856,2963.1,-180.42857142857144,479.47767857142856,3068,-180.42857142857144,479.47767857142856,3168.4,-180.42857142857144,479.47767857142856,3268.8,-180.42857142857144,479.47767857142856,3373.3,-180.42857142857144,479.47767857142856,3477.8,-180.42857142857144,479.47767857142856,3578,-180.42857142857144,479.47767857142856,3682.9,-180.42857142857144,479.47767857142856,3788.2,-180.42857142857144,479.47767857142856,3893.3,-180.42857142857144,479.47767857142856,3998.5,-180.42857142857144,479.47767857142856,4103.6,-180.42857142857144,479.47767857142856,4208.4,-180.42857142857144,479.47767857142856,4313.3,-180.42857142857144,479.47767857142856,4418.5,-180.42857142857144,479.47767857142856,4524.2,-180.42857142857144,479.47767857142856,4628.1,-180.42857142857144,479.47767857142856,4728.1,-180.42857142857144,479.47767857142856,4832.9,-180.42857142857144,479.47767857142856,4933]","[4732.8,4732.8,2331.3,2010.2,391.3,""smooth"",""down"",""down"",""good_move"",7500.5,2767.2,2344.9,4733.3,422.3,""smooth"",""left"",""left"",""good_move"",13700,6199.2,2854.1,10454.9,391,""smooth"",""down"",""down"",""good_move"",16844.4,3144.2,2815.1,13700.2,329.1,""smooth"",""left"",""left"",""good_move""]"
"2198","","<div style=""width:500px;"">
  <p>What determined the result of this run?</p>
  </div>","90","html-slider-response","24","269538","0.0-7.0-1.2","57","1","2025-07-30 08:48:37","36c45c0696341be0efffe67d72a12abb","136.226.168.84","Mozilla/5.0 (Windows NT 10.0; Win64; x64) AppleWebKit/537.36 (KHTML, like Gecko) Chrome/138.0.0.0 Safari/537.36","WebKit","Chrome","138.0.0.0","Windows","10.0","https://app.prolific.com/","en-GB,en-US;q=0.9,en;q=0.8","63e51ccb431bed8154fc6aae","687a19d2168e237449fb8af4","6889dc4e7f940aef6dce577b","0","63e51ccb431bed8154fc6aae","0","2025-07-30T08:53:08.230Z","","","","AttribQ","","","","","","","","","","","50","","","","","","","","","","","","","","","","","","","","","","","","","","",""
"1847","","<div style=""width:500px;"">
  <p>How much control did you have over the ball?</p>
  </div>","92","html-slider-response","25","271386","0.0-7.0-2.2","57","1","2025-07-30 08:48:37","36c45c0696341be0efffe67d72a12abb","136.226.168.84","Mozilla/5.0 (Windows NT 10.0; Win64; x64) AppleWebKit/537.36 (KHTML, like Gecko) Chrome/138.0.0.0 Safari/537.36","WebKit","Chrome","138.0.0.0","Windows","10.0","https://app.prolific.com/","en-GB,en-US;q=0.9,en;q=0.8","63e51ccb431bed8154fc6aae","687a19d2168e237449fb8af4","6889dc4e7f940aef6dce577b","0","63e51ccb431bed8154fc6aae","0","2025-07-30T08:53:10.078Z","","","","ControlQ","","","","","","","","","","","50","","","","","","","","","","","","","","","","","","","","","","","","","","",""
"1759","","<div style=""width:500px;"">
  <p>How would you describe your current emotional state?</p>
  </div>","38","html-slider-response","26","273146","0.0-7.0-3.2","57","1","2025-07-30 08:48:37","36c45c0696341be0efffe67d72a12abb","136.226.168.84","Mozilla/5.0 (Windows NT 10.0; Win64; x64) AppleWebKit/537.36 (KHTML, like Gecko) Chrome/138.0.0.0 Safari/537.36","WebKit","Chrome","138.0.0.0","Windows","10.0","https://app.prolific.com/","en-GB,en-US;q=0.9,en;q=0.8","63e51ccb431bed8154fc6aae","687a19d2168e237449fb8af4","6889dc4e7f940aef6dce577b","0","63e51ccb431bed8154fc6aae","0","2025-07-30T08:53:11.838Z","","","","StressQ","","","","","","","","","","","50","","","","","","","","","","","","","","","","","","","","","","","","","","",""
"1487","","<div style=""width:500px;"">
  <p>What best describes how you currently feel?</p>
  </div>","61","html-slider-response","27","274634","0.0-7.0-4.2","57","1","2025-07-30 08:48:37","36c45c0696341be0efffe67d72a12abb","136.226.168.84","Mozilla/5.0 (Windows NT 10.0; Win64; x64) AppleWebKit/537.36 (KHTML, like Gecko) Chrome/138.0.0.0 Safari/537.36","WebKit","Chrome","138.0.0.0","Windows","10.0","https://app.prolific.com/","en-GB,en-US;q=0.9,en;q=0.8","63e51ccb431bed8154fc6aae","687a19d2168e237449fb8af4","6889dc4e7f940aef6dce577b","0","63e51ccb431bed8154fc6aae","0","2025-07-30T08:53:13.326Z","","","","MotivationQ","","","","","","","","","","","50","","","","","","","","","","","","","","","","","","","","","","","","","","",""
"","","","","ctl-task-cpt","28","303457","0.0-7.0-0.3","57","1","2025-07-30 08:48:37","36c45c0696341be0efffe67d72a12abb","136.226.168.84","Mozilla/5.0 (Windows NT 10.0; Win64; x64) AppleWebKit/537.36 (KHTML, like Gecko) Chrome/138.0.0.0 Safari/537.36","WebKit","Chrome","138.0.0.0","Windows","10.0","https://app.prolific.com/","en-GB,en-US;q=0.9,en;q=0.8","63e51ccb431bed8154fc6aae","687a19d2168e237449fb8af4","6889dc4e7f940aef6dce577b","0","63e51ccb431bed8154fc6aae","0","2025-07-30T08:53:42.150Z","","","","","","","","","","","","","","","","win-only","3","g1:SW,g2:NE","0.7","4","0","275957.4","935.7","5936.3","25805.9","1","4","8","6","2","8","7","16","9","0.12121212121212122","5000.6","3000","1335","[""up"",""right""]","{""num_key_presses"":6,""num_perfect"":4,""num_errors"":1,""num_randdir"":1,""num_randdir_good_moves"":1,""num_whilered"":0,""num_whileblue"":1,""num_blue"":2,""num_good_moves"":6}","[409.57142857142856,414.47767857142856,0.3,409.57142857142856,414.47767857142856,100.8,409.57142857142856,414.47767857142856,206.1,409.57142857142856,414.47767857142856,310.4,410.57142857142856,414.47767857142856,410.8,706.5714285714286,440.47767857142856,515.1,786.5714285714286,447.47767857142856,620.6,800.5714285714286,447.47767857142856,725.5,889.5714285714286,429.47767857142856,825.8,889.5714285714286,430.47767857142856,930.4,888.5714285714286,430.47767857142856,1038.4,888.5714285714286,430.47767857142856,1140,888.5714285714286,430.47767857142856,1245.7,888.5714285714286,430.47767857142856,1345.7,888.5714285714286,430.47767857142856,1450.2,888.5714285714286,430.47767857142856,1555.9,888.5714285714286,430.47767857142856,1659.6,888.5714285714286,430.47767857142856,1760,888.5714285714286,430.47767857142856,1865.4,888.5714285714286,430.47767857142856,1970.4,888.5714285714286,430.47767857142856,2075.9,888.5714285714286,430.47767857142856,2181.1,888.5714285714286,430.47767857142856,2281.1,888.5714285714286,430.47767857142856,2385.3,888.5714285714286,430.47767857142856,2485.8,888.5714285714286,430.47767857142856,2590.1,888.5714285714286,430.47767857142856,2690.5,888.5714285714286,430.47767857142856,2795.1,888.5714285714286,430.47767857142856,2895.6,888.5714285714286,430.47767857142856,3000.3,888.5714285714286,430.47767857142856,3104.6,888.5714285714286,430.47767857142856,3204.8,888.5714285714286,430.47767857142856,3304.9,888.5714285714286,430.47767857142856,3410.7,888.5714285714286,430.47767857142856,3515.4,888.5714285714286,430.47767857142856,3620.5,888.5714285714286,430.47767857142856,3720.6,888.5714285714286,430.47767857142856,3824.7,888.5714285714286,430.47767857142856,3925.5,888.5714285714286,430.47767857142856,4026.2,888.5714285714286,430.47767857142856,4130.4,888.5714285714286,430.47767857142856,4231.4,888.5714285714286,430.47767857142856,4335.8,888.5714285714286,430.47767857142856,4435.8,888.5714285714286,430.47767857142856,4540.2,888.5714285714286,430.47767857142856,4642.3,888.5714285714286,430.47767857142856,4744.8,888.5714285714286,430.47767857142856,4844.8,888.5714285714286,430.47767857142856,4945.1]","[1285.8,1285.8,1000,0,285.8,""smooth"",""up"",""up"",""good_move"",3726.1,2439.9,2162.7,1286.2,277.2,""while_blue"",""up"",""right"",""good_move"",6342.8,2616.4,2288.2,3726.5,328.1,""smooth"",""up"",""up"",""good_move"",9549.7,3206.6,2818.5,6343.1,388.1,""smooth"",""up"",""up"",""good_move"",13277.7,3727.8,3344.2,9549.9,383.6,""smooth"",""right"",""right"",""good_move"",19781.9,6504,2442.3,17035.1,304.5,""oops"",""right"",""right"",""good_move""]"
"3376","","<div style=""width:500px;"">
  <p>What determined the result of this run?</p>
  </div>","82","html-slider-response","29","306834","0.0-7.0-1.3","57","1","2025-07-30 08:48:37","36c45c0696341be0efffe67d72a12abb","136.226.168.84","Mozilla/5.0 (Windows NT 10.0; Win64; x64) AppleWebKit/537.36 (KHTML, like Gecko) Chrome/138.0.0.0 Safari/537.36","WebKit","Chrome","138.0.0.0","Windows","10.0","https://app.prolific.com/","en-GB,en-US;q=0.9,en;q=0.8","63e51ccb431bed8154fc6aae","687a19d2168e237449fb8af4","6889dc4e7f940aef6dce577b","0","63e51ccb431bed8154fc6aae","0","2025-07-30T08:53:45.526Z","","","","AttribQ","","","","","","","","","","","50","","","","","","","","","","","","","","","","","","","","","","","","","","",""
"1999","","<div style=""width:500px;"">
  <p>How much control did you have over the ball?</p>
  </div>","86","html-slider-response","30","308834","0.0-7.0-2.3","57","1","2025-07-30 08:48:37","36c45c0696341be0efffe67d72a12abb","136.226.168.84","Mozilla/5.0 (Windows NT 10.0; Win64; x64) AppleWebKit/537.36 (KHTML, like Gecko) Chrome/138.0.0.0 Safari/537.36","WebKit","Chrome","138.0.0.0","Windows","10.0","https://app.prolific.com/","en-GB,en-US;q=0.9,en;q=0.8","63e51ccb431bed8154fc6aae","687a19d2168e237449fb8af4","6889dc4e7f940aef6dce577b","0","63e51ccb431bed8154fc6aae","0","2025-07-30T08:53:47.526Z","","","","ControlQ","","","","","","","","","","","50","","","","","","","","","","","","","","","","","","","","","","","","","","",""
"2591","","<div style=""width:500px;"">
  <p>How would you describe your current emotional state?</p>
  </div>","48","html-slider-response","31","311426","0.0-7.0-3.3","57","1","2025-07-30 08:48:37","36c45c0696341be0efffe67d72a12abb","136.226.168.84","Mozilla/5.0 (Windows NT 10.0; Win64; x64) AppleWebKit/537.36 (KHTML, like Gecko) Chrome/138.0.0.0 Safari/537.36","WebKit","Chrome","138.0.0.0","Windows","10.0","https://app.prolific.com/","en-GB,en-US;q=0.9,en;q=0.8","63e51ccb431bed8154fc6aae","687a19d2168e237449fb8af4","6889dc4e7f940aef6dce577b","0","63e51ccb431bed8154fc6aae","0","2025-07-30T08:53:50.118Z","","","","StressQ","","","","","","","","","","","50","","","","","","","","","","","","","","","","","","","","","","","","","","",""
"1927","","<div style=""width:500px;"">
  <p>What best describes how you currently feel?</p>
  </div>","56","html-slider-response","32","313354","0.0-7.0-4.3","57","1","2025-07-30 08:48:37","36c45c0696341be0efffe67d72a12abb","136.226.168.84","Mozilla/5.0 (Windows NT 10.0; Win64; x64) AppleWebKit/537.36 (KHTML, like Gecko) Chrome/138.0.0.0 Safari/537.36","WebKit","Chrome","138.0.0.0","Windows","10.0","https://app.prolific.com/","en-GB,en-US;q=0.9,en;q=0.8","63e51ccb431bed8154fc6aae","687a19d2168e237449fb8af4","6889dc4e7f940aef6dce577b","0","63e51ccb431bed8154fc6aae","0","2025-07-30T08:53:52.046Z","","","","MotivationQ","","","","","","","","","","","50","","","","","","","","","","","","","","","","","","","","","","","","","","",""
"","","","","ctl-task-cpt","33","349627","0.0-7.0-0.4","57","1","2025-07-30 08:48:37","36c45c0696341be0efffe67d72a12abb","136.226.168.84","Mozilla/5.0 (Windows NT 10.0; Win64; x64) AppleWebKit/537.36 (KHTML, like Gecko) Chrome/138.0.0.0 Safari/537.36","WebKit","Chrome","138.0.0.0","Windows","10.0","https://app.prolific.com/","en-GB,en-US;q=0.9,en;q=0.8","63e51ccb431bed8154fc6aae","687a19d2168e237449fb8af4","6889dc4e7f940aef6dce577b","0","63e51ccb431bed8154fc6aae","0","2025-07-30T08:54:28.319Z","","","","","","","","","","","","","","","","win-only","1","g1:NE,g2:SW","0.6","5","0","314677.6","855.5","5855.9","33255.5","1","4","8","6","2","-8","-9","7","16","0.05303030303030303","5000.4","3000","-3015","[""down"",""left""]","{""num_key_presses"":10,""num_perfect"":5,""num_errors"":1,""num_randdir"":4,""num_randdir_good_moves"":2,""num_whilered"":0,""num_whileblue"":1,""num_blue"":1,""num_good_moves"":7}","[427.57142857142856,420.47767857142856,0.1,427.57142857142856,420.47767857142856,100.4,427.57142857142856,420.47767857142856,200.6,426.57142857142856,419.47767857142856,301.7,552.5714285714286,344.47767857142856,401.9,763.5714285714286,330.47767857142856,505,775.5714285714286,330.47767857142856,605.5,773.5714285714286,323.47767857142856,710.6,773.5714285714286,323.47767857142856,816.2,773.5714285714286,323.47767857142856,916.5,773.5714285714286,323.47767857142856,1018,773.5714285714286,323.47767857142856,1120.5,773.5714285714286,323.47767857142856,1221,773.5714285714286,323.47767857142856,1321.2,773.5714285714286,323.47767857142856,1426.8,773.5714285714286,323.47767857142856,1531.3,773.5714285714286,323.47767857142856,1635.2,773.5714285714286,323.47767857142856,1738,773.5714285714286,323.47767857142856,1841.3,773.5714285714286,323.47767857142856,1946.1,773.5714285714286,323.47767857142856,2050.2,773.5714285714286,323.47767857142856,2150.9,773.5714285714286,323.47767857142856,2256.1,773.5714285714286,323.47767857142856,2360.8,773.5714285714286,323.47767857142856,2461.2,773.5714285714286,323.47767857142856,2566.2,773.5714285714286,323.47767857142856,2670,773.5714285714286,323.47767857142856,2770.6,773.5714285714286,323.47767857142856,2871,773.5714285714286,323.47767857142856,2971,773.5714285714286,323.47767857142856,3075.1,773.5714285714286,323.47767857142856,3175.8,773.5714285714286,323.47767857142856,3280.6,773.5714285714286,323.47767857142856,3385.8,773.5714285714286,323.47767857142856,3492.6,773.5714285714286,323.47767857142856,3595.7,773.5714285714286,323.47767857142856,3696.2,773.5714285714286,323.47767857142856,3800.6,773.5714285714286,323.47767857142856,3900.8,773.5714285714286,323.47767857142856,4000.8,773.5714285714286,323.47767857142856,4105.7,773.5714285714286,323.47767857142856,4210.5,773.5714285714286,323.47767857142856,4310.6,773.5714285714286,323.47767857142856,4411.1,773.5714285714286,323.47767857142856,4511.4,773.5714285714286,323.47767857142856,4615.5,773.5714285714286,323.47767857142856,4720.7,773.5714285714286,323.47767857142856,4825.7,773.5714285714286,323.47767857142856,4927]","[1397.9,1397.9,1000,0,397.9,""oops"",""down"",""left"",""good_move"",4374.3,2976.1,2637.9,1398.2,338.2,""oops"",""down"",""right"",""bad_move"",6757.9,2383.4,2024,4374.5,359.4,""smooth"",""down"",""down"",""good_move"",9464.6,2706.5,2420.5,6758.1,286,""oops"",""left"",""left"",""good_move"",11909.9,2445.1,2127.3,9464.8,317.8,""smooth"",""left"",""left"",""good_move"",14917.7,3007.6,2682.6,11910.1,325,""smooth"",""down"",""down"",""good_move"",17773.6,2855.8,2512.2,14917.8,343.6,""while_blue"",""left"",""right"",""bad_move"",21056,3282.2,2984.8,17773.8,297.4,""smooth"",""left"",""left"",""good_move"",24093.5,3037.4,2674.9,21056.1,362.5,""smooth"",""down"",""down"",""good_move"",25893.9,1800.3,1446.3,24093.6,354,""oops"",""left"",""up"",""bad_move""]"
"6582","","<div style=""width:500px;"">
  <p>What determined the result of this run?</p>
  </div>","76","html-slider-response","34","356210","0.0-7.0-1.4","57","1","2025-07-30 08:48:37","36c45c0696341be0efffe67d72a12abb","136.226.168.84","Mozilla/5.0 (Windows NT 10.0; Win64; x64) AppleWebKit/537.36 (KHTML, like Gecko) Chrome/138.0.0.0 Safari/537.36","WebKit","Chrome","138.0.0.0","Windows","10.0","https://app.prolific.com/","en-GB,en-US;q=0.9,en;q=0.8","63e51ccb431bed8154fc6aae","687a19d2168e237449fb8af4","6889dc4e7f940aef6dce577b","0","63e51ccb431bed8154fc6aae","0","2025-07-30T08:54:34.902Z","","","","AttribQ","","","","","","","","","","","50","","","","","","","","","","","","","","","","","","","","","","","","","","",""
"2487","","<div style=""width:500px;"">
  <p>How much control did you have over the ball?</p>
  </div>","77","html-slider-response","35","358698","0.0-7.0-2.4","57","1","2025-07-30 08:48:37","36c45c0696341be0efffe67d72a12abb","136.226.168.84","Mozilla/5.0 (Windows NT 10.0; Win64; x64) AppleWebKit/537.36 (KHTML, like Gecko) Chrome/138.0.0.0 Safari/537.36","WebKit","Chrome","138.0.0.0","Windows","10.0","https://app.prolific.com/","en-GB,en-US;q=0.9,en;q=0.8","63e51ccb431bed8154fc6aae","687a19d2168e237449fb8af4","6889dc4e7f940aef6dce577b","0","63e51ccb431bed8154fc6aae","0","2025-07-30T08:54:37.390Z","","","","ControlQ","","","","","","","","","","","50","","","","","","","","","","","","","","","","","","","","","","","","","","",""
"2255","","<div style=""width:500px;"">
  <p>How would you describe your current emotional state?</p>
  </div>","64","html-slider-response","36","360954","0.0-7.0-3.4","57","1","2025-07-30 08:48:37","36c45c0696341be0efffe67d72a12abb","136.226.168.84","Mozilla/5.0 (Windows NT 10.0; Win64; x64) AppleWebKit/537.36 (KHTML, like Gecko) Chrome/138.0.0.0 Safari/537.36","WebKit","Chrome","138.0.0.0","Windows","10.0","https://app.prolific.com/","en-GB,en-US;q=0.9,en;q=0.8","63e51ccb431bed8154fc6aae","687a19d2168e237449fb8af4","6889dc4e7f940aef6dce577b","0","63e51ccb431bed8154fc6aae","0","2025-07-30T08:54:39.646Z","","","","StressQ","","","","","","","","","","","50","","","","","","","","","","","","","","","","","","","","","","","","","","",""
"2360","","<div style=""width:500px;"">
  <p>What best describes how you currently feel?</p>
  </div>","66","html-slider-response","37","363315","0.0-7.0-4.4","57","1","2025-07-30 08:48:37","36c45c0696341be0efffe67d72a12abb","136.226.168.84","Mozilla/5.0 (Windows NT 10.0; Win64; x64) AppleWebKit/537.36 (KHTML, like Gecko) Chrome/138.0.0.0 Safari/537.36","WebKit","Chrome","138.0.0.0","Windows","10.0","https://app.prolific.com/","en-GB,en-US;q=0.9,en;q=0.8","63e51ccb431bed8154fc6aae","687a19d2168e237449fb8af4","6889dc4e7f940aef6dce577b","0","63e51ccb431bed8154fc6aae","0","2025-07-30T08:54:42.007Z","","","","MotivationQ","","","","","","","","","","","50","","","","","","","","","","","","","","","","","","","","","","","","","","",""
"","","","","ctl-task-cpt","38","410081","0.0-7.0-0.5","57","1","2025-07-30 08:48:37","36c45c0696341be0efffe67d72a12abb","136.226.168.84","Mozilla/5.0 (Windows NT 10.0; Win64; x64) AppleWebKit/537.36 (KHTML, like Gecko) Chrome/138.0.0.0 Safari/537.36","WebKit","Chrome","138.0.0.0","Windows","10.0","https://app.prolific.com/","en-GB,en-US;q=0.9,en;q=0.8","63e51ccb431bed8154fc6aae","687a19d2168e237449fb8af4","6889dc4e7f940aef6dce577b","0","63e51ccb431bed8154fc6aae","0","2025-07-30T08:55:28.773Z","","","","","","","","","","","","","","","","win-only","1","g1:NE,g2:SW","0.5","6","0","364637.7","858.4","5861.8","43751.6","1","4","4","6","2","-4","-5","2","7","0.015151515151515152","5003.4","3000","-2685","[""down"",""left""]","{""num_key_presses"":11,""num_perfect"":5,""num_errors"":1,""num_randdir"":5,""num_randdir_good_moves"":2,""num_whilered"":0,""num_whileblue"":0,""num_blue"":1,""num_good_moves"":7}","[423.57142857142856,418.47767857142856,0.2,423.57142857142856,418.47767857142856,101.4,423.57142857142856,418.47767857142856,202.8,431.57142857142856,416.47767857142856,308,431.57142857142856,416.47767857142856,412.8,431.57142857142856,416.47767857142856,517.2,431.57142857142856,416.47767857142856,619.4,431.57142857142856,416.47767857142856,722.5,431.57142857142856,416.47767857142856,822.6,431.57142857142856,416.47767857142856,923.6,431.57142857142856,416.47767857142856,1028.2,431.57142857142856,416.47767857142856,1128.2,422.57142857142856,411.47767857142856,1237.2,-449.42857142857144,419.47767857142856,1338.1,-449.42857142857144,419.47767857142856,1438.7,-449.42857142857144,419.47767857142856,1541.1,-449.42857142857144,419.47767857142856,1642.6,-449.42857142857144,419.47767857142856,1743.9,-449.42857142857144,419.47767857142856,1848.3,-449.42857142857144,419.47767857142856,1956.9,-370.42857142857144,415.47767857142856,2062.5,-337.42857142857144,430.47767857142856,2168.4,-332.42857142857144,430.47767857142856,2272.6,-332.42857142857144,430.47767857142856,2372.7,-332.42857142857144,430.47767857142856,2474.1,-332.42857142857144,430.47767857142856,2574.2,-332.42857142857144,430.47767857142856,2678.2,-332.42857142857144,430.47767857142856,2782.8,-332.42857142857144,430.47767857142856,2883,-332.42857142857144,430.47767857142856,2991.5,-332.42857142857144,430.47767857142856,3091.5,-332.42857142857144,430.47767857142856,3191.7,-332.42857142857144,430.47767857142856,3292.2,-332.42857142857144,430.47767857142856,3392.6,-332.42857142857144,430.47767857142856,3492.9,-332.42857142857144,430.47767857142856,3597,-332.42857142857144,430.47767857142856,3698.1,-332.42857142857144,430.47767857142856,3798.2,-332.42857142857144,430.47767857142856,3898.3,-332.42857142857144,430.47767857142856,4003.1,-332.42857142857144,430.47767857142856,4110.9,-332.42857142857144,430.47767857142856,4213,-332.42857142857144,430.47767857142856,4313.7,-332.42857142857144,430.47767857142856,4418.4,-332.42857142857144,430.47767857142856,4522.8,-332.42857142857144,430.47767857142856,4623.2,-332.42857142857144,430.47767857142856,4729,-332.42857142857144,430.47767857142856,4829.6,-332.42857142857144,430.47767857142856,4932]","[1367.9,1367.9,1000,0,367.9,""oops"",""down"",""right"",""bad_move"",4602,3233.9,2915,1368.1,318.9,""smooth"",""down"",""down"",""good_move"",6656.4,2054.1,1634.4,4602.3,419.7,""oops"",""down"",""up"",""bad_move"",13305.5,6648.7,2961.8,9981.7,362,""oops"",""down"",""down"",""good_move"",15877.7,2572.1,2230.3,13305.6,341.8,""smooth"",""down"",""down"",""good_move"",19033.5,3155.7,2771,15877.8,384.7,""oops"",""down"",""left"",""good_move"",21752.1,2718.3,2458.3,19033.8,260,""oops"",""down"",""right"",""bad_move"",25471.9,3719.4,3412.1,21752.5,307.3,""smooth"",""left"",""left"",""good_move"",28447.7,2975.7,2624.6,25472,351.1,""smooth"",""left"",""left"",""good_move"",31427.4,2979.5,2705.5,28447.9,274,""smooth"",""left"",""left"",""good_move"",33887.7,2460.1,2611.7,31427.6,-151.6,""error"",""-"",""-"",""no_move""]"
"9144","","<div style=""width:500px;"">
  <p>What determined the result of this run?</p>
  </div>","61","html-slider-response","39","419226","0.0-7.0-1.5","57","1","2025-07-30 08:48:37","36c45c0696341be0efffe67d72a12abb","136.226.168.84","Mozilla/5.0 (Windows NT 10.0; Win64; x64) AppleWebKit/537.36 (KHTML, like Gecko) Chrome/138.0.0.0 Safari/537.36","WebKit","Chrome","138.0.0.0","Windows","10.0","https://app.prolific.com/","en-GB,en-US;q=0.9,en;q=0.8","63e51ccb431bed8154fc6aae","687a19d2168e237449fb8af4","6889dc4e7f940aef6dce577b","0","63e51ccb431bed8154fc6aae","0","2025-07-30T08:55:37.918Z","","","","AttribQ","","","","","","","","","","","50","","","","","","","","","","","","","","","","","","","","","","","","","","",""
"1951","","<div style=""width:500px;"">
  <p>How much control did you have over the ball?</p>
  </div>","65","html-slider-response","40","421178","0.0-7.0-2.5","57","1","2025-07-30 08:48:37","36c45c0696341be0efffe67d72a12abb","136.226.168.84","Mozilla/5.0 (Windows NT 10.0; Win64; x64) AppleWebKit/537.36 (KHTML, like Gecko) Chrome/138.0.0.0 Safari/537.36","WebKit","Chrome","138.0.0.0","Windows","10.0","https://app.prolific.com/","en-GB,en-US;q=0.9,en;q=0.8","63e51ccb431bed8154fc6aae","687a19d2168e237449fb8af4","6889dc4e7f940aef6dce577b","0","63e51ccb431bed8154fc6aae","0","2025-07-30T08:55:39.870Z","","","","ControlQ","","","","","","","","","","","50","","","","","","","","","","","","","","","","","","","","","","","","","","",""
"2415","","<div style=""width:500px;"">
  <p>How would you describe your current emotional state?</p>
  </div>","62","html-slider-response","41","423594","0.0-7.0-3.5","57","1","2025-07-30 08:48:37","36c45c0696341be0efffe67d72a12abb","136.226.168.84","Mozilla/5.0 (Windows NT 10.0; Win64; x64) AppleWebKit/537.36 (KHTML, like Gecko) Chrome/138.0.0.0 Safari/537.36","WebKit","Chrome","138.0.0.0","Windows","10.0","https://app.prolific.com/","en-GB,en-US;q=0.9,en;q=0.8","63e51ccb431bed8154fc6aae","687a19d2168e237449fb8af4","6889dc4e7f940aef6dce577b","0","63e51ccb431bed8154fc6aae","0","2025-07-30T08:55:42.286Z","","","","StressQ","","","","","","","","","","","50","","","","","","","","","","","","","","","","","","","","","","","","","","",""
"2143","","<div style=""width:500px;"">
  <p>What best describes how you currently feel?</p>
  </div>","55","html-slider-response","42","425738","0.0-7.0-4.5","57","1","2025-07-30 08:48:37","36c45c0696341be0efffe67d72a12abb","136.226.168.84","Mozilla/5.0 (Windows NT 10.0; Win64; x64) AppleWebKit/537.36 (KHTML, like Gecko) Chrome/138.0.0.0 Safari/537.36","WebKit","Chrome","138.0.0.0","Windows","10.0","https://app.prolific.com/","en-GB,en-US;q=0.9,en;q=0.8","63e51ccb431bed8154fc6aae","687a19d2168e237449fb8af4","6889dc4e7f940aef6dce577b","0","63e51ccb431bed8154fc6aae","0","2025-07-30T08:55:44.430Z","","","","MotivationQ","","","","","","","","","","","50","","","","","","","","","","","","","","","","","","","","","","","","","","",""
"","","","","ctl-task-cpt","43","479273","0.0-7.0-0.6","57","1","2025-07-30 08:48:37","36c45c0696341be0efffe67d72a12abb","136.226.168.84","Mozilla/5.0 (Windows NT 10.0; Win64; x64) AppleWebKit/537.36 (KHTML, like Gecko) Chrome/138.0.0.0 Safari/537.36","WebKit","Chrome","138.0.0.0","Windows","10.0","https://app.prolific.com/","en-GB,en-US;q=0.9,en;q=0.8","63e51ccb431bed8154fc6aae","687a19d2168e237449fb8af4","6889dc4e7f940aef6dce577b","0","63e51ccb431bed8154fc6aae","0","2025-07-30T08:56:37.966Z","","","","","","","","","","","","","","","","win-only","0","g1:NW,g2:SE","0.4","7","0","427060.9","670.5","5674.2","50516","1","4","8","6","2","-8","-8","0","2","0","5003.7","3000","-2615","[""down"",""right""]","{""num_key_presses"":10,""num_perfect"":4,""num_errors"":0,""num_randdir"":6,""num_randdir_good_moves"":3,""num_whilered"":0,""num_whileblue"":0,""num_blue"":4,""num_good_moves"":7}","[417.57142857142856,420.47767857142856,0.2,417.57142857142856,420.47767857142856,107.7,417.57142857142856,420.47767857142856,208.7,416.57142857142856,419.47767857142856,310.6,404.57142857142856,411.47767857142856,410.6,395.57142857142856,410.47767857142856,515.7,395.57142857142856,410.47767857142856,620.6,395.57142857142856,410.47767857142856,726.1,395.57142857142856,410.47767857142856,827.3,395.57142857142856,410.47767857142856,930.6,395.57142857142856,410.47767857142856,1035.8,395.57142857142856,410.47767857142856,1144.2,395.57142857142856,410.47767857142856,1245.7,389.57142857142856,411.47767857142856,1351,-520.4285714285714,555.4776785714286,1451.1,-520.4285714285714,555.4776785714286,1556,-520.4285714285714,555.4776785714286,1656.4,-520.4285714285714,555.4776785714286,1756.6,-520.4285714285714,555.4776785714286,1862.7,-520.4285714285714,555.4776785714286,1963.6,-268.42857142857144,578.4776785714286,2064.8,-368.42857142857144,581.4776785714286,2165,-195.42857142857144,524.4776785714286,2265.7,77.57142857142857,470.47767857142856,2370.5,168.57142857142856,435.47767857142856,2475,158.57142857142856,446.47767857142856,2581,145.57142857142856,457.47767857142856,2685.3,63.57142857142857,469.47767857142856,2790.8,-69.42857142857143,500.47767857142856,2899.4,-69.42857142857143,501.47767857142856,3001.1,-68.42857142857143,501.47767857142856,3104.7,-68.42857142857143,501.47767857142856,3205.9,-68.42857142857143,501.47767857142856,3315.5,-68.42857142857143,501.47767857142856,3415.7,-68.42857142857143,501.47767857142856,3515.7,-68.42857142857143,501.47767857142856,3621.5,-68.42857142857143,501.47767857142856,3724.9,-68.42857142857143,501.47767857142856,3834.1,-68.42857142857143,501.47767857142856,3934.9,-68.42857142857143,501.47767857142856,4041.4,-68.42857142857143,501.47767857142856,4151.1,-68.42857142857143,501.47767857142856,4255.2,-68.42857142857143,501.47767857142856,4359.8,-68.42857142857143,501.47767857142856,4461.2,-68.42857142857143,501.47767857142856,4568.8,-68.42857142857143,501.47767857142856,4670.2,-68.42857142857143,501.47767857142856,4770.4,-68.42857142857143,501.47767857142856,4874.7,-68.42857142857143,501.47767857142856,4975.7]","[4596.4,4596.4,2242.3,2003.6,350.5,""oops"",""down"",""left"",""bad_move"",7732.2,3135.5,2836.4,4596.7,299.1,""smooth"",""down"",""down"",""good_move"",14299.6,6567.1,2267.4,11708.7,323.5,""smooth"",""down"",""down"",""good_move"",21029.9,6730.2,2365.9,18290.5,373.5,""smooth"",""down"",""down"",""good_move"",24838,3807.9,3420.7,21030.1,387.2,""smooth"",""right"",""right"",""good_move"",30568.1,5729.8,2521.3,27686.1,360.7,""oops"",""right"",""right"",""good_move"",33307.8,2739.5,2350.3,30568.3,389.2,""oops"",""right"",""right"",""good_move"",36347.8,3039.8,2693.2,33308,346.6,""oops"",""right"",""up"",""bad_move"",40289.1,3941,3606.7,36348.1,334.3,""oops"",""right"",""right"",""good_move"",42908.2,2618.8,2308.4,40289.4,310.4,""oops"",""down"",""left"",""bad_move""]"
"3647","","<div style=""width:500px;"">
  <p>What determined the result of this run?</p>
  </div>","34","html-slider-response","44","482922","0.0-7.0-1.6","57","1","2025-07-30 08:48:37","36c45c0696341be0efffe67d72a12abb","136.226.168.84","Mozilla/5.0 (Windows NT 10.0; Win64; x64) AppleWebKit/537.36 (KHTML, like Gecko) Chrome/138.0.0.0 Safari/537.36","WebKit","Chrome","138.0.0.0","Windows","10.0","https://app.prolific.com/","en-GB,en-US;q=0.9,en;q=0.8","63e51ccb431bed8154fc6aae","687a19d2168e237449fb8af4","6889dc4e7f940aef6dce577b","0","63e51ccb431bed8154fc6aae","0","2025-07-30T08:56:41.614Z","","","","AttribQ","","","","","","","","","","","50","","","","","","","","","","","","","","","","","","","","","","","","","","",""
"4294","","<div style=""width:500px;"">
  <p>How much control did you have over the ball?</p>
  </div>","51","html-slider-response","45","487217","0.0-7.0-2.6","57","1","2025-07-30 08:48:37","36c45c0696341be0efffe67d72a12abb","136.226.168.84","Mozilla/5.0 (Windows NT 10.0; Win64; x64) AppleWebKit/537.36 (KHTML, like Gecko) Chrome/138.0.0.0 Safari/537.36","WebKit","Chrome","138.0.0.0","Windows","10.0","https://app.prolific.com/","en-GB,en-US;q=0.9,en;q=0.8","63e51ccb431bed8154fc6aae","687a19d2168e237449fb8af4","6889dc4e7f940aef6dce577b","0","63e51ccb431bed8154fc6aae","0","2025-07-30T08:56:45.909Z","","","","ControlQ","","","","","","","","","","","50","","","","","","","","","","","","","","","","","","","","","","","","","","",""
"2407","","<div style=""width:500px;"">
  <p>How would you describe your current emotional state?</p>
  </div>","74","html-slider-response","46","489625","0.0-7.0-3.6","57","1","2025-07-30 08:48:37","36c45c0696341be0efffe67d72a12abb","136.226.168.84","Mozilla/5.0 (Windows NT 10.0; Win64; x64) AppleWebKit/537.36 (KHTML, like Gecko) Chrome/138.0.0.0 Safari/537.36","WebKit","Chrome","138.0.0.0","Windows","10.0","https://app.prolific.com/","en-GB,en-US;q=0.9,en;q=0.8","63e51ccb431bed8154fc6aae","687a19d2168e237449fb8af4","6889dc4e7f940aef6dce577b","0","63e51ccb431bed8154fc6aae","0","2025-07-30T08:56:48.318Z","","","","StressQ","","","","","","","","","","","50","","","","","","","","","","","","","","","","","","","","","","","","","","",""
"2728","","<div style=""width:500px;"">
  <p>What best describes how you currently feel?</p>
  </div>","57","html-slider-response","47","492355","0.0-7.0-4.6","57","1","2025-07-30 08:48:37","36c45c0696341be0efffe67d72a12abb","136.226.168.84","Mozilla/5.0 (Windows NT 10.0; Win64; x64) AppleWebKit/537.36 (KHTML, like Gecko) Chrome/138.0.0.0 Safari/537.36","WebKit","Chrome","138.0.0.0","Windows","10.0","https://app.prolific.com/","en-GB,en-US;q=0.9,en;q=0.8","63e51ccb431bed8154fc6aae","687a19d2168e237449fb8af4","6889dc4e7f940aef6dce577b","0","63e51ccb431bed8154fc6aae","0","2025-07-30T08:56:51.047Z","","","","MotivationQ","","","","","","","","","","","50","","","","","","","","","","","","","","","","","","","","","","","","","","",""
"","","","","ctl-task-cpt","48","535534","0.0-7.0-0.7","57","1","2025-07-30 08:48:37","36c45c0696341be0efffe67d72a12abb","136.226.168.84","Mozilla/5.0 (Windows NT 10.0; Win64; x64) AppleWebKit/537.36 (KHTML, like Gecko) Chrome/138.0.0.0 Safari/537.36","WebKit","Chrome","138.0.0.0","Windows","10.0","https://app.prolific.com/","en-GB,en-US;q=0.9,en;q=0.8","63e51ccb431bed8154fc6aae","687a19d2168e237449fb8af4","6889dc4e7f940aef6dce577b","0","63e51ccb431bed8154fc6aae","0","2025-07-30T08:57:34.226Z","","","","","","","","","","","","","","","","win-only","1","g1:NE,g2:SW","0.3","8","0","493678.4","821","5825.8","40160.7","1","4","4","6","1","-1","-3","0","0","0","5004.8","3000","-2455","[""up"",""right""]","{""num_key_presses"":11,""num_perfect"":3,""num_errors"":2,""num_randdir"":6,""num_randdir_good_moves"":3,""num_whilered"":0,""num_whileblue"":1,""num_blue"":1,""num_good_moves"":6}","[419.57142857142856,415.47767857142856,0.2,419.57142857142856,415.47767857142856,104.5,419.57142857142856,415.47767857142856,209.9,419.57142857142856,415.47767857142856,310.3,418.57142857142856,434.47767857142856,411,415.57142857142856,437.47767857142856,514.9,415.57142857142856,437.47767857142856,627.3,415.57142857142856,437.47767857142856,727.7,415.57142857142856,437.47767857142856,829.1,415.57142857142856,437.47767857142856,929.4,415.57142857142856,437.47767857142856,1030.6,308.57142857142856,446.47767857142856,1135,-529.4285714285714,449.47767857142856,1235.4,-529.4285714285714,449.47767857142856,1340.5,-529.4285714285714,449.47767857142856,1441.5,-529.4285714285714,449.47767857142856,1544.7,-529.4285714285714,449.47767857142856,1645.1,-529.4285714285714,449.47767857142856,1746.2,-529.4285714285714,449.47767857142856,1851.7,-529.4285714285714,449.47767857142856,1956.6,-529.4285714285714,449.47767857142856,2064.7,-529.4285714285714,449.47767857142856,2169.5,-529.4285714285714,449.47767857142856,2275,-529.4285714285714,449.47767857142856,2382.5,-529.4285714285714,449.47767857142856,2485.1,-529.4285714285714,449.47767857142856,2585.8,-529.4285714285714,449.47767857142856,2689.5,-529.4285714285714,449.47767857142856,2789.7,-529.4285714285714,449.47767857142856,2890.4,-529.4285714285714,449.47767857142856,2995.1,-529.4285714285714,449.47767857142856,3100,-529.4285714285714,449.47767857142856,3205.7,-529.4285714285714,449.47767857142856,3318,24.57142857142857,277.47767857142856,3420.2,276.57142857142856,322.47767857142856,3525.5,282.57142857142856,330.47767857142856,3631.8,-36.42857142857143,339.47767857142856,3736.1,-113.42857142857143,338.47767857142856,3839.4,-113.42857142857143,337.47767857142856,3940.3,-113.42857142857143,337.47767857142856,4040.4,-113.42857142857143,337.47767857142856,4145.6,-113.42857142857143,337.47767857142856,4253.1,-113.42857142857143,337.47767857142856,4354.7,-113.42857142857143,337.47767857142856,4459.6,-113.42857142857143,337.47767857142856,4559.6,-113.42857142857143,337.47767857142856,4660.5,-113.42857142857143,337.47767857142856,4770.5,-113.42857142857143,337.47767857142856,4874.8,-113.42857142857143,337.47767857142856,4975.8]","[1626.4,1626.4,1000,0,626.4,""smooth"",""up"",""up"",""good_move"",5002.3,3375.6,2995.1,1626.7,380.5,""smooth"",""up"",""up"",""good_move"",8533.7,3531.2,3493.2,5002.5,38,""while_blue"",""right"",""left"",""bad_move"",11892.1,3358.1,2920.8,8534,437.3,""oops"",""right"",""left"",""bad_move"",14812.5,2920.3,2610.7,11892.2,309.6,""oops"",""right"",""right"",""good_move"",17354.5,2541.7,2159.1,14812.8,382.6,""oops"",""right"",""right"",""good_move"",19943.4,2588.7,2243.2,17354.7,345.5,""oops"",""right"",""right"",""good_move"",22666.9,2723.2,2362.5,19943.7,360.7,""oops"",""right"",""down"",""bad_move"",25106.7,2439.6,2079.1,22667.1,360.5,""oops"",""right"",""down"",""bad_move"",27402.4,2295.5,1993.8,25106.9,301.7,""smooth"",""right"",""right"",""good_move"",29754.6,2351.9,2700.6,27402.7,-348.7,""error"",""-"",""-"",""no_move""]"
"2636","","<div style=""width:500px;"">
  <p>What determined the result of this run?</p>
  </div>","44","html-slider-response","49","538171","0.0-7.0-1.7","57","1","2025-07-30 08:48:37","36c45c0696341be0efffe67d72a12abb","136.226.168.84","Mozilla/5.0 (Windows NT 10.0; Win64; x64) AppleWebKit/537.36 (KHTML, like Gecko) Chrome/138.0.0.0 Safari/537.36","WebKit","Chrome","138.0.0.0","Windows","10.0","https://app.prolific.com/","en-GB,en-US;q=0.9,en;q=0.8","63e51ccb431bed8154fc6aae","687a19d2168e237449fb8af4","6889dc4e7f940aef6dce577b","0","63e51ccb431bed8154fc6aae","0","2025-07-30T08:57:36.863Z","","","","AttribQ","","","","","","","","","","","50","","","","","","","","","","","","","","","","","","","","","","","","","","",""
"4414","","<div style=""width:500px;"">
  <p>How much control did you have over the ball?</p>
  </div>","49","html-slider-response","50","542586","0.0-7.0-2.7","57","1","2025-07-30 08:48:37","36c45c0696341be0efffe67d72a12abb","136.226.168.84","Mozilla/5.0 (Windows NT 10.0; Win64; x64) AppleWebKit/537.36 (KHTML, like Gecko) Chrome/138.0.0.0 Safari/537.36","WebKit","Chrome","138.0.0.0","Windows","10.0","https://app.prolific.com/","en-GB,en-US;q=0.9,en;q=0.8","63e51ccb431bed8154fc6aae","687a19d2168e237449fb8af4","6889dc4e7f940aef6dce577b","0","63e51ccb431bed8154fc6aae","0","2025-07-30T08:57:41.278Z","","","","ControlQ","","","","","","","","","","","50","","","","","","","","","","","","","","","","","","","","","","","","","","",""
"2311","","<div style=""width:500px;"">
  <p>How would you describe your current emotional state?</p>
  </div>","77","html-slider-response","51","544898","0.0-7.0-3.7","57","1","2025-07-30 08:48:37","36c45c0696341be0efffe67d72a12abb","136.226.168.84","Mozilla/5.0 (Windows NT 10.0; Win64; x64) AppleWebKit/537.36 (KHTML, like Gecko) Chrome/138.0.0.0 Safari/537.36","WebKit","Chrome","138.0.0.0","Windows","10.0","https://app.prolific.com/","en-GB,en-US;q=0.9,en;q=0.8","63e51ccb431bed8154fc6aae","687a19d2168e237449fb8af4","6889dc4e7f940aef6dce577b","0","63e51ccb431bed8154fc6aae","0","2025-07-30T08:57:43.590Z","","","","StressQ","","","","","","","","","","","50","","","","","","","","","","","","","","","","","","","","","","","","","","",""
"2511","","<div style=""width:500px;"">
  <p>What best describes how you currently feel?</p>
  </div>","57","html-slider-response","52","547410","0.0-7.0-4.7","57","1","2025-07-30 08:48:37","36c45c0696341be0efffe67d72a12abb","136.226.168.84","Mozilla/5.0 (Windows NT 10.0; Win64; x64) AppleWebKit/537.36 (KHTML, like Gecko) Chrome/138.0.0.0 Safari/537.36","WebKit","Chrome","138.0.0.0","Windows","10.0","https://app.prolific.com/","en-GB,en-US;q=0.9,en;q=0.8","63e51ccb431bed8154fc6aae","687a19d2168e237449fb8af4","6889dc4e7f940aef6dce577b","0","63e51ccb431bed8154fc6aae","0","2025-07-30T08:57:46.102Z","","","","MotivationQ","","","","","","","","","","","50","","","","","","","","","","","","","","","","","","","","","","","","","","",""
"","","","","ctl-task-cpt","53","586039","0.0-7.0-0.8","57","1","2025-07-30 08:48:37","36c45c0696341be0efffe67d72a12abb","136.226.168.84","Mozilla/5.0 (Windows NT 10.0; Win64; x64) AppleWebKit/537.36 (KHTML, like Gecko) Chrome/138.0.0.0 Safari/537.36","WebKit","Chrome","138.0.0.0","Windows","10.0","https://app.prolific.com/","en-GB,en-US;q=0.9,en;q=0.8","63e51ccb431bed8154fc6aae","687a19d2168e237449fb8af4","6889dc4e7f940aef6dce577b","0","63e51ccb431bed8154fc6aae","0","2025-07-30T08:58:24.731Z","","","","","","","","","","","","","","","","win-only","3","g1:SW,g2:NE","0.4","9","0","548731.9","1703.6","6706.1","35611","1","4","8","6","2","8","8","8","0","0.06060606060606061","5002.5","3000","390","[""up"",""right""]","{""num_key_presses"":8,""num_perfect"":4,""num_errors"":0,""num_randdir"":4,""num_randdir_good_moves"":3,""num_whilered"":0,""num_whileblue"":0,""num_blue"":2,""num_good_moves"":7}","[419.57142857142856,413.47767857142856,0.2,419.57142857142856,413.47767857142856,101.3,421.57142857142856,413.47767857142856,201.8,422.57142857142856,413.47767857142856,302.5,422.57142857142856,414.47767857142856,407,427.57142857142856,414.47767857142856,507.2,423.57142857142856,414.47767857142856,607.2,420.57142857142856,414.47767857142856,707.3,422.57142857142856,410.47767857142856,812.5,742.5714285714286,344.47767857142856,912.8,773.5714285714286,338.47767857142856,1013,779.5714285714286,338.47767857142856,1120,779.5714285714286,338.47767857142856,1222,779.5714285714286,338.47767857142856,1322.1,779.5714285714286,338.47767857142856,1427,774.5714285714286,338.47767857142856,1532.9,768.5714285714286,338.47767857142856,1637.3,766.5714285714286,338.47767857142856,1737.4,766.5714285714286,338.47767857142856,1841.9,766.5714285714286,338.47767857142856,1942.5,766.5714285714286,338.47767857142856,2055.2,766.5714285714286,338.47767857142856,2155.9,766.5714285714286,338.47767857142856,2257.5,766.5714285714286,338.47767857142856,2357.5,766.5714285714286,338.47767857142856,2462.8,766.5714285714286,338.47767857142856,2567,766.5714285714286,338.47767857142856,2673.1,766.5714285714286,338.47767857142856,2777.7,766.5714285714286,338.47767857142856,2890.8,766.5714285714286,338.47767857142856,2990.8,766.5714285714286,338.47767857142856,3091,766.5714285714286,338.47767857142856,3191.6,766.5714285714286,338.47767857142856,3297.4,766.5714285714286,338.47767857142856,3397.8,766.5714285714286,338.47767857142856,3507.5,766.5714285714286,338.47767857142856,3608.5,766.5714285714286,338.47767857142856,3709,766.5714285714286,338.47767857142856,3810.8,766.5714285714286,338.47767857142856,3912,766.5714285714286,338.47767857142856,4026.8,766.5714285714286,338.47767857142856,4127.1,766.5714285714286,338.47767857142856,4231.8,766.5714285714286,338.47767857142856,4331.8,766.5714285714286,338.47767857142856,4432.8,766.5714285714286,338.47767857142856,4544.6,766.5714285714286,338.47767857142856,4645,766.5714285714286,338.47767857142856,4746.7,766.5714285714286,338.47767857142856,4847.1,766.5714285714286,338.47767857142856,4947.4]","[1412.1,1412.1,1000,0,412.1,""smooth"",""up"",""up"",""good_move"",8077.4,6664.9,2990.3,4769.4,317.7,""oops"",""right"",""up"",""good_move"",11244.6,3166.9,2797.8,8077.7,369.1,""oops"",""right"",""down"",""bad_move"",13836.4,2591.5,2269.7,11244.9,321.8,""oops"",""up"",""right"",""good_move"",20124.3,6287.4,2425.7,17359.2,339.4,""smooth"",""up"",""up"",""good_move"",22460.2,2335.7,1971.2,20124.5,364.5,""smooth"",""up"",""up"",""good_move"",25852.3,3391.9,3065.1,22460.4,326.8,""smooth"",""right"",""right"",""good_move"",28812.2,2959.4,2672.8,25852.9,286.5,""oops"",""right"",""right"",""good_move""]"
"3322","","<div style=""width:500px;"">
  <p>What determined the result of this run?</p>
  </div>","76","html-slider-response","54","589361","0.0-7.0-1.8","57","1","2025-07-30 08:48:37","36c45c0696341be0efffe67d72a12abb","136.226.168.84","Mozilla/5.0 (Windows NT 10.0; Win64; x64) AppleWebKit/537.36 (KHTML, like Gecko) Chrome/138.0.0.0 Safari/537.36","WebKit","Chrome","138.0.0.0","Windows","10.0","https://app.prolific.com/","en-GB,en-US;q=0.9,en;q=0.8","63e51ccb431bed8154fc6aae","687a19d2168e237449fb8af4","6889dc4e7f940aef6dce577b","0","63e51ccb431bed8154fc6aae","0","2025-07-30T08:58:28.054Z","","","","AttribQ","","","","","","","","","","","50","","","","","","","","","","","","","","","","","","","","","","","","","","",""
"1799","","<div style=""width:500px;"">
  <p>How much control did you have over the ball?</p>
  </div>","71","html-slider-response","55","591161","0.0-7.0-2.8","57","1","2025-07-30 08:48:37","36c45c0696341be0efffe67d72a12abb","136.226.168.84","Mozilla/5.0 (Windows NT 10.0; Win64; x64) AppleWebKit/537.36 (KHTML, like Gecko) Chrome/138.0.0.0 Safari/537.36","WebKit","Chrome","138.0.0.0","Windows","10.0","https://app.prolific.com/","en-GB,en-US;q=0.9,en;q=0.8","63e51ccb431bed8154fc6aae","687a19d2168e237449fb8af4","6889dc4e7f940aef6dce577b","0","63e51ccb431bed8154fc6aae","0","2025-07-30T08:58:29.853Z","","","","ControlQ","","","","","","","","","","","50","","","","","","","","","","","","","","","","","","","","","","","","","","",""
"3319","","<div style=""width:500px;"">
  <p>How would you describe your current emotional state?</p>
  </div>","56","html-slider-response","56","594481","0.0-7.0-3.8","57","1","2025-07-30 08:48:37","36c45c0696341be0efffe67d72a12abb","136.226.168.84","Mozilla/5.0 (Windows NT 10.0; Win64; x64) AppleWebKit/537.36 (KHTML, like Gecko) Chrome/138.0.0.0 Safari/537.36","WebKit","Chrome","138.0.0.0","Windows","10.0","https://app.prolific.com/","en-GB,en-US;q=0.9,en;q=0.8","63e51ccb431bed8154fc6aae","687a19d2168e237449fb8af4","6889dc4e7f940aef6dce577b","0","63e51ccb431bed8154fc6aae","0","2025-07-30T08:58:33.173Z","","","","StressQ","","","","","","","","","","","50","","","","","","","","","","","","","","","","","","","","","","","","","","",""
"2295","","<div style=""width:500px;"">
  <p>What best describes how you currently feel?</p>
  </div>","56","html-slider-response","57","596777","0.0-7.0-4.8","57","1","2025-07-30 08:48:37","36c45c0696341be0efffe67d72a12abb","136.226.168.84","Mozilla/5.0 (Windows NT 10.0; Win64; x64) AppleWebKit/537.36 (KHTML, like Gecko) Chrome/138.0.0.0 Safari/537.36","WebKit","Chrome","138.0.0.0","Windows","10.0","https://app.prolific.com/","en-GB,en-US;q=0.9,en;q=0.8","63e51ccb431bed8154fc6aae","687a19d2168e237449fb8af4","6889dc4e7f940aef6dce577b","0","63e51ccb431bed8154fc6aae","0","2025-07-30T08:58:35.470Z","","","","MotivationQ","","","","","","","","","","","50","","","","","","","","","","","","","","","","","","","","","","","","","","",""
"","","","","ctl-task-cpt","58","629383","0.0-7.0-0.9","57","1","2025-07-30 08:48:37","36c45c0696341be0efffe67d72a12abb","136.226.168.84","Mozilla/5.0 (Windows NT 10.0; Win64; x64) AppleWebKit/537.36 (KHTML, like Gecko) Chrome/138.0.0.0 Safari/537.36","WebKit","Chrome","138.0.0.0","Windows","10.0","https://app.prolific.com/","en-GB,en-US;q=0.9,en;q=0.8","63e51ccb431bed8154fc6aae","687a19d2168e237449fb8af4","6889dc4e7f940aef6dce577b","0","63e51ccb431bed8154fc6aae","0","2025-07-30T08:59:08.075Z","","","","","","","","","","","","","","","","win-only","2","g1:SE,g2:NW","0.5","10","0","598099.7","799.3","5810.1","29581.4","1","4","4","6","1","1","0","8","8","0.06060606060606061","5010.7","3000","1090","[""down"",""right""]","{""num_key_presses"":7,""num_perfect"":3,""num_errors"":1,""num_randdir"":3,""num_randdir_good_moves"":2,""num_whilered"":0,""num_whileblue"":0,""num_blue"":1,""num_good_moves"":5}","[421.57142857142856,412.47767857142856,0.1,421.57142857142856,412.47767857142856,101.5,419.57142857142856,414.47767857142856,201.9,413.57142857142856,416.47767857142856,302.1,407.57142857142856,417.47767857142856,406.1,405.57142857142856,417.47767857142856,506.4,405.57142857142856,417.47767857142856,606.8,405.57142857142856,417.47767857142856,716.5,405.57142857142856,417.47767857142856,821.2,405.57142857142856,417.47767857142856,921.5,405.57142857142856,417.47767857142856,1021.8,405.57142857142856,417.47767857142856,1126,408.57142857142856,413.47767857142856,1235.8,416.57142857142856,404.47767857142856,1335.9,416.57142857142856,404.47767857142856,1436.8,416.57142857142856,413.47767857142856,1542,416.57142857142856,413.47767857142856,1642.3,416.57142857142856,413.47767857142856,1746,416.57142857142856,413.47767857142856,1846.3,416.57142857142856,413.47767857142856,1946.5,416.57142857142856,413.47767857142856,2051.6,416.57142857142856,413.47767857142856,2151.6,416.57142857142856,413.47767857142856,2256.2,416.57142857142856,413.47767857142856,2356.2,416.57142857142856,413.47767857142856,2456.9,416.57142857142856,413.47767857142856,2557.2,416.57142857142856,413.47767857142856,2660.9,416.57142857142856,413.47767857142856,2762.2,416.57142857142856,413.47767857142856,2871.3,416.57142857142856,413.47767857142856,2971.5,416.57142857142856,413.47767857142856,3076.3,416.57142857142856,413.47767857142856,3181.6,416.57142857142856,413.47767857142856,3287,416.57142857142856,413.47767857142856,3390.8,416.57142857142856,413.47767857142856,3491.7,416.57142857142856,413.47767857142856,3591.7,416.57142857142856,413.47767857142856,3691.8,416.57142857142856,413.47767857142856,3791.9,416.57142857142856,413.47767857142856,3896.2,416.57142857142856,413.47767857142856,4006.1,416.57142857142856,413.47767857142856,4106.9,416.57142857142856,413.47767857142856,4211.7,416.57142857142856,413.47767857142856,4324.2,416.57142857142856,413.47767857142856,4425.7,416.57142857142856,413.47767857142856,4526.8,416.57142857142856,413.47767857142856,4631.9,416.57142857142856,413.47767857142856,4742.2,416.57142857142856,413.47767857142856,4842.2,416.57142857142856,413.47767857142856,4946.6]","[447.9,447.9,1000,0,-552.1,""error"",""-"",""-"",""no_move"",3957.1,3509,2078.4,1450.9,427.8,""smooth"",""down"",""down"",""good_move"",10537.5,6580.2,2312,7799.9,425.6,""oops"",""down"",""down"",""good_move"",13812.7,3275,2847.5,10537.7,427.5,""oops"",""right"",""right"",""good_move"",17002.3,3189.3,2775.6,13813,413.7,""oops"",""right"",""up"",""bad_move"",20580.3,3577.7,3215.8,17002.6,361.9,""smooth"",""right"",""right"",""good_move"",23668.5,3087.9,2694.6,20580.6,393.3,""smooth"",""down"",""down"",""good_move""]"
"4100","","<div style=""width:500px;"">
  <p>What determined the result of this run?</p>
  </div>","88","html-slider-response","59","633484","0.0-7.0-1.9","57","1","2025-07-30 08:48:37","36c45c0696341be0efffe67d72a12abb","136.226.168.84","Mozilla/5.0 (Windows NT 10.0; Win64; x64) AppleWebKit/537.36 (KHTML, like Gecko) Chrome/138.0.0.0 Safari/537.36","WebKit","Chrome","138.0.0.0","Windows","10.0","https://app.prolific.com/","en-GB,en-US;q=0.9,en;q=0.8","63e51ccb431bed8154fc6aae","687a19d2168e237449fb8af4","6889dc4e7f940aef6dce577b","0","63e51ccb431bed8154fc6aae","0","2025-07-30T08:59:12.176Z","","","","AttribQ","","","","","","","","","","","50","","","","","","","","","","","","","","","","","","","","","","","","","","",""
"1966","","<div style=""width:500px;"">
  <p>How much control did you have over the ball?</p>
  </div>","86","html-slider-response","60","635451","0.0-7.0-2.9","57","1","2025-07-30 08:48:37","36c45c0696341be0efffe67d72a12abb","136.226.168.84","Mozilla/5.0 (Windows NT 10.0; Win64; x64) AppleWebKit/537.36 (KHTML, like Gecko) Chrome/138.0.0.0 Safari/537.36","WebKit","Chrome","138.0.0.0","Windows","10.0","https://app.prolific.com/","en-GB,en-US;q=0.9,en;q=0.8","63e51ccb431bed8154fc6aae","687a19d2168e237449fb8af4","6889dc4e7f940aef6dce577b","0","63e51ccb431bed8154fc6aae","0","2025-07-30T08:59:14.143Z","","","","ControlQ","","","","","","","","","","","50","","","","","","","","","","","","","","","","","","","","","","","","","","",""
"2511","","<div style=""width:500px;"">
  <p>How would you describe your current emotional state?</p>
  </div>","72","html-slider-response","61","637963","0.0-7.0-3.9","57","1","2025-07-30 08:48:37","36c45c0696341be0efffe67d72a12abb","136.226.168.84","Mozilla/5.0 (Windows NT 10.0; Win64; x64) AppleWebKit/537.36 (KHTML, like Gecko) Chrome/138.0.0.0 Safari/537.36","WebKit","Chrome","138.0.0.0","Windows","10.0","https://app.prolific.com/","en-GB,en-US;q=0.9,en;q=0.8","63e51ccb431bed8154fc6aae","687a19d2168e237449fb8af4","6889dc4e7f940aef6dce577b","0","63e51ccb431bed8154fc6aae","0","2025-07-30T08:59:16.655Z","","","","StressQ","","","","","","","","","","","50","","","","","","","","","","","","","","","","","","","","","","","","","","",""
"2461","","<div style=""width:500px;"">
  <p>What best describes how you currently feel?</p>
  </div>","56","html-slider-response","62","640425","0.0-7.0-4.9","57","1","2025-07-30 08:48:37","36c45c0696341be0efffe67d72a12abb","136.226.168.84","Mozilla/5.0 (Windows NT 10.0; Win64; x64) AppleWebKit/537.36 (KHTML, like Gecko) Chrome/138.0.0.0 Safari/537.36","WebKit","Chrome","138.0.0.0","Windows","10.0","https://app.prolific.com/","en-GB,en-US;q=0.9,en;q=0.8","63e51ccb431bed8154fc6aae","687a19d2168e237449fb8af4","6889dc4e7f940aef6dce577b","0","63e51ccb431bed8154fc6aae","0","2025-07-30T08:59:19.118Z","","","","MotivationQ","","","","","","","","","","","50","","","","","","","","","","","","","","","","","","","","","","","","","","",""
"","","","","ctl-task-cpt","63","673168","0.0-7.0-0.10","57","1","2025-07-30 08:48:37","36c45c0696341be0efffe67d72a12abb","136.226.168.84","Mozilla/5.0 (Windows NT 10.0; Win64; x64) AppleWebKit/537.36 (KHTML, like Gecko) Chrome/138.0.0.0 Safari/537.36","WebKit","Chrome","138.0.0.0","Windows","10.0","https://app.prolific.com/","en-GB,en-US;q=0.9,en;q=0.8","63e51ccb431bed8154fc6aae","687a19d2168e237449fb8af4","6889dc4e7f940aef6dce577b","0","63e51ccb431bed8154fc6aae","0","2025-07-30T08:59:51.860Z","","","","","","","","","","","","","","","","win-only","3","g1:SW,g2:NE","0.6","11","0","641748.8","869.8","5871.1","29721.3","1","4","4","6","1","1","1","9","8","0.06818181818181818","5001.3","3000","1205","[""down"",""left""]","{""num_key_presses"":6,""num_perfect"":4,""num_errors"":0,""num_randdir"":2,""num_randdir_good_moves"":1,""num_whilered"":0,""num_whileblue"":0,""num_blue"":2,""num_good_moves"":5}","[426.57142857142856,417.47767857142856,0.3,426.57142857142856,417.47767857142856,100.4,426.57142857142856,417.47767857142856,201.3,426.57142857142856,417.47767857142856,313.2,410.57142857142856,428.47767857142856,415.6,397.57142857142856,454.47767857142856,515.6,397.57142857142856,458.47767857142856,616.4,396.57142857142856,463.47767857142856,716.8,396.57142857142856,463.47767857142856,830.7,391.57142857142856,465.47767857142856,930.7,387.57142857142856,467.47767857142856,1031,384.57142857142856,471.47767857142856,1132,384.57142857142856,471.47767857142856,1236,380.57142857142856,477.47767857142856,1350.8,216.57142857142856,552.4776785714286,1451.4,-473.42857142857144,573.4776785714286,1555.9,-473.42857142857144,573.4776785714286,1665.8,-473.42857142857144,573.4776785714286,1765.8,-473.42857142857144,573.4776785714286,1865.8,-473.42857142857144,573.4776785714286,1970.1,-473.42857142857144,573.4776785714286,2071.5,-473.42857142857144,573.4776785714286,2171.6,-473.42857142857144,573.4776785714286,2276.3,-473.42857142857144,573.4776785714286,2385.1,-473.42857142857144,573.4776785714286,2486.4,-473.42857142857144,573.4776785714286,2590.9,-473.42857142857144,573.4776785714286,2696.8,-473.42857142857144,573.4776785714286,2800.8,-473.42857142857144,573.4776785714286,2900.8,-473.42857142857144,573.4776785714286,3005.1,-473.42857142857144,573.4776785714286,3105.6,-473.42857142857144,573.4776785714286,3206.1,-473.42857142857144,573.4776785714286,3310.6,-473.42857142857144,573.4776785714286,3410.9,-473.42857142857144,573.4776785714286,3511.2,-473.42857142857144,573.4776785714286,3611.9,-473.42857142857144,573.4776785714286,3722,-473.42857142857144,573.4776785714286,3827.2,164.57142857142856,513.4776785714286,3931,581.5714285714286,512.4776785714286,4031.9,649.5714285714286,502.47767857142856,4131.9,661.5714285714286,497.47767857142856,4233,604.5714285714286,494.47767857142856,4339.5,579.5714285714286,493.47767857142856,4440.9,538.5714285714286,489.47767857142856,4545.3,513.5714285714286,490.47767857142856,4645.8,495.57142857142856,494.47767857142856,4745.9,495.57142857142856,494.47767857142856,4846.5,495.57142857142856,494.47767857142856,4950.9]","[1457.2,1457.2,1000,0,457.2,""oops"",""down"",""up"",""bad_move"",5266.7,3809.2,3433.2,1457.5,376,""smooth"",""left"",""left"",""good_move"",10878.2,5611.2,1904.4,8579.7,394.1,""smooth"",""left"",""left"",""good_move"",17361,6482.6,2431.8,14555.6,373.6,""smooth"",""down"",""down"",""good_move"",20566.9,3205.7,2831.6,17361.2,374.1,""oops"",""down"",""down"",""good_move"",23725.7,3158.6,2747.7,20567.1,410.9,""smooth"",""down"",""down"",""good_move""]"
"2859","","<div style=""width:500px;"">
  <p>What determined the result of this run?</p>
  </div>","75","html-slider-response","64","676028","0.0-7.0-1.10","57","1","2025-07-30 08:48:37","36c45c0696341be0efffe67d72a12abb","136.226.168.84","Mozilla/5.0 (Windows NT 10.0; Win64; x64) AppleWebKit/537.36 (KHTML, like Gecko) Chrome/138.0.0.0 Safari/537.36","WebKit","Chrome","138.0.0.0","Windows","10.0","https://app.prolific.com/","en-GB,en-US;q=0.9,en;q=0.8","63e51ccb431bed8154fc6aae","687a19d2168e237449fb8af4","6889dc4e7f940aef6dce577b","0","63e51ccb431bed8154fc6aae","0","2025-07-30T08:59:54.720Z","","","","AttribQ","","","","","","","","","","","50","","","","","","","","","","","","","","","","","","","","","","","","","","",""
"1894","","<div style=""width:500px;"">
  <p>How much control did you have over the ball?</p>
  </div>","73","html-slider-response","65","677923","0.0-7.0-2.10","57","1","2025-07-30 08:48:37","36c45c0696341be0efffe67d72a12abb","136.226.168.84","Mozilla/5.0 (Windows NT 10.0; Win64; x64) AppleWebKit/537.36 (KHTML, like Gecko) Chrome/138.0.0.0 Safari/537.36","WebKit","Chrome","138.0.0.0","Windows","10.0","https://app.prolific.com/","en-GB,en-US;q=0.9,en;q=0.8","63e51ccb431bed8154fc6aae","687a19d2168e237449fb8af4","6889dc4e7f940aef6dce577b","0","63e51ccb431bed8154fc6aae","0","2025-07-30T08:59:56.615Z","","","","ControlQ","","","","","","","","","","","50","","","","","","","","","","","","","","","","","","","","","","","","","","",""
"2559","","<div style=""width:500px;"">
  <p>How would you describe your current emotional state?</p>
  </div>","54","html-slider-response","66","680483","0.0-7.0-3.10","57","1","2025-07-30 08:48:37","36c45c0696341be0efffe67d72a12abb","136.226.168.84","Mozilla/5.0 (Windows NT 10.0; Win64; x64) AppleWebKit/537.36 (KHTML, like Gecko) Chrome/138.0.0.0 Safari/537.36","WebKit","Chrome","138.0.0.0","Windows","10.0","https://app.prolific.com/","en-GB,en-US;q=0.9,en;q=0.8","63e51ccb431bed8154fc6aae","687a19d2168e237449fb8af4","6889dc4e7f940aef6dce577b","0","63e51ccb431bed8154fc6aae","0","2025-07-30T08:59:59.175Z","","","","StressQ","","","","","","","","","","","50","","","","","","","","","","","","","","","","","","","","","","","","","","",""
"1673","","<div style=""width:500px;"">
  <p>What best describes how you currently feel?</p>
  </div>","56","html-slider-response","67","682157","0.0-7.0-4.10","57","1","2025-07-30 08:48:37","36c45c0696341be0efffe67d72a12abb","136.226.168.84","Mozilla/5.0 (Windows NT 10.0; Win64; x64) AppleWebKit/537.36 (KHTML, like Gecko) Chrome/138.0.0.0 Safari/537.36","WebKit","Chrome","138.0.0.0","Windows","10.0","https://app.prolific.com/","en-GB,en-US;q=0.9,en;q=0.8","63e51ccb431bed8154fc6aae","687a19d2168e237449fb8af4","6889dc4e7f940aef6dce577b","0","63e51ccb431bed8154fc6aae","0","2025-07-30T09:00:00.849Z","","","","MotivationQ","","","","","","","","","","","50","","","","","","","","","","","","","","","","","","","","","","","","","","",""
"","","","","ctl-task-cpt","68","710503","0.0-7.0-0.11","57","1","2025-07-30 08:48:37","36c45c0696341be0efffe67d72a12abb","136.226.168.84","Mozilla/5.0 (Windows NT 10.0; Win64; x64) AppleWebKit/537.36 (KHTML, like Gecko) Chrome/138.0.0.0 Safari/537.36","WebKit","Chrome","138.0.0.0","Windows","10.0","https://app.prolific.com/","en-GB,en-US;q=0.9,en;q=0.8","63e51ccb431bed8154fc6aae","687a19d2168e237449fb8af4","6889dc4e7f940aef6dce577b","0","63e51ccb431bed8154fc6aae","0","2025-07-30T09:00:29.195Z","","","","","","","","","","","","","","","","win-only","3","g1:SW,g2:NE","0.7","12","0","683480.5","570.8","5571.9","25330.5","1","4","8","6","2","8","8","17","9","0.12878787878787878","5001.1","3000","1150","[""up"",""right""]","{""num_key_presses"":6,""num_perfect"":4,""num_errors"":0,""num_randdir"":2,""num_randdir_good_moves"":2,""num_whilered"":0,""num_whileblue"":0,""num_blue"":1,""num_good_moves"":6}","[414.57142857142856,412.47767857142856,0.4,414.57142857142856,412.47767857142856,101.4,414.57142857142856,412.47767857142856,208.4,414.57142857142856,412.47767857142856,309.9,415.57142857142856,412.47767857142856,412.3,417.57142857142856,412.47767857142856,525.8,417.57142857142856,412.47767857142856,630.3,417.57142857142856,412.47767857142856,735.3,417.57142857142856,412.47767857142856,835.4,417.57142857142856,412.47767857142856,937.6,417.57142857142856,412.47767857142856,1040.2,418.57142857142856,415.47767857142856,1140.9,417.57142857142856,417.47767857142856,1245.3,417.57142857142856,418.47767857142856,1350.5,417.57142857142856,418.47767857142856,1463.3,417.57142857142856,418.47767857142856,1565.6,417.57142857142856,418.47767857142856,1665.6,417.57142857142856,418.47767857142856,1778.5,417.57142857142856,418.47767857142856,1879.3,417.57142857142856,418.47767857142856,1981,417.57142857142856,418.47767857142856,2085.6,417.57142857142856,418.47767857142856,2191,417.57142857142856,418.47767857142856,2296.1,417.57142857142856,418.47767857142856,2400.6,417.57142857142856,418.47767857142856,2500.8,417.57142857142856,418.47767857142856,2614.2,417.57142857142856,418.47767857142856,2714.7,417.57142857142856,418.47767857142856,2819.6,414.57142857142856,426.47767857142856,2921,412.57142857142856,429.47767857142856,3030.4,411.57142857142856,430.47767857142856,3130.7,411.57142857142856,431.47767857142856,3233,411.57142857142856,431.47767857142856,3335.1,411.57142857142856,431.47767857142856,3450.2,411.57142857142856,431.47767857142856,3551.4,411.57142857142856,431.47767857142856,3655,411.57142857142856,431.47767857142856,3765.8,411.57142857142856,431.47767857142856,3871,411.57142857142856,431.47767857142856,3983.4,411.57142857142856,431.47767857142856,4083.5,411.57142857142856,431.47767857142856,4185.6,411.57142857142856,431.47767857142856,4300.4,411.57142857142856,431.47767857142856,4405,411.57142857142856,431.47767857142856,4505.7,411.57142857142856,431.47767857142856,4609.5,411.57142857142856,431.47767857142856,4719.4,411.57142857142856,431.47767857142856,4820.3,411.57142857142856,431.47767857142856,4921.1]","[1366.3,1366.3,1000,0,366.3,""smooth"",""up"",""up"",""good_move"",4561.2,3194.3,2806.7,1366.9,387.6,""oops"",""up"",""up"",""good_move"",7002.3,2441,2048.8,4561.4,392.1,""smooth"",""right"",""right"",""good_move"",12861.7,5859,2031.7,10369.9,460.1,""smooth"",""right"",""right"",""good_move"",16420.2,3558.3,3046.9,12861.9,511.4,""oops"",""up"",""right"",""good_move"",19643.4,3223,2852.3,16420.5,370.6,""smooth"",""up"",""up"",""good_move""]"
"2405","","<div style=""width:500px;"">
  <p>What determined the result of this run?</p>
  </div>","84","html-slider-response","69","712909","0.0-7.0-1.11","57","1","2025-07-30 08:48:37","36c45c0696341be0efffe67d72a12abb","136.226.168.84","Mozilla/5.0 (Windows NT 10.0; Win64; x64) AppleWebKit/537.36 (KHTML, like Gecko) Chrome/138.0.0.0 Safari/537.36","WebKit","Chrome","138.0.0.0","Windows","10.0","https://app.prolific.com/","en-GB,en-US;q=0.9,en;q=0.8","63e51ccb431bed8154fc6aae","687a19d2168e237449fb8af4","6889dc4e7f940aef6dce577b","0","63e51ccb431bed8154fc6aae","0","2025-07-30T09:00:31.601Z","","","","AttribQ","","","","","","","","","","","50","","","","","","","","","","","","","","","","","","","","","","","","","","",""
"1643","","<div style=""width:500px;"">
  <p>How much control did you have over the ball?</p>
  </div>","85","html-slider-response","70","714555","0.0-7.0-2.11","57","1","2025-07-30 08:48:37","36c45c0696341be0efffe67d72a12abb","136.226.168.84","Mozilla/5.0 (Windows NT 10.0; Win64; x64) AppleWebKit/537.36 (KHTML, like Gecko) Chrome/138.0.0.0 Safari/537.36","WebKit","Chrome","138.0.0.0","Windows","10.0","https://app.prolific.com/","en-GB,en-US;q=0.9,en;q=0.8","63e51ccb431bed8154fc6aae","687a19d2168e237449fb8af4","6889dc4e7f940aef6dce577b","0","63e51ccb431bed8154fc6aae","0","2025-07-30T09:00:33.247Z","","","","ControlQ","","","","","","","","","","","50","","","","","","","","","","","","","","","","","","","","","","","","","","",""
"2647","","<div style=""width:500px;"">
  <p>How would you describe your current emotional state?</p>
  </div>","42","html-slider-response","71","717202","0.0-7.0-3.11","57","1","2025-07-30 08:48:37","36c45c0696341be0efffe67d72a12abb","136.226.168.84","Mozilla/5.0 (Windows NT 10.0; Win64; x64) AppleWebKit/537.36 (KHTML, like Gecko) Chrome/138.0.0.0 Safari/537.36","WebKit","Chrome","138.0.0.0","Windows","10.0","https://app.prolific.com/","en-GB,en-US;q=0.9,en;q=0.8","63e51ccb431bed8154fc6aae","687a19d2168e237449fb8af4","6889dc4e7f940aef6dce577b","0","63e51ccb431bed8154fc6aae","0","2025-07-30T09:00:35.895Z","","","","StressQ","","","","","","","","","","","50","","","","","","","","","","","","","","","","","","","","","","","","","","",""
"1730","","<div style=""width:500px;"">
  <p>What best describes how you currently feel?</p>
  </div>","63","html-slider-response","72","718934","0.0-7.0-4.11","57","1","2025-07-30 08:48:37","36c45c0696341be0efffe67d72a12abb","136.226.168.84","Mozilla/5.0 (Windows NT 10.0; Win64; x64) AppleWebKit/537.36 (KHTML, like Gecko) Chrome/138.0.0.0 Safari/537.36","WebKit","Chrome","138.0.0.0","Windows","10.0","https://app.prolific.com/","en-GB,en-US;q=0.9,en;q=0.8","63e51ccb431bed8154fc6aae","687a19d2168e237449fb8af4","6889dc4e7f940aef6dce577b","0","63e51ccb431bed8154fc6aae","0","2025-07-30T09:00:37.627Z","","","","MotivationQ","","","","","","","","","","","50","","","","","","","","","","","","","","","","","","","","","","","","","","",""
"","","","","ctl-task-cpt","73","743594","0.0-7.0-0.12","57","1","2025-07-30 08:48:37","36c45c0696341be0efffe67d72a12abb","136.226.168.84","Mozilla/5.0 (Windows NT 10.0; Win64; x64) AppleWebKit/537.36 (KHTML, like Gecko) Chrome/138.0.0.0 Safari/537.36","WebKit","Chrome","138.0.0.0","Windows","10.0","https://app.prolific.com/","en-GB,en-US;q=0.9,en;q=0.8","63e51ccb431bed8154fc6aae","687a19d2168e237449fb8af4","6889dc4e7f940aef6dce577b","0","63e51ccb431bed8154fc6aae","0","2025-07-30T09:01:02.286Z","","","","","","","","","","","","","","","","win-only","1","g1:NE,g2:SW","0.8","13","0","720255.6","706.7","5717.4","21640.4","1","4","4","6","1","1","1","18","17","0.13636363636363635","5010.7","3000","1595","[""up"",""right""]","{""num_key_presses"":4,""num_perfect"":4,""num_errors"":0,""num_randdir"":0,""num_randdir_good_moves"":0,""num_whilered"":0,""num_whileblue"":0,""num_blue"":1,""num_good_moves"":4}","[408.57142857142856,416.47767857142856,0.2,408.57142857142856,416.47767857142856,103.6,409.57142857142856,417.47767857142856,215.4,410.57142857142856,417.47767857142856,315.7,439.57142857142856,416.47767857142856,416.3,450.57142857142856,412.47767857142856,517.3,450.57142857142856,412.47767857142856,617.5,451.57142857142856,412.47767857142856,718.9,451.57142857142856,412.47767857142856,823.8,451.57142857142856,412.47767857142856,925,450.57142857142856,412.47767857142856,1028.6,450.57142857142856,412.47767857142856,1130,450.57142857142856,412.47767857142856,1234.7,450.57142857142856,412.47767857142856,1338.5,450.57142857142856,412.47767857142856,1439.3,450.57142857142856,412.47767857142856,1553.2,450.57142857142856,412.47767857142856,1653.9,450.57142857142856,412.47767857142856,1754.1,450.57142857142856,412.47767857142856,1854.2,450.57142857142856,412.47767857142856,1954.3,450.57142857142856,412.47767857142856,2054.3,450.57142857142856,412.47767857142856,2157.3,450.57142857142856,412.47767857142856,2258.8,450.57142857142856,412.47767857142856,2371.5,450.57142857142856,412.47767857142856,2475.8,450.57142857142856,412.47767857142856,2587.9,450.57142857142856,412.47767857142856,2689.4,450.57142857142856,412.47767857142856,2804.6,450.57142857142856,412.47767857142856,2910.5,450.57142857142856,412.47767857142856,3024.4,450.57142857142856,412.47767857142856,3129.7,450.57142857142856,412.47767857142856,3234.4,450.57142857142856,412.47767857142856,3334.8,450.57142857142856,412.47767857142856,3440.6,450.57142857142856,412.47767857142856,3544.4,450.57142857142856,412.47767857142856,3649,450.57142857142856,412.47767857142856,3750,450.57142857142856,412.47767857142856,3857.5,450.57142857142856,412.47767857142856,3958.3,450.57142857142856,412.47767857142856,4058.7,450.57142857142856,412.47767857142856,4158.7,450.57142857142856,412.47767857142856,4258.9,450.57142857142856,412.47767857142856,4359.1,450.57142857142856,412.47767857142856,4459.6,450.57142857142856,412.47767857142856,4563.5,450.57142857142856,412.47767857142856,4664.6,450.57142857142856,412.47767857142856,4775.8,450.57142857142856,412.47767857142856,4877.7,450.57142857142856,412.47767857142856,4979.4]","[5445.4,5445.4,3072.7,2004,368.7,""smooth"",""up"",""up"",""good_move"",9348.9,3903,3548.8,5445.9,354.2,""smooth"",""up"",""up"",""good_move"",12548.6,3199.4,2710,9349.2,489.4,""smooth"",""right"",""right"",""good_move"",15813.3,3264.4,2899,12548.9,365.4,""smooth"",""right"",""right"",""good_move""]"
"2249","","<div style=""width:500px;"">
  <p>What determined the result of this run?</p>
  </div>","84","html-slider-response","74","745845","0.0-7.0-1.12","57","1","2025-07-30 08:48:37","36c45c0696341be0efffe67d72a12abb","136.226.168.84","Mozilla/5.0 (Windows NT 10.0; Win64; x64) AppleWebKit/537.36 (KHTML, like Gecko) Chrome/138.0.0.0 Safari/537.36","WebKit","Chrome","138.0.0.0","Windows","10.0","https://app.prolific.com/","en-GB,en-US;q=0.9,en;q=0.8","63e51ccb431bed8154fc6aae","687a19d2168e237449fb8af4","6889dc4e7f940aef6dce577b","0","63e51ccb431bed8154fc6aae","0","2025-07-30T09:01:04.537Z","","","","AttribQ","","","","","","","","","","","50","","","","","","","","","","","","","","","","","","","","","","","","","","",""
"2068","","<div style=""width:500px;"">
  <p>How much control did you have over the ball?</p>
  </div>","86","html-slider-response","75","747915","0.0-7.0-2.12","57","1","2025-07-30 08:48:37","36c45c0696341be0efffe67d72a12abb","136.226.168.84","Mozilla/5.0 (Windows NT 10.0; Win64; x64) AppleWebKit/537.36 (KHTML, like Gecko) Chrome/138.0.0.0 Safari/537.36","WebKit","Chrome","138.0.0.0","Windows","10.0","https://app.prolific.com/","en-GB,en-US;q=0.9,en;q=0.8","63e51ccb431bed8154fc6aae","687a19d2168e237449fb8af4","6889dc4e7f940aef6dce577b","0","63e51ccb431bed8154fc6aae","0","2025-07-30T09:01:06.607Z","","","","ControlQ","","","","","","","","","","","50","","","","","","","","","","","","","","","","","","","","","","","","","","",""
"2526","","<div style=""width:500px;"">
  <p>How would you describe your current emotional state?</p>
  </div>","43","html-slider-response","76","750443","0.0-7.0-3.12","57","1","2025-07-30 08:48:37","36c45c0696341be0efffe67d72a12abb","136.226.168.84","Mozilla/5.0 (Windows NT 10.0; Win64; x64) AppleWebKit/537.36 (KHTML, like Gecko) Chrome/138.0.0.0 Safari/537.36","WebKit","Chrome","138.0.0.0","Windows","10.0","https://app.prolific.com/","en-GB,en-US;q=0.9,en;q=0.8","63e51ccb431bed8154fc6aae","687a19d2168e237449fb8af4","6889dc4e7f940aef6dce577b","0","63e51ccb431bed8154fc6aae","0","2025-07-30T09:01:09.135Z","","","","StressQ","","","","","","","","","","","50","","","","","","","","","","","","","","","","","","","","","","","","","","",""
"2111","","<div style=""width:500px;"">
  <p>What best describes how you currently feel?</p>
  </div>","64","html-slider-response","77","752555","0.0-7.0-4.12","57","1","2025-07-30 08:48:37","36c45c0696341be0efffe67d72a12abb","136.226.168.84","Mozilla/5.0 (Windows NT 10.0; Win64; x64) AppleWebKit/537.36 (KHTML, like Gecko) Chrome/138.0.0.0 Safari/537.36","WebKit","Chrome","138.0.0.0","Windows","10.0","https://app.prolific.com/","en-GB,en-US;q=0.9,en;q=0.8","63e51ccb431bed8154fc6aae","687a19d2168e237449fb8af4","6889dc4e7f940aef6dce577b","0","63e51ccb431bed8154fc6aae","0","2025-07-30T09:01:11.247Z","","","","MotivationQ","","","","","","","","","","","50","","","","","","","","","","","","","","","","","","","","","","","","","","",""
