"rt","response_timestamp","stimulus","response","trial_type","trial_index","time_elapsed","internal_node_id","run_id","condition","recorded_at","source_code_version","ip","user_agent","device","browser","browser_version","platform","platform_version","referer","accept_language","PROLIFIC_PID","STUDY_ID","SESSION_ID","BATCH","prolific_id","batch","realtime","success","question_order","question_id","eventType","responses","item_order","radio_event_ids","radio_event_times","key_event_times","mouse_event_times","straightlining","zigzagging","honeypot","view_history","slider_start","which_type","canvas_config","goals_layout","control_level","trial_number","tutorial_trial_number","trial_start_time","phase1_start_time","phase2_start_time","phase3_start_time","goal_1_value","goal_1_distance","goal_2_value","goal_2_distance","goal_selected","outcome","outcome_total","participant_final_score","participant_initial_score","participant_final_score_prop","goal_choice_rt","allocated_time","allocated_time_remaining","goal_direction","counts","mouse_movements","key_presses"
"2516","1754515930168","<p style='font-size:40px;line-height:1.25'><strong>Welcome to the experiment!</strong></p><p style='font-size:1.1em;line-height:1.25'>Thank you for participanting in our experiment again! You will be asked to play the Dysfunctional Ball Game again. We will briefly recap the rules before we start.</p><p style='font-size:1.1em;line-height:1.25'>Press <strong>Next</strong> to continue.</p>","0","custom-html-button-response","0","2527","0.0-0.0","220","1","2025-08-06 21:32:03","36c45c0696341be0efffe67d72a12abb","210.84.40.21","Mozilla/5.0 (Windows NT 10.0; Win64; x64; rv:141.0) Gecko/20100101 Firefox/141.0","","Firefox","141.0","Windows","10.0","https://app.prolific.com/","en-US,en;q=0.5","642cb1f7f42c4e0a6c5d4eef","6877649eabb845cf142cd221","6893c9c2ab6783769e922525","1","642cb1f7f42c4e0a6c5d4eef","1","2025-08-06T21:32:10.168Z","","","","","","","","","","","","","","","","","","","","","","","","","","","","","","","","","","","","","","","","","",""
"2934","","","","fullscreen","1","6510","0.0-1.0","220","1","2025-08-06 21:32:03","36c45c0696341be0efffe67d72a12abb","210.84.40.21","Mozilla/5.0 (Windows NT 10.0; Win64; x64; rv:141.0) Gecko/20100101 Firefox/141.0","","Firefox","141.0","Windows","10.0","https://app.prolific.com/","en-US,en;q=0.5","642cb1f7f42c4e0a6c5d4eef","6877649eabb845cf142cd221","6893c9c2ab6783769e922525","1","642cb1f7f42c4e0a6c5d4eef","1","","true","","","","","","","","","","","","","","","","","","","","","","","","","","","","","","","","","","","","","","","","",""
"3486","1754515937639"," <p style='font-size:1.1em;line-height:1.25'>Thank you for closing all other tabs.</p><p style='font-size:1.1em;line-height:1.25'>We will now invite you to fill in some questionnaires, before starting the game.<br>This will take about 5 minutes.<br></p><p style='font-size:1.1em;line-height:1.25'>Press the <strong>Next</strong> button to continue.</p>","0","custom-html-button-response","2","9999","0.0-2.0","220","1","2025-08-06 21:32:03","36c45c0696341be0efffe67d72a12abb","210.84.40.21","Mozilla/5.0 (Windows NT 10.0; Win64; x64; rv:141.0) Gecko/20100101 Firefox/141.0","","Firefox","141.0","Windows","10.0","https://app.prolific.com/","en-US,en;q=0.5","642cb1f7f42c4e0a6c5d4eef","6877649eabb845cf142cd221","6893c9c2ab6783769e922525","1","642cb1f7f42c4e0a6c5d4eef","1","2025-08-06T21:32:17.640Z","","","","","","","","","","","","","","","","","","","","","","","","","","","","","","","","","","","","","","","","","",""
"3001","","","{""assigned_sex"":""female""}","survey-multi-choice","3","13002","0.0-3.0-0.0","220","1","2025-08-06 21:32:03","36c45c0696341be0efffe67d72a12abb","210.84.40.21","Mozilla/5.0 (Windows NT 10.0; Win64; x64; rv:141.0) Gecko/20100101 Firefox/141.0","","Firefox","141.0","Windows","10.0","https://app.prolific.com/","en-US,en;q=0.5","642cb1f7f42c4e0a6c5d4eef","6877649eabb845cf142cd221","6893c9c2ab6783769e922525","1","642cb1f7f42c4e0a6c5d4eef","1","","","[0]","0","demographics","","","","","","","","","","","","","","","","","","","","","","","","","","","","","","","","","","","","","",""
"2485","1754515943131","<p style='font-size:1.1em;line-height:1.25'>In the following, we will perform a baseline assessment. This means that we will ask you a few questions relating to your experiences over the past month.<br></p><p style='font-size:1.1em;line-height:1.25'>Press the <strong>Next</strong> button to continue.</p>","0","custom-html-button-response","4","15491","0.0-4.0-0.0","220","1","2025-08-06 21:32:03","36c45c0696341be0efffe67d72a12abb","210.84.40.21","Mozilla/5.0 (Windows NT 10.0; Win64; x64; rv:141.0) Gecko/20100101 Firefox/141.0","","Firefox","141.0","Windows","10.0","https://app.prolific.com/","en-US,en;q=0.5","642cb1f7f42c4e0a6c5d4eef","6877649eabb845cf142cd221","6893c9c2ab6783769e922525","1","642cb1f7f42c4e0a6c5d4eef","1","2025-08-06T21:32:23.132Z","","","","","","","","","","","","","","","","","","","","","","","","","","","","","","","","","","","","","","","","","",""
"127985","","","","survey-template","5","143484","0.0-4.0-1.0","220","1","2025-08-06 21:32:03","36c45c0696341be0efffe67d72a12abb","210.84.40.21","Mozilla/5.0 (Windows NT 10.0; Win64; x64; rv:141.0) Gecko/20100101 Firefox/141.0","","Firefox","141.0","Windows","10.0","https://app.prolific.com/","en-US,en;q=0.5","642cb1f7f42c4e0a6c5d4eef","6877649eabb845cf142cd221","6893c9c2ab6783769e922525","1","642cb1f7f42c4e0a6c5d4eef","1","2025-08-06T21:34:31.125Z","","","","pss","{""Q01"":""2"",""Q02"":""2"",""Q03"":""3"",""Q04"":""1"",""Q05"":""2"",""Q06"":""1"",""Q07"":""0"",""Q08"":""1"",""Q09"":""0"",""Q10"":""1""}","[0,1,2,3,4,5,6,7,8,9]","[""Q01"",""Q02"",""Q03"",""Q04"",""Q05"",""Q06"",""Q07"",""Q07"",""Q08"",""Q09"",""Q10""]","[4773,11662,14722,104368,108478,111347,119739,120293,121485,125706,126952]","[]","[1,4773,11662,14722,104368,107406,108478,111347,115972,116852,117762,118501,119085,119739,120293,121485,123884,125706,126952,127985]","0.3","0.5555555555555556","0","","","","","","","","","","","","","","","","","","","","","","","","","","","","",""
"3713","1754516074843","<p style='font-size:1.1em;line-height:1.25'>Thank you for your answers! Now we will ask you a few more questions relating to your feelings in the last 24 hours.<br></p><p style='font-size:1.1em;line-height:1.25'>Press the <strong>Next</strong> button to continue.</p>","0","custom-html-button-response","6","147203","0.0-4.0-2.0","220","1","2025-08-06 21:32:03","36c45c0696341be0efffe67d72a12abb","210.84.40.21","Mozilla/5.0 (Windows NT 10.0; Win64; x64; rv:141.0) Gecko/20100101 Firefox/141.0","","Firefox","141.0","Windows","10.0","https://app.prolific.com/","en-US,en;q=0.5","642cb1f7f42c4e0a6c5d4eef","6877649eabb845cf142cd221","6893c9c2ab6783769e922525","1","642cb1f7f42c4e0a6c5d4eef","1","2025-08-06T21:34:34.844Z","","","","","","","","","","","","","","","","","","","","","","","","","","","","","","","","","","","","","","","","","",""
"78689","","","","survey-template","7","225898","0.0-4.0-3.0","220","1","2025-08-06 21:32:03","36c45c0696341be0efffe67d72a12abb","210.84.40.21","Mozilla/5.0 (Windows NT 10.0; Win64; x64; rv:141.0) Gecko/20100101 Firefox/141.0","","Firefox","141.0","Windows","10.0","https://app.prolific.com/","en-US,en;q=0.5","642cb1f7f42c4e0a6c5d4eef","6877649eabb845cf142cd221","6893c9c2ab6783769e922525","1","642cb1f7f42c4e0a6c5d4eef","1","2025-08-06T21:35:53.539Z","","","","drsp","{""Q01"":""3"",""Q02"":""1"",""Q03"":""0"",""Q04"":""3"",""Q05"":""0"",""Q06"":""0"",""Q07"":""1"",""Q08"":""0"",""Q09"":""2"",""Q10"":""4"",""Q11"":""2"",""Q12"":""0"",""Q13"":""5"",""Q14"":""1"",""Q15"":""0"",""Q16"":""0"",""Q17"":""2"",""Q18"":""1"",""Q19"":""1"",""Q20"":""4"",""Q21"":""0"",""Q22"":""0""}","[0,1,2,3,4,5,6,7,8,9,10,11,12,13,14,15,16,17,18,19,20,21]","[""Q01"",""Q02"",""Q03"",""Q04"",""Q05"",""Q06"",""Q07"",""Q08"",""Q09"",""Q10"",""Q11"",""Q12"",""Q13"",""Q14"",""Q15"",""Q16"",""Q17"",""Q18"",""Q19"",""Q19"",""Q20"",""Q21"",""Q22"",""Q21""]","[5747,7403,8789,11066,13248,16543,17641,18772,21590,23485,46069,47408,48925,50943,52412,53989,56856,58753,65120,68220,71065,73476,75178,76774]","[]","[0,5747,7403,8789,11066,12402,13248,14553,16543,17641,18772,21590,23485,46069,47408,48925,50943,52412,53989,56856,58753,65120,68220,71065,73476,75178,76774,78688]","0.4090909090909091","0.2857142857142857","0","","","","","","","","","","","","","","","","","","","","","","","","","","","","",""
"13193","","","","survey-template","8","239098","0.0-4.0-4.0","220","1","2025-08-06 21:32:03","36c45c0696341be0efffe67d72a12abb","210.84.40.21","Mozilla/5.0 (Windows NT 10.0; Win64; x64; rv:141.0) Gecko/20100101 Firefox/141.0","","Firefox","141.0","Windows","10.0","https://app.prolific.com/","en-US,en;q=0.5","642cb1f7f42c4e0a6c5d4eef","6877649eabb845cf142cd221","6893c9c2ab6783769e922525","1","642cb1f7f42c4e0a6c5d4eef","1","2025-08-06T21:36:06.739Z","","","","stress","{""Q01"":""3"",""Q02"":""3"",""Q03"":""1""}","[0,1,2]","[""Q01"",""Q02"",""Q03""]","[5536,8584,11953]","[]","[5536,8584,11953,13193]","0.3333333333333333","1","0","","","","","","","","","","","","","","","","","","","","","","","","","","","","",""
"246212","","","","instructions","9","485315","0.0-5.0-0.0","220","1","2025-08-06 21:32:03","36c45c0696341be0efffe67d72a12abb","210.84.40.21","Mozilla/5.0 (Windows NT 10.0; Win64; x64; rv:141.0) Gecko/20100101 Firefox/141.0","","Firefox","141.0","Windows","10.0","https://app.prolific.com/","en-US,en;q=0.5","642cb1f7f42c4e0a6c5d4eef","6877649eabb845cf142cd221","6893c9c2ab6783769e922525","1","642cb1f7f42c4e0a6c5d4eef","1","","","","","","","","","","","","","","","[{""page_index"":0,""viewing_time"":246211}]","","","","","","","","","","","","","","","","","","","","","","","","","","","",""
"5066","","<p>Before you start with this game please answer the following three questions yourself. </p>
  <p>Through this game, we measure several aspects of your cognitive performance, such as reaction times, multi-tasking capabilities </p>
  <p>and the ability to assess the situation you are in.</p>
  <p></p>
  <p><b>How good do you usually are in such tasks?</b></p>","57","html-slider-response","10","490383","0.0-6.0-0.0","220","1","2025-08-06 21:32:03","36c45c0696341be0efffe67d72a12abb","210.84.40.21","Mozilla/5.0 (Windows NT 10.0; Win64; x64; rv:141.0) Gecko/20100101 Firefox/141.0","","Firefox","141.0","Windows","10.0","https://app.prolific.com/","en-US,en;q=0.5","642cb1f7f42c4e0a6c5d4eef","6877649eabb845cf142cd221","6893c9c2ab6783769e922525","1","642cb1f7f42c4e0a6c5d4eef","1","2025-08-06T21:40:18.024Z","","","","PreSkillQ","","","","","","","","","","","50","","","","","","","","","","","","","","","","","","","","","","","","","","",""
"4196","","<div style=""width:500px;"">
  <p>How well do you think you will perform in this task compared to other participants?</p>
  </div>","50","html-slider-response","11","494582","0.0-6.0-1.0","220","1","2025-08-06 21:32:03","36c45c0696341be0efffe67d72a12abb","210.84.40.21","Mozilla/5.0 (Windows NT 10.0; Win64; x64; rv:141.0) Gecko/20100101 Firefox/141.0","","Firefox","141.0","Windows","10.0","https://app.prolific.com/","en-US,en;q=0.5","642cb1f7f42c4e0a6c5d4eef","6877649eabb845cf142cd221","6893c9c2ab6783769e922525","1","642cb1f7f42c4e0a6c5d4eef","1","2025-08-06T21:40:22.223Z","","","","PrePerfQ","","","","","","","","","","","50","","","","","","","","","","","","","","","","","","","","","","","","","","",""
"3169","","<div style=""width:500px;"">
  <p>What best describes how you currently feel?</p>
  </div>","48","html-slider-response","12","497753","0.0-6.0-2.0","220","1","2025-08-06 21:32:03","36c45c0696341be0efffe67d72a12abb","210.84.40.21","Mozilla/5.0 (Windows NT 10.0; Win64; x64; rv:141.0) Gecko/20100101 Firefox/141.0","","Firefox","141.0","Windows","10.0","https://app.prolific.com/","en-US,en;q=0.5","642cb1f7f42c4e0a6c5d4eef","6877649eabb845cf142cd221","6893c9c2ab6783769e922525","1","642cb1f7f42c4e0a6c5d4eef","1","2025-08-06T21:40:25.394Z","","","","PreMotivationQ","","","","","","","","","","","50","","","","","","","","","","","","","","","","","","","","","","","","","","",""
"","","","","ctl-task-cpt","13","527660","0.0-7.0-0.0","220","1","2025-08-06 21:32:03","36c45c0696341be0efffe67d72a12abb","210.84.40.21","Mozilla/5.0 (Windows NT 10.0; Win64; x64; rv:141.0) Gecko/20100101 Firefox/141.0","","Firefox","141.0","Windows","10.0","https://app.prolific.com/","en-US,en;q=0.5","642cb1f7f42c4e0a6c5d4eef","6877649eabb845cf142cd221","6893c9c2ab6783769e922525","1","642cb1f7f42c4e0a6c5d4eef","1","2025-08-06T21:40:55.301Z","","","","","","","","","","","","","","","","win-only","2","g1:SE,g2:NW","1","1","0","503325","1194","6211","26886","1","4","4","6","2","4","4","4","0","0.030303030303030304","1453","3000","2330","[""left"",""up""]","{""num_key_presses"":6,""num_perfect"":6,""num_errors"":0,""num_randdir"":0,""num_randdir_good_moves"":0,""num_whilered"":0,""num_whileblue"":0,""num_blue"":1,""num_good_moves"":6}","[414.0714133126395,411.3214362008231,0,414.0714133126395,411.3214362008231,103,414.0714133126395,411.3214362008231,215,414.0714133126395,411.3214362008231,326,414.0714133126395,411.3214362008231,438,207.8214133126395,200.0714362008231,548,96.5714133126395,81.3214362008231,657,79.0714133126395,65.0714362008231,769,81.5714133126395,67.5714362008231,882,87.8214133126395,73.8214362008231,989,89.0714133126395,75.0714362008231,1098,89.0714133126395,75.0714362008231,1208,89.0714133126395,75.0714362008231,1319,89.0714133126395,75.0714362008231,1432,89.0714133126395,75.0714362008231,1539,89.0714133126395,75.0714362008231,1651,89.0714133126395,75.0714362008231,1760,89.0714133126395,75.0714362008231,1873,89.0714133126395,75.0714362008231,1985,89.0714133126395,75.0714362008231,2097,89.0714133126395,75.0714362008231,2208,89.0714133126395,75.0714362008231,2320,89.0714133126395,75.0714362008231,2432,300.3214133126395,75.0714362008231,2545,604.0714133126395,107.5714362008231,2657,614.0714133126395,118.8214362008231,2766,614.0714133126395,118.8214362008231,2877,614.0714133126395,118.8214362008231,2988,614.0714133126395,118.8214362008231,3100,614.0714133126395,118.8214362008231,3212,614.0714133126395,118.8214362008231,3321,614.0714133126395,118.8214362008231,3434,614.0714133126395,118.8214362008231,3546,614.0714133126395,118.8214362008231,3658,614.0714133126395,118.8214362008231,3770,614.0714133126395,118.8214362008231,3881,614.0714133126395,118.8214362008231,3992,614.0714133126395,118.8214362008231,4104,614.0714133126395,118.8214362008231,4215,614.0714133126395,118.8214362008231,4329,614.0714133126395,118.8214362008231,4440,614.0714133126395,118.8214362008231,4553,614.0714133126395,118.8214362008231,4666,614.0714133126395,118.8214362008231,4776,614.0714133126395,118.8214362008231,4888,614.0714133126395,118.8214362008231,5000]","[1361,1361,1000,0,361,""smooth"",""left"",""left"",""good_move"",4424,3062,2081,1362,981,""smooth"",""left"",""left"",""good_move"",10958,6533,2431.2,8132,394.8,""smooth"",""left"",""left"",""good_move"",14054,3096,2674.5,10958,421.5,""smooth"",""up"",""up"",""good_move"",17298,3243,2888,14055,355,""smooth"",""up"",""up"",""good_move"",20370,3072,2689.3,17298,382.7,""smooth"",""up"",""up"",""good_move""]"
"3904","","<div style=""width:500px;"">
  <p>What determined the result of this run?</p>
  </div>","72","html-slider-response","14","531567","0.0-7.0-1.0","220","1","2025-08-06 21:32:03","36c45c0696341be0efffe67d72a12abb","210.84.40.21","Mozilla/5.0 (Windows NT 10.0; Win64; x64; rv:141.0) Gecko/20100101 Firefox/141.0","","Firefox","141.0","Windows","10.0","https://app.prolific.com/","en-US,en;q=0.5","642cb1f7f42c4e0a6c5d4eef","6877649eabb845cf142cd221","6893c9c2ab6783769e922525","1","642cb1f7f42c4e0a6c5d4eef","1","2025-08-06T21:40:59.208Z","","","","AttribQ","","","","","","","","","","","50","","","","","","","","","","","","","","","","","","","","","","","","","","",""
"4093","","<div style=""width:500px;"">
  <p>How much control did you have over the ball?</p>
  </div>","75","html-slider-response","15","535661","0.0-7.0-2.0","220","1","2025-08-06 21:32:03","36c45c0696341be0efffe67d72a12abb","210.84.40.21","Mozilla/5.0 (Windows NT 10.0; Win64; x64; rv:141.0) Gecko/20100101 Firefox/141.0","","Firefox","141.0","Windows","10.0","https://app.prolific.com/","en-US,en;q=0.5","642cb1f7f42c4e0a6c5d4eef","6877649eabb845cf142cd221","6893c9c2ab6783769e922525","1","642cb1f7f42c4e0a6c5d4eef","1","2025-08-06T21:41:03.302Z","","","","ControlQ","","","","","","","","","","","50","","","","","","","","","","","","","","","","","","","","","","","","","","",""
"3833","","<div style=""width:500px;"">
  <p>How would you describe your current emotional state?</p>
  </div>","37","html-slider-response","16","539496","0.0-7.0-3.0","220","1","2025-08-06 21:32:03","36c45c0696341be0efffe67d72a12abb","210.84.40.21","Mozilla/5.0 (Windows NT 10.0; Win64; x64; rv:141.0) Gecko/20100101 Firefox/141.0","","Firefox","141.0","Windows","10.0","https://app.prolific.com/","en-US,en;q=0.5","642cb1f7f42c4e0a6c5d4eef","6877649eabb845cf142cd221","6893c9c2ab6783769e922525","1","642cb1f7f42c4e0a6c5d4eef","1","2025-08-06T21:41:07.137Z","","","","StressQ","","","","","","","","","","","50","","","","","","","","","","","","","","","","","","","","","","","","","","",""
"3073","","<div style=""width:500px;"">
  <p>What best describes how you currently feel?</p>
  </div>","36","html-slider-response","17","542570","0.0-7.0-4.0","220","1","2025-08-06 21:32:03","36c45c0696341be0efffe67d72a12abb","210.84.40.21","Mozilla/5.0 (Windows NT 10.0; Win64; x64; rv:141.0) Gecko/20100101 Firefox/141.0","","Firefox","141.0","Windows","10.0","https://app.prolific.com/","en-US,en;q=0.5","642cb1f7f42c4e0a6c5d4eef","6877649eabb845cf142cd221","6893c9c2ab6783769e922525","1","642cb1f7f42c4e0a6c5d4eef","1","2025-08-06T21:41:10.211Z","","","","MotivationQ","","","","","","","","","","","50","","","","","","","","","","","","","","","","","","","","","","","","","","",""
"","","","","ctl-task-cpt","18","567773","0.0-7.0-0.1","220","1","2025-08-06 21:32:03","36c45c0696341be0efffe67d72a12abb","210.84.40.21","Mozilla/5.0 (Windows NT 10.0; Win64; x64; rv:141.0) Gecko/20100101 Firefox/141.0","","Firefox","141.0","Windows","10.0","https://app.prolific.com/","en-US,en;q=0.5","642cb1f7f42c4e0a6c5d4eef","6877649eabb845cf142cd221","6893c9c2ab6783769e922525","1","642cb1f7f42c4e0a6c5d4eef","1","2025-08-06T21:41:35.414Z","","","","","","","","","","","","","","","","win-only","0","g1:NW,g2:SE","0.9","2","0","548130","1088","6094","22195","1","4","8","6","2","8","8","12","4","0.09090909090909091","1381","3000","2315","[""down"",""right""]","{""num_key_presses"":6,""num_perfect"":6,""num_errors"":0,""num_randdir"":0,""num_randdir_good_moves"":0,""num_whilered"":0,""num_whileblue"":0,""num_blue"":0,""num_good_moves"":6}","[419.0714133126395,423.8214362008231,0,419.0714133126395,423.8214362008231,103,419.0714133126395,423.8214362008231,217,419.0714133126395,423.8214362008231,327,419.0714133126395,423.8214362008231,440,419.0714133126395,423.8214362008231,553,379.0714133126395,363.8214362008231,665,456.5714133126395,420.0714362008231,775,887.8214133126395,897.5714362008231,886,892.8214133126395,897.5714362008231,998,805.3214133126395,786.3214362008231,1108,770.3214133126395,760.0714362008231,1220,770.3214133126395,760.0714362008231,1329,770.3214133126395,760.0714362008231,1442,770.3214133126395,760.0714362008231,1552,770.3214133126395,760.0714362008231,1666,770.3214133126395,760.0714362008231,1776,770.3214133126395,760.0714362008231,1890,770.3214133126395,760.0714362008231,2001,770.3214133126395,760.0714362008231,2112,770.3214133126395,760.0714362008231,2224,770.3214133126395,760.0714362008231,2337,770.3214133126395,760.0714362008231,2449,770.3214133126395,760.0714362008231,2562,770.3214133126395,760.0714362008231,2673,770.3214133126395,760.0714362008231,2785,770.3214133126395,760.0714362008231,2898,770.3214133126395,760.0714362008231,3008,770.3214133126395,760.0714362008231,3122,770.3214133126395,760.0714362008231,3238,770.3214133126395,760.0714362008231,3346,770.3214133126395,760.0714362008231,3458,770.3214133126395,760.0714362008231,3568,770.3214133126395,760.0714362008231,3683,770.3214133126395,760.0714362008231,3792,770.3214133126395,760.0714362008231,3905,770.3214133126395,760.0714362008231,4015,770.3214133126395,760.0714362008231,4127,770.3214133126395,760.0714362008231,4241,770.3214133126395,760.0714362008231,4351,770.3214133126395,760.0714362008231,4467,770.3214133126395,760.0714362008231,4577,770.3214133126395,760.0714362008231,4687,770.3214133126395,760.0714362008231,4804,770.3214133126395,760.0714362008231,4911]","[1348,1348,1000,0,348,""smooth"",""down"",""down"",""good_move"",4837,3489,3027.5,1348,461.5,""smooth"",""down"",""down"",""good_move"",7687,2850,2466.1,4837,383.9,""smooth"",""down"",""down"",""good_move"",10648,2961,2586.1,7687,374.9,""smooth"",""right"",""right"",""good_move"",13042,2394,2039,10648,355,""smooth"",""right"",""right"",""good_move"",15812,2770,2396.8,13043,373.2,""smooth"",""right"",""right"",""good_move""]"
"2721","","<div style=""width:500px;"">
  <p>What determined the result of this run?</p>
  </div>","79","html-slider-response","19","570499","0.0-7.0-1.1","220","1","2025-08-06 21:32:03","36c45c0696341be0efffe67d72a12abb","210.84.40.21","Mozilla/5.0 (Windows NT 10.0; Win64; x64; rv:141.0) Gecko/20100101 Firefox/141.0","","Firefox","141.0","Windows","10.0","https://app.prolific.com/","en-US,en;q=0.5","642cb1f7f42c4e0a6c5d4eef","6877649eabb845cf142cd221","6893c9c2ab6783769e922525","1","642cb1f7f42c4e0a6c5d4eef","1","2025-08-06T21:41:38.140Z","","","","AttribQ","","","","","","","","","","","50","","","","","","","","","","","","","","","","","","","","","","","","","","",""
"2771","","<div style=""width:500px;"">
  <p>How much control did you have over the ball?</p>
  </div>","80","html-slider-response","20","573271","0.0-7.0-2.1","220","1","2025-08-06 21:32:03","36c45c0696341be0efffe67d72a12abb","210.84.40.21","Mozilla/5.0 (Windows NT 10.0; Win64; x64; rv:141.0) Gecko/20100101 Firefox/141.0","","Firefox","141.0","Windows","10.0","https://app.prolific.com/","en-US,en;q=0.5","642cb1f7f42c4e0a6c5d4eef","6877649eabb845cf142cd221","6893c9c2ab6783769e922525","1","642cb1f7f42c4e0a6c5d4eef","1","2025-08-06T21:41:40.912Z","","","","ControlQ","","","","","","","","","","","50","","","","","","","","","","","","","","","","","","","","","","","","","","",""
"3104","","<div style=""width:500px;"">
  <p>How would you describe your current emotional state?</p>
  </div>","42","html-slider-response","21","576378","0.0-7.0-3.1","220","1","2025-08-06 21:32:03","36c45c0696341be0efffe67d72a12abb","210.84.40.21","Mozilla/5.0 (Windows NT 10.0; Win64; x64; rv:141.0) Gecko/20100101 Firefox/141.0","","Firefox","141.0","Windows","10.0","https://app.prolific.com/","en-US,en;q=0.5","642cb1f7f42c4e0a6c5d4eef","6877649eabb845cf142cd221","6893c9c2ab6783769e922525","1","642cb1f7f42c4e0a6c5d4eef","1","2025-08-06T21:41:44.019Z","","","","StressQ","","","","","","","","","","","50","","","","","","","","","","","","","","","","","","","","","","","","","","",""
"3090","","<div style=""width:500px;"">
  <p>What best describes how you currently feel?</p>
  </div>","42","html-slider-response","22","579468","0.0-7.0-4.1","220","1","2025-08-06 21:32:03","36c45c0696341be0efffe67d72a12abb","210.84.40.21","Mozilla/5.0 (Windows NT 10.0; Win64; x64; rv:141.0) Gecko/20100101 Firefox/141.0","","Firefox","141.0","Windows","10.0","https://app.prolific.com/","en-US,en;q=0.5","642cb1f7f42c4e0a6c5d4eef","6877649eabb845cf142cd221","6893c9c2ab6783769e922525","1","642cb1f7f42c4e0a6c5d4eef","1","2025-08-06T21:41:47.109Z","","","","MotivationQ","","","","","","","","","","","50","","","","","","","","","","","","","","","","","","","","","","","","","","",""
"","","","","ctl-task-cpt","23","606437","0.0-7.0-0.2","220","1","2025-08-06 21:32:03","36c45c0696341be0efffe67d72a12abb","210.84.40.21","Mozilla/5.0 (Windows NT 10.0; Win64; x64; rv:141.0) Gecko/20100101 Firefox/141.0","","Firefox","141.0","Windows","10.0","https://app.prolific.com/","en-US,en;q=0.5","642cb1f7f42c4e0a6c5d4eef","6877649eabb845cf142cd221","6893c9c2ab6783769e922525","1","642cb1f7f42c4e0a6c5d4eef","1","2025-08-06T21:42:14.078Z","","","","","","","","","","","","","","","","win-only","2","g1:SE,g2:NW","0.8","3","0","585028","1193","6203","23951","1","4","8","6","2","8","8","20","12","0.15151515151515152","1678","3000","2320","[""left"",""up""]","{""num_key_presses"":6,""num_perfect"":5,""num_errors"":0,""num_randdir"":1,""num_randdir_good_moves"":1,""num_whilered"":0,""num_whileblue"":0,""num_blue"":0,""num_good_moves"":6}","[429.0714133126395,420.0714362008231,0,429.0714133126395,420.0714362008231,110,429.0714133126395,420.0714362008231,221,429.0714133126395,420.0714362008231,333,429.0714133126395,420.0714362008231,445,429.0714133126395,420.0714362008231,556,429.0714133126395,420.0714362008231,668,429.0714133126395,420.0714362008231,780,429.0714133126395,420.0714362008231,891,429.0714133126395,420.0714362008231,1002,132.8214133126395,85.0714362008231,1113,42.82141331263951,16.3214362008231,1224,5.321413312639507,-27.4285637991769,1335,61.57141331263951,55.0714362008231,1447,75.3214133126395,71.3214362008231,1557,75.3214133126395,71.3214362008231,1669,75.3214133126395,71.3214362008231,1783,75.3214133126395,71.3214362008231,1893,75.3214133126395,71.3214362008231,2005,75.3214133126395,71.3214362008231,2117,75.3214133126395,71.3214362008231,2230,75.3214133126395,71.3214362008231,2341,75.3214133126395,71.3214362008231,2454,75.3214133126395,71.3214362008231,2567,75.3214133126395,71.3214362008231,2681,75.3214133126395,71.3214362008231,2792,75.3214133126395,71.3214362008231,2905,75.3214133126395,71.3214362008231,3015,75.3214133126395,71.3214362008231,3125,75.3214133126395,71.3214362008231,3225,75.3214133126395,71.3214362008231,3337,75.3214133126395,71.3214362008231,3450,75.3214133126395,71.3214362008231,3559,75.3214133126395,71.3214362008231,3670,75.3214133126395,71.3214362008231,3783,75.3214133126395,71.3214362008231,3892,75.3214133126395,71.3214362008231,4002,75.3214133126395,71.3214362008231,4118,75.3214133126395,71.3214362008231,4227,75.3214133126395,71.3214362008231,4339,75.3214133126395,71.3214362008231,4450,75.3214133126395,71.3214362008231,4565,75.3214133126395,71.3214362008231,4676,75.3214133126395,71.3214362008231,4786,75.3214133126395,71.3214362008231,4897]","[1392,1392,1000,0,392,""smooth"",""up"",""up"",""good_move"",5129,3737,3354.7,1392,382.3,""smooth"",""left"",""left"",""good_move"",8243,3114,1905.9,5129,1208.1,""smooth"",""left"",""left"",""good_move"",11281,3038,2599.9,8243,438.1,""smooth"",""up"",""up"",""good_move"",14416,3135,2789.6,11281,345.4,""smooth"",""left"",""left"",""good_move"",17468,3052,1922.1,14416,1129.9,""oops"",""up"",""up"",""good_move""]"
"2955","","<div style=""width:500px;"">
  <p>What determined the result of this run?</p>
  </div>","80","html-slider-response","24","609395","0.0-7.0-1.2","220","1","2025-08-06 21:32:03","36c45c0696341be0efffe67d72a12abb","210.84.40.21","Mozilla/5.0 (Windows NT 10.0; Win64; x64; rv:141.0) Gecko/20100101 Firefox/141.0","","Firefox","141.0","Windows","10.0","https://app.prolific.com/","en-US,en;q=0.5","642cb1f7f42c4e0a6c5d4eef","6877649eabb845cf142cd221","6893c9c2ab6783769e922525","1","642cb1f7f42c4e0a6c5d4eef","1","2025-08-06T21:42:17.036Z","","","","AttribQ","","","","","","","","","","","50","","","","","","","","","","","","","","","","","","","","","","","","","","",""
"2426","","<div style=""width:500px;"">
  <p>How much control did you have over the ball?</p>
  </div>","72","html-slider-response","25","611822","0.0-7.0-2.2","220","1","2025-08-06 21:32:03","36c45c0696341be0efffe67d72a12abb","210.84.40.21","Mozilla/5.0 (Windows NT 10.0; Win64; x64; rv:141.0) Gecko/20100101 Firefox/141.0","","Firefox","141.0","Windows","10.0","https://app.prolific.com/","en-US,en;q=0.5","642cb1f7f42c4e0a6c5d4eef","6877649eabb845cf142cd221","6893c9c2ab6783769e922525","1","642cb1f7f42c4e0a6c5d4eef","1","2025-08-06T21:42:19.463Z","","","","ControlQ","","","","","","","","","","","50","","","","","","","","","","","","","","","","","","","","","","","","","","",""
"2085","","<div style=""width:500px;"">
  <p>How would you describe your current emotional state?</p>
  </div>","37","html-slider-response","26","613908","0.0-7.0-3.2","220","1","2025-08-06 21:32:03","36c45c0696341be0efffe67d72a12abb","210.84.40.21","Mozilla/5.0 (Windows NT 10.0; Win64; x64; rv:141.0) Gecko/20100101 Firefox/141.0","","Firefox","141.0","Windows","10.0","https://app.prolific.com/","en-US,en;q=0.5","642cb1f7f42c4e0a6c5d4eef","6877649eabb845cf142cd221","6893c9c2ab6783769e922525","1","642cb1f7f42c4e0a6c5d4eef","1","2025-08-06T21:42:21.549Z","","","","StressQ","","","","","","","","","","","50","","","","","","","","","","","","","","","","","","","","","","","","","","",""
"2586","","<div style=""width:500px;"">
  <p>What best describes how you currently feel?</p>
  </div>","37","html-slider-response","27","616496","0.0-7.0-4.2","220","1","2025-08-06 21:32:03","36c45c0696341be0efffe67d72a12abb","210.84.40.21","Mozilla/5.0 (Windows NT 10.0; Win64; x64; rv:141.0) Gecko/20100101 Firefox/141.0","","Firefox","141.0","Windows","10.0","https://app.prolific.com/","en-US,en;q=0.5","642cb1f7f42c4e0a6c5d4eef","6877649eabb845cf142cd221","6893c9c2ab6783769e922525","1","642cb1f7f42c4e0a6c5d4eef","1","2025-08-06T21:42:24.137Z","","","","MotivationQ","","","","","","","","","","","50","","","","","","","","","","","","","","","","","","","","","","","","","","",""
"","","","","ctl-task-cpt","28","657636","0.0-7.0-0.3","220","1","2025-08-06 21:32:03","36c45c0696341be0efffe67d72a12abb","210.84.40.21","Mozilla/5.0 (Windows NT 10.0; Win64; x64; rv:141.0) Gecko/20100101 Firefox/141.0","","Firefox","141.0","Windows","10.0","https://app.prolific.com/","en-US,en;q=0.5","642cb1f7f42c4e0a6c5d4eef","6877649eabb845cf142cd221","6893c9c2ab6783769e922525","1","642cb1f7f42c4e0a6c5d4eef","1","2025-08-06T21:43:05.277Z","","","","","","","","","","","","","","","","win-only","0","g1:NW,g2:SE","0.7","4","0","622058","1104","6115","38133","1","4","4","6","2","4","4","24","20","0.18181818181818182","947","3000","2120","[""down"",""right""]","{""num_key_presses"":8,""num_perfect"":6,""num_errors"":0,""num_randdir"":2,""num_randdir_good_moves"":1,""num_whilered"":0,""num_whileblue"":0,""num_blue"":2,""num_good_moves"":7}","[412.8214133126395,408.8214362008231,0,412.8214133126395,408.8214362008231,113,412.8214133126395,408.8214362008231,224,412.8214133126395,408.8214362008231,335,412.8214133126395,408.8214362008231,447,594.0714133126395,508.8214362008231,547,809.0714133126395,772.5714362008231,650,802.8214133126395,778.8214362008231,761,802.8214133126395,778.8214362008231,873,802.8214133126395,778.8214362008231,983,802.8214133126395,778.8214362008231,1095,802.8214133126395,778.8214362008231,1206,802.8214133126395,778.8214362008231,1316,802.8214133126395,778.8214362008231,1428,802.8214133126395,778.8214362008231,1539,802.8214133126395,778.8214362008231,1650,802.8214133126395,778.8214362008231,1763,802.8214133126395,778.8214362008231,1876,802.8214133126395,778.8214362008231,1986,802.8214133126395,778.8214362008231,2096,802.8214133126395,778.8214362008231,2208,802.8214133126395,778.8214362008231,2320,802.8214133126395,778.8214362008231,2433,802.8214133126395,778.8214362008231,2548,802.8214133126395,778.8214362008231,2654,802.8214133126395,778.8214362008231,2767,802.8214133126395,778.8214362008231,2876,802.8214133126395,778.8214362008231,2987,802.8214133126395,778.8214362008231,3100,802.8214133126395,778.8214362008231,3214,802.8214133126395,778.8214362008231,3321,802.8214133126395,778.8214362008231,3433,802.8214133126395,778.8214362008231,3545,802.8214133126395,778.8214362008231,3656,802.8214133126395,778.8214362008231,3767,802.8214133126395,778.8214362008231,3877,802.8214133126395,778.8214362008231,3988,802.8214133126395,778.8214362008231,4098,802.8214133126395,778.8214362008231,4204,802.8214133126395,778.8214362008231,4309,802.8214133126395,778.8214362008231,4422,802.8214133126395,778.8214362008231,4532,802.8214133126395,778.8214362008231,4643,802.8214133126395,778.8214362008231,4755,802.8214133126395,778.8214362008231,4867,802.8214133126395,778.8214362008231,4983]","[1369,1369,1000,0,369,""oops"",""down"",""up"",""bad_move"",11784,10415,2578,8808,398,""smooth"",""down"",""down"",""good_move"",15330,3546,3181.9,11784,364.1,""oops"",""down"",""down"",""good_move"",18321,2991,2656.8,15330,334.2,""smooth"",""down"",""down"",""good_move"",20723,2401,2029.6,18322,371.4,""smooth"",""down"",""down"",""good_move"",24240,3517,3170.7,20723,346.3,""smooth"",""right"",""right"",""good_move"",28673,4433,4076.4,24240,356.6,""smooth"",""right"",""right"",""good_move"",31745,3071,2666.4,28674,404.6,""smooth"",""right"",""right"",""good_move""]"
"3422","","<div style=""width:500px;"">
  <p>What determined the result of this run?</p>
  </div>","72","html-slider-response","29","661058","0.0-7.0-1.3","220","1","2025-08-06 21:32:03","36c45c0696341be0efffe67d72a12abb","210.84.40.21","Mozilla/5.0 (Windows NT 10.0; Win64; x64; rv:141.0) Gecko/20100101 Firefox/141.0","","Firefox","141.0","Windows","10.0","https://app.prolific.com/","en-US,en;q=0.5","642cb1f7f42c4e0a6c5d4eef","6877649eabb845cf142cd221","6893c9c2ab6783769e922525","1","642cb1f7f42c4e0a6c5d4eef","1","2025-08-06T21:43:08.699Z","","","","AttribQ","","","","","","","","","","","50","","","","","","","","","","","","","","","","","","","","","","","","","","",""
"1940","","<div style=""width:500px;"">
  <p>How much control did you have over the ball?</p>
  </div>","70","html-slider-response","30","662999","0.0-7.0-2.3","220","1","2025-08-06 21:32:03","36c45c0696341be0efffe67d72a12abb","210.84.40.21","Mozilla/5.0 (Windows NT 10.0; Win64; x64; rv:141.0) Gecko/20100101 Firefox/141.0","","Firefox","141.0","Windows","10.0","https://app.prolific.com/","en-US,en;q=0.5","642cb1f7f42c4e0a6c5d4eef","6877649eabb845cf142cd221","6893c9c2ab6783769e922525","1","642cb1f7f42c4e0a6c5d4eef","1","2025-08-06T21:43:10.640Z","","","","ControlQ","","","","","","","","","","","50","","","","","","","","","","","","","","","","","","","","","","","","","","",""
"3215","","<div style=""width:500px;"">
  <p>How would you describe your current emotional state?</p>
  </div>","37","html-slider-response","31","666216","0.0-7.0-3.3","220","1","2025-08-06 21:32:03","36c45c0696341be0efffe67d72a12abb","210.84.40.21","Mozilla/5.0 (Windows NT 10.0; Win64; x64; rv:141.0) Gecko/20100101 Firefox/141.0","","Firefox","141.0","Windows","10.0","https://app.prolific.com/","en-US,en;q=0.5","642cb1f7f42c4e0a6c5d4eef","6877649eabb845cf142cd221","6893c9c2ab6783769e922525","1","642cb1f7f42c4e0a6c5d4eef","1","2025-08-06T21:43:13.857Z","","","","StressQ","","","","","","","","","","","50","","","","","","","","","","","","","","","","","","","","","","","","","","",""
"2389","","<div style=""width:500px;"">
  <p>What best describes how you currently feel?</p>
  </div>","38","html-slider-response","32","668605","0.0-7.0-4.3","220","1","2025-08-06 21:32:03","36c45c0696341be0efffe67d72a12abb","210.84.40.21","Mozilla/5.0 (Windows NT 10.0; Win64; x64; rv:141.0) Gecko/20100101 Firefox/141.0","","Firefox","141.0","Windows","10.0","https://app.prolific.com/","en-US,en;q=0.5","642cb1f7f42c4e0a6c5d4eef","6877649eabb845cf142cd221","6893c9c2ab6783769e922525","1","642cb1f7f42c4e0a6c5d4eef","1","2025-08-06T21:43:16.246Z","","","","MotivationQ","","","","","","","","","","","50","","","","","","","","","","","","","","","","","","","","","","","","","","",""
"","","","","ctl-task-cpt","33","733217","0.0-7.0-0.4","220","1","2025-08-06 21:32:03","36c45c0696341be0efffe67d72a12abb","210.84.40.21","Mozilla/5.0 (Windows NT 10.0; Win64; x64; rv:141.0) Gecko/20100101 Firefox/141.0","","Firefox","141.0","Windows","10.0","https://app.prolific.com/","en-US,en;q=0.5","642cb1f7f42c4e0a6c5d4eef","6877649eabb845cf142cd221","6893c9c2ab6783769e922525","1","642cb1f7f42c4e0a6c5d4eef","1","2025-08-06T21:44:20.858Z","","","","","","","","","","","","","","","","win-only","1","g1:NE,g2:SW","0.6","5","0","674166","1186","6200","61600","1","4","8","6","2","8","8","32","24","0.24242424242424243","1259","3000","1210","[""down"",""left""]","{""num_key_presses"":16,""num_perfect"":10,""num_errors"":0,""num_randdir"":6,""num_randdir_good_moves"":1,""num_whilered"":0,""num_whileblue"":0,""num_blue"":3,""num_good_moves"":11}","[412.8214133126395,412.5714362008231,0,412.8214133126395,412.5714362008231,111,412.8214133126395,412.5714362008231,221,412.8214133126395,412.5714362008231,333,412.8214133126395,412.5714362008231,445,412.8214133126395,412.5714362008231,556,412.8214133126395,412.5714362008231,666,209.0714133126395,636.3214362008231,773,202.8214133126395,662.5714362008231,881,131.5714133126395,768.8214362008231,991,74.0714133126395,791.3214362008231,1102,74.0714133126395,791.3214362008231,1214,74.0714133126395,791.3214362008231,1325,74.0714133126395,791.3214362008231,1436,74.0714133126395,791.3214362008231,1548,74.0714133126395,791.3214362008231,1660,74.0714133126395,791.3214362008231,1771,74.0714133126395,791.3214362008231,1882,74.0714133126395,791.3214362008231,1993,74.0714133126395,791.3214362008231,2104,74.0714133126395,791.3214362008231,2215,74.0714133126395,791.3214362008231,2325,74.0714133126395,791.3214362008231,2437,74.0714133126395,791.3214362008231,2548,74.0714133126395,791.3214362008231,2659,74.0714133126395,791.3214362008231,2772,74.0714133126395,791.3214362008231,2882,74.0714133126395,791.3214362008231,2993,74.0714133126395,791.3214362008231,3103,74.0714133126395,791.3214362008231,3213,74.0714133126395,791.3214362008231,3325,74.0714133126395,791.3214362008231,3436,74.0714133126395,791.3214362008231,3547,74.0714133126395,791.3214362008231,3660,74.0714133126395,791.3214362008231,3771,74.0714133126395,791.3214362008231,3881,74.0714133126395,791.3214362008231,3991,74.0714133126395,791.3214362008231,4091,74.0714133126395,791.3214362008231,4200,74.0714133126395,791.3214362008231,4311,74.0714133126395,791.3214362008231,4423,74.0714133126395,791.3214362008231,4535,74.0714133126395,791.3214362008231,4647,74.0714133126395,791.3214362008231,4759,74.0714133126395,791.3214362008231,4870,74.0714133126395,791.3214362008231,4982]","[4969,4969,2539.4,2009,420.6,""smooth"",""down"",""down"",""good_move"",7703,2734,2371.7,4969,362.3,""oops"",""down"",""right"",""bad_move"",10707,3004,2617.5,7704,385.5,""oops"",""down"",""right"",""bad_move"",16632,5925,2349.8,13935,347.2,""smooth"",""down"",""down"",""good_move"",19129,2497,2133,16632,364,""smooth"",""down"",""down"",""good_move"",21574,2445,2129.5,19129,315.5,""smooth"",""left"",""left"",""good_move"",24627,3053,2181.1,21574,871.9,""smooth"",""left"",""left"",""good_move"",27652,3025,2541.3,24627,483.7,""smooth"",""left"",""left"",""good_move"",30694,3042,2370.4,27652,671.6,""oops"",""left"",""up"",""bad_move"",33700,3006,2632,30695,373,""oops"",""left"",""right"",""bad_move"",36486,2786,2413.9,33700,372.1,""smooth"",""left"",""left"",""good_move"",42529,6043,1682.1,40409,437.9,""oops"",""left"",""down"",""good_move"",45341,2811,2390.5,42530,420.5,""oops"",""left"",""right"",""bad_move"",48794,3453,3106.6,45341,346.4,""smooth"",""left"",""left"",""good_move"",52053,3259,2876.9,48794,382.1,""smooth"",""left"",""left"",""good_move"",55110,3057,2587.3,52053,469.7,""smooth"",""left"",""left"",""good_move""]"
"2208","","<div style=""width:500px;"">
  <p>What determined the result of this run?</p>
  </div>","67","html-slider-response","34","735427","0.0-7.0-1.4","220","1","2025-08-06 21:32:03","36c45c0696341be0efffe67d72a12abb","210.84.40.21","Mozilla/5.0 (Windows NT 10.0; Win64; x64; rv:141.0) Gecko/20100101 Firefox/141.0","","Firefox","141.0","Windows","10.0","https://app.prolific.com/","en-US,en;q=0.5","642cb1f7f42c4e0a6c5d4eef","6877649eabb845cf142cd221","6893c9c2ab6783769e922525","1","642cb1f7f42c4e0a6c5d4eef","1","2025-08-06T21:44:23.068Z","","","","AttribQ","","","","","","","","","","","50","","","","","","","","","","","","","","","","","","","","","","","","","","",""
"2147","","<div style=""width:500px;"">
  <p>How much control did you have over the ball?</p>
  </div>","63","html-slider-response","35","737574","0.0-7.0-2.4","220","1","2025-08-06 21:32:03","36c45c0696341be0efffe67d72a12abb","210.84.40.21","Mozilla/5.0 (Windows NT 10.0; Win64; x64; rv:141.0) Gecko/20100101 Firefox/141.0","","Firefox","141.0","Windows","10.0","https://app.prolific.com/","en-US,en;q=0.5","642cb1f7f42c4e0a6c5d4eef","6877649eabb845cf142cd221","6893c9c2ab6783769e922525","1","642cb1f7f42c4e0a6c5d4eef","1","2025-08-06T21:44:25.215Z","","","","ControlQ","","","","","","","","","","","50","","","","","","","","","","","","","","","","","","","","","","","","","","",""
"3144","","<div style=""width:500px;"">
  <p>How would you describe your current emotional state?</p>
  </div>","34","html-slider-response","36","740719","0.0-7.0-3.4","220","1","2025-08-06 21:32:03","36c45c0696341be0efffe67d72a12abb","210.84.40.21","Mozilla/5.0 (Windows NT 10.0; Win64; x64; rv:141.0) Gecko/20100101 Firefox/141.0","","Firefox","141.0","Windows","10.0","https://app.prolific.com/","en-US,en;q=0.5","642cb1f7f42c4e0a6c5d4eef","6877649eabb845cf142cd221","6893c9c2ab6783769e922525","1","642cb1f7f42c4e0a6c5d4eef","1","2025-08-06T21:44:28.360Z","","","","StressQ","","","","","","","","","","","50","","","","","","","","","","","","","","","","","","","","","","","","","","",""
"4123","","<div style=""width:500px;"">
  <p>What best describes how you currently feel?</p>
  </div>","35","html-slider-response","37","744843","0.0-7.0-4.4","220","1","2025-08-06 21:32:03","36c45c0696341be0efffe67d72a12abb","210.84.40.21","Mozilla/5.0 (Windows NT 10.0; Win64; x64; rv:141.0) Gecko/20100101 Firefox/141.0","","Firefox","141.0","Windows","10.0","https://app.prolific.com/","en-US,en;q=0.5","642cb1f7f42c4e0a6c5d4eef","6877649eabb845cf142cd221","6893c9c2ab6783769e922525","1","642cb1f7f42c4e0a6c5d4eef","1","2025-08-06T21:44:32.484Z","","","","MotivationQ","","","","","","","","","","","50","","","","","","","","","","","","","","","","","","","","","","","","","","",""
"","","","","ctl-task-cpt","38","805256","0.0-7.0-0.5","220","1","2025-08-06 21:32:03","36c45c0696341be0efffe67d72a12abb","210.84.40.21","Mozilla/5.0 (Windows NT 10.0; Win64; x64; rv:141.0) Gecko/20100101 Firefox/141.0","","Firefox","141.0","Windows","10.0","https://app.prolific.com/","en-US,en;q=0.5","642cb1f7f42c4e0a6c5d4eef","6877649eabb845cf142cd221","6893c9c2ab6783769e922525","1","642cb1f7f42c4e0a6c5d4eef","1","2025-08-06T21:45:32.897Z","","","","","","","","","","","","","","","","win-only","1","g1:NE,g2:SW","0.5","6","0","750403","1246","6248","57405","1","4","4","6","2","4","4","36","32","0.2727272727272727","1017","3000","1605","[""down"",""left""]","{""num_key_presses"":12,""num_perfect"":7,""num_errors"":0,""num_randdir"":5,""num_randdir_good_moves"":2,""num_whilered"":0,""num_whileblue"":0,""num_blue"":5,""num_good_moves"":9}","[420.3214133126395,415.0714362008231,0,420.3214133126395,415.0714362008231,111,420.3214133126395,415.0714362008231,220,420.3214133126395,415.0714362008231,331,420.3214133126395,415.0714362008231,442,356.5714133126395,473.8214362008231,556,115.3214133126395,807.5714362008231,664,104.0714133126395,808.8214362008231,774,95.3214133126395,791.3214362008231,885,95.3214133126395,791.3214362008231,997,95.3214133126395,791.3214362008231,1109,95.3214133126395,791.3214362008231,1220,95.3214133126395,791.3214362008231,1331,95.3214133126395,791.3214362008231,1444,95.3214133126395,791.3214362008231,1557,95.3214133126395,791.3214362008231,1669,95.3214133126395,791.3214362008231,1780,95.3214133126395,791.3214362008231,1891,95.3214133126395,791.3214362008231,2001,95.3214133126395,791.3214362008231,2115,95.3214133126395,791.3214362008231,2224,95.3214133126395,791.3214362008231,2336,95.3214133126395,791.3214362008231,2448,95.3214133126395,791.3214362008231,2563,95.3214133126395,791.3214362008231,2674,95.3214133126395,791.3214362008231,2786,95.3214133126395,791.3214362008231,2898,95.3214133126395,791.3214362008231,3008,95.3214133126395,791.3214362008231,3121,95.3214133126395,791.3214362008231,3231,95.3214133126395,791.3214362008231,3343,95.3214133126395,791.3214362008231,3455,95.3214133126395,791.3214362008231,3568,95.3214133126395,791.3214362008231,3678,95.3214133126395,791.3214362008231,3789,95.3214133126395,791.3214362008231,3901,95.3214133126395,791.3214362008231,4012,95.3214133126395,791.3214362008231,4123,95.3214133126395,791.3214362008231,4234,95.3214133126395,791.3214362008231,4346,95.3214133126395,791.3214362008231,4457,95.3214133126395,791.3214362008231,4571,95.3214133126395,791.3214362008231,4683,95.3214133126395,791.3214362008231,4794,95.3214133126395,791.3214362008231,4906]","[4818,4818,2391,2008,419,""smooth"",""down"",""down"",""good_move"",7476,2659,2245.8,4818,413.2,""oops"",""down"",""up"",""bad_move"",10502,3025,2257.5,7477,767.5,""oops"",""down"",""left"",""good_move"",24503,14001,3320.1,20785,397.9,""smooth"",""down"",""down"",""good_move"",27173,2669,2237.7,24504,431.3,""oops"",""down"",""up"",""bad_move"",30269,3096,2646.5,27173,449.5,""smooth"",""down"",""down"",""good_move"",33269,3000,2656.2,30269,343.8,""smooth"",""down"",""down"",""good_move"",36524,3255,2877.9,33269,377.1,""oops"",""down"",""down"",""good_move"",38717,2193,1802.8,36524,390.2,""oops"",""left"",""right"",""bad_move"",41898,3180,2804,38718,376,""smooth"",""left"",""left"",""good_move"",47820,5922,1860.7,45595,364.3,""smooth"",""left"",""left"",""good_move"",50874,3054,2575.2,47820,478.8,""smooth"",""left"",""left"",""good_move""]"
"3277","","<div style=""width:500px;"">
  <p>What determined the result of this run?</p>
  </div>","67","html-slider-response","39","808534","0.0-7.0-1.5","220","1","2025-08-06 21:32:03","36c45c0696341be0efffe67d72a12abb","210.84.40.21","Mozilla/5.0 (Windows NT 10.0; Win64; x64; rv:141.0) Gecko/20100101 Firefox/141.0","","Firefox","141.0","Windows","10.0","https://app.prolific.com/","en-US,en;q=0.5","642cb1f7f42c4e0a6c5d4eef","6877649eabb845cf142cd221","6893c9c2ab6783769e922525","1","642cb1f7f42c4e0a6c5d4eef","1","2025-08-06T21:45:36.175Z","","","","AttribQ","","","","","","","","","","","50","","","","","","","","","","","","","","","","","","","","","","","","","","",""
"4289","","<div style=""width:500px;"">
  <p>How much control did you have over the ball?</p>
  </div>","67","html-slider-response","40","812826","0.0-7.0-2.5","220","1","2025-08-06 21:32:03","36c45c0696341be0efffe67d72a12abb","210.84.40.21","Mozilla/5.0 (Windows NT 10.0; Win64; x64; rv:141.0) Gecko/20100101 Firefox/141.0","","Firefox","141.0","Windows","10.0","https://app.prolific.com/","en-US,en;q=0.5","642cb1f7f42c4e0a6c5d4eef","6877649eabb845cf142cd221","6893c9c2ab6783769e922525","1","642cb1f7f42c4e0a6c5d4eef","1","2025-08-06T21:45:40.467Z","","","","ControlQ","","","","","","","","","","","50","","","","","","","","","","","","","","","","","","","","","","","","","","",""
"2647","","<div style=""width:500px;"">
  <p>How would you describe your current emotional state?</p>
  </div>","38","html-slider-response","41","815475","0.0-7.0-3.5","220","1","2025-08-06 21:32:03","36c45c0696341be0efffe67d72a12abb","210.84.40.21","Mozilla/5.0 (Windows NT 10.0; Win64; x64; rv:141.0) Gecko/20100101 Firefox/141.0","","Firefox","141.0","Windows","10.0","https://app.prolific.com/","en-US,en;q=0.5","642cb1f7f42c4e0a6c5d4eef","6877649eabb845cf142cd221","6893c9c2ab6783769e922525","1","642cb1f7f42c4e0a6c5d4eef","1","2025-08-06T21:45:43.116Z","","","","StressQ","","","","","","","","","","","50","","","","","","","","","","","","","","","","","","","","","","","","","","",""
"3203","","<div style=""width:500px;"">
  <p>What best describes how you currently feel?</p>
  </div>","23","html-slider-response","42","818681","0.0-7.0-4.5","220","1","2025-08-06 21:32:03","36c45c0696341be0efffe67d72a12abb","210.84.40.21","Mozilla/5.0 (Windows NT 10.0; Win64; x64; rv:141.0) Gecko/20100101 Firefox/141.0","","Firefox","141.0","Windows","10.0","https://app.prolific.com/","en-US,en;q=0.5","642cb1f7f42c4e0a6c5d4eef","6877649eabb845cf142cd221","6893c9c2ab6783769e922525","1","642cb1f7f42c4e0a6c5d4eef","1","2025-08-06T21:45:46.322Z","","","","MotivationQ","","","","","","","","","","","50","","","","","","","","","","","","","","","","","","","","","","","","","","",""
"","","","","ctl-task-cpt","43","863212","0.0-7.0-0.6","220","1","2025-08-06 21:32:03","36c45c0696341be0efffe67d72a12abb","210.84.40.21","Mozilla/5.0 (Windows NT 10.0; Win64; x64; rv:141.0) Gecko/20100101 Firefox/141.0","","Firefox","141.0","Windows","10.0","https://app.prolific.com/","en-US,en;q=0.5","642cb1f7f42c4e0a6c5d4eef","6877649eabb845cf142cd221","6893c9c2ab6783769e922525","1","642cb1f7f42c4e0a6c5d4eef","1","2025-08-06T21:46:30.853Z","","","","","","","","","","","","","","","","win-only","1","g1:NE,g2:SW","0.4","7","0","824240","1322","6326","41528","1","4","4","6","2","4","4","40","36","0.30303030303030304","1131","3000","2025","[""down"",""left""]","{""num_key_presses"":8,""num_perfect"":4,""num_errors"":0,""num_randdir"":4,""num_randdir_good_moves"":3,""num_whilered"":0,""num_whileblue"":0,""num_blue"":4,""num_good_moves"":7}","[412.8214133126395,415.0714362008231,0,412.8214133126395,415.0714362008231,106,412.8214133126395,415.0714362008231,219,412.8214133126395,415.0714362008231,327,412.8214133126395,415.0714362008231,440,491.5714133126395,373.8214362008231,549,125.3214133126395,706.3214362008231,660,31.571413312639507,782.5714362008231,769,25.321413312639507,778.8214362008231,879,29.071413312639507,773.8214362008231,990,29.071413312639507,773.8214362008231,1101,29.071413312639507,773.8214362008231,1212,29.071413312639507,773.8214362008231,1323,29.071413312639507,773.8214362008231,1440,29.071413312639507,773.8214362008231,1552,29.071413312639507,773.8214362008231,1663,29.071413312639507,773.8214362008231,1776,29.071413312639507,773.8214362008231,1888,29.071413312639507,773.8214362008231,1998,29.071413312639507,773.8214362008231,2109,29.071413312639507,773.8214362008231,2221,29.071413312639507,773.8214362008231,2333,29.071413312639507,773.8214362008231,2443,29.071413312639507,773.8214362008231,2555,29.071413312639507,773.8214362008231,2664,29.071413312639507,773.8214362008231,2775,29.071413312639507,773.8214362008231,2886,29.071413312639507,773.8214362008231,2996,29.071413312639507,773.8214362008231,3108,29.071413312639507,773.8214362008231,3222,29.071413312639507,773.8214362008231,3332,29.071413312639507,773.8214362008231,3444,29.071413312639507,773.8214362008231,3555,29.071413312639507,773.8214362008231,3667,29.071413312639507,773.8214362008231,3777,29.071413312639507,773.8214362008231,3890,29.071413312639507,773.8214362008231,4000,29.071413312639507,773.8214362008231,4110,29.071413312639507,773.8214362008231,4225,29.071413312639507,773.8214362008231,4336,29.071413312639507,773.8214362008231,4448,29.071413312639507,773.8214362008231,4561,29.071413312639507,773.8214362008231,4671,29.071413312639507,773.8214362008231,4781,29.071413312639507,773.8214362008231,4893]","[1326,1326,1000,0,326,""oops"",""down"",""down"",""good_move"",3049,1723,1320.8,1326,402.2,""smooth"",""down"",""down"",""good_move"",5620,2571,2154.9,3049,416.1,""oops"",""down"",""right"",""bad_move"",7954,2334,1936.5,5620,397.5,""oops"",""down"",""down"",""good_move"",14827,6873,3007.1,11434,385.9,""smooth"",""left"",""left"",""good_move"",21251,6424,2322.6,18539,389.4,""smooth"",""left"",""left"",""good_move"",24359,3108,2719,21251,389,""oops"",""left"",""left"",""good_move"",34925,10566,2411.4,32050,463.6,""smooth"",""left"",""left"",""good_move""]"
"5648","","<div style=""width:500px;"">
  <p>What determined the result of this run?</p>
  </div>","68","html-slider-response","44","868861","0.0-7.0-1.6","220","1","2025-08-06 21:32:03","36c45c0696341be0efffe67d72a12abb","210.84.40.21","Mozilla/5.0 (Windows NT 10.0; Win64; x64; rv:141.0) Gecko/20100101 Firefox/141.0","","Firefox","141.0","Windows","10.0","https://app.prolific.com/","en-US,en;q=0.5","642cb1f7f42c4e0a6c5d4eef","6877649eabb845cf142cd221","6893c9c2ab6783769e922525","1","642cb1f7f42c4e0a6c5d4eef","1","2025-08-06T21:46:36.502Z","","","","AttribQ","","","","","","","","","","","50","","","","","","","","","","","","","","","","","","","","","","","","","","",""
"4029","","<div style=""width:500px;"">
  <p>How much control did you have over the ball?</p>
  </div>","67","html-slider-response","45","872890","0.0-7.0-2.6","220","1","2025-08-06 21:32:03","36c45c0696341be0efffe67d72a12abb","210.84.40.21","Mozilla/5.0 (Windows NT 10.0; Win64; x64; rv:141.0) Gecko/20100101 Firefox/141.0","","Firefox","141.0","Windows","10.0","https://app.prolific.com/","en-US,en;q=0.5","642cb1f7f42c4e0a6c5d4eef","6877649eabb845cf142cd221","6893c9c2ab6783769e922525","1","642cb1f7f42c4e0a6c5d4eef","1","2025-08-06T21:46:40.531Z","","","","ControlQ","","","","","","","","","","","50","","","","","","","","","","","","","","","","","","","","","","","","","","",""
"3608","","<div style=""width:500px;"">
  <p>How would you describe your current emotional state?</p>
  </div>","39","html-slider-response","46","876500","0.0-7.0-3.6","220","1","2025-08-06 21:32:03","36c45c0696341be0efffe67d72a12abb","210.84.40.21","Mozilla/5.0 (Windows NT 10.0; Win64; x64; rv:141.0) Gecko/20100101 Firefox/141.0","","Firefox","141.0","Windows","10.0","https://app.prolific.com/","en-US,en;q=0.5","642cb1f7f42c4e0a6c5d4eef","6877649eabb845cf142cd221","6893c9c2ab6783769e922525","1","642cb1f7f42c4e0a6c5d4eef","1","2025-08-06T21:46:44.141Z","","","","StressQ","","","","","","","","","","","50","","","","","","","","","","","","","","","","","","","","","","","","","","",""
"2460","","<div style=""width:500px;"">
  <p>What best describes how you currently feel?</p>
  </div>","18","html-slider-response","47","878961","0.0-7.0-4.6","220","1","2025-08-06 21:32:03","36c45c0696341be0efffe67d72a12abb","210.84.40.21","Mozilla/5.0 (Windows NT 10.0; Win64; x64; rv:141.0) Gecko/20100101 Firefox/141.0","","Firefox","141.0","Windows","10.0","https://app.prolific.com/","en-US,en;q=0.5","642cb1f7f42c4e0a6c5d4eef","6877649eabb845cf142cd221","6893c9c2ab6783769e922525","1","642cb1f7f42c4e0a6c5d4eef","1","2025-08-06T21:46:46.602Z","","","","MotivationQ","","","","","","","","","","","50","","","","","","","","","","","","","","","","","","","","","","","","","","",""
"","","","","ctl-task-cpt","48","936217","0.0-7.0-0.7","220","1","2025-08-06 21:32:03","36c45c0696341be0efffe67d72a12abb","210.84.40.21","Mozilla/5.0 (Windows NT 10.0; Win64; x64; rv:141.0) Gecko/20100101 Firefox/141.0","","Firefox","141.0","Windows","10.0","https://app.prolific.com/","en-US,en;q=0.5","642cb1f7f42c4e0a6c5d4eef","6877649eabb845cf142cd221","6893c9c2ab6783769e922525","1","642cb1f7f42c4e0a6c5d4eef","1","2025-08-06T21:47:43.858Z","","","","","","","","","","","","","","","","win-only","2","g1:SE,g2:NW","0.3","8","0","884521","1403","6419","54245","1","4","8","6","2","8","8","48","40","0.36363636363636365","1181","3000","1385","[""left"",""up""]","{""num_key_presses"":14,""num_perfect"":6,""num_errors"":0,""num_randdir"":8,""num_randdir_good_moves"":4,""num_whilered"":0,""num_whileblue"":0,""num_blue"":2,""num_good_moves"":10}","[421.5714133126395,423.8214362008231,0,421.5714133126395,423.8214362008231,115,421.5714133126395,423.8214362008231,227,421.5714133126395,423.8214362008231,339,421.5714133126395,423.8214362008231,452,421.5714133126395,423.8214362008231,564,190.3214133126395,208.8214362008231,665,151.5714133126395,168.8214362008231,768,140.3214133126395,152.5714362008231,879,117.8214133126395,122.5714362008231,991,117.8214133126395,120.0714362008231,1101,117.8214133126395,120.0714362008231,1211,117.8214133126395,120.0714362008231,1323,117.8214133126395,120.0714362008231,1435,117.8214133126395,120.0714362008231,1546,117.8214133126395,120.0714362008231,1660,117.8214133126395,120.0714362008231,1770,117.8214133126395,120.0714362008231,1880,117.8214133126395,120.0714362008231,1991,117.8214133126395,120.0714362008231,2103,117.8214133126395,120.0714362008231,2215,117.8214133126395,120.0714362008231,2327,117.8214133126395,120.0714362008231,2438,117.8214133126395,120.0714362008231,2552,117.8214133126395,120.0714362008231,2665,117.8214133126395,120.0714362008231,2774,117.8214133126395,120.0714362008231,2885,117.8214133126395,120.0714362008231,2999,117.8214133126395,120.0714362008231,3109,117.8214133126395,120.0714362008231,3219,117.8214133126395,120.0714362008231,3330,117.8214133126395,120.0714362008231,3441,117.8214133126395,120.0714362008231,3553,117.8214133126395,120.0714362008231,3655,117.8214133126395,120.0714362008231,3760,117.8214133126395,120.0714362008231,3872,117.8214133126395,120.0714362008231,3982,117.8214133126395,120.0714362008231,4094,117.8214133126395,120.0714362008231,4203,117.8214133126395,120.0714362008231,4314,117.8214133126395,120.0714362008231,4427,117.8214133126395,120.0714362008231,4538,117.8214133126395,120.0714362008231,4650,117.8214133126395,120.0714362008231,4760,117.8214133126395,120.0714362008231,4873,117.8214133126395,120.0714362008231,4983]","[1370,1370,1000,0,370,""smooth"",""up"",""up"",""good_move"",4403,3033,2675.3,1370,357.7,""smooth"",""up"",""up"",""good_move"",7483,3080,2729.9,4403,350.1,""smooth"",""up"",""up"",""good_move"",13978,6495,2439.6,11179,359.4,""oops"",""left"",""right"",""bad_move"",19893,5915,2324.7,17219,349.3,""oops"",""left"",""right"",""bad_move"",23484,3591,3128.3,19893,462.7,""oops"",""left"",""left"",""good_move"",26605,3121,2548.2,23484,572.8,""oops"",""left"",""left"",""good_move"",29684,3079,2513.4,26605,565.6,""oops"",""left"",""left"",""good_move"",32701,3017,2317.5,29684,699.5,""oops"",""left"",""right"",""bad_move"",35768,3067,2734.8,32701,333.2,""oops"",""left"",""down"",""bad_move"",38058,2289,1892.8,35769,396.2,""smooth"",""left"",""left"",""good_move"",41140,3082,2539,38058,543,""smooth"",""left"",""left"",""good_move"",44175,3035,2529.7,41140,505.3,""oops"",""left"",""up"",""good_move"",47526,3351,2909.1,44175,441.9,""smooth"",""left"",""left"",""good_move""]"
"3585","","<div style=""width:500px;"">
  <p>What determined the result of this run?</p>
  </div>","63","html-slider-response","49","939803","0.0-7.0-1.7","220","1","2025-08-06 21:32:03","36c45c0696341be0efffe67d72a12abb","210.84.40.21","Mozilla/5.0 (Windows NT 10.0; Win64; x64; rv:141.0) Gecko/20100101 Firefox/141.0","","Firefox","141.0","Windows","10.0","https://app.prolific.com/","en-US,en;q=0.5","642cb1f7f42c4e0a6c5d4eef","6877649eabb845cf142cd221","6893c9c2ab6783769e922525","1","642cb1f7f42c4e0a6c5d4eef","1","2025-08-06T21:47:47.444Z","","","","AttribQ","","","","","","","","","","","50","","","","","","","","","","","","","","","","","","","","","","","","","","",""
"2245","","<div style=""width:500px;"">
  <p>How much control did you have over the ball?</p>
  </div>","60","html-slider-response","50","942049","0.0-7.0-2.7","220","1","2025-08-06 21:32:03","36c45c0696341be0efffe67d72a12abb","210.84.40.21","Mozilla/5.0 (Windows NT 10.0; Win64; x64; rv:141.0) Gecko/20100101 Firefox/141.0","","Firefox","141.0","Windows","10.0","https://app.prolific.com/","en-US,en;q=0.5","642cb1f7f42c4e0a6c5d4eef","6877649eabb845cf142cd221","6893c9c2ab6783769e922525","1","642cb1f7f42c4e0a6c5d4eef","1","2025-08-06T21:47:49.690Z","","","","ControlQ","","","","","","","","","","","50","","","","","","","","","","","","","","","","","","","","","","","","","","",""
"3206","","<div style=""width:500px;"">
  <p>How would you describe your current emotional state?</p>
  </div>","37","html-slider-response","51","945256","0.0-7.0-3.7","220","1","2025-08-06 21:32:03","36c45c0696341be0efffe67d72a12abb","210.84.40.21","Mozilla/5.0 (Windows NT 10.0; Win64; x64; rv:141.0) Gecko/20100101 Firefox/141.0","","Firefox","141.0","Windows","10.0","https://app.prolific.com/","en-US,en;q=0.5","642cb1f7f42c4e0a6c5d4eef","6877649eabb845cf142cd221","6893c9c2ab6783769e922525","1","642cb1f7f42c4e0a6c5d4eef","1","2025-08-06T21:47:52.897Z","","","","StressQ","","","","","","","","","","","50","","","","","","","","","","","","","","","","","","","","","","","","","","",""
"2128","","<div style=""width:500px;"">
  <p>What best describes how you currently feel?</p>
  </div>","15","html-slider-response","52","947386","0.0-7.0-4.7","220","1","2025-08-06 21:32:03","36c45c0696341be0efffe67d72a12abb","210.84.40.21","Mozilla/5.0 (Windows NT 10.0; Win64; x64; rv:141.0) Gecko/20100101 Firefox/141.0","","Firefox","141.0","Windows","10.0","https://app.prolific.com/","en-US,en;q=0.5","642cb1f7f42c4e0a6c5d4eef","6877649eabb845cf142cd221","6893c9c2ab6783769e922525","1","642cb1f7f42c4e0a6c5d4eef","1","2025-08-06T21:47:55.027Z","","","","MotivationQ","","","","","","","","","","","50","","","","","","","","","","","","","","","","","","","","","","","","","","",""
"","","","","ctl-task-cpt","53","1015457","0.0-7.0-0.8","220","1","2025-08-06 21:32:03","36c45c0696341be0efffe67d72a12abb","210.84.40.21","Mozilla/5.0 (Windows NT 10.0; Win64; x64; rv:141.0) Gecko/20100101 Firefox/141.0","","Firefox","141.0","Windows","10.0","https://app.prolific.com/","en-US,en;q=0.5","642cb1f7f42c4e0a6c5d4eef","6877649eabb845cf142cd221","6893c9c2ab6783769e922525","1","642cb1f7f42c4e0a6c5d4eef","1","2025-08-06T21:49:03.098Z","","","","","","","","","","","","","","","","win-only","1","g1:NE,g2:SW","0.4","9","0","952947","1287","6297","65060","1","4","4","6","2","4","3","51","48","0.38636363636363635","974","3000","1315","[""down"",""left""]","{""num_key_presses"":16,""num_perfect"":8,""num_errors"":1,""num_randdir"":7,""num_randdir_good_moves"":3,""num_whilered"":0,""num_whileblue"":1,""num_blue"":5,""num_good_moves"":11}","[419.0714133126395,420.0714362008231,0,419.0714133126395,420.0714362008231,110,419.0714133126395,420.0714362008231,221,419.0714133126395,420.0714362008231,332,419.0714133126395,420.0714362008231,443,187.8214133126395,665.0714362008231,554,99.0714133126395,733.8214362008231,664,52.82141331263951,748.8214362008231,775,44.07141331263951,751.3214362008231,888,44.07141331263951,751.3214362008231,997,44.07141331263951,751.3214362008231,1107,44.07141331263951,751.3214362008231,1219,44.07141331263951,751.3214362008231,1331,44.07141331263951,751.3214362008231,1443,44.07141331263951,751.3214362008231,1554,44.07141331263951,751.3214362008231,1666,44.07141331263951,751.3214362008231,1777,44.07141331263951,751.3214362008231,1888,44.07141331263951,751.3214362008231,1999,44.07141331263951,751.3214362008231,2109,44.07141331263951,751.3214362008231,2221,44.07141331263951,751.3214362008231,2332,44.07141331263951,751.3214362008231,2444,44.07141331263951,751.3214362008231,2555,44.07141331263951,751.3214362008231,2656,44.07141331263951,751.3214362008231,2764,44.07141331263951,751.3214362008231,2875,44.07141331263951,751.3214362008231,2977,44.07141331263951,751.3214362008231,3081,44.07141331263951,751.3214362008231,3194,44.07141331263951,751.3214362008231,3305,44.07141331263951,751.3214362008231,3415,44.07141331263951,751.3214362008231,3527,44.07141331263951,751.3214362008231,3641,44.07141331263951,751.3214362008231,3753,44.07141331263951,751.3214362008231,3862,44.07141331263951,751.3214362008231,3975,44.07141331263951,751.3214362008231,4088,44.07141331263951,751.3214362008231,4195,44.07141331263951,751.3214362008231,4308,44.07141331263951,751.3214362008231,4419,44.07141331263951,751.3214362008231,4531,44.07141331263951,751.3214362008231,4642,44.07141331263951,751.3214362008231,4758,44.07141331263951,751.3214362008231,4864,44.07141331263951,751.3214362008231,4977]","[1381,1381,1000,0,381,""smooth"",""down"",""down"",""good_move"",7130,5749,2031.2,4685,413.8,""oops"",""down"",""left"",""good_move"",13769,6639,2568.6,10838,362.4,""oops"",""down"",""up"",""bad_move"",17122,3353,3001.9,13769,351.1,""smooth"",""down"",""down"",""good_move"",20064,2942,2568.7,17122,373.3,""smooth"",""down"",""down"",""good_move"",22622,2558,2199.9,20064,358.1,""smooth"",""down"",""down"",""good_move"",24960,2338,1956.6,22622,381.4,""oops"",""left"",""right"",""bad_move"",28362,3402,3028.1,24960,373.9,""oops"",""left"",""right"",""bad_move"",31084,2722,2357,28362,365,""while_blue"",""left"",""up"",""bad_move"",34091,3007,2025.5,31085,980.5,""oops"",""down"",""up"",""bad_move"",37139,3048,2493.1,34091,554.9,""oops"",""down"",""left"",""good_move"",40835,3696,3330.6,37139,365.4,""smooth"",""down"",""down"",""good_move"",43578,2743,2354.5,40835,388.5,""smooth"",""down"",""down"",""good_move"",48952,5373,1498.8,47020,433.2,""smooth"",""left"",""left"",""good_move"",55424,6472,2437.7,52657,329.3,""smooth"",""left"",""left"",""good_move"",58490,3066,1966.3,55424,1099.7,""oops"",""left"",""left"",""good_move""]"
"2960","","<div style=""width:500px;"">
  <p>What determined the result of this run?</p>
  </div>","59","html-slider-response","54","1018419","0.0-7.0-1.8","220","1","2025-08-06 21:32:03","36c45c0696341be0efffe67d72a12abb","210.84.40.21","Mozilla/5.0 (Windows NT 10.0; Win64; x64; rv:141.0) Gecko/20100101 Firefox/141.0","","Firefox","141.0","Windows","10.0","https://app.prolific.com/","en-US,en;q=0.5","642cb1f7f42c4e0a6c5d4eef","6877649eabb845cf142cd221","6893c9c2ab6783769e922525","1","642cb1f7f42c4e0a6c5d4eef","1","2025-08-06T21:49:06.060Z","","","","AttribQ","","","","","","","","","","","50","","","","","","","","","","","","","","","","","","","","","","","","","","",""
"2582","","<div style=""width:500px;"">
  <p>How much control did you have over the ball?</p>
  </div>","57","html-slider-response","55","1021002","0.0-7.0-2.8","220","1","2025-08-06 21:32:03","36c45c0696341be0efffe67d72a12abb","210.84.40.21","Mozilla/5.0 (Windows NT 10.0; Win64; x64; rv:141.0) Gecko/20100101 Firefox/141.0","","Firefox","141.0","Windows","10.0","https://app.prolific.com/","en-US,en;q=0.5","642cb1f7f42c4e0a6c5d4eef","6877649eabb845cf142cd221","6893c9c2ab6783769e922525","1","642cb1f7f42c4e0a6c5d4eef","1","2025-08-06T21:49:08.643Z","","","","ControlQ","","","","","","","","","","","50","","","","","","","","","","","","","","","","","","","","","","","","","","",""
"2909","","<div style=""width:500px;"">
  <p>How would you describe your current emotional state?</p>
  </div>","41","html-slider-response","56","1023914","0.0-7.0-3.8","220","1","2025-08-06 21:32:03","36c45c0696341be0efffe67d72a12abb","210.84.40.21","Mozilla/5.0 (Windows NT 10.0; Win64; x64; rv:141.0) Gecko/20100101 Firefox/141.0","","Firefox","141.0","Windows","10.0","https://app.prolific.com/","en-US,en;q=0.5","642cb1f7f42c4e0a6c5d4eef","6877649eabb845cf142cd221","6893c9c2ab6783769e922525","1","642cb1f7f42c4e0a6c5d4eef","1","2025-08-06T21:49:11.555Z","","","","StressQ","","","","","","","","","","","50","","","","","","","","","","","","","","","","","","","","","","","","","","",""
"3363","","<div style=""width:500px;"">
  <p>What best describes how you currently feel?</p>
  </div>","17","html-slider-response","57","1027279","0.0-7.0-4.8","220","1","2025-08-06 21:32:03","36c45c0696341be0efffe67d72a12abb","210.84.40.21","Mozilla/5.0 (Windows NT 10.0; Win64; x64; rv:141.0) Gecko/20100101 Firefox/141.0","","Firefox","141.0","Windows","10.0","https://app.prolific.com/","en-US,en;q=0.5","642cb1f7f42c4e0a6c5d4eef","6877649eabb845cf142cd221","6893c9c2ab6783769e922525","1","642cb1f7f42c4e0a6c5d4eef","1","2025-08-06T21:49:14.920Z","","","","MotivationQ","","","","","","","","","","","50","","","","","","","","","","","","","","","","","","","","","","","","","","",""
"","","","","ctl-task-cpt","58","1057290","0.0-7.0-0.9","220","1","2025-08-06 21:32:03","36c45c0696341be0efffe67d72a12abb","210.84.40.21","Mozilla/5.0 (Windows NT 10.0; Win64; x64; rv:141.0) Gecko/20100101 Firefox/141.0","","Firefox","141.0","Windows","10.0","https://app.prolific.com/","en-US,en;q=0.5","642cb1f7f42c4e0a6c5d4eef","6877649eabb845cf142cd221","6893c9c2ab6783769e922525","1","642cb1f7f42c4e0a6c5d4eef","1","2025-08-06T21:49:44.931Z","","","","","","","","","","","","","","","","win-only","1","g1:NE,g2:SW","0.5","10","0","1032839","1114","6125","26996","1","4","8","6","2","8","8","59","51","0.44696969696969696","1107","3000","2130","[""down"",""left""]","{""num_key_presses"":8,""num_perfect"":5,""num_errors"":0,""num_randdir"":3,""num_randdir_good_moves"":2,""num_whilered"":0,""num_whileblue"":0,""num_blue"":0,""num_good_moves"":7}","[414.0714133126395,426.3214362008231,0,414.0714133126395,426.3214362008231,110,414.0714133126395,426.3214362008231,223,414.0714133126395,426.3214362008231,333,414.0714133126395,426.3214362008231,446,331.5714133126395,503.8214362008231,559,254.0714133126395,571.3214362008231,671,154.0714133126395,653.8214362008231,779,91.5714133126395,737.5714362008231,890,91.5714133126395,738.8214362008231,1000,91.5714133126395,738.8214362008231,1112,91.5714133126395,738.8214362008231,1224,91.5714133126395,738.8214362008231,1333,91.5714133126395,738.8214362008231,1447,91.5714133126395,738.8214362008231,1557,91.5714133126395,738.8214362008231,1672,91.5714133126395,738.8214362008231,1782,91.5714133126395,738.8214362008231,1893,91.5714133126395,738.8214362008231,2006,91.5714133126395,738.8214362008231,2115,91.5714133126395,738.8214362008231,2228,91.5714133126395,738.8214362008231,2339,91.5714133126395,738.8214362008231,2449,91.5714133126395,738.8214362008231,2559,91.5714133126395,738.8214362008231,2673,91.5714133126395,738.8214362008231,2784,91.5714133126395,738.8214362008231,2896,91.5714133126395,738.8214362008231,3007,91.5714133126395,738.8214362008231,3117,91.5714133126395,738.8214362008231,3229,91.5714133126395,738.8214362008231,3339,91.5714133126395,738.8214362008231,3439,91.5714133126395,738.8214362008231,3546,91.5714133126395,738.8214362008231,3657,91.5714133126395,738.8214362008231,3770,91.5714133126395,738.8214362008231,3882,91.5714133126395,738.8214362008231,3995,91.5714133126395,738.8214362008231,4106,91.5714133126395,738.8214362008231,4216,91.5714133126395,738.8214362008231,4328,91.5714133126395,738.8214362008231,4443,91.5714133126395,738.8214362008231,4551,91.5714133126395,738.8214362008231,4662,91.5714133126395,738.8214362008231,4774,91.5714133126395,738.8214362008231,4884,91.5714133126395,738.8214362008231,4996]","[1419,1419,1000,0,419,""oops"",""down"",""left"",""good_move"",4465,3046,2119.4,1419,926.6,""oops"",""down"",""up"",""bad_move"",7555,3090,2743.4,4465,346.6,""smooth"",""down"",""down"",""good_move"",9804,2249,1848.9,7555,400.1,""smooth"",""down"",""down"",""good_move"",12386,2582,2247.2,9804,334.8,""oops"",""down"",""down"",""good_move"",14930,2544,2217.9,12386,326.1,""smooth"",""down"",""down"",""good_move"",17535,2605,2264.3,14930,340.7,""smooth"",""left"",""left"",""good_move"",20573,3038,2190.5,17535,847.5,""smooth"",""left"",""left"",""good_move""]"
"5882","","<div style=""width:500px;"">
  <p>What determined the result of this run?</p>
  </div>","66","html-slider-response","59","1063172","0.0-7.0-1.9","220","1","2025-08-06 21:32:03","36c45c0696341be0efffe67d72a12abb","210.84.40.21","Mozilla/5.0 (Windows NT 10.0; Win64; x64; rv:141.0) Gecko/20100101 Firefox/141.0","","Firefox","141.0","Windows","10.0","https://app.prolific.com/","en-US,en;q=0.5","642cb1f7f42c4e0a6c5d4eef","6877649eabb845cf142cd221","6893c9c2ab6783769e922525","1","642cb1f7f42c4e0a6c5d4eef","1","2025-08-06T21:49:50.814Z","","","","AttribQ","","","","","","","","","","","50","","","","","","","","","","","","","","","","","","","","","","","","","","",""
"2591","","<div style=""width:500px;"">
  <p>How much control did you have over the ball?</p>
  </div>","65","html-slider-response","60","1065765","0.0-7.0-2.9","220","1","2025-08-06 21:32:03","36c45c0696341be0efffe67d72a12abb","210.84.40.21","Mozilla/5.0 (Windows NT 10.0; Win64; x64; rv:141.0) Gecko/20100101 Firefox/141.0","","Firefox","141.0","Windows","10.0","https://app.prolific.com/","en-US,en;q=0.5","642cb1f7f42c4e0a6c5d4eef","6877649eabb845cf142cd221","6893c9c2ab6783769e922525","1","642cb1f7f42c4e0a6c5d4eef","1","2025-08-06T21:49:53.406Z","","","","ControlQ","","","","","","","","","","","50","","","","","","","","","","","","","","","","","","","","","","","","","","",""
"3172","","<div style=""width:500px;"">
  <p>How would you describe your current emotional state?</p>
  </div>","36","html-slider-response","61","1068938","0.0-7.0-3.9","220","1","2025-08-06 21:32:03","36c45c0696341be0efffe67d72a12abb","210.84.40.21","Mozilla/5.0 (Windows NT 10.0; Win64; x64; rv:141.0) Gecko/20100101 Firefox/141.0","","Firefox","141.0","Windows","10.0","https://app.prolific.com/","en-US,en;q=0.5","642cb1f7f42c4e0a6c5d4eef","6877649eabb845cf142cd221","6893c9c2ab6783769e922525","1","642cb1f7f42c4e0a6c5d4eef","1","2025-08-06T21:49:56.579Z","","","","StressQ","","","","","","","","","","","50","","","","","","","","","","","","","","","","","","","","","","","","","","",""
"2878","","<div style=""width:500px;"">
  <p>What best describes how you currently feel?</p>
  </div>","16","html-slider-response","62","1071818","0.0-7.0-4.9","220","1","2025-08-06 21:32:03","36c45c0696341be0efffe67d72a12abb","210.84.40.21","Mozilla/5.0 (Windows NT 10.0; Win64; x64; rv:141.0) Gecko/20100101 Firefox/141.0","","Firefox","141.0","Windows","10.0","https://app.prolific.com/","en-US,en;q=0.5","642cb1f7f42c4e0a6c5d4eef","6877649eabb845cf142cd221","6893c9c2ab6783769e922525","1","642cb1f7f42c4e0a6c5d4eef","1","2025-08-06T21:49:59.459Z","","","","MotivationQ","","","","","","","","","","","50","","","","","","","","","","","","","","","","","","","","","","","","","","",""
"","","","","ctl-task-cpt","63","1117057","0.0-7.0-0.10","220","1","2025-08-06 21:32:03","36c45c0696341be0efffe67d72a12abb","210.84.40.21","Mozilla/5.0 (Windows NT 10.0; Win64; x64; rv:141.0) Gecko/20100101 Firefox/141.0","","Firefox","141.0","Windows","10.0","https://app.prolific.com/","en-US,en;q=0.5","642cb1f7f42c4e0a6c5d4eef","6877649eabb845cf142cd221","6893c9c2ab6783769e922525","1","642cb1f7f42c4e0a6c5d4eef","1","2025-08-06T21:50:44.699Z","","","","","","","","","","","","","","","","win-only","2","g1:SE,g2:NW","0.6","11","0","1077379","1563","6576","42231","1","4","8","6","2","8","7","66","59","0.5","905","3000","1995","[""left"",""up""]","{""num_key_presses"":10,""num_perfect"":6,""num_errors"":1,""num_randdir"":3,""num_randdir_good_moves"":2,""num_whilered"":0,""num_whileblue"":1,""num_blue"":3,""num_good_moves"":8}","[415.3214133126395,413.8214362008231,0,415.3214133126395,413.8214362008231,104,415.3214133126395,413.8214362008231,220,415.3214133126395,413.8214362008231,328,324.0714133126395,310.0714362008231,439,116.5714133126395,65.0714362008231,550,86.5714133126395,38.8214362008231,652,84.0714133126395,40.0714362008231,760,84.0714133126395,40.0714362008231,871,84.0714133126395,40.0714362008231,981,84.0714133126395,40.0714362008231,1092,84.0714133126395,40.0714362008231,1202,84.0714133126395,40.0714362008231,1315,84.0714133126395,40.0714362008231,1426,84.0714133126395,40.0714362008231,1537,84.0714133126395,40.0714362008231,1656,84.0714133126395,40.0714362008231,1760,84.0714133126395,40.0714362008231,1874,84.0714133126395,40.0714362008231,1985,84.0714133126395,40.0714362008231,2095,84.0714133126395,40.0714362008231,2207,84.0714133126395,40.0714362008231,2322,84.0714133126395,40.0714362008231,2429,84.0714133126395,40.0714362008231,2541,84.0714133126395,40.0714362008231,2655,84.0714133126395,40.0714362008231,2765,84.0714133126395,40.0714362008231,2878,84.0714133126395,40.0714362008231,2988,84.0714133126395,40.0714362008231,3101,84.0714133126395,40.0714362008231,3212,84.0714133126395,40.0714362008231,3324,84.0714133126395,40.0714362008231,3437,84.0714133126395,40.0714362008231,3547,84.0714133126395,40.0714362008231,3660,84.0714133126395,40.0714362008231,3770,84.0714133126395,40.0714362008231,3871,84.0714133126395,40.0714362008231,3977,84.0714133126395,40.0714362008231,4087,84.0714133126395,40.0714362008231,4202,84.0714133126395,40.0714362008231,4314,84.0714133126395,40.0714362008231,4425,84.0714133126395,40.0714362008231,4535,84.0714133126395,40.0714362008231,4647,84.0714133126395,40.0714362008231,4758,84.0714133126395,40.0714362008231,4870,84.0714133126395,40.0714362008231,4984]","[8606,8606,2268.1,5920,417.9,""oops"",""up"",""right"",""bad_move"",11202,2596,2178.1,8606,417.9,""smooth"",""up"",""up"",""good_move"",14238,3035,2072.7,11203,962.3,""smooth"",""up"",""up"",""good_move"",17274,3036,2116.6,14238,919.4,""oops"",""up"",""left"",""good_move"",20320,3046,2135.8,17274,910.2,""smooth"",""up"",""up"",""good_move"",23362,3041,2572.1,20321,468.9,""smooth"",""left"",""left"",""good_move"",26487,3125,2770.6,23362,354.4,""smooth"",""left"",""left"",""good_move"",29515,3028,2706,26487,322,""while_blue"",""left"",""right"",""bad_move"",32312,2796,2391.8,29516,404.2,""smooth"",""left"",""left"",""good_move"",35369,3056,2374.8,32313,681.2,""oops"",""left"",""left"",""good_move""]"
"3780","","<div style=""width:500px;"">
  <p>What determined the result of this run?</p>
  </div>","68","html-slider-response","64","1120838","0.0-7.0-1.10","220","1","2025-08-06 21:32:03","36c45c0696341be0efffe67d72a12abb","210.84.40.21","Mozilla/5.0 (Windows NT 10.0; Win64; x64; rv:141.0) Gecko/20100101 Firefox/141.0","","Firefox","141.0","Windows","10.0","https://app.prolific.com/","en-US,en;q=0.5","642cb1f7f42c4e0a6c5d4eef","6877649eabb845cf142cd221","6893c9c2ab6783769e922525","1","642cb1f7f42c4e0a6c5d4eef","1","2025-08-06T21:50:48.479Z","","","","AttribQ","","","","","","","","","","","50","","","","","","","","","","","","","","","","","","","","","","","","","","",""
"3281","","<div style=""width:500px;"">
  <p>How much control did you have over the ball?</p>
  </div>","50","html-slider-response","65","1124121","0.0-7.0-2.10","220","1","2025-08-06 21:32:03","36c45c0696341be0efffe67d72a12abb","210.84.40.21","Mozilla/5.0 (Windows NT 10.0; Win64; x64; rv:141.0) Gecko/20100101 Firefox/141.0","","Firefox","141.0","Windows","10.0","https://app.prolific.com/","en-US,en;q=0.5","642cb1f7f42c4e0a6c5d4eef","6877649eabb845cf142cd221","6893c9c2ab6783769e922525","1","642cb1f7f42c4e0a6c5d4eef","1","2025-08-06T21:50:51.762Z","","","","ControlQ","","","","","","","","","","","50","","","","","","","","","","","","","","","","","","","","","","","","","","",""
"5584","","<div style=""width:500px;"">
  <p>How would you describe your current emotional state?</p>
  </div>","43","html-slider-response","66","1129707","0.0-7.0-3.10","220","1","2025-08-06 21:32:03","36c45c0696341be0efffe67d72a12abb","210.84.40.21","Mozilla/5.0 (Windows NT 10.0; Win64; x64; rv:141.0) Gecko/20100101 Firefox/141.0","","Firefox","141.0","Windows","10.0","https://app.prolific.com/","en-US,en;q=0.5","642cb1f7f42c4e0a6c5d4eef","6877649eabb845cf142cd221","6893c9c2ab6783769e922525","1","642cb1f7f42c4e0a6c5d4eef","1","2025-08-06T21:50:57.348Z","","","","StressQ","","","","","","","","","","","50","","","","","","","","","","","","","","","","","","","","","","","","","","",""
"2611","","<div style=""width:500px;"">
  <p>What best describes how you currently feel?</p>
  </div>","15","html-slider-response","67","1132318","0.0-7.0-4.10","220","1","2025-08-06 21:32:03","36c45c0696341be0efffe67d72a12abb","210.84.40.21","Mozilla/5.0 (Windows NT 10.0; Win64; x64; rv:141.0) Gecko/20100101 Firefox/141.0","","Firefox","141.0","Windows","10.0","https://app.prolific.com/","en-US,en;q=0.5","642cb1f7f42c4e0a6c5d4eef","6877649eabb845cf142cd221","6893c9c2ab6783769e922525","1","642cb1f7f42c4e0a6c5d4eef","1","2025-08-06T21:50:59.960Z","","","","MotivationQ","","","","","","","","","","","50","","","","","","","","","","","","","","","","","","","","","","","","","","",""
"","","","","ctl-task-cpt","68","1161526","0.0-7.0-0.11","220","1","2025-08-06 21:32:03","36c45c0696341be0efffe67d72a12abb","210.84.40.21","Mozilla/5.0 (Windows NT 10.0; Win64; x64; rv:141.0) Gecko/20100101 Firefox/141.0","","Firefox","141.0","Windows","10.0","https://app.prolific.com/","en-US,en;q=0.5","642cb1f7f42c4e0a6c5d4eef","6877649eabb845cf142cd221","6893c9c2ab6783769e922525","1","642cb1f7f42c4e0a6c5d4eef","1","2025-08-06T21:51:29.167Z","","","","","","","","","","","","","","","","win-only","3","g1:SW,g2:NE","0.7","12","0","1137878","1329","6341","26200","1","4","4","6","2","4","4","70","66","0.5303030303030303","1208","3000","2385","[""up"",""right""]","{""num_key_presses"":6,""num_perfect"":6,""num_errors"":0,""num_randdir"":0,""num_randdir_good_moves"":0,""num_whilered"":0,""num_whileblue"":0,""num_blue"":1,""num_good_moves"":6}","[414.0714133126395,423.8214362008231,0,414.0714133126395,423.8214362008231,110,414.0714133126395,423.8214362008231,212,414.0714133126395,423.8214362008231,316,414.0714133126395,423.8214362008231,428,271.5714133126395,538.8214362008231,540,344.0714133126395,481.3214362008231,649,751.5714133126395,193.8214362008231,761,755.3214133126395,171.3214362008231,874,764.0714133126395,118.8214362008231,982,775.3214133126395,83.8214362008231,1093,775.3214133126395,83.8214362008231,1205,775.3214133126395,83.8214362008231,1317,775.3214133126395,83.8214362008231,1428,775.3214133126395,83.8214362008231,1540,775.3214133126395,83.8214362008231,1651,775.3214133126395,83.8214362008231,1763,775.3214133126395,83.8214362008231,1873,775.3214133126395,83.8214362008231,1984,775.3214133126395,83.8214362008231,2096,775.3214133126395,83.8214362008231,2206,775.3214133126395,83.8214362008231,2319,775.3214133126395,83.8214362008231,2429,775.3214133126395,83.8214362008231,2541,775.3214133126395,83.8214362008231,2652,775.3214133126395,83.8214362008231,2765,775.3214133126395,83.8214362008231,2876,775.3214133126395,83.8214362008231,2989,775.3214133126395,83.8214362008231,3099,775.3214133126395,83.8214362008231,3211,775.3214133126395,83.8214362008231,3324,775.3214133126395,83.8214362008231,3434,775.3214133126395,83.8214362008231,3549,775.3214133126395,83.8214362008231,3656,775.3214133126395,83.8214362008231,3769,775.3214133126395,83.8214362008231,3880,775.3214133126395,83.8214362008231,3991,775.3214133126395,83.8214362008231,4102,775.3214133126395,83.8214362008231,4214,775.3214133126395,83.8214362008231,4326,775.3214133126395,83.8214362008231,4439,775.3214133126395,83.8214362008231,4549,775.3214133126395,83.8214362008231,4659,775.3214133126395,83.8214362008231,4773,775.3214133126395,83.8214362008231,4883,775.3214133126395,83.8214362008231,4985]","[4811,4811,2490.1,2005,315.9,""smooth"",""up"",""up"",""good_move"",7881,3070,2478.5,4811,591.5,""smooth"",""up"",""up"",""good_move"",10903,3022,2658.2,7881,363.8,""smooth"",""up"",""up"",""good_move"",13958,3055,2404.3,10903,650.7,""smooth"",""right"",""right"",""good_move"",16555,2597,2255.6,13958,341.4,""smooth"",""right"",""right"",""good_move"",19557,3002,2663.3,16555,338.7,""smooth"",""right"",""right"",""good_move""]"
"2403","","<div style=""width:500px;"">
  <p>What determined the result of this run?</p>
  </div>","76","html-slider-response","69","1163931","0.0-7.0-1.11","220","1","2025-08-06 21:32:03","36c45c0696341be0efffe67d72a12abb","210.84.40.21","Mozilla/5.0 (Windows NT 10.0; Win64; x64; rv:141.0) Gecko/20100101 Firefox/141.0","","Firefox","141.0","Windows","10.0","https://app.prolific.com/","en-US,en;q=0.5","642cb1f7f42c4e0a6c5d4eef","6877649eabb845cf142cd221","6893c9c2ab6783769e922525","1","642cb1f7f42c4e0a6c5d4eef","1","2025-08-06T21:51:31.572Z","","","","AttribQ","","","","","","","","","","","50","","","","","","","","","","","","","","","","","","","","","","","","","","",""
"2397","","<div style=""width:500px;"">
  <p>How much control did you have over the ball?</p>
  </div>","71","html-slider-response","70","1166329","0.0-7.0-2.11","220","1","2025-08-06 21:32:03","36c45c0696341be0efffe67d72a12abb","210.84.40.21","Mozilla/5.0 (Windows NT 10.0; Win64; x64; rv:141.0) Gecko/20100101 Firefox/141.0","","Firefox","141.0","Windows","10.0","https://app.prolific.com/","en-US,en;q=0.5","642cb1f7f42c4e0a6c5d4eef","6877649eabb845cf142cd221","6893c9c2ab6783769e922525","1","642cb1f7f42c4e0a6c5d4eef","1","2025-08-06T21:51:33.970Z","","","","ControlQ","","","","","","","","","","","50","","","","","","","","","","","","","","","","","","","","","","","","","","",""
"2604","","<div style=""width:500px;"">
  <p>How would you describe your current emotional state?</p>
  </div>","44","html-slider-response","71","1168936","0.0-7.0-3.11","220","1","2025-08-06 21:32:03","36c45c0696341be0efffe67d72a12abb","210.84.40.21","Mozilla/5.0 (Windows NT 10.0; Win64; x64; rv:141.0) Gecko/20100101 Firefox/141.0","","Firefox","141.0","Windows","10.0","https://app.prolific.com/","en-US,en;q=0.5","642cb1f7f42c4e0a6c5d4eef","6877649eabb845cf142cd221","6893c9c2ab6783769e922525","1","642cb1f7f42c4e0a6c5d4eef","1","2025-08-06T21:51:36.577Z","","","","StressQ","","","","","","","","","","","50","","","","","","","","","","","","","","","","","","","","","","","","","","",""
"2595","","<div style=""width:500px;"">
  <p>What best describes how you currently feel?</p>
  </div>","15","html-slider-response","72","1171533","0.0-7.0-4.11","220","1","2025-08-06 21:32:03","36c45c0696341be0efffe67d72a12abb","210.84.40.21","Mozilla/5.0 (Windows NT 10.0; Win64; x64; rv:141.0) Gecko/20100101 Firefox/141.0","","Firefox","141.0","Windows","10.0","https://app.prolific.com/","en-US,en;q=0.5","642cb1f7f42c4e0a6c5d4eef","6877649eabb845cf142cd221","6893c9c2ab6783769e922525","1","642cb1f7f42c4e0a6c5d4eef","1","2025-08-06T21:51:39.174Z","","","","MotivationQ","","","","","","","","","","","50","","","","","","","","","","","","","","","","","","","","","","","","","","",""
"","","","","ctl-task-cpt","73","1198198","0.0-7.0-0.12","220","1","2025-08-06 21:32:03","36c45c0696341be0efffe67d72a12abb","210.84.40.21","Mozilla/5.0 (Windows NT 10.0; Win64; x64; rv:141.0) Gecko/20100101 Firefox/141.0","","Firefox","141.0","Windows","10.0","https://app.prolific.com/","en-US,en;q=0.5","642cb1f7f42c4e0a6c5d4eef","6877649eabb845cf142cd221","6893c9c2ab6783769e922525","1","642cb1f7f42c4e0a6c5d4eef","1","2025-08-06T21:52:05.839Z","","","","","","","","","","","","","","","","win-only","3","g1:SW,g2:NE","0.8","13","0","1177094","1861","6865","23650","1","4","8","6","2","8","8","78","70","0.5909090909090909","1143","3000","2380","[""up"",""right""]","{""num_key_presses"":6,""num_perfect"":6,""num_errors"":0,""num_randdir"":0,""num_randdir_good_moves"":0,""num_whilered"":0,""num_whileblue"":0,""num_blue"":0,""num_good_moves"":6}","[422.8214133126395,423.8214362008231,0,422.8214133126395,423.8214362008231,106,422.8214133126395,423.8214362008231,216,422.8214133126395,423.8214362008231,328,422.8214133126395,423.8214362008231,443,422.8214133126395,423.8214362008231,554,774.0714133126395,83.8214362008231,664,784.0714133126395,78.8214362008231,764,806.5714133126395,58.8214362008231,870,785.3214133126395,71.3214362008231,982,785.3214133126395,71.3214362008231,1093,785.3214133126395,71.3214362008231,1204,785.3214133126395,71.3214362008231,1317,785.3214133126395,71.3214362008231,1429,785.3214133126395,71.3214362008231,1541,785.3214133126395,71.3214362008231,1653,785.3214133126395,71.3214362008231,1753,785.3214133126395,71.3214362008231,1861,785.3214133126395,71.3214362008231,1970,785.3214133126395,71.3214362008231,2082,785.3214133126395,71.3214362008231,2195,785.3214133126395,71.3214362008231,2306,785.3214133126395,71.3214362008231,2419,785.3214133126395,71.3214362008231,2531,785.3214133126395,71.3214362008231,2644,785.3214133126395,71.3214362008231,2758,785.3214133126395,71.3214362008231,2869,785.3214133126395,71.3214362008231,2979,785.3214133126395,71.3214362008231,3089,785.3214133126395,71.3214362008231,3202,785.3214133126395,71.3214362008231,3313,785.3214133126395,71.3214362008231,3425,785.3214133126395,71.3214362008231,3537,785.3214133126395,71.3214362008231,3649,785.3214133126395,71.3214362008231,3761,785.3214133126395,71.3214362008231,3870,785.3214133126395,71.3214362008231,3982,785.3214133126395,71.3214362008231,4095,785.3214133126395,71.3214362008231,4205,785.3214133126395,71.3214362008231,4317,785.3214133126395,71.3214362008231,4427,785.3214133126395,71.3214362008231,4529,785.3214133126395,71.3214362008231,4635,785.3214133126395,71.3214362008231,4745,785.3214133126395,71.3214362008231,4845,785.3214133126395,71.3214362008231,4954]","[1364,1364,1000,0,364,""smooth"",""up"",""up"",""good_move"",4469,3105,2530.5,1364,574.5,""smooth"",""up"",""up"",""good_move"",7532,3063,2553,4469,510,""smooth"",""up"",""up"",""good_move"",10886,3354,3057.2,7532,296.8,""smooth"",""right"",""right"",""good_move"",13440,2553,2241.5,10887,311.5,""smooth"",""right"",""right"",""good_move"",16495,3055,2735.3,13440,319.7,""smooth"",""right"",""right"",""good_move""]"
"3998","","<div style=""width:500px;"">
  <p>What determined the result of this run?</p>
  </div>","67","html-slider-response","74","1202201","0.0-7.0-1.12","220","1","2025-08-06 21:32:03","36c45c0696341be0efffe67d72a12abb","210.84.40.21","Mozilla/5.0 (Windows NT 10.0; Win64; x64; rv:141.0) Gecko/20100101 Firefox/141.0","","Firefox","141.0","Windows","10.0","https://app.prolific.com/","en-US,en;q=0.5","642cb1f7f42c4e0a6c5d4eef","6877649eabb845cf142cd221","6893c9c2ab6783769e922525","1","642cb1f7f42c4e0a6c5d4eef","1","2025-08-06T21:52:09.842Z","","","","AttribQ","","","","","","","","","","","50","","","","","","","","","","","","","","","","","","","","","","","","","","",""
"3426","","<div style=""width:500px;"">
  <p>How much control did you have over the ball?</p>
  </div>","69","html-slider-response","75","1205628","0.0-7.0-2.12","220","1","2025-08-06 21:32:03","36c45c0696341be0efffe67d72a12abb","210.84.40.21","Mozilla/5.0 (Windows NT 10.0; Win64; x64; rv:141.0) Gecko/20100101 Firefox/141.0","","Firefox","141.0","Windows","10.0","https://app.prolific.com/","en-US,en;q=0.5","642cb1f7f42c4e0a6c5d4eef","6877649eabb845cf142cd221","6893c9c2ab6783769e922525","1","642cb1f7f42c4e0a6c5d4eef","1","2025-08-06T21:52:13.269Z","","","","ControlQ","","","","","","","","","","","50","","","","","","","","","","","","","","","","","","","","","","","","","","",""
"4229","","<div style=""width:500px;"">
  <p>How would you describe your current emotional state?</p>
  </div>","39","html-slider-response","76","1209859","0.0-7.0-3.12","220","1","2025-08-06 21:32:03","36c45c0696341be0efffe67d72a12abb","210.84.40.21","Mozilla/5.0 (Windows NT 10.0; Win64; x64; rv:141.0) Gecko/20100101 Firefox/141.0","","Firefox","141.0","Windows","10.0","https://app.prolific.com/","en-US,en;q=0.5","642cb1f7f42c4e0a6c5d4eef","6877649eabb845cf142cd221","6893c9c2ab6783769e922525","1","642cb1f7f42c4e0a6c5d4eef","1","2025-08-06T21:52:17.500Z","","","","StressQ","","","","","","","","","","","50","","","","","","","","","","","","","","","","","","","","","","","","","","",""
"2498","","<div style=""width:500px;"">
  <p>What best describes how you currently feel?</p>
  </div>","18","html-slider-response","77","1212359","0.0-7.0-4.12","220","1","2025-08-06 21:32:03","36c45c0696341be0efffe67d72a12abb","210.84.40.21","Mozilla/5.0 (Windows NT 10.0; Win64; x64; rv:141.0) Gecko/20100101 Firefox/141.0","","Firefox","141.0","Windows","10.0","https://app.prolific.com/","en-US,en;q=0.5","642cb1f7f42c4e0a6c5d4eef","6877649eabb845cf142cd221","6893c9c2ab6783769e922525","1","642cb1f7f42c4e0a6c5d4eef","1","2025-08-06T21:52:20.000Z","","","","MotivationQ","","","","","","","","","","","50","","","","","","","","","","","","","","","","","","","","","","","","","","",""
"","","","","ctl-task-cpt","78","1244717","0.0-7.0-0.13","220","1","2025-08-06 21:32:03","36c45c0696341be0efffe67d72a12abb","210.84.40.21","Mozilla/5.0 (Windows NT 10.0; Win64; x64; rv:141.0) Gecko/20100101 Firefox/141.0","","Firefox","141.0","Windows","10.0","https://app.prolific.com/","en-US,en;q=0.5","642cb1f7f42c4e0a6c5d4eef","6877649eabb845cf142cd221","6893c9c2ab6783769e922525","1","642cb1f7f42c4e0a6c5d4eef","1","2025-08-06T21:52:52.358Z","","","","","","","","","","","","","","","","win-only","1","g1:NE,g2:SW","0.9","14","0","1217920","1768","6771","29349","1","4","4","6","2","4","4","82","78","0.6212121212121212","993","3000","2185","[""down"",""left""]","{""num_key_presses"":8,""num_perfect"":7,""num_errors"":0,""num_randdir"":1,""num_randdir_good_moves"":0,""num_whilered"":0,""num_whileblue"":0,""num_blue"":0,""num_good_moves"":7}","[410.3214133126395,408.8214362008231,0,410.3214133126395,408.8214362008231,102,410.3214133126395,408.8214362008231,218,410.3214133126395,408.8214362008231,326,410.3214133126395,408.8214362008231,438,139.0714133126395,611.3214362008231,549,42.82141331263951,752.5714362008231,662,44.07141331263951,753.8214362008231,771,49.07141331263951,753.8214362008231,884,49.07141331263951,753.8214362008231,997,49.07141331263951,753.8214362008231,1109,49.07141331263951,753.8214362008231,1219,49.07141331263951,753.8214362008231,1331,49.07141331263951,753.8214362008231,1441,49.07141331263951,753.8214362008231,1553,49.07141331263951,753.8214362008231,1665,49.07141331263951,753.8214362008231,1778,49.07141331263951,753.8214362008231,1887,49.07141331263951,753.8214362008231,2000,49.07141331263951,753.8214362008231,2112,49.07141331263951,753.8214362008231,2224,49.07141331263951,753.8214362008231,2337,49.07141331263951,753.8214362008231,2449,49.07141331263951,753.8214362008231,2558,49.07141331263951,753.8214362008231,2670,49.07141331263951,753.8214362008231,2782,49.07141331263951,753.8214362008231,2894,49.07141331263951,753.8214362008231,3004,49.07141331263951,753.8214362008231,3114,49.07141331263951,753.8214362008231,3227,49.07141331263951,753.8214362008231,3336,49.07141331263951,753.8214362008231,3447,49.07141331263951,753.8214362008231,3559,49.07141331263951,753.8214362008231,3672,49.07141331263951,753.8214362008231,3781,49.07141331263951,753.8214362008231,3893,49.07141331263951,753.8214362008231,4005,49.07141331263951,753.8214362008231,4115,49.07141331263951,753.8214362008231,4227,49.07141331263951,753.8214362008231,4336,49.07141331263951,753.8214362008231,4446,49.07141331263951,753.8214362008231,4556,49.07141331263951,753.8214362008231,4668,49.07141331263951,753.8214362008231,4778,49.07141331263951,753.8214362008231,4890]","[1376,1376,1000,0,376,""smooth"",""down"",""down"",""good_move"",3696,2319,1969.4,1377,349.6,""smooth"",""down"",""down"",""good_move"",6783,3087,2739.7,3696,347.3,""oops"",""down"",""up"",""bad_move"",9771,2988,2683,6783,305,""smooth"",""down"",""down"",""good_move"",13012,3241,2941.2,9771,299.8,""smooth"",""down"",""down"",""good_move"",16062,3050,2728.8,13012,321.2,""smooth"",""left"",""left"",""good_move"",19103,3041,2033.5,16062,1007.5,""smooth"",""left"",""left"",""good_move"",22278,3175,2856.7,19103,318.3,""smooth"",""left"",""left"",""good_move""]"
"2662","","<div style=""width:500px;"">
  <p>What determined the result of this run?</p>
  </div>","80","html-slider-response","79","1247381","0.0-7.0-1.13","220","1","2025-08-06 21:32:03","36c45c0696341be0efffe67d72a12abb","210.84.40.21","Mozilla/5.0 (Windows NT 10.0; Win64; x64; rv:141.0) Gecko/20100101 Firefox/141.0","","Firefox","141.0","Windows","10.0","https://app.prolific.com/","en-US,en;q=0.5","642cb1f7f42c4e0a6c5d4eef","6877649eabb845cf142cd221","6893c9c2ab6783769e922525","1","642cb1f7f42c4e0a6c5d4eef","1","2025-08-06T21:52:55.022Z","","","","AttribQ","","","","","","","","","","","50","","","","","","","","","","","","","","","","","","","","","","","","","","",""
"2562","","<div style=""width:500px;"">
  <p>How much control did you have over the ball?</p>
  </div>","76","html-slider-response","80","1249945","0.0-7.0-2.13","220","1","2025-08-06 21:32:03","36c45c0696341be0efffe67d72a12abb","210.84.40.21","Mozilla/5.0 (Windows NT 10.0; Win64; x64; rv:141.0) Gecko/20100101 Firefox/141.0","","Firefox","141.0","Windows","10.0","https://app.prolific.com/","en-US,en;q=0.5","642cb1f7f42c4e0a6c5d4eef","6877649eabb845cf142cd221","6893c9c2ab6783769e922525","1","642cb1f7f42c4e0a6c5d4eef","1","2025-08-06T21:52:57.586Z","","","","ControlQ","","","","","","","","","","","50","","","","","","","","","","","","","","","","","","","","","","","","","","",""
"2879","","<div style=""width:500px;"">
  <p>How would you describe your current emotional state?</p>
  </div>","44","html-slider-response","81","1252825","0.0-7.0-3.13","220","1","2025-08-06 21:32:03","36c45c0696341be0efffe67d72a12abb","210.84.40.21","Mozilla/5.0 (Windows NT 10.0; Win64; x64; rv:141.0) Gecko/20100101 Firefox/141.0","","Firefox","141.0","Windows","10.0","https://app.prolific.com/","en-US,en;q=0.5","642cb1f7f42c4e0a6c5d4eef","6877649eabb845cf142cd221","6893c9c2ab6783769e922525","1","642cb1f7f42c4e0a6c5d4eef","1","2025-08-06T21:53:00.466Z","","","","StressQ","","","","","","","","","","","50","","","","","","","","","","","","","","","","","","","","","","","","","","",""
"2780","","<div style=""width:500px;"">
  <p>What best describes how you currently feel?</p>
  </div>","17","html-slider-response","82","1255606","0.0-7.0-4.13","220","1","2025-08-06 21:32:03","36c45c0696341be0efffe67d72a12abb","210.84.40.21","Mozilla/5.0 (Windows NT 10.0; Win64; x64; rv:141.0) Gecko/20100101 Firefox/141.0","","Firefox","141.0","Windows","10.0","https://app.prolific.com/","en-US,en;q=0.5","642cb1f7f42c4e0a6c5d4eef","6877649eabb845cf142cd221","6893c9c2ab6783769e922525","1","642cb1f7f42c4e0a6c5d4eef","1","2025-08-06T21:53:03.247Z","","","","MotivationQ","","","","","","","","","","","50","","","","","","","","","","","","","","","","","","","","","","","","","","",""
