"rt","response_timestamp","stimulus","response","trial_type","trial_index","time_elapsed","internal_node_id","run_id","condition","recorded_at","source_code_version","ip","user_agent","device","browser","browser_version","platform","platform_version","referer","accept_language","PROLIFIC_PID","STUDY_ID","SESSION_ID","BATCH","prolific_id","batch","realtime","success","question_order","question_id","eventType","responses","item_order","radio_event_ids","radio_event_times","key_event_times","mouse_event_times","straightlining","zigzagging","honeypot","view_history","slider_start","which_type","canvas_config","goals_layout","control_level","trial_number","tutorial_trial_number","trial_start_time","phase1_start_time","phase2_start_time","phase3_start_time","goal_1_value","goal_1_distance","goal_2_value","goal_2_distance","goal_selected","outcome","outcome_total","participant_final_score","participant_initial_score","participant_final_score_prop","goal_choice_rt","allocated_time","allocated_time_remaining","goal_direction","counts","mouse_movements","key_presses"
"957539","1753865694070","<p style='font-size:40px;line-height:1.25'><strong>Welcome to the experiment!</strong></p><p style='font-size:1.1em;line-height:1.25'>Thank you for participanting in our experiment again! You will be asked to play the Dysfunctional Ball Game again. We will briefly recap the rules before we start.</p><p style='font-size:1.1em;line-height:1.25'>Press <strong>Next</strong> to continue.</p>","0","custom-html-button-response","0","957542","0.0-0.0","15","1","2025-07-30 08:38:50","36c45c0696341be0efffe67d72a12abb","185.251.11.92","Mozilla/5.0 (Windows NT 10.0; Win64; x64) AppleWebKit/537.36 (KHTML, like Gecko) Chrome/138.0.0.0 Safari/537.36","WebKit","Chrome","138.0.0.0","Windows","10.0","https://app.prolific.com/","en-GB,en-US;q=0.9,en;q=0.8","64401708880c30ec28b9aef4","687a19d2168e237449fb8af4","6889da118801a948612bd816","0","64401708880c30ec28b9aef4","0","2025-07-30T08:54:54.072Z","","","","","","","","","","","","","","","","","","","","","","","","","","","","","","","","","","","","","","","","","",""
"2518","","","","fullscreen","1","961069","0.0-1.0","15","1","2025-07-30 08:38:50","36c45c0696341be0efffe67d72a12abb","185.251.11.92","Mozilla/5.0 (Windows NT 10.0; Win64; x64) AppleWebKit/537.36 (KHTML, like Gecko) Chrome/138.0.0.0 Safari/537.36","WebKit","Chrome","138.0.0.0","Windows","10.0","https://app.prolific.com/","en-GB,en-US;q=0.9,en;q=0.8","64401708880c30ec28b9aef4","687a19d2168e237449fb8af4","6889da118801a948612bd816","0","64401708880c30ec28b9aef4","0","","true","","","","","","","","","","","","","","","","","","","","","","","","","","","","","","","","","","","","","","","","",""
"1807","1753865699406"," <p style='font-size:1.1em;line-height:1.25'>Thank you for closing all other tabs.</p><p style='font-size:1.1em;line-height:1.25'>We will now invite you to fill in some questionnaires, before starting the game.<br>This will take about 5 minutes.<br></p><p style='font-size:1.1em;line-height:1.25'>Press the <strong>Next</strong> button to continue.</p>","0","custom-html-button-response","2","962878","0.0-2.0","15","1","2025-07-30 08:38:50","36c45c0696341be0efffe67d72a12abb","185.251.11.92","Mozilla/5.0 (Windows NT 10.0; Win64; x64) AppleWebKit/537.36 (KHTML, like Gecko) Chrome/138.0.0.0 Safari/537.36","WebKit","Chrome","138.0.0.0","Windows","10.0","https://app.prolific.com/","en-GB,en-US;q=0.9,en;q=0.8","64401708880c30ec28b9aef4","687a19d2168e237449fb8af4","6889da118801a948612bd816","0","64401708880c30ec28b9aef4","0","2025-07-30T08:54:59.407Z","","","","","","","","","","","","","","","","","","","","","","","","","","","","","","","","","","","","","","","","","",""
"2600","","","{""assigned_sex"":""male""}","survey-multi-choice","3","965480","0.0-3.0-0.0","15","1","2025-07-30 08:38:50","36c45c0696341be0efffe67d72a12abb","185.251.11.92","Mozilla/5.0 (Windows NT 10.0; Win64; x64) AppleWebKit/537.36 (KHTML, like Gecko) Chrome/138.0.0.0 Safari/537.36","WebKit","Chrome","138.0.0.0","Windows","10.0","https://app.prolific.com/","en-GB,en-US;q=0.9,en;q=0.8","64401708880c30ec28b9aef4","687a19d2168e237449fb8af4","6889da118801a948612bd816","0","64401708880c30ec28b9aef4","0","","","[0]","0","demographics","","","","","","","","","","","","","","","","","","","","","","","","","","","","","","","","","","","","","",""
"53614","1753865755624","<p style='font-size:1.1em;line-height:1.25'>In the following, we will perform a baseline assessment. This means that we will ask you a few questions relating to your experiences over the past month.<br></p><p style='font-size:1.1em;line-height:1.25'>Press the <strong>Next</strong> button to continue.</p>","0","custom-html-button-response","4","1019096","0.0-4.0-0.0","15","1","2025-07-30 08:38:50","36c45c0696341be0efffe67d72a12abb","185.251.11.92","Mozilla/5.0 (Windows NT 10.0; Win64; x64) AppleWebKit/537.36 (KHTML, like Gecko) Chrome/138.0.0.0 Safari/537.36","WebKit","Chrome","138.0.0.0","Windows","10.0","https://app.prolific.com/","en-GB,en-US;q=0.9,en;q=0.8","64401708880c30ec28b9aef4","687a19d2168e237449fb8af4","6889da118801a948612bd816","0","64401708880c30ec28b9aef4","0","2025-07-30T08:55:55.625Z","","","","","","","","","","","","","","","","","","","","","","","","","","","","","","","","","","","","","","","","","",""
"31256.60000014305","","","","survey-template","5","1050356","0.0-4.0-1.0","15","1","2025-07-30 08:38:50","36c45c0696341be0efffe67d72a12abb","185.251.11.92","Mozilla/5.0 (Windows NT 10.0; Win64; x64) AppleWebKit/537.36 (KHTML, like Gecko) Chrome/138.0.0.0 Safari/537.36","WebKit","Chrome","138.0.0.0","Windows","10.0","https://app.prolific.com/","en-GB,en-US;q=0.9,en;q=0.8","64401708880c30ec28b9aef4","687a19d2168e237449fb8af4","6889da118801a948612bd816","0","64401708880c30ec28b9aef4","0","2025-07-30T08:56:26.885Z","","","","pss","{""Q01"":""0"",""Q02"":""1"",""Q03"":""2"",""Q04"":""1"",""Q05"":""1"",""Q06"":""1"",""Q07"":""3"",""Q08"":""1"",""Q09"":""1"",""Q10"":""0""}","[0,1,2,3,4,5,6,7,8,9]","[""Q01"",""Q02"",""Q03"",""Q05"",""Q04"",""Q06"",""Q07"",""Q09"",""Q08"",""Q10""]","[3582.2000000476837,6581.700000047684,9709.900000095367,14198.700000047684,16109.799999952316,19077.900000095367,21357.60000014305,26838.5,28046.200000047684,30671.5]","[]","[0.20000004768371582,3582.2000000476837,5366.700000047684,6581.700000047684,8326.299999952316,9709.900000095367,11165.299999952316,14198.700000047684,16109.799999952316,19077.900000095367,21357.60000014305,23825.200000047684,24318.10000014305,26838.5,27566.10000014305,28046.200000047684,30671.5,31254.299999952316]","0.4","0.4444444444444444","0","","","","","","","","","","","","","","","","","","","","","","","","","","","","",""
"1756","1753865788641","<p style='font-size:1.1em;line-height:1.25'>Thank you for your answers! Now we will ask you a few more questions relating to your feelings in the last 24 hours.<br></p><p style='font-size:1.1em;line-height:1.25'>Press the <strong>Next</strong> button to continue.</p>","0","custom-html-button-response","6","1052113","0.0-4.0-2.0","15","1","2025-07-30 08:38:50","36c45c0696341be0efffe67d72a12abb","185.251.11.92","Mozilla/5.0 (Windows NT 10.0; Win64; x64) AppleWebKit/537.36 (KHTML, like Gecko) Chrome/138.0.0.0 Safari/537.36","WebKit","Chrome","138.0.0.0","Windows","10.0","https://app.prolific.com/","en-GB,en-US;q=0.9,en;q=0.8","64401708880c30ec28b9aef4","687a19d2168e237449fb8af4","6889da118801a948612bd816","0","64401708880c30ec28b9aef4","0","2025-07-30T08:56:28.642Z","","","","","","","","","","","","","","","","","","","","","","","","","","","","","","","","","","","","","","","","","",""
"53050.09999990463","","","","survey-template","7","1105166","0.0-4.0-3.0","15","1","2025-07-30 08:38:50","36c45c0696341be0efffe67d72a12abb","185.251.11.92","Mozilla/5.0 (Windows NT 10.0; Win64; x64) AppleWebKit/537.36 (KHTML, like Gecko) Chrome/138.0.0.0 Safari/537.36","WebKit","Chrome","138.0.0.0","Windows","10.0","https://app.prolific.com/","en-GB,en-US;q=0.9,en;q=0.8","64401708880c30ec28b9aef4","687a19d2168e237449fb8af4","6889da118801a948612bd816","0","64401708880c30ec28b9aef4","0","2025-07-30T08:57:21.695Z","","","","drsp","{""Q01"":""0"",""Q02"":""0"",""Q03"":""0"",""Q04"":""1"",""Q05"":""2"",""Q06"":""0"",""Q07"":""1"",""Q08"":""0"",""Q09"":""0"",""Q10"":""1"",""Q11"":""1"",""Q12"":""0"",""Q13"":""5"",""Q14"":""2"",""Q15"":""2"",""Q16"":""1"",""Q17"":""2"",""Q18"":""0"",""Q19"":""0"",""Q20"":""0"",""Q21"":""0"",""Q22"":""0""}","[0,1,2,3,4,5,6,7,8,9,10,11,12,13,14,15,16,17,18,19,20,21]","[""Q01"",""Q02"",""Q03"",""Q04"",""Q05"",""Q06"",""Q07"",""Q09"",""Q08"",""Q10"",""Q11"",""Q12"",""Q13"",""Q14"",""Q15"",""Q16"",""Q17"",""Q19"",""Q18"",""Q21"",""Q22"",""Q20""]","[2119.2000000476837,2982.2999999523163,3853.7000000476837,4318.799999952316,6277.799999952316,8711,9176.900000095367,13710.5,14103.400000095367,28878.700000047684,29494.799999952316,30519.5,32526.900000095367,35479.200000047684,35776.90000009537,38079,39039.299999952316,42016.200000047684,42439.09999990463,48311.299999952316,50232.90000009537,52313.700000047684]","[]","[0.09999990463256836,2119.2000000476837,2982.2999999523163,3478.2999999523163,3853.7000000476837,4318.799999952316,5629.799999952316,6277.799999952316,7626.200000047684,8711,9176.900000095367,10406.400000095367,11670.599999904633,12718.5,13295.200000047684,13710.5,14103.400000095367,28878.700000047684,29494.799999952316,30519.5,32526.900000095367,34070.799999952316,35055.200000047684,35479.200000047684,35776.90000009537,38079,39039.299999952316,39962.200000047684,40984.200000047684,41512.09999990463,42016.200000047684,42439.09999990463,45328.200000047684,45657.200000047684,46607.299999952316,48311.299999952316,50232.90000009537,51161.09999990463,52313.700000047684,53047.299999952316]","0.5454545454545454","0.42857142857142855","0","","","","","","","","","","","","","","","","","","","","","","","","","","","","",""
"46729.300000190735","","","","survey-template","8","1151897","0.0-4.0-4.0","15","1","2025-07-30 08:38:50","36c45c0696341be0efffe67d72a12abb","185.251.11.92","Mozilla/5.0 (Windows NT 10.0; Win64; x64) AppleWebKit/537.36 (KHTML, like Gecko) Chrome/138.0.0.0 Safari/537.36","WebKit","Chrome","138.0.0.0","Windows","10.0","https://app.prolific.com/","en-GB,en-US;q=0.9,en;q=0.8","64401708880c30ec28b9aef4","687a19d2168e237449fb8af4","6889da118801a948612bd816","0","64401708880c30ec28b9aef4","0","2025-07-30T08:58:08.426Z","","","","stress","{""Q01"":""1"",""Q02"":""2"",""Q03"":""0""}","[0,1,2]","[""Q01"",""Q01"",""Q02"",""Q03""]","[37612.300000190735,40684.5,45485.300000190735,46132.5]","[]","[37612.300000190735,38316.40000009537,40100.5,40684.5,41884.5,44111.200000047684,44621.40000009537,45485.300000190735,46132.5,46728.40000009537]","0.3333333333333333","0","0","","","","","","","","","","","","","","","","","","","","","","","","","","","","",""
"30291","","","","instructions","9","1182189","0.0-5.0-0.0","15","1","2025-07-30 08:38:50","36c45c0696341be0efffe67d72a12abb","185.251.11.92","Mozilla/5.0 (Windows NT 10.0; Win64; x64) AppleWebKit/537.36 (KHTML, like Gecko) Chrome/138.0.0.0 Safari/537.36","WebKit","Chrome","138.0.0.0","Windows","10.0","https://app.prolific.com/","en-GB,en-US;q=0.9,en;q=0.8","64401708880c30ec28b9aef4","687a19d2168e237449fb8af4","6889da118801a948612bd816","0","64401708880c30ec28b9aef4","0","","","","","","","","","","","","","","","[{""page_index"":0,""viewing_time"":30291}]","","","","","","","","","","","","","","","","","","","","","","","","","","","",""
"4911","","<p>Before you start with this game please answer the following three questions yourself. </p>
  <p>Through this game, we measure several aspects of your cognitive performance, such as reaction times, multi-tasking capabilities </p>
  <p>and the ability to assess the situation you are in.</p>
  <p></p>
  <p><b>How good do you usually are in such tasks?</b></p>","83","html-slider-response","10","1187103","0.0-6.0-0.0","15","1","2025-07-30 08:38:50","36c45c0696341be0efffe67d72a12abb","185.251.11.92","Mozilla/5.0 (Windows NT 10.0; Win64; x64) AppleWebKit/537.36 (KHTML, like Gecko) Chrome/138.0.0.0 Safari/537.36","WebKit","Chrome","138.0.0.0","Windows","10.0","https://app.prolific.com/","en-GB,en-US;q=0.9,en;q=0.8","64401708880c30ec28b9aef4","687a19d2168e237449fb8af4","6889da118801a948612bd816","0","64401708880c30ec28b9aef4","0","2025-07-30T08:58:43.632Z","","","","PreSkillQ","","","","","","","","","","","50","","","","","","","","","","","","","","","","","","","","","","","","","","",""
"2646","","<div style=""width:500px;"">
  <p>How well do you think you will perform in this task compared to other participants?</p>
  </div>","89","html-slider-response","11","1189750","0.0-6.0-1.0","15","1","2025-07-30 08:38:50","36c45c0696341be0efffe67d72a12abb","185.251.11.92","Mozilla/5.0 (Windows NT 10.0; Win64; x64) AppleWebKit/537.36 (KHTML, like Gecko) Chrome/138.0.0.0 Safari/537.36","WebKit","Chrome","138.0.0.0","Windows","10.0","https://app.prolific.com/","en-GB,en-US;q=0.9,en;q=0.8","64401708880c30ec28b9aef4","687a19d2168e237449fb8af4","6889da118801a948612bd816","0","64401708880c30ec28b9aef4","0","2025-07-30T08:58:46.280Z","","","","PrePerfQ","","","","","","","","","","","50","","","","","","","","","","","","","","","","","","","","","","","","","","",""
"2151","","<div style=""width:500px;"">
  <p>What best describes how you currently feel?</p>
  </div>","90","html-slider-response","12","1191903","0.0-6.0-2.0","15","1","2025-07-30 08:38:50","36c45c0696341be0efffe67d72a12abb","185.251.11.92","Mozilla/5.0 (Windows NT 10.0; Win64; x64) AppleWebKit/537.36 (KHTML, like Gecko) Chrome/138.0.0.0 Safari/537.36","WebKit","Chrome","138.0.0.0","Windows","10.0","https://app.prolific.com/","en-GB,en-US;q=0.9,en;q=0.8","64401708880c30ec28b9aef4","687a19d2168e237449fb8af4","6889da118801a948612bd816","0","64401708880c30ec28b9aef4","0","2025-07-30T08:58:48.432Z","","","","PreMotivationQ","","","","","","","","","","","50","","","","","","","","","","","","","","","","","","","","","","","","","","",""
"","","","","ctl-task-cpt","13","1221432","0.0-7.0-0.0","15","1","2025-07-30 08:38:50","36c45c0696341be0efffe67d72a12abb","185.251.11.92","Mozilla/5.0 (Windows NT 10.0; Win64; x64) AppleWebKit/537.36 (KHTML, like Gecko) Chrome/138.0.0.0 Safari/537.36","WebKit","Chrome","138.0.0.0","Windows","10.0","https://app.prolific.com/","en-GB,en-US;q=0.9,en;q=0.8","64401708880c30ec28b9aef4","687a19d2168e237449fb8af4","6889da118801a948612bd816","0","64401708880c30ec28b9aef4","0","2025-07-30T08:59:17.961Z","","","","","","","","","","","","","","","","win-only","2","g1:SE,g2:NW","1","1","0","1196311.1","3301","8306.5","26523.5","1","4","4","6","2","4","3","3","0","0.022727272727272728","3674.7","3000","1035","[""left"",""up""]","{""num_key_presses"":7,""num_perfect"":6,""num_errors"":1,""num_randdir"":0,""num_randdir_good_moves"":0,""num_whilered"":0,""num_whileblue"":0,""num_blue"":0,""num_good_moves"":6}","[418.57142857142856,420.47767857142856,0.2,410.57142857142856,419.47767857142856,100.1,341.57142857142856,422.47767857142856,200.1,324.57142857142856,429.47767857142856,304.9,362.57142857142856,457.47767857142856,410.1,362.57142857142856,459.47767857142856,515,368.57142857142856,463.47767857142856,620.1,380.57142857142856,467.47767857142856,722.1,386.57142857142856,469.47767857142856,824.8,405.57142857142856,476.47767857142856,927,429.57142857142856,487.47767857142856,1030.5,448.57142857142856,496.47767857142856,1134.9,465.57142857142856,497.47767857142856,1240,488.57142857142856,489.47767857142856,1344.4,498.57142857142856,479.47767857142856,1444.4,500.57142857142856,478.47767857142856,1544.5,500.57142857142856,478.47767857142856,1645.4,500.57142857142856,479.47767857142856,1745.4,500.57142857142856,481.47767857142856,1845.9,500.57142857142856,481.47767857142856,1950.8,499.57142857142856,482.47767857142856,2055.6,499.57142857142856,485.47767857142856,2159.6,499.57142857142856,486.47767857142856,2260.1,499.57142857142856,486.47767857142856,2361,499.57142857142856,486.47767857142856,2465.5,499.57142857142856,486.47767857142856,2570.4,499.57142857142856,486.47767857142856,2674.7,499.57142857142856,486.47767857142856,2779.9,499.57142857142856,486.47767857142856,2885.1,499.57142857142856,486.47767857142856,2985.7,497.57142857142856,486.47767857142856,3090.4,460.57142857142856,473.47767857142856,3190.8,387.57142857142856,419.47767857142856,3295,187.57142857142856,256.47767857142856,3399.4,88.57142857142857,175.47767857142856,3500.3,80.57142857142857,124.47767857142857,3600.8,79.57142857142857,80.47767857142857,3705.9,78.57142857142857,79.47767857142857,3806.6,80.57142857142857,86.47767857142857,3911.1,145.57142857142856,168.47767857142856,4012.3,198.57142857142856,218.47767857142856,4116.5,217.57142857142856,239.47767857142856,4219.6,222.57142857142856,242.47767857142856,4320.5,225.57142857142856,246.47767857142856,4423.3,228.57142857142856,249.47767857142856,4525.1,230.57142857142856,249.47767857142856,4630.1,230.57142857142856,249.47767857142856,4730.3,230.57142857142856,249.47767857142856,4834.7,232.57142857142856,250.47767857142856,4935.6]","[177.7,177.6,1000,0.1,-822.4,""error"",""-"",""-"",""no_move"",3811.4,3633.5,2257.3,1180.1,374,""smooth"",""up"",""up"",""good_move"",6693.1,2881.3,2479.3,3811.8,402,""smooth"",""left"",""left"",""good_move"",9612.3,2918.9,2596.8,6693.4,322.1,""smooth"",""left"",""left"",""good_move"",12018.5,2406,2054.7,9612.5,351.3,""smooth"",""up"",""up"",""good_move"",15594.2,3575.2,3289.5,12019,285.7,""smooth"",""up"",""up"",""good_move"",18115.6,2521.1,2231.5,15594.6,289.5,""smooth"",""left"",""left"",""good_move""]"
"2695","","<div style=""width:500px;"">
  <p>What determined the result of this run?</p>
  </div>","25","html-slider-response","14","1224128","0.0-7.0-1.0","15","1","2025-07-30 08:38:50","36c45c0696341be0efffe67d72a12abb","185.251.11.92","Mozilla/5.0 (Windows NT 10.0; Win64; x64) AppleWebKit/537.36 (KHTML, like Gecko) Chrome/138.0.0.0 Safari/537.36","WebKit","Chrome","138.0.0.0","Windows","10.0","https://app.prolific.com/","en-GB,en-US;q=0.9,en;q=0.8","64401708880c30ec28b9aef4","687a19d2168e237449fb8af4","6889da118801a948612bd816","0","64401708880c30ec28b9aef4","0","2025-07-30T08:59:20.657Z","","","","AttribQ","","","","","","","","","","","50","","","","","","","","","","","","","","","","","","","","","","","","","","",""
"3046","","<div style=""width:500px;"">
  <p>How much control did you have over the ball?</p>
  </div>","87","html-slider-response","15","1227175","0.0-7.0-2.0","15","1","2025-07-30 08:38:50","36c45c0696341be0efffe67d72a12abb","185.251.11.92","Mozilla/5.0 (Windows NT 10.0; Win64; x64) AppleWebKit/537.36 (KHTML, like Gecko) Chrome/138.0.0.0 Safari/537.36","WebKit","Chrome","138.0.0.0","Windows","10.0","https://app.prolific.com/","en-GB,en-US;q=0.9,en;q=0.8","64401708880c30ec28b9aef4","687a19d2168e237449fb8af4","6889da118801a948612bd816","0","64401708880c30ec28b9aef4","0","2025-07-30T08:59:23.704Z","","","","ControlQ","","","","","","","","","","","50","","","","","","","","","","","","","","","","","","","","","","","","","","",""
"3063","","<div style=""width:500px;"">
  <p>How would you describe your current emotional state?</p>
  </div>","14","html-slider-response","16","1230239","0.0-7.0-3.0","15","1","2025-07-30 08:38:50","36c45c0696341be0efffe67d72a12abb","185.251.11.92","Mozilla/5.0 (Windows NT 10.0; Win64; x64) AppleWebKit/537.36 (KHTML, like Gecko) Chrome/138.0.0.0 Safari/537.36","WebKit","Chrome","138.0.0.0","Windows","10.0","https://app.prolific.com/","en-GB,en-US;q=0.9,en;q=0.8","64401708880c30ec28b9aef4","687a19d2168e237449fb8af4","6889da118801a948612bd816","0","64401708880c30ec28b9aef4","0","2025-07-30T08:59:26.769Z","","","","StressQ","","","","","","","","","","","50","","","","","","","","","","","","","","","","","","","","","","","","","","",""
"2014","","<div style=""width:500px;"">
  <p>What best describes how you currently feel?</p>
  </div>","81","html-slider-response","17","1232255","0.0-7.0-4.0","15","1","2025-07-30 08:38:50","36c45c0696341be0efffe67d72a12abb","185.251.11.92","Mozilla/5.0 (Windows NT 10.0; Win64; x64) AppleWebKit/537.36 (KHTML, like Gecko) Chrome/138.0.0.0 Safari/537.36","WebKit","Chrome","138.0.0.0","Windows","10.0","https://app.prolific.com/","en-GB,en-US;q=0.9,en;q=0.8","64401708880c30ec28b9aef4","687a19d2168e237449fb8af4","6889da118801a948612bd816","0","64401708880c30ec28b9aef4","0","2025-07-30T08:59:28.784Z","","","","MotivationQ","","","","","","","","","","","50","","","","","","","","","","","","","","","","","","","","","","","","","","",""
"","","","","ctl-task-cpt","18","1262931","0.0-7.0-0.1","15","1","2025-07-30 08:38:50","36c45c0696341be0efffe67d72a12abb","185.251.11.92","Mozilla/5.0 (Windows NT 10.0; Win64; x64) AppleWebKit/537.36 (KHTML, like Gecko) Chrome/138.0.0.0 Safari/537.36","WebKit","Chrome","138.0.0.0","Windows","10.0","https://app.prolific.com/","en-GB,en-US;q=0.9,en;q=0.8","64401708880c30ec28b9aef4","687a19d2168e237449fb8af4","6889da118801a948612bd816","0","64401708880c30ec28b9aef4","0","2025-07-30T08:59:59.460Z","","","","","","","","","","","","","","","","win-only","3","g1:SW,g2:NE","0.9","2","0","1236662.1","841.5","5845.9","27656.5","1","4","8","6","1","1","0","3","3","0.022727272727272728","5004.4","3000","470","[""down"",""left""]","{""num_key_presses"":8,""num_perfect"":7,""num_errors"":1,""num_randdir"":0,""num_randdir_good_moves"":0,""num_whilered"":0,""num_whileblue"":1,""num_blue"":1,""num_good_moves"":6}","[406.57142857142856,417.47767857142856,0.4,406.57142857142856,417.47767857142856,104.3,406.57142857142856,417.47767857142856,209.4,406.57142857142856,417.47767857142856,314.1,406.57142857142856,416.47767857142856,419.1,406.57142857142856,416.47767857142856,523.6,406.57142857142856,416.47767857142856,624,406.57142857142856,416.47767857142856,724.6,406.57142857142856,416.47767857142856,829.3,406.57142857142856,416.47767857142856,929.9,406.57142857142856,416.47767857142856,1034.3,406.57142857142856,416.47767857142856,1139,406.57142857142856,416.47767857142856,1239.1,406.57142857142856,416.47767857142856,1339.6,406.57142857142856,416.47767857142856,1444,406.57142857142856,416.47767857142856,1544.2,406.57142857142856,416.47767857142856,1644.2,406.57142857142856,416.47767857142856,1744.5,406.57142857142856,416.47767857142856,1845.1,406.57142857142856,416.47767857142856,1949.1,406.57142857142856,416.47767857142856,2049.4,406.57142857142856,416.47767857142856,2150.7,406.57142857142856,416.47767857142856,2251.2,406.57142857142856,416.47767857142856,2354.4,406.57142857142856,416.47767857142856,2459.1,406.57142857142856,416.47767857142856,2559.3,406.57142857142856,416.47767857142856,2659.8,406.57142857142856,416.47767857142856,2766.4,406.57142857142856,416.47767857142856,2868.8,406.57142857142856,416.47767857142856,2969.4,406.57142857142856,416.47767857142856,3069.7,406.57142857142856,416.47767857142856,3173.7,406.57142857142856,416.47767857142856,3273.7,406.57142857142856,416.47767857142856,3373.9,406.57142857142856,416.47767857142856,3474,406.57142857142856,416.47767857142856,3574,406.57142857142856,416.47767857142856,3674.1,406.57142857142856,416.47767857142856,3774.1,406.57142857142856,416.47767857142856,3879.8,406.57142857142856,416.47767857142856,3984.3,406.57142857142856,416.47767857142856,4089.6,406.57142857142856,416.47767857142856,4194.6,406.57142857142856,416.47767857142856,4294.7,406.57142857142856,416.47767857142856,4399,406.57142857142856,416.47767857142856,4504.5,406.57142857142856,416.47767857142856,4608.8,406.57142857142856,416.47767857142856,4714.8,406.57142857142856,416.47767857142856,4817,406.57142857142856,416.47767857142856,4919.1]","[1408.8,1408.8,1000,0,408.8,""smooth"",""right"",""right"",""bad_move"",4601.6,3192.5,2839.7,1409.1,352.8,""smooth"",""down"",""down"",""good_move"",7514,2912.1,2602,4601.9,310.1,""smooth"",""left"",""left"",""good_move"",10980.1,3465.9,3170.2,7514.2,295.7,""while_blue"",""left"",""up"",""bad_move"",13521.5,2541.1,2197.8,10980.4,343.3,""smooth"",""left"",""left"",""good_move"",16388.8,2867.1,2350,13521.7,517.1,""smooth"",""left"",""left"",""good_move"",19217.7,2828.7,2512.3,16389,316.4,""smooth"",""down"",""down"",""good_move"",21713.5,2495.5,2181,19218,314.5,""smooth"",""down"",""down"",""good_move""]"
"1796","","<div style=""width:500px;"">
  <p>What determined the result of this run?</p>
  </div>","19","html-slider-response","19","1264728","0.0-7.0-1.1","15","1","2025-07-30 08:38:50","36c45c0696341be0efffe67d72a12abb","185.251.11.92","Mozilla/5.0 (Windows NT 10.0; Win64; x64) AppleWebKit/537.36 (KHTML, like Gecko) Chrome/138.0.0.0 Safari/537.36","WebKit","Chrome","138.0.0.0","Windows","10.0","https://app.prolific.com/","en-GB,en-US;q=0.9,en;q=0.8","64401708880c30ec28b9aef4","687a19d2168e237449fb8af4","6889da118801a948612bd816","0","64401708880c30ec28b9aef4","0","2025-07-30T09:00:01.257Z","","","","AttribQ","","","","","","","","","","","50","","","","","","","","","","","","","","","","","","","","","","","","","","",""
"2543","","<div style=""width:500px;"">
  <p>How much control did you have over the ball?</p>
  </div>","77","html-slider-response","20","1267273","0.0-7.0-2.1","15","1","2025-07-30 08:38:50","36c45c0696341be0efffe67d72a12abb","185.251.11.92","Mozilla/5.0 (Windows NT 10.0; Win64; x64) AppleWebKit/537.36 (KHTML, like Gecko) Chrome/138.0.0.0 Safari/537.36","WebKit","Chrome","138.0.0.0","Windows","10.0","https://app.prolific.com/","en-GB,en-US;q=0.9,en;q=0.8","64401708880c30ec28b9aef4","687a19d2168e237449fb8af4","6889da118801a948612bd816","0","64401708880c30ec28b9aef4","0","2025-07-30T09:00:03.802Z","","","","ControlQ","","","","","","","","","","","50","","","","","","","","","","","","","","","","","","","","","","","","","","",""
"1577","","<div style=""width:500px;"">
  <p>How would you describe your current emotional state?</p>
  </div>","27","html-slider-response","21","1268850","0.0-7.0-3.1","15","1","2025-07-30 08:38:50","36c45c0696341be0efffe67d72a12abb","185.251.11.92","Mozilla/5.0 (Windows NT 10.0; Win64; x64) AppleWebKit/537.36 (KHTML, like Gecko) Chrome/138.0.0.0 Safari/537.36","WebKit","Chrome","138.0.0.0","Windows","10.0","https://app.prolific.com/","en-GB,en-US;q=0.9,en;q=0.8","64401708880c30ec28b9aef4","687a19d2168e237449fb8af4","6889da118801a948612bd816","0","64401708880c30ec28b9aef4","0","2025-07-30T09:00:05.379Z","","","","StressQ","","","","","","","","","","","50","","","","","","","","","","","","","","","","","","","","","","","","","","",""
"2333","","<div style=""width:500px;"">
  <p>What best describes how you currently feel?</p>
  </div>","27","html-slider-response","22","1271184","0.0-7.0-4.1","15","1","2025-07-30 08:38:50","36c45c0696341be0efffe67d72a12abb","185.251.11.92","Mozilla/5.0 (Windows NT 10.0; Win64; x64) AppleWebKit/537.36 (KHTML, like Gecko) Chrome/138.0.0.0 Safari/537.36","WebKit","Chrome","138.0.0.0","Windows","10.0","https://app.prolific.com/","en-GB,en-US;q=0.9,en;q=0.8","64401708880c30ec28b9aef4","687a19d2168e237449fb8af4","6889da118801a948612bd816","0","64401708880c30ec28b9aef4","0","2025-07-30T09:00:07.714Z","","","","MotivationQ","","","","","","","","","","","50","","","","","","","","","","","","","","","","","","","","","","","","","","",""
"","","","","ctl-task-cpt","23","1308848","0.0-7.0-0.2","15","1","2025-07-30 08:38:50","36c45c0696341be0efffe67d72a12abb","185.251.11.92","Mozilla/5.0 (Windows NT 10.0; Win64; x64) AppleWebKit/537.36 (KHTML, like Gecko) Chrome/138.0.0.0 Safari/537.36","WebKit","Chrome","138.0.0.0","Windows","10.0","https://app.prolific.com/","en-GB,en-US;q=0.9,en;q=0.8","64401708880c30ec28b9aef4","687a19d2168e237449fb8af4","6889da118801a948612bd816","0","64401708880c30ec28b9aef4","0","2025-07-30T09:00:45.377Z","","","","","","","","","","","","","","","","win-only","2","g1:SE,g2:NW","0.8","3","0","1275592.4","568.4","5571.6","34645.5","1","4","4","6","2","4","3","6","3","0.045454545454545456","1223.2","3000","15","[""left"",""up""]","{""num_key_presses"":10,""num_perfect"":7,""num_errors"":1,""num_randdir"":2,""num_randdir_good_moves"":1,""num_whilered"":0,""num_whileblue"":1,""num_blue"":1,""num_good_moves"":8}","[409.57142857142856,428.47767857142856,0.2,409.57142857142856,428.47767857142856,101.8,411.57142857142856,428.47767857142856,202.9,420.57142857142856,435.47767857142856,308.1,481.57142857142856,481.47767857142856,412.7,506.57142857142856,502.47767857142856,518,506.57142857142856,502.47767857142856,622.4,504.57142857142856,502.47767857142856,727.8,265.57142857142856,292.47767857142856,827.9,201.57142857142856,214.47767857142856,933.1,111.57142857142857,138.47767857142856,1033.2,78.57142857142857,110.47767857142857,1136.9,82.57142857142857,102.47767857142857,1239.3,82.57142857142857,103.47767857142857,1342.9,78.57142857142857,106.47767857142857,1447.4,78.57142857142857,106.47767857142857,1547.4,78.57142857142857,106.47767857142857,1651.8,78.57142857142857,106.47767857142857,1752.8,78.57142857142857,106.47767857142857,1853,78.57142857142857,106.47767857142857,1958.1,78.57142857142857,106.47767857142857,2062.3,78.57142857142857,106.47767857142857,2167.4,78.57142857142857,106.47767857142857,2272.6,78.57142857142857,106.47767857142857,2372.7,78.57142857142857,106.47767857142857,2477.7,78.57142857142857,106.47767857142857,2578.7,78.57142857142857,106.47767857142857,2682.7,78.57142857142857,106.47767857142857,2782.9,78.57142857142857,106.47767857142857,2883.3,78.57142857142857,106.47767857142857,2986.9,78.57142857142857,106.47767857142857,3087.5,78.57142857142857,106.47767857142857,3192.5,78.57142857142857,106.47767857142857,3293.3,78.57142857142857,106.47767857142857,3397.2,78.57142857142857,106.47767857142857,3497.4,78.57142857142857,106.47767857142857,3597.9,78.57142857142857,106.47767857142857,3702,78.57142857142857,106.47767857142857,3802.1,78.57142857142857,106.47767857142857,3902.7,78.57142857142857,106.47767857142857,4007.6,78.57142857142857,106.47767857142857,4108.5,78.57142857142857,106.47767857142857,4208.6,78.57142857142857,106.47767857142857,4312.3,78.57142857142857,106.47767857142857,4413.2,78.57142857142857,106.47767857142857,4517.1,78.57142857142857,106.47767857142857,4622,78.57142857142857,106.47767857142857,4722.7,78.57142857142857,106.47767857142857,4828.1,78.57142857142857,106.47767857142857,4932]","[1418.5,1418.5,1000,0,418.5,""smooth"",""left"",""left"",""good_move"",4508.9,3089.9,2767.9,1419.1,321.9,""smooth"",""up"",""up"",""good_move"",7386.6,2877.2,2577.1,4509.5,300.1,""smooth"",""up"",""up"",""good_move"",10762.3,3375,3081.6,7387.3,293.4,""while_blue"",""left"",""down"",""bad_move"",12882.7,2120,1784.7,10762.7,335.3,""smooth"",""left"",""left"",""good_move"",15253.3,2370.5,2014.9,12882.9,355.6,""oops"",""up"",""up"",""good_move"",18514.9,3261.1,2915.1,15253.9,345.9,""smooth"",""left"",""left"",""good_move"",22435,3919.8,3606.3,18515.2,313.5,""oops"",""up"",""right"",""bad_move"",25899.5,3464.1,3122.4,22435.4,341.7,""smooth"",""left"",""left"",""good_move"",28986.9,3087.1,2781.2,25899.8,306,""smooth"",""up"",""up"",""good_move""]"
"1961","","<div style=""width:500px;"">
  <p>What determined the result of this run?</p>
  </div>","30","html-slider-response","24","1310810","0.0-7.0-1.2","15","1","2025-07-30 08:38:50","36c45c0696341be0efffe67d72a12abb","185.251.11.92","Mozilla/5.0 (Windows NT 10.0; Win64; x64) AppleWebKit/537.36 (KHTML, like Gecko) Chrome/138.0.0.0 Safari/537.36","WebKit","Chrome","138.0.0.0","Windows","10.0","https://app.prolific.com/","en-GB,en-US;q=0.9,en;q=0.8","64401708880c30ec28b9aef4","687a19d2168e237449fb8af4","6889da118801a948612bd816","0","64401708880c30ec28b9aef4","0","2025-07-30T09:00:47.339Z","","","","AttribQ","","","","","","","","","","","50","","","","","","","","","","","","","","","","","","","","","","","","","","",""
"1679","","<div style=""width:500px;"">
  <p>How much control did you have over the ball?</p>
  </div>","22","html-slider-response","25","1312490","0.0-7.0-2.2","15","1","2025-07-30 08:38:50","36c45c0696341be0efffe67d72a12abb","185.251.11.92","Mozilla/5.0 (Windows NT 10.0; Win64; x64) AppleWebKit/537.36 (KHTML, like Gecko) Chrome/138.0.0.0 Safari/537.36","WebKit","Chrome","138.0.0.0","Windows","10.0","https://app.prolific.com/","en-GB,en-US;q=0.9,en;q=0.8","64401708880c30ec28b9aef4","687a19d2168e237449fb8af4","6889da118801a948612bd816","0","64401708880c30ec28b9aef4","0","2025-07-30T09:00:49.019Z","","","","ControlQ","","","","","","","","","","","50","","","","","","","","","","","","","","","","","","","","","","","","","","",""
"1999","","<div style=""width:500px;"">
  <p>How would you describe your current emotional state?</p>
  </div>","55","html-slider-response","26","1314490","0.0-7.0-3.2","15","1","2025-07-30 08:38:50","36c45c0696341be0efffe67d72a12abb","185.251.11.92","Mozilla/5.0 (Windows NT 10.0; Win64; x64) AppleWebKit/537.36 (KHTML, like Gecko) Chrome/138.0.0.0 Safari/537.36","WebKit","Chrome","138.0.0.0","Windows","10.0","https://app.prolific.com/","en-GB,en-US;q=0.9,en;q=0.8","64401708880c30ec28b9aef4","687a19d2168e237449fb8af4","6889da118801a948612bd816","0","64401708880c30ec28b9aef4","0","2025-07-30T09:00:51.019Z","","","","StressQ","","","","","","","","","","","50","","","","","","","","","","","","","","","","","","","","","","","","","","",""
"3544","","<div style=""width:500px;"">
  <p>What best describes how you currently feel?</p>
  </div>","40","html-slider-response","27","1318036","0.0-7.0-4.2","15","1","2025-07-30 08:38:50","36c45c0696341be0efffe67d72a12abb","185.251.11.92","Mozilla/5.0 (Windows NT 10.0; Win64; x64) AppleWebKit/537.36 (KHTML, like Gecko) Chrome/138.0.0.0 Safari/537.36","WebKit","Chrome","138.0.0.0","Windows","10.0","https://app.prolific.com/","en-GB,en-US;q=0.9,en;q=0.8","64401708880c30ec28b9aef4","687a19d2168e237449fb8af4","6889da118801a948612bd816","0","64401708880c30ec28b9aef4","0","2025-07-30T09:00:54.565Z","","","","MotivationQ","","","","","","","","","","","50","","","","","","","","","","","","","","","","","","","","","","","","","","",""
"","","","","ctl-task-cpt","28","1357703","0.0-7.0-0.3","15","1","2025-07-30 08:38:50","36c45c0696341be0efffe67d72a12abb","185.251.11.92","Mozilla/5.0 (Windows NT 10.0; Win64; x64) AppleWebKit/537.36 (KHTML, like Gecko) Chrome/138.0.0.0 Safari/537.36","WebKit","Chrome","138.0.0.0","Windows","10.0","https://app.prolific.com/","en-GB,en-US;q=0.9,en;q=0.8","64401708880c30ec28b9aef4","687a19d2168e237449fb8af4","6889da118801a948612bd816","0","64401708880c30ec28b9aef4","0","2025-07-30T09:01:34.233Z","","","","","","","","","","","","","","","","win-only","1","g1:NE,g2:SW","0.7","4","0","1322443.6","812.7","5816.2","36656.7","1","4","8","6","2","-8","-12","0","6","0","3903.8","3000","-2995","[""down"",""left""]","{""num_key_presses"":12,""num_perfect"":6,""num_errors"":4,""num_randdir"":2,""num_randdir_good_moves"":1,""num_whilered"":0,""num_whileblue"":1,""num_blue"":1,""num_good_moves"":7}","[421.57142857142856,416.47767857142856,0.3,420.57142857142856,415.47767857142856,102.5,418.57142857142856,415.47767857142856,203.6,417.57142857142856,417.47767857142856,307.8,432.57142857142856,428.47767857142856,408.4,433.57142857142856,429.47767857142856,509.5,433.57142857142856,429.47767857142856,613,433.57142857142856,429.47767857142856,718.1,435.57142857142856,429.47767857142856,818.7,442.57142857142856,428.47767857142856,922.7,442.57142857142856,428.47767857142856,1024.1,442.57142857142856,428.47767857142856,1127.7,442.57142857142856,428.47767857142856,1229.2,442.57142857142856,428.47767857142856,1333.3,442.57142857142856,428.47767857142856,1435.6,442.57142857142856,428.47767857142856,1538.2,442.57142857142856,428.47767857142856,1638.6,442.57142857142856,428.47767857142856,1745,442.57142857142856,428.47767857142856,1847.9,442.57142857142856,428.47767857142856,1948.2,442.57142857142856,428.47767857142856,2048.2,442.57142857142856,428.47767857142856,2152.5,442.57142857142856,428.47767857142856,2252.5,442.57142857142856,428.47767857142856,2357.4,442.57142857142856,428.47767857142856,2458.2,442.57142857142856,428.47767857142856,2558.8,442.57142857142856,428.47767857142856,2662.9,442.57142857142856,428.47767857142856,2762.9,442.57142857142856,428.47767857142856,2863.1,442.57142857142856,428.47767857142856,2964,442.57142857142856,428.47767857142856,3069.6,442.57142857142856,428.47767857142856,3172.6,442.57142857142856,428.47767857142856,3273.1,442.57142857142856,428.47767857142856,3373.5,442.57142857142856,428.47767857142856,3478.5,442.57142857142856,428.47767857142856,3582.7,385.57142857142856,575.4776785714286,3683.1,159.57142857142856,677.4776785714286,3788.2,11.57142857142857,773.4776785714286,3889.3,1.5714285714285694,788.4776785714286,3993.6,6.571428571428569,791.4776785714286,4098.7,26.57142857142857,784.4776785714286,4203.5,92.57142857142857,753.4776785714286,4309.3,192.57142857142856,695.4776785714286,4416.4,226.57142857142856,688.4776785714286,4517.9,226.57142857142856,688.4776785714286,4618.4,226.57142857142856,688.4776785714286,4718.7,230.57142857142856,688.4776785714286,4822.7,237.57142857142856,688.4776785714286,4922.7]","[516.2,516.2,1000,0,-483.8,""error"",""-"",""-"",""no_move"",4615.2,4098.7,2752.8,1519.7,342.7,""smooth"",""down"",""down"",""good_move"",7251.9,2635.9,2290.3,4616,345.6,""smooth"",""down"",""down"",""good_move"",9844.3,2592.2,2210.9,7252.1,381.3,""oops"",""down"",""left"",""good_move"",12808.6,2964,2658.4,9844.6,305.6,""smooth"",""down"",""down"",""good_move"",15636.9,2828.1,2374.7,12808.9,453.3,""oops"",""left"",""right"",""bad_move"",18573,2935.5,2647.9,15637.5,287.6,""smooth"",""left"",""left"",""good_move"",21420.6,2847.2,2566.5,18573.4,280.7,""while_blue"",""left"",""right"",""bad_move"",21586.1,165.2,2522.7,21420.9,-2357.5,""error"",""-"",""-"",""no_move"",23069,1482.8,2301.8,22590.4,-1823.2,""error"",""-"",""-"",""no_move"",26269.6,3200.4,1855.4,24069.8,344.4,""smooth"",""left"",""left"",""good_move"",28381.2,2111.3,1746.2,26269.9,365.1,""smooth"",""left"",""left"",""good_move""]"