"rt","response_timestamp","stimulus","response","trial_type","trial_index","time_elapsed","internal_node_id","run_id","condition","recorded_at","source_code_version","ip","user_agent","device","browser","browser_version","platform","platform_version","referer","accept_language","PROLIFIC_PID","STUDY_ID","SESSION_ID","BATCH","prolific_id","batch","realtime","success","question_order","question_id","eventType","responses","item_order","radio_event_ids","radio_event_times","key_event_times","mouse_event_times","straightlining","zigzagging","honeypot","view_history","slider_start","which_type","canvas_config","goals_layout","control_level","trial_number","tutorial_trial_number","trial_start_time","phase1_start_time","phase2_start_time","phase3_start_time","goal_1_value","goal_1_distance","goal_2_value","goal_2_distance","goal_selected","outcome","outcome_total","participant_final_score","participant_initial_score","participant_final_score_prop","goal_choice_rt","allocated_time","allocated_time_remaining","goal_direction","counts","mouse_movements","key_presses"
"1048","1753874555499","<p style='font-size:40px;line-height:1.25'><strong>Welcome to the experiment!</strong></p><p style='font-size:1.1em;line-height:1.25'>Thank you for participanting in our experiment again! You will be asked to play the Dysfunctional Ball Game again. We will briefly recap the rules before we start.</p><p style='font-size:1.1em;line-height:1.25'>Press <strong>Next</strong> to continue.</p>","0","custom-html-button-response","0","1050","0.0-0.0","95","1","2025-07-30 11:22:33","36c45c0696341be0efffe67d72a12abb","94.134.108.182","Mozilla/5.0 (Windows NT 10.0; Win64; x64) AppleWebKit/537.36 (KHTML, like Gecko) Chrome/138.0.0.0 Safari/537.36","WebKit","Chrome","138.0.0.0","Windows","10.0","https://app.prolific.com/","de-DE,de;q=0.9,en-DE;q=0.8,en;q=0.7,es-ES;q=0.6,es;q=0.5,en-US;q=0.4","646219bb0b91a6f3327e39fb","683dba9a53627eb9ab41b36a","688a004e6d905469be4bb6ef","0","646219bb0b91a6f3327e39fb","0","2025-07-30T11:22:35.500Z","","","","","","","","","","","","","","","","","","","","","","","","","","","","","","","","","","","","","","","","","",""
"2032","","","","fullscreen","1","4090","0.0-1.0","95","1","2025-07-30 11:22:33","36c45c0696341be0efffe67d72a12abb","94.134.108.182","Mozilla/5.0 (Windows NT 10.0; Win64; x64) AppleWebKit/537.36 (KHTML, like Gecko) Chrome/138.0.0.0 Safari/537.36","WebKit","Chrome","138.0.0.0","Windows","10.0","https://app.prolific.com/","de-DE,de;q=0.9,en-DE;q=0.8,en;q=0.7,es-ES;q=0.6,es;q=0.5,en-US;q=0.4","646219bb0b91a6f3327e39fb","683dba9a53627eb9ab41b36a","688a004e6d905469be4bb6ef","0","646219bb0b91a6f3327e39fb","0","","true","","","","","","","","","","","","","","","","","","","","","","","","","","","","","","","","","","","","","","","","",""
"2548","1753874561089"," <p style='font-size:1.1em;line-height:1.25'>Thank you for closing all other tabs.</p><p style='font-size:1.1em;line-height:1.25'>We will now invite you to fill in some questionnaires, before starting the game.<br>This will take about 5 minutes.<br></p><p style='font-size:1.1em;line-height:1.25'>Press the <strong>Next</strong> button to continue.</p>","0","custom-html-button-response","2","6640","0.0-2.0","95","1","2025-07-30 11:22:33","36c45c0696341be0efffe67d72a12abb","94.134.108.182","Mozilla/5.0 (Windows NT 10.0; Win64; x64) AppleWebKit/537.36 (KHTML, like Gecko) Chrome/138.0.0.0 Safari/537.36","WebKit","Chrome","138.0.0.0","Windows","10.0","https://app.prolific.com/","de-DE,de;q=0.9,en-DE;q=0.8,en;q=0.7,es-ES;q=0.6,es;q=0.5,en-US;q=0.4","646219bb0b91a6f3327e39fb","683dba9a53627eb9ab41b36a","688a004e6d905469be4bb6ef","0","646219bb0b91a6f3327e39fb","0","2025-07-30T11:22:41.090Z","","","","","","","","","","","","","","","","","","","","","","","","","","","","","","","","","","","","","","","","","",""
"2840","","","{""assigned_sex"":""female""}","survey-multi-choice","3","9481","0.0-3.0-0.0","95","1","2025-07-30 11:22:33","36c45c0696341be0efffe67d72a12abb","94.134.108.182","Mozilla/5.0 (Windows NT 10.0; Win64; x64) AppleWebKit/537.36 (KHTML, like Gecko) Chrome/138.0.0.0 Safari/537.36","WebKit","Chrome","138.0.0.0","Windows","10.0","https://app.prolific.com/","de-DE,de;q=0.9,en-DE;q=0.8,en;q=0.7,es-ES;q=0.6,es;q=0.5,en-US;q=0.4","646219bb0b91a6f3327e39fb","683dba9a53627eb9ab41b36a","688a004e6d905469be4bb6ef","0","646219bb0b91a6f3327e39fb","0","","","[0]","0","demographics","","","","","","","","","","","","","","","","","","","","","","","","","","","","","","","","","","","","","",""
"1901","1753874565833","<p style='font-size:1.1em;line-height:1.25'>In the following, we will perform a baseline assessment. This means that we will ask you a few questions relating to your experiences over the past month.<br></p><p style='font-size:1.1em;line-height:1.25'>Press the <strong>Next</strong> button to continue.</p>","0","custom-html-button-response","4","11383","0.0-4.0-0.0","95","1","2025-07-30 11:22:33","36c45c0696341be0efffe67d72a12abb","94.134.108.182","Mozilla/5.0 (Windows NT 10.0; Win64; x64) AppleWebKit/537.36 (KHTML, like Gecko) Chrome/138.0.0.0 Safari/537.36","WebKit","Chrome","138.0.0.0","Windows","10.0","https://app.prolific.com/","de-DE,de;q=0.9,en-DE;q=0.8,en;q=0.7,es-ES;q=0.6,es;q=0.5,en-US;q=0.4","646219bb0b91a6f3327e39fb","683dba9a53627eb9ab41b36a","688a004e6d905469be4bb6ef","0","646219bb0b91a6f3327e39fb","0","2025-07-30T11:22:45.833Z","","","","","","","","","","","","","","","","","","","","","","","","","","","","","","","","","","","","","","","","","",""
"36905.80000001192","","","","survey-template","5","48289","0.0-4.0-1.0","95","1","2025-07-30 11:22:33","36c45c0696341be0efffe67d72a12abb","94.134.108.182","Mozilla/5.0 (Windows NT 10.0; Win64; x64) AppleWebKit/537.36 (KHTML, like Gecko) Chrome/138.0.0.0 Safari/537.36","WebKit","Chrome","138.0.0.0","Windows","10.0","https://app.prolific.com/","de-DE,de;q=0.9,en-DE;q=0.8,en;q=0.7,es-ES;q=0.6,es;q=0.5,en-US;q=0.4","646219bb0b91a6f3327e39fb","683dba9a53627eb9ab41b36a","688a004e6d905469be4bb6ef","0","646219bb0b91a6f3327e39fb","0","2025-07-30T11:23:22.739Z","","","","pss","{""Q01"":""1"",""Q02"":""1"",""Q03"":""2"",""Q04"":""1"",""Q05"":""3"",""Q06"":""0"",""Q07"":""1"",""Q08"":""2"",""Q09"":""2"",""Q10"":""1""}","[0,1,2,3,4,5,6,7,8,9]","[""Q01"",""Q02"",""Q03"",""Q04"",""Q05"",""Q06"",""Q07"",""Q08"",""Q09"",""Q10"",""Q10""]","[5760.0999999940395,7388.5999999940395,11989,17153,18964.19999998808,23942.80000001192,26676,29977.40000000596,32603.90000000596,35166.40000000596,36399.19999998808]","[]","[0.09999999403953552,5760.0999999940395,7388.5999999940395,8452.800000011921,11402.40000000596,11989,17153,18964.19999998808,23942.80000001192,26676,29977.40000000596,32603.90000000596,35166.40000000596,36399.19999998808,36904.09999999404]","0.4","0.5555555555555556","0","","","","","","","","","","","","","","","","","","","","","","","","","","","","",""
"1241","1753874603981","<p style='font-size:1.1em;line-height:1.25'>Thank you for your answers! Now we will ask you a few more questions relating to your feelings in the last 24 hours.<br></p><p style='font-size:1.1em;line-height:1.25'>Press the <strong>Next</strong> button to continue.</p>","0","custom-html-button-response","6","49532","0.0-4.0-2.0","95","1","2025-07-30 11:22:33","36c45c0696341be0efffe67d72a12abb","94.134.108.182","Mozilla/5.0 (Windows NT 10.0; Win64; x64) AppleWebKit/537.36 (KHTML, like Gecko) Chrome/138.0.0.0 Safari/537.36","WebKit","Chrome","138.0.0.0","Windows","10.0","https://app.prolific.com/","de-DE,de;q=0.9,en-DE;q=0.8,en;q=0.7,es-ES;q=0.6,es;q=0.5,en-US;q=0.4","646219bb0b91a6f3327e39fb","683dba9a53627eb9ab41b36a","688a004e6d905469be4bb6ef","0","646219bb0b91a6f3327e39fb","0","2025-07-30T11:23:23.982Z","","","","","","","","","","","","","","","","","","","","","","","","","","","","","","","","","","","","","","","","","",""
"57253.5","","","","survey-template","7","106786","0.0-4.0-3.0","95","1","2025-07-30 11:22:33","36c45c0696341be0efffe67d72a12abb","94.134.108.182","Mozilla/5.0 (Windows NT 10.0; Win64; x64) AppleWebKit/537.36 (KHTML, like Gecko) Chrome/138.0.0.0 Safari/537.36","WebKit","Chrome","138.0.0.0","Windows","10.0","https://app.prolific.com/","de-DE,de;q=0.9,en-DE;q=0.8,en;q=0.7,es-ES;q=0.6,es;q=0.5,en-US;q=0.4","646219bb0b91a6f3327e39fb","683dba9a53627eb9ab41b36a","688a004e6d905469be4bb6ef","0","646219bb0b91a6f3327e39fb","0","2025-07-30T11:24:21.236Z","","","","drsp","{""Q01"":""0"",""Q02"":""0"",""Q03"":""0"",""Q04"":""0"",""Q05"":""1"",""Q06"":""0"",""Q07"":""1"",""Q08"":""0"",""Q09"":""2"",""Q10"":""2"",""Q11"":""3"",""Q12"":""0"",""Q13"":""5"",""Q14"":""0"",""Q15"":""4"",""Q16"":""4"",""Q17"":""1"",""Q18"":""0"",""Q19"":""1"",""Q20"":""0"",""Q21"":""1"",""Q22"":""0""}","[0,1,2,3,4,5,6,7,8,9,10,11,12,13,14,15,16,17,18,19,20,21]","[""Q01"",""Q02"",""Q03"",""Q04"",""Q05"",""Q06"",""Q07"",""Q08"",""Q09"",""Q10"",""Q11"",""Q12"",""Q13"",""Q14"",""Q15"",""Q16"",""Q17"",""Q18"",""Q19"",""Q20"",""Q19"",""Q21"",""Q22"",""Q21""]","[5453.9000000059605,6991.9000000059605,7600.4000000059605,8412.699999988079,10959.299999982119,11944.799999982119,14329.699999988079,15307.5,16600.19999998808,18801.09999999404,19876.90000000596,23930.19999998808,25081.79999998212,27754.29999998212,29279.79999998212,35235.69999998808,46643.69999998808,47538.29999998212,48289,49890.59999999404,52294.90000000596,53141.79999998212,54256.5,55583.40000000596]","[]","[0,4907,5453.9000000059605,6067.9000000059605,6991.9000000059605,7600.4000000059605,8412.699999988079,10959.299999982119,11944.799999982119,14329.699999988079,15307.5,16600.19999998808,18801.09999999404,19876.90000000596,23930.19999998808,25081.79999998212,27754.29999998212,29279.79999998212,34321.09999999404,35235.69999998808,46643.69999998808,47538.29999998212,48289,49890.59999999404,52294.90000000596,53141.79999998212,54256.5,55583.40000000596,57250.79999998212]","0.5","0.5714285714285714","0","","","","","","","","","","","","","","","","","","","","","","","","","","","","",""
"9337.5","","","","survey-template","8","116125","0.0-4.0-4.0","95","1","2025-07-30 11:22:33","36c45c0696341be0efffe67d72a12abb","94.134.108.182","Mozilla/5.0 (Windows NT 10.0; Win64; x64) AppleWebKit/537.36 (KHTML, like Gecko) Chrome/138.0.0.0 Safari/537.36","WebKit","Chrome","138.0.0.0","Windows","10.0","https://app.prolific.com/","de-DE,de;q=0.9,en-DE;q=0.8,en;q=0.7,es-ES;q=0.6,es;q=0.5,en-US;q=0.4","646219bb0b91a6f3327e39fb","683dba9a53627eb9ab41b36a","688a004e6d905469be4bb6ef","0","646219bb0b91a6f3327e39fb","0","2025-07-30T11:24:30.575Z","","","","stress","{""Q01"":""1"",""Q02"":""4"",""Q03"":""0""}","[0,1,2]","[""Q01"",""Q02"",""Q03""]","[4996.700000017881,6680.200000017881,8263.09999999404]","[]","[3975.7000000178814,4996.700000017881,6218.5999999940395,6680.200000017881,8263.09999999404,9066.800000011921,9336.700000017881]","0.6666666666666666","0.5","0","","","","","","","","","","","","","","","","","","","","","","","","","","","","",""
"1348","","","","instructions","9","117474","0.0-5.0-0.0","95","1","2025-07-30 11:22:33","36c45c0696341be0efffe67d72a12abb","94.134.108.182","Mozilla/5.0 (Windows NT 10.0; Win64; x64) AppleWebKit/537.36 (KHTML, like Gecko) Chrome/138.0.0.0 Safari/537.36","WebKit","Chrome","138.0.0.0","Windows","10.0","https://app.prolific.com/","de-DE,de;q=0.9,en-DE;q=0.8,en;q=0.7,es-ES;q=0.6,es;q=0.5,en-US;q=0.4","646219bb0b91a6f3327e39fb","683dba9a53627eb9ab41b36a","688a004e6d905469be4bb6ef","0","646219bb0b91a6f3327e39fb","0","","","","","","","","","","","","","","","[{""page_index"":0,""viewing_time"":1348}]","","","","","","","","","","","","","","","","","","","","","","","","","","","",""
"1811","","<p>Before you start with this game please answer the following three questions yourself. </p>
  <p>Through this game, we measure several aspects of your cognitive performance, such as reaction times, multi-tasking capabilities </p>
  <p>and the ability to assess the situation you are in.</p>
  <p></p>
  <p><b>How good do you usually are in such tasks?</b></p>","65","html-slider-response","10","119285","0.0-6.0-0.0","95","1","2025-07-30 11:22:33","36c45c0696341be0efffe67d72a12abb","94.134.108.182","Mozilla/5.0 (Windows NT 10.0; Win64; x64) AppleWebKit/537.36 (KHTML, like Gecko) Chrome/138.0.0.0 Safari/537.36","WebKit","Chrome","138.0.0.0","Windows","10.0","https://app.prolific.com/","de-DE,de;q=0.9,en-DE;q=0.8,en;q=0.7,es-ES;q=0.6,es;q=0.5,en-US;q=0.4","646219bb0b91a6f3327e39fb","683dba9a53627eb9ab41b36a","688a004e6d905469be4bb6ef","0","646219bb0b91a6f3327e39fb","0","2025-07-30T11:24:33.735Z","","","","PreSkillQ","","","","","","","","","","","50","","","","","","","","","","","","","","","","","","","","","","","","","","",""
"1751","","<div style=""width:500px;"">
  <p>How well do you think you will perform in this task compared to other participants?</p>
  </div>","32","html-slider-response","11","121037","0.0-6.0-1.0","95","1","2025-07-30 11:22:33","36c45c0696341be0efffe67d72a12abb","94.134.108.182","Mozilla/5.0 (Windows NT 10.0; Win64; x64) AppleWebKit/537.36 (KHTML, like Gecko) Chrome/138.0.0.0 Safari/537.36","WebKit","Chrome","138.0.0.0","Windows","10.0","https://app.prolific.com/","de-DE,de;q=0.9,en-DE;q=0.8,en;q=0.7,es-ES;q=0.6,es;q=0.5,en-US;q=0.4","646219bb0b91a6f3327e39fb","683dba9a53627eb9ab41b36a","688a004e6d905469be4bb6ef","0","646219bb0b91a6f3327e39fb","0","2025-07-30T11:24:35.487Z","","","","PrePerfQ","","","","","","","","","","","50","","","","","","","","","","","","","","","","","","","","","","","","","","",""
"2482","","<div style=""width:500px;"">
  <p>What best describes how you currently feel?</p>
  </div>","42","html-slider-response","12","123519","0.0-6.0-2.0","95","1","2025-07-30 11:22:33","36c45c0696341be0efffe67d72a12abb","94.134.108.182","Mozilla/5.0 (Windows NT 10.0; Win64; x64) AppleWebKit/537.36 (KHTML, like Gecko) Chrome/138.0.0.0 Safari/537.36","WebKit","Chrome","138.0.0.0","Windows","10.0","https://app.prolific.com/","de-DE,de;q=0.9,en-DE;q=0.8,en;q=0.7,es-ES;q=0.6,es;q=0.5,en-US;q=0.4","646219bb0b91a6f3327e39fb","683dba9a53627eb9ab41b36a","688a004e6d905469be4bb6ef","0","646219bb0b91a6f3327e39fb","0","2025-07-30T11:24:37.969Z","","","","PreMotivationQ","","","","","","","","","","","50","","","","","","","","","","","","","","","","","","","","","","","","","","",""
"","","","","ctl-task-cpt","13","157951","0.0-7.0-0.0","95","1","2025-07-30 11:22:33","36c45c0696341be0efffe67d72a12abb","94.134.108.182","Mozilla/5.0 (Windows NT 10.0; Win64; x64) AppleWebKit/537.36 (KHTML, like Gecko) Chrome/138.0.0.0 Safari/537.36","WebKit","Chrome","138.0.0.0","Windows","10.0","https://app.prolific.com/","de-DE,de;q=0.9,en-DE;q=0.8,en;q=0.7,es-ES;q=0.6,es;q=0.5,en-US;q=0.4","646219bb0b91a6f3327e39fb","683dba9a53627eb9ab41b36a","688a004e6d905469be4bb6ef","0","646219bb0b91a6f3327e39fb","0","2025-07-30T11:25:12.401Z","","","","","","","","","","","","","","","","win-only","3","g1:SW,g2:NE","1","1","0","125096.2","846.7","5852.5","31428.8","1","4","4","6","2","4","4","4","0","0.030303030303030304","1661.2","3000","1270","[""up"",""right""]","{""num_key_presses"":6,""num_perfect"":6,""num_errors"":0,""num_randdir"":0,""num_randdir_good_moves"":0,""num_whilered"":0,""num_whileblue"":0,""num_blue"":3,""num_good_moves"":6}","[551.4285714285714,573.3348214285714,0.2,551.4285714285714,573.3348214285714,104.6,551.4285714285714,573.3348214285714,205.1,551.4285714285714,573.3348214285714,308.8,551.4285714285714,573.3348214285714,409.3,461.42857142857144,643.3348214285714,515.3,445.42857142857144,678.3348214285714,618.9,310.42857142857144,812.3348214285714,719.1,180.42857142857144,940.3348214285714,819.2,123.42857142857143,1007.3348214285714,920,123.42857142857143,1007.3348214285714,1024.3,134.42857142857144,1003.3348214285714,1131,555.4285714285714,614.3348214285714,1234,1056.4285714285713,84.33482142857143,1334.4,1088.4285714285713,56.33482142857143,1434.8,1088.4285714285713,56.33482142857143,1539.4,1065.4285714285713,73.33482142857143,1640.1,1065.4285714285713,74.33482142857143,1744.4,1065.4285714285713,74.33482142857143,1849.9,1057.4285714285713,86.33482142857143,1954,910.4285714285714,402.33482142857144,2054.9,802.4285714285714,532.3348214285714,2155.3,802.4285714285714,532.3348214285714,2259,802.4285714285714,532.3348214285714,2359.1,802.4285714285714,532.3348214285714,2459.3,802.4285714285714,532.3348214285714,2560.3,802.4285714285714,532.3348214285714,2664.7,802.4285714285714,532.3348214285714,2765,791.4285714285714,530.3348214285714,2865.2,838.4285714285714,523.3348214285714,2965.4,958.4285714285714,524.3348214285714,3069,958.4285714285714,524.3348214285714,3169.2,958.4285714285714,524.3348214285714,3273.6,958.4285714285714,524.3348214285714,3373.7,958.4285714285714,524.3348214285714,3473.8,958.4285714285714,524.3348214285714,3579.7,958.4285714285714,524.3348214285714,3680.2,958.4285714285714,524.3348214285714,3785.1,958.4285714285714,524.3348214285714,3889.1,958.4285714285714,524.3348214285714,3990,958.4285714285714,524.3348214285714,4095,958.4285714285714,524.3348214285714,4195.1,958.4285714285714,524.3348214285714,4301.2,958.4285714285714,524.3348214285714,4404.6,958.4285714285714,524.3348214285714,4504.9,958.4285714285714,524.3348214285714,4609.5,958.4285714285714,524.3348214285714,4714.4,958.4285714285714,524.3348214285714,4815.1,958.4285714285714,524.3348214285714,4919.2]","[5232,5231.9,2932.8,2003.4,295.8,""smooth"",""right"",""right"",""good_move"",7542.7,2310.2,2007,5232.5,303.2,""smooth"",""right"",""right"",""good_move"",14297.7,6754.8,2732.4,11273.7,291.6,""smooth"",""up"",""up"",""good_move"",16703.1,2405.1,2119.8,14298.1,285.3,""smooth"",""up"",""up"",""good_move"",19020.9,2317.4,2005.4,16703.5,312,""smooth"",""up"",""up"",""good_move"",25482.5,6461.3,2837.9,22348.4,296.3,""smooth"",""right"",""right"",""good_move""]"
"2647","","<div style=""width:500px;"">
  <p>What determined the result of this run?</p>
  </div>","100","html-slider-response","14","160600","0.0-7.0-1.0","95","1","2025-07-30 11:22:33","36c45c0696341be0efffe67d72a12abb","94.134.108.182","Mozilla/5.0 (Windows NT 10.0; Win64; x64) AppleWebKit/537.36 (KHTML, like Gecko) Chrome/138.0.0.0 Safari/537.36","WebKit","Chrome","138.0.0.0","Windows","10.0","https://app.prolific.com/","de-DE,de;q=0.9,en-DE;q=0.8,en;q=0.7,es-ES;q=0.6,es;q=0.5,en-US;q=0.4","646219bb0b91a6f3327e39fb","683dba9a53627eb9ab41b36a","688a004e6d905469be4bb6ef","0","646219bb0b91a6f3327e39fb","0","2025-07-30T11:25:15.050Z","","","","AttribQ","","","","","","","","","","","50","","","","","","","","","","","","","","","","","","","","","","","","","","",""
"1854","","<div style=""width:500px;"">
  <p>How much control did you have over the ball?</p>
  </div>","100","html-slider-response","15","162454","0.0-7.0-2.0","95","1","2025-07-30 11:22:33","36c45c0696341be0efffe67d72a12abb","94.134.108.182","Mozilla/5.0 (Windows NT 10.0; Win64; x64) AppleWebKit/537.36 (KHTML, like Gecko) Chrome/138.0.0.0 Safari/537.36","WebKit","Chrome","138.0.0.0","Windows","10.0","https://app.prolific.com/","de-DE,de;q=0.9,en-DE;q=0.8,en;q=0.7,es-ES;q=0.6,es;q=0.5,en-US;q=0.4","646219bb0b91a6f3327e39fb","683dba9a53627eb9ab41b36a","688a004e6d905469be4bb6ef","0","646219bb0b91a6f3327e39fb","0","2025-07-30T11:25:16.904Z","","","","ControlQ","","","","","","","","","","","50","","","","","","","","","","","","","","","","","","","","","","","","","","",""
"3600","","<div style=""width:500px;"">
  <p>How would you describe your current emotional state?</p>
  </div>","30","html-slider-response","16","166055","0.0-7.0-3.0","95","1","2025-07-30 11:22:33","36c45c0696341be0efffe67d72a12abb","94.134.108.182","Mozilla/5.0 (Windows NT 10.0; Win64; x64) AppleWebKit/537.36 (KHTML, like Gecko) Chrome/138.0.0.0 Safari/537.36","WebKit","Chrome","138.0.0.0","Windows","10.0","https://app.prolific.com/","de-DE,de;q=0.9,en-DE;q=0.8,en;q=0.7,es-ES;q=0.6,es;q=0.5,en-US;q=0.4","646219bb0b91a6f3327e39fb","683dba9a53627eb9ab41b36a","688a004e6d905469be4bb6ef","0","646219bb0b91a6f3327e39fb","0","2025-07-30T11:25:20.506Z","","","","StressQ","","","","","","","","","","","50","","","","","","","","","","","","","","","","","","","","","","","","","","",""
"14841","","<div style=""width:500px;"">
  <p>What best describes how you currently feel?</p>
  </div>","64","html-slider-response","17","180897","0.0-7.0-4.0","95","1","2025-07-30 11:22:33","36c45c0696341be0efffe67d72a12abb","94.134.108.182","Mozilla/5.0 (Windows NT 10.0; Win64; x64) AppleWebKit/537.36 (KHTML, like Gecko) Chrome/138.0.0.0 Safari/537.36","WebKit","Chrome","138.0.0.0","Windows","10.0","https://app.prolific.com/","de-DE,de;q=0.9,en-DE;q=0.8,en;q=0.7,es-ES;q=0.6,es;q=0.5,en-US;q=0.4","646219bb0b91a6f3327e39fb","683dba9a53627eb9ab41b36a","688a004e6d905469be4bb6ef","0","646219bb0b91a6f3327e39fb","0","2025-07-30T11:25:35.347Z","","","","MotivationQ","","","","","","","","","","","50","","","","","","","","","","","","","","","","","","","","","","","","","","",""
"","","","","ctl-task-cpt","18","213530","0.0-7.0-0.1","95","1","2025-07-30 11:22:33","36c45c0696341be0efffe67d72a12abb","94.134.108.182","Mozilla/5.0 (Windows NT 10.0; Win64; x64) AppleWebKit/537.36 (KHTML, like Gecko) Chrome/138.0.0.0 Safari/537.36","WebKit","Chrome","138.0.0.0","Windows","10.0","https://app.prolific.com/","de-DE,de;q=0.9,en-DE;q=0.8,en;q=0.7,es-ES;q=0.6,es;q=0.5,en-US;q=0.4","646219bb0b91a6f3327e39fb","683dba9a53627eb9ab41b36a","688a004e6d905469be4bb6ef","0","646219bb0b91a6f3327e39fb","0","2025-07-30T11:26:07.980Z","","","","","","","","","","","","","","","","win-only","1","g1:NE,g2:SW","0.9","2","0","182475.7","999.4","6000.7","29625.8","1","4","8","6","2","8","8","12","4","0.09090909090909091","1224.1","3000","1275","[""down"",""left""]","{""num_key_presses"":6,""num_perfect"":6,""num_errors"":0,""num_randdir"":0,""num_randdir_good_moves"":0,""num_whilered"":0,""num_whileblue"":0,""num_blue"":2,""num_good_moves"":6}","[564.4285714285714,544.3348214285714,0.2,563.4285714285714,544.3348214285714,101.1,561.4285714285714,546.3348214285714,202,561.4285714285714,546.3348214285714,302,561.4285714285714,546.3348214285714,402.2,561.4285714285714,546.3348214285714,506.3,561.4285714285714,546.3348214285714,606.7,561.4285714285714,546.3348214285714,707.6,533.4285714285714,561.3348214285714,811.5,394.42857142857144,707.3348214285714,917.7,179.42857142857144,910.3348214285714,1021,145.42857142857144,927.3348214285714,1121.3,107.42857142857143,999.3348214285714,1221.6,107.42857142857143,999.3348214285714,1322.1,115.42857142857143,999.3348214285714,1426.3,725.4285714285714,1082.3348214285713,1531.1,1004.4285714285714,1150.3348214285713,1631.6,1010.4285714285714,1150.3348214285713,1737.3,1010.4285714285714,1150.3348214285713,1841.8,1010.4285714285714,1150.3348214285713,1943.1,1010.4285714285714,1150.3348214285713,2046.8,1010.4285714285714,1150.3348214285713,2151.5,1010.4285714285714,1150.3348214285713,2251.6,1010.4285714285714,1150.3348214285713,2352.1,1010.4285714285714,1150.3348214285713,2456.4,1010.4285714285714,1150.3348214285713,2556.4,1010.4285714285714,1150.3348214285713,2657,1010.4285714285714,1150.3348214285713,2761.4,1000.4285714285714,1145.3348214285713,2862.5,992.4285714285714,1142.3348214285713,2962.5,992.4285714285714,1142.3348214285713,3066.2,992.4285714285714,1142.3348214285713,3166.7,990.4285714285714,1142.3348214285713,3272.3,990.4285714285714,1142.3348214285713,3376.5,990.4285714285714,1142.3348214285713,3476.9,990.4285714285714,1142.3348214285713,3580.9,990.4285714285714,1142.3348214285713,3681,990.4285714285714,1142.3348214285713,3787.5,990.4285714285714,1142.3348214285713,3891.5,990.4285714285714,1142.3348214285713,3991.9,990.4285714285714,1142.3348214285713,4096.6,990.4285714285714,1142.3348214285713,4196.6,990.4285714285714,1142.3348214285713,4296.8,990.4285714285714,1142.3348214285713,4397,990.4285714285714,1142.3348214285713,4497.1,990.4285714285714,1142.3348214285713,4601,990.4285714285714,1142.3348214285713,4701.6,990.4285714285714,1142.3348214285713,4801.7,990.4285714285714,1142.3348214285713,4901.7]","[4105.2,4105.2,1807.5,2009.7,288,""smooth"",""left"",""left"",""good_move"",7123.6,3018.2,2736.6,4105.4,281.6,""smooth"",""down"",""down"",""good_move"",10757.7,3633.9,3366.1,7123.8,267.8,""smooth"",""left"",""left"",""good_move"",13623.3,2865.4,2516.3,10757.9,349.1,""smooth"",""left"",""left"",""good_move"",16349.9,2726.5,2470.9,13623.4,255.6,""smooth"",""down"",""down"",""good_move"",23530.8,7180.6,2804,20415.6,311.2,""smooth"",""down"",""down"",""good_move""]"
"2330","","<div style=""width:500px;"">
  <p>What determined the result of this run?</p>
  </div>","100","html-slider-response","19","215861","0.0-7.0-1.1","95","1","2025-07-30 11:22:33","36c45c0696341be0efffe67d72a12abb","94.134.108.182","Mozilla/5.0 (Windows NT 10.0; Win64; x64) AppleWebKit/537.36 (KHTML, like Gecko) Chrome/138.0.0.0 Safari/537.36","WebKit","Chrome","138.0.0.0","Windows","10.0","https://app.prolific.com/","de-DE,de;q=0.9,en-DE;q=0.8,en;q=0.7,es-ES;q=0.6,es;q=0.5,en-US;q=0.4","646219bb0b91a6f3327e39fb","683dba9a53627eb9ab41b36a","688a004e6d905469be4bb6ef","0","646219bb0b91a6f3327e39fb","0","2025-07-30T11:26:10.311Z","","","","AttribQ","","","","","","","","","","","50","","","","","","","","","","","","","","","","","","","","","","","","","","",""
"1703","","<div style=""width:500px;"">
  <p>How much control did you have over the ball?</p>
  </div>","100","html-slider-response","20","217564","0.0-7.0-2.1","95","1","2025-07-30 11:22:33","36c45c0696341be0efffe67d72a12abb","94.134.108.182","Mozilla/5.0 (Windows NT 10.0; Win64; x64) AppleWebKit/537.36 (KHTML, like Gecko) Chrome/138.0.0.0 Safari/537.36","WebKit","Chrome","138.0.0.0","Windows","10.0","https://app.prolific.com/","de-DE,de;q=0.9,en-DE;q=0.8,en;q=0.7,es-ES;q=0.6,es;q=0.5,en-US;q=0.4","646219bb0b91a6f3327e39fb","683dba9a53627eb9ab41b36a","688a004e6d905469be4bb6ef","0","646219bb0b91a6f3327e39fb","0","2025-07-30T11:26:12.014Z","","","","ControlQ","","","","","","","","","","","50","","","","","","","","","","","","","","","","","","","","","","","","","","",""
"2270","","<div style=""width:500px;"">
  <p>How would you describe your current emotional state?</p>
  </div>","37","html-slider-response","21","219835","0.0-7.0-3.1","95","1","2025-07-30 11:22:33","36c45c0696341be0efffe67d72a12abb","94.134.108.182","Mozilla/5.0 (Windows NT 10.0; Win64; x64) AppleWebKit/537.36 (KHTML, like Gecko) Chrome/138.0.0.0 Safari/537.36","WebKit","Chrome","138.0.0.0","Windows","10.0","https://app.prolific.com/","de-DE,de;q=0.9,en-DE;q=0.8,en;q=0.7,es-ES;q=0.6,es;q=0.5,en-US;q=0.4","646219bb0b91a6f3327e39fb","683dba9a53627eb9ab41b36a","688a004e6d905469be4bb6ef","0","646219bb0b91a6f3327e39fb","0","2025-07-30T11:26:14.285Z","","","","StressQ","","","","","","","","","","","50","","","","","","","","","","","","","","","","","","","","","","","","","","",""
"2637","","<div style=""width:500px;"">
  <p>What best describes how you currently feel?</p>
  </div>","66","html-slider-response","22","222473","0.0-7.0-4.1","95","1","2025-07-30 11:22:33","36c45c0696341be0efffe67d72a12abb","94.134.108.182","Mozilla/5.0 (Windows NT 10.0; Win64; x64) AppleWebKit/537.36 (KHTML, like Gecko) Chrome/138.0.0.0 Safari/537.36","WebKit","Chrome","138.0.0.0","Windows","10.0","https://app.prolific.com/","de-DE,de;q=0.9,en-DE;q=0.8,en;q=0.7,es-ES;q=0.6,es;q=0.5,en-US;q=0.4","646219bb0b91a6f3327e39fb","683dba9a53627eb9ab41b36a","688a004e6d905469be4bb6ef","0","646219bb0b91a6f3327e39fb","0","2025-07-30T11:26:16.923Z","","","","MotivationQ","","","","","","","","","","","50","","","","","","","","","","","","","","","","","","","","","","","","","","",""
"","","","","ctl-task-cpt","23","246148","0.0-7.0-0.2","95","1","2025-07-30 11:22:33","36c45c0696341be0efffe67d72a12abb","94.134.108.182","Mozilla/5.0 (Windows NT 10.0; Win64; x64) AppleWebKit/537.36 (KHTML, like Gecko) Chrome/138.0.0.0 Safari/537.36","WebKit","Chrome","138.0.0.0","Windows","10.0","https://app.prolific.com/","de-DE,de;q=0.9,en-DE;q=0.8,en;q=0.7,es-ES;q=0.6,es;q=0.5,en-US;q=0.4","646219bb0b91a6f3327e39fb","683dba9a53627eb9ab41b36a","688a004e6d905469be4bb6ef","0","646219bb0b91a6f3327e39fb","0","2025-07-30T11:26:40.598Z","","","","","","","","","","","","","","","","win-only","2","g1:SE,g2:NW","0.8","3","0","224052.3","601.2","5606.7","20655.8","1","4","8","6","2","8","8","20","12","0.15151515151515152","3085.9","3000","1265","[""left"",""up""]","{""num_key_presses"":6,""num_perfect"":5,""num_errors"":0,""num_randdir"":1,""num_randdir_good_moves"":1,""num_whilered"":0,""num_whileblue"":0,""num_blue"":0,""num_good_moves"":6}","[557.4285714285714,559.3348214285714,0.2,557.4285714285714,559.3348214285714,104.9,557.4285714285714,559.3348214285714,209.5,555.4285714285714,560.3348214285714,309.9,553.4285714285714,560.3348214285714,414.8,553.4285714285714,560.3348214285714,514.8,552.4285714285714,563.3348214285714,615.2,552.4285714285714,563.3348214285714,719.2,552.4285714285714,564.3348214285714,819.2,552.4285714285714,566.3348214285714,919.5,553.4285714285714,567.3348214285714,1019.5,559.4285714285714,571.3348214285714,1124.8,565.4285714285714,578.3348214285714,1229.3,590.4285714285714,632.3348214285714,1329.6,630.4285714285714,696.3348214285714,1429.6,636.4285714285714,704.3348214285714,1530.4,646.4285714285714,715.3348214285714,1635.3,807.4285714285714,854.3348214285714,1739.1,947.4285714285714,944.3348214285714,1839.4,960.4285714285714,945.3348214285714,1939.4,961.4285714285714,945.3348214285714,2044.1,961.4285714285714,945.3348214285714,2146,957.4285714285714,945.3348214285714,2249.9,960.4285714285714,948.3348214285714,2354.5,973.4285714285714,958.3348214285714,2459.5,982.4285714285714,966.3348214285714,2559.7,952.4285714285714,951.3348214285714,2665.1,418.42857142857144,464.33482142857144,2769.5,258.42857142857144,264.33482142857144,2870,186.42857142857144,193.33482142857144,2975.9,117.42857142857143,129.33482142857144,3079.9,117.42857142857143,128.33482142857144,3180,125.42857142857143,156.33482142857144,3284.4,425.42857142857144,401.33482142857144,3389.4,1420.4285714285713,863.3348214285714,3489.4,1679.4285714285713,949.3348214285714,3590.6,1679.4285714285713,949.3348214285714,3694.7,1679.4285714285713,949.3348214285714,3799.2,1679.4285714285713,949.3348214285714,3899.9,1679.4285714285713,949.3348214285714,4004,1679.4285714285713,949.3348214285714,4105.4,1679.4285714285713,949.3348214285714,4209,1679.4285714285713,949.3348214285714,4309.4,1679.4285714285713,949.3348214285714,4409.7,1679.4285714285713,949.3348214285714,4515.1,1679.4285714285713,949.3348214285714,4620,1679.4285714285713,949.3348214285714,4724.8,1679.4285714285713,949.3348214285714,4825.3,1679.4285714285713,949.3348214285714,4930.1]","[1271.6,1271.6,1000,0,271.6,""smooth"",""left"",""left"",""good_move"",3632.3,2360,2117,1272.3,243,""smooth"",""up"",""up"",""good_move"",6174.7,2542.2,2290.8,3632.5,251.4,""oops"",""left"",""up"",""good_move"",9975.7,3800.8,3369.8,6174.9,431,""smooth"",""left"",""left"",""good_move"",12738.6,2762.8,2459.8,9975.8,303,""smooth"",""left"",""left"",""good_move"",14963.2,2224.4,1954.7,12738.8,269.7,""smooth"",""up"",""up"",""good_move""]"
"2790","","<div style=""width:500px;"">
  <p>What determined the result of this run?</p>
  </div>","88","html-slider-response","24","248939","0.0-7.0-1.2","95","1","2025-07-30 11:22:33","36c45c0696341be0efffe67d72a12abb","94.134.108.182","Mozilla/5.0 (Windows NT 10.0; Win64; x64) AppleWebKit/537.36 (KHTML, like Gecko) Chrome/138.0.0.0 Safari/537.36","WebKit","Chrome","138.0.0.0","Windows","10.0","https://app.prolific.com/","de-DE,de;q=0.9,en-DE;q=0.8,en;q=0.7,es-ES;q=0.6,es;q=0.5,en-US;q=0.4","646219bb0b91a6f3327e39fb","683dba9a53627eb9ab41b36a","688a004e6d905469be4bb6ef","0","646219bb0b91a6f3327e39fb","0","2025-07-30T11:26:43.389Z","","","","AttribQ","","","","","","","","","","","50","","","","","","","","","","","","","","","","","","","","","","","","","","",""
"2641","","<div style=""width:500px;"">
  <p>How much control did you have over the ball?</p>
  </div>","79","html-slider-response","25","251581","0.0-7.0-2.2","95","1","2025-07-30 11:22:33","36c45c0696341be0efffe67d72a12abb","94.134.108.182","Mozilla/5.0 (Windows NT 10.0; Win64; x64) AppleWebKit/537.36 (KHTML, like Gecko) Chrome/138.0.0.0 Safari/537.36","WebKit","Chrome","138.0.0.0","Windows","10.0","https://app.prolific.com/","de-DE,de;q=0.9,en-DE;q=0.8,en;q=0.7,es-ES;q=0.6,es;q=0.5,en-US;q=0.4","646219bb0b91a6f3327e39fb","683dba9a53627eb9ab41b36a","688a004e6d905469be4bb6ef","0","646219bb0b91a6f3327e39fb","0","2025-07-30T11:26:46.031Z","","","","ControlQ","","","","","","","","","","","50","","","","","","","","","","","","","","","","","","","","","","","","","","",""
"3005","","<div style=""width:500px;"">
  <p>How would you describe your current emotional state?</p>
  </div>","34","html-slider-response","26","254587","0.0-7.0-3.2","95","1","2025-07-30 11:22:33","36c45c0696341be0efffe67d72a12abb","94.134.108.182","Mozilla/5.0 (Windows NT 10.0; Win64; x64) AppleWebKit/537.36 (KHTML, like Gecko) Chrome/138.0.0.0 Safari/537.36","WebKit","Chrome","138.0.0.0","Windows","10.0","https://app.prolific.com/","de-DE,de;q=0.9,en-DE;q=0.8,en;q=0.7,es-ES;q=0.6,es;q=0.5,en-US;q=0.4","646219bb0b91a6f3327e39fb","683dba9a53627eb9ab41b36a","688a004e6d905469be4bb6ef","0","646219bb0b91a6f3327e39fb","0","2025-07-30T11:26:49.037Z","","","","StressQ","","","","","","","","","","","50","","","","","","","","","","","","","","","","","","","","","","","","","","",""
"2602","","<div style=""width:500px;"">
  <p>What best describes how you currently feel?</p>
  </div>","60","html-slider-response","27","257190","0.0-7.0-4.2","95","1","2025-07-30 11:22:33","36c45c0696341be0efffe67d72a12abb","94.134.108.182","Mozilla/5.0 (Windows NT 10.0; Win64; x64) AppleWebKit/537.36 (KHTML, like Gecko) Chrome/138.0.0.0 Safari/537.36","WebKit","Chrome","138.0.0.0","Windows","10.0","https://app.prolific.com/","de-DE,de;q=0.9,en-DE;q=0.8,en;q=0.7,es-ES;q=0.6,es;q=0.5,en-US;q=0.4","646219bb0b91a6f3327e39fb","683dba9a53627eb9ab41b36a","688a004e6d905469be4bb6ef","0","646219bb0b91a6f3327e39fb","0","2025-07-30T11:26:51.640Z","","","","MotivationQ","","","","","","","","","","","50","","","","","","","","","","","","","","","","","","","","","","","","","","",""
"","","","","ctl-task-cpt","28","283573","0.0-7.0-0.3","95","1","2025-07-30 11:22:33","36c45c0696341be0efffe67d72a12abb","94.134.108.182","Mozilla/5.0 (Windows NT 10.0; Win64; x64) AppleWebKit/537.36 (KHTML, like Gecko) Chrome/138.0.0.0 Safari/537.36","WebKit","Chrome","138.0.0.0","Windows","10.0","https://app.prolific.com/","de-DE,de;q=0.9,en-DE;q=0.8,en;q=0.7,es-ES;q=0.6,es;q=0.5,en-US;q=0.4","646219bb0b91a6f3327e39fb","683dba9a53627eb9ab41b36a","688a004e6d905469be4bb6ef","0","646219bb0b91a6f3327e39fb","0","2025-07-30T11:27:18.023Z","","","","","","","","","","","","","","","","win-only","2","g1:SE,g2:NW","0.7","4","0","258770.1","596.9","5600.4","23375.8","1","4","4","6","1","1","1","21","20","0.1590909090909091","943","3000","1290","[""down"",""right""]","{""num_key_presses"":6,""num_perfect"":4,""num_errors"":0,""num_randdir"":2,""num_randdir_good_moves"":1,""num_whilered"":0,""num_whileblue"":0,""num_blue"":1,""num_good_moves"":5}","[552.4285714285714,563.3348214285714,0.2,553.4285714285714,563.3348214285714,103.6,553.4285714285714,563.3348214285714,204.3,552.4285714285714,563.3348214285714,309.6,550.4285714285714,565.3348214285714,414,548.4285714285714,574.3348214285714,514.3,567.4285714285714,617.3348214285714,619.4,789.4285714285714,822.3348214285714,724.3,932.4285714285714,921.3348214285714,824.3,979.4285714285714,992.3348214285714,924.5,986.4285714285714,991.3348214285714,1035.9,1008.4285714285714,990.3348214285714,1140.6,1595.4285714285713,1070.3348214285713,1243.6,1834.4285714285713,1131.3348214285713,1343.9,1834.4285714285713,1130.3348214285713,1444.2,1834.4285714285713,1126.3348214285713,1544.2,1834.4285714285713,1125.3348214285713,1645.6,1834.4285714285713,1125.3348214285713,1750.1,1834.4285714285713,1125.3348214285713,1854,1834.4285714285713,1125.3348214285713,1959.4,1834.4285714285713,1125.3348214285713,2063.9,1834.4285714285713,1125.3348214285713,2164.1,1834.4285714285713,1125.3348214285713,2264.3,1834.4285714285713,1125.3348214285713,2365.3,1834.4285714285713,1125.3348214285713,2469.7,1834.4285714285713,1125.3348214285713,2570.2,1834.4285714285713,1125.3348214285713,2672.4,1834.4285714285713,1125.3348214285713,2774.7,1834.4285714285713,1125.3348214285713,2879.1,1834.4285714285713,1125.3348214285713,2980.5,1834.4285714285713,1125.3348214285713,3084,1834.4285714285713,1125.3348214285713,3188.7,1834.4285714285713,1125.3348214285713,3289.4,1834.4285714285713,1125.3348214285713,3389.7,1834.4285714285713,1125.3348214285713,3493.8,1834.4285714285713,1125.3348214285713,3594.2,1834.4285714285713,1125.3348214285713,3698.5,1834.4285714285713,1125.3348214285713,3799.1,1834.4285714285713,1125.3348214285713,3904.7,1834.4285714285713,1125.3348214285713,4009.1,1834.4285714285713,1125.3348214285713,4114.1,1834.4285714285713,1125.3348214285713,4215.1,1834.4285714285713,1125.3348214285713,4320.2,1834.4285714285713,1125.3348214285713,4424.4,1834.4285714285713,1125.3348214285713,4529.2,1834.4285714285713,1125.3348214285713,4635.1,1834.4285714285713,1125.3348214285713,4738.8,1834.4285714285713,1125.3348214285713,4839.1,1834.4285714285713,1125.3348214285713,4939.1]","[1283.5,1283.5,1000,0,283.5,""oops"",""down"",""left"",""bad_move"",7280.8,5996.8,2300.1,4671.4,309.4,""smooth"",""down"",""down"",""good_move"",9630.6,2349.5,2033.9,7281.1,315.6,""smooth"",""right"",""right"",""good_move"",12321.9,2691,2422,9630.9,269,""smooth"",""right"",""right"",""good_move"",15032.1,2710,2406,12322.1,304,""oops"",""down"",""right"",""good_move"",17680,2647.7,2387.3,15032.3,260.4,""smooth"",""down"",""down"",""good_move""]"
"2962","","<div style=""width:500px;"">
  <p>What determined the result of this run?</p>
  </div>","42","html-slider-response","29","286537","0.0-7.0-1.3","95","1","2025-07-30 11:22:33","36c45c0696341be0efffe67d72a12abb","94.134.108.182","Mozilla/5.0 (Windows NT 10.0; Win64; x64) AppleWebKit/537.36 (KHTML, like Gecko) Chrome/138.0.0.0 Safari/537.36","WebKit","Chrome","138.0.0.0","Windows","10.0","https://app.prolific.com/","de-DE,de;q=0.9,en-DE;q=0.8,en;q=0.7,es-ES;q=0.6,es;q=0.5,en-US;q=0.4","646219bb0b91a6f3327e39fb","683dba9a53627eb9ab41b36a","688a004e6d905469be4bb6ef","0","646219bb0b91a6f3327e39fb","0","2025-07-30T11:27:20.987Z","","","","AttribQ","","","","","","","","","","","50","","","","","","","","","","","","","","","","","","","","","","","","","","",""
"2119","","<div style=""width:500px;"">
  <p>How much control did you have over the ball?</p>
  </div>","61","html-slider-response","30","288657","0.0-7.0-2.3","95","1","2025-07-30 11:22:33","36c45c0696341be0efffe67d72a12abb","94.134.108.182","Mozilla/5.0 (Windows NT 10.0; Win64; x64) AppleWebKit/537.36 (KHTML, like Gecko) Chrome/138.0.0.0 Safari/537.36","WebKit","Chrome","138.0.0.0","Windows","10.0","https://app.prolific.com/","de-DE,de;q=0.9,en-DE;q=0.8,en;q=0.7,es-ES;q=0.6,es;q=0.5,en-US;q=0.4","646219bb0b91a6f3327e39fb","683dba9a53627eb9ab41b36a","688a004e6d905469be4bb6ef","0","646219bb0b91a6f3327e39fb","0","2025-07-30T11:27:23.107Z","","","","ControlQ","","","","","","","","","","","50","","","","","","","","","","","","","","","","","","","","","","","","","","",""
"1900","","<div style=""width:500px;"">
  <p>How would you describe your current emotional state?</p>
  </div>","41","html-slider-response","31","290558","0.0-7.0-3.3","95","1","2025-07-30 11:22:33","36c45c0696341be0efffe67d72a12abb","94.134.108.182","Mozilla/5.0 (Windows NT 10.0; Win64; x64) AppleWebKit/537.36 (KHTML, like Gecko) Chrome/138.0.0.0 Safari/537.36","WebKit","Chrome","138.0.0.0","Windows","10.0","https://app.prolific.com/","de-DE,de;q=0.9,en-DE;q=0.8,en;q=0.7,es-ES;q=0.6,es;q=0.5,en-US;q=0.4","646219bb0b91a6f3327e39fb","683dba9a53627eb9ab41b36a","688a004e6d905469be4bb6ef","0","646219bb0b91a6f3327e39fb","0","2025-07-30T11:27:25.008Z","","","","StressQ","","","","","","","","","","","50","","","","","","","","","","","","","","","","","","","","","","","","","","",""
"1448","","<div style=""width:500px;"">
  <p>What best describes how you currently feel?</p>
  </div>","64","html-slider-response","32","292006","0.0-7.0-4.3","95","1","2025-07-30 11:22:33","36c45c0696341be0efffe67d72a12abb","94.134.108.182","Mozilla/5.0 (Windows NT 10.0; Win64; x64) AppleWebKit/537.36 (KHTML, like Gecko) Chrome/138.0.0.0 Safari/537.36","WebKit","Chrome","138.0.0.0","Windows","10.0","https://app.prolific.com/","de-DE,de;q=0.9,en-DE;q=0.8,en;q=0.7,es-ES;q=0.6,es;q=0.5,en-US;q=0.4","646219bb0b91a6f3327e39fb","683dba9a53627eb9ab41b36a","688a004e6d905469be4bb6ef","0","646219bb0b91a6f3327e39fb","0","2025-07-30T11:27:26.456Z","","","","MotivationQ","","","","","","","","","","","50","","","","","","","","","","","","","","","","","","","","","","","","","","",""
"","","","","ctl-task-cpt","33","339112","0.0-7.0-0.4","95","1","2025-07-30 11:22:33","36c45c0696341be0efffe67d72a12abb","94.134.108.182","Mozilla/5.0 (Windows NT 10.0; Win64; x64) AppleWebKit/537.36 (KHTML, like Gecko) Chrome/138.0.0.0 Safari/537.36","WebKit","Chrome","138.0.0.0","Windows","10.0","https://app.prolific.com/","de-DE,de;q=0.9,en-DE;q=0.8,en;q=0.7,es-ES;q=0.6,es;q=0.5,en-US;q=0.4","646219bb0b91a6f3327e39fb","683dba9a53627eb9ab41b36a","688a004e6d905469be4bb6ef","0","646219bb0b91a6f3327e39fb","0","2025-07-30T11:28:13.562Z","","","","","","","","","","","","","","","","win-only","0","g1:NW,g2:SE","0.6","5","0","293587","505.7","5511.5","44091.1","1","4","4","6","1","-1","-2","19","21","0.14393939393939395","1111.3","3000","-3015","[""left"",""up""]","{""num_key_presses"":11,""num_perfect"":6,""num_errors"":1,""num_randdir"":4,""num_randdir_good_moves"":1,""num_whilered"":0,""num_whileblue"":1,""num_blue"":3,""num_good_moves"":7}","[559.4285714285714,562.3348214285714,0.2,560.4285714285714,561.3348214285714,103.3,560.4285714285714,561.3348214285714,204.6,560.4285714285714,561.3348214285714,305.2,560.4285714285714,561.3348214285714,406.2,560.4285714285714,561.3348214285714,506.5,560.4285714285714,561.3348214285714,610.2,439.42857142857144,531.3348214285714,714.7,199.42857142857144,323.33482142857144,821.1,117.42857142857143,150.33482142857144,925.3,119.42857142857143,145.33482142857144,1026.1,120.42857142857143,144.33482142857144,1131.3,121.42857142857143,144.33482142857144,1237.2,194.42857142857144,193.33482142857144,1339.9,766.4285714285714,572.3348214285714,1440.5,1464.4285714285713,948.3348214285714,1545.4,1687.4285714285713,1010.3348214285714,1645.4,1687.4285714285713,1010.3348214285714,1745.7,1687.4285714285713,1010.3348214285714,1850.1,1687.4285714285713,1010.3348214285714,1950.3,1687.4285714285713,1010.3348214285714,2050.4,1687.4285714285713,1010.3348214285714,2155.9,1687.4285714285713,1010.3348214285714,2256.6,1687.4285714285713,1010.3348214285714,2359.5,1687.4285714285713,1010.3348214285714,2460.4,1687.4285714285713,1010.3348214285714,2560.4,1687.4285714285713,1010.3348214285714,2664.7,1687.4285714285713,1010.3348214285714,2765.3,1687.4285714285713,1010.3348214285714,2865.6,1687.4285714285713,1010.3348214285714,2969.5,1687.4285714285713,1010.3348214285714,3072.2,1687.4285714285713,1010.3348214285714,3175.5,1687.4285714285713,1010.3348214285714,3280.7,1687.4285714285713,1010.3348214285714,3386.3,1687.4285714285713,1010.3348214285714,3490.4,1687.4285714285713,1010.3348214285714,3590.4,1687.4285714285713,1010.3348214285714,3694.7,1687.4285714285713,1010.3348214285714,3794.9,1687.4285714285713,1010.3348214285714,3895.2,1687.4285714285713,1010.3348214285714,3995.3,1687.4285714285713,1010.3348214285714,4099.9,1687.4285714285713,1010.3348214285714,4200.3,1687.4285714285713,1010.3348214285714,4301.3,1687.4285714285713,1010.3348214285714,4401.4,1687.4285714285713,1010.3348214285714,4505.8,1687.4285714285713,1010.3348214285714,4606.3,1687.4285714285713,1010.3348214285714,4707.3,1687.4285714285713,1010.3348214285714,4810.1,1687.4285714285713,1010.3348214285714,4910.6]","[1265,1265,1000,0,265,""smooth"",""left"",""left"",""good_move"",10577.6,9312.1,2153.8,8139.6,284.2,""oops"",""up"",""left"",""good_move"",13053.4,2475.7,2195.3,10577.7,280.4,""oops"",""up"",""right"",""bad_move"",15604.6,2551,2241.9,13053.6,309.1,""oops"",""up"",""down"",""bad_move"",18234.9,2629.9,2355.9,15605,274,""smooth"",""up"",""up"",""good_move"",21273.2,3038.1,2752.9,18235.1,285.2,""oops"",""left"",""right"",""bad_move"",23807.8,2534.2,2226.8,21273.6,307.4,""smooth"",""left"",""left"",""good_move"",26102.2,2294.2,2023.9,23808,270.3,""smooth"",""up"",""up"",""good_move"",29944.4,3842,3561.2,26102.4,280.8,""smooth"",""up"",""up"",""good_move"",33110.2,3165.3,2934.1,29945,231.1,""while_blue"",""left"",""right"",""bad_move"",35241,2130.3,1857,33110.7,273.3,""smooth"",""left"",""left"",""good_move""]"
"14520","","<div style=""width:500px;"">
  <p>What determined the result of this run?</p>
  </div>","8","html-slider-response","34","353634","0.0-7.0-1.4","95","1","2025-07-30 11:22:33","36c45c0696341be0efffe67d72a12abb","94.134.108.182","Mozilla/5.0 (Windows NT 10.0; Win64; x64) AppleWebKit/537.36 (KHTML, like Gecko) Chrome/138.0.0.0 Safari/537.36","WebKit","Chrome","138.0.0.0","Windows","10.0","https://app.prolific.com/","de-DE,de;q=0.9,en-DE;q=0.8,en;q=0.7,es-ES;q=0.6,es;q=0.5,en-US;q=0.4","646219bb0b91a6f3327e39fb","683dba9a53627eb9ab41b36a","688a004e6d905469be4bb6ef","0","646219bb0b91a6f3327e39fb","0","2025-07-30T11:28:28.084Z","","","","AttribQ","","","","","","","","","","","50","","","","","","","","","","","","","","","","","","","","","","","","","","",""
"2438","","<div style=""width:500px;"">
  <p>How much control did you have over the ball?</p>
  </div>","10","html-slider-response","35","356072","0.0-7.0-2.4","95","1","2025-07-30 11:22:33","36c45c0696341be0efffe67d72a12abb","94.134.108.182","Mozilla/5.0 (Windows NT 10.0; Win64; x64) AppleWebKit/537.36 (KHTML, like Gecko) Chrome/138.0.0.0 Safari/537.36","WebKit","Chrome","138.0.0.0","Windows","10.0","https://app.prolific.com/","de-DE,de;q=0.9,en-DE;q=0.8,en;q=0.7,es-ES;q=0.6,es;q=0.5,en-US;q=0.4","646219bb0b91a6f3327e39fb","683dba9a53627eb9ab41b36a","688a004e6d905469be4bb6ef","0","646219bb0b91a6f3327e39fb","0","2025-07-30T11:28:30.522Z","","","","ControlQ","","","","","","","","","","","50","","","","","","","","","","","","","","","","","","","","","","","","","","",""
"3553","","<div style=""width:500px;"">
  <p>How would you describe your current emotional state?</p>
  </div>","66","html-slider-response","36","359626","0.0-7.0-3.4","95","1","2025-07-30 11:22:33","36c45c0696341be0efffe67d72a12abb","94.134.108.182","Mozilla/5.0 (Windows NT 10.0; Win64; x64) AppleWebKit/537.36 (KHTML, like Gecko) Chrome/138.0.0.0 Safari/537.36","WebKit","Chrome","138.0.0.0","Windows","10.0","https://app.prolific.com/","de-DE,de;q=0.9,en-DE;q=0.8,en;q=0.7,es-ES;q=0.6,es;q=0.5,en-US;q=0.4","646219bb0b91a6f3327e39fb","683dba9a53627eb9ab41b36a","688a004e6d905469be4bb6ef","0","646219bb0b91a6f3327e39fb","0","2025-07-30T11:28:34.076Z","","","","StressQ","","","","","","","","","","","50","","","","","","","","","","","","","","","","","","","","","","","","","","",""
"4245","","<div style=""width:500px;"">
  <p>What best describes how you currently feel?</p>
  </div>","58","html-slider-response","37","363872","0.0-7.0-4.4","95","1","2025-07-30 11:22:33","36c45c0696341be0efffe67d72a12abb","94.134.108.182","Mozilla/5.0 (Windows NT 10.0; Win64; x64) AppleWebKit/537.36 (KHTML, like Gecko) Chrome/138.0.0.0 Safari/537.36","WebKit","Chrome","138.0.0.0","Windows","10.0","https://app.prolific.com/","de-DE,de;q=0.9,en-DE;q=0.8,en;q=0.7,es-ES;q=0.6,es;q=0.5,en-US;q=0.4","646219bb0b91a6f3327e39fb","683dba9a53627eb9ab41b36a","688a004e6d905469be4bb6ef","0","646219bb0b91a6f3327e39fb","0","2025-07-30T11:28:38.322Z","","","","MotivationQ","","","","","","","","","","","50","","","","","","","","","","","","","","","","","","","","","","","","","","",""
"","","","","ctl-task-cpt","38","420806","0.0-7.0-0.5","95","1","2025-07-30 11:22:33","36c45c0696341be0efffe67d72a12abb","94.134.108.182","Mozilla/5.0 (Windows NT 10.0; Win64; x64) AppleWebKit/537.36 (KHTML, like Gecko) Chrome/138.0.0.0 Safari/537.36","WebKit","Chrome","138.0.0.0","Windows","10.0","https://app.prolific.com/","de-DE,de;q=0.9,en-DE;q=0.8,en;q=0.7,es-ES;q=0.6,es;q=0.5,en-US;q=0.4","646219bb0b91a6f3327e39fb","683dba9a53627eb9ab41b36a","688a004e6d905469be4bb6ef","0","646219bb0b91a6f3327e39fb","0","2025-07-30T11:29:35.256Z","","","","","","","","","","","","","","","","win-only","3","g1:SW,g2:NE","0.5","6","0","365454.1","630.2","5630.7","53910.6","1","4","8","6","2","-8","-8","11","19","0.08333333333333333","2801.1","3000","-2905","[""up"",""right""]","{""num_key_presses"":11,""num_perfect"":5,""num_errors"":0,""num_randdir"":6,""num_randdir_good_moves"":3,""num_whilered"":0,""num_whileblue"":0,""num_blue"":5,""num_good_moves"":8}","[547.4285714285714,546.3348214285714,0.2,548.4285714285714,545.3348214285714,100.5,548.4285714285714,545.3348214285714,200.5,548.4285714285714,545.3348214285714,300.8,545.4285714285714,553.3348214285714,404.6,542.4285714285714,566.3348214285714,505.6,542.4285714285714,568.3348214285714,606.5,517.4285714285714,645.3348214285714,710.2,431.42857142857144,761.3348214285714,812.2,426.42857142857144,769.3348214285714,912.8,423.42857142857144,776.3348214285714,1016,424.42857142857144,777.3348214285714,1120.6,425.42857142857144,776.3348214285714,1220.7,429.42857142857144,774.3348214285714,1320.9,429.42857142857144,773.3348214285714,1421.4,422.42857142857144,777.3348214285714,1525.8,394.42857142857144,786.3348214285714,1626.2,366.42857142857144,795.3348214285714,1726.6,508.42857142857144,705.3348214285714,1827.8,950.4285714285714,283.33482142857144,1930.6,1052.4285714285713,163.33482142857144,2030.7,1063.4285714285713,137.33482142857144,2132.9,1025.4285714285713,133.33482142857144,2236.1,1014.4285714285714,134.33482142857144,2342.4,1012.4285714285714,136.33482142857144,2445.6,1013.4285714285714,134.33482142857144,2546,1013.4285714285714,134.33482142857144,2646.4,1013.4285714285714,134.33482142857144,2750.6,1013.4285714285714,134.33482142857144,2851.5,1013.4285714285714,134.33482142857144,2955.9,1182.4285714285713,187.33482142857144,3055.9,1305.4285714285713,225.33482142857144,3156,1305.4285714285713,225.33482142857144,3256.4,1305.4285714285713,225.33482142857144,3361.4,1305.4285714285713,225.33482142857144,3465.6,1305.4285714285713,225.33482142857144,3571.7,1305.4285714285713,225.33482142857144,3676.8,1305.4285714285713,225.33482142857144,3777.9,1305.4285714285713,225.33482142857144,3880.7,1305.4285714285713,225.33482142857144,3981,1305.4285714285713,225.33482142857144,4082.5,1305.4285714285713,225.33482142857144,4185.7,1305.4285714285713,225.33482142857144,4286.7,1305.4285714285713,225.33482142857144,4391.3,1305.4285714285713,225.33482142857144,4494.3,1305.4285714285713,225.33482142857144,4595.8,1305.4285714285713,225.33482142857144,4696.8,1305.4285714285713,225.33482142857144,4797.1,1305.4285714285713,225.33482142857144,4900.8]","[1264.6,1264.6,1000,0,264.6,""smooth"",""right"",""right"",""good_move"",3337.1,2072.2,1828.2,1264.9,244,""oops"",""right"",""down"",""bad_move"",5792.7,2455.3,2209.9,3337.4,245.4,""oops"",""right"",""right"",""good_move"",8804.5,3011.6,2758.7,5792.9,252.9,""smooth"",""up"",""up"",""good_move"",11639.3,2834,2576.8,8805.4,257.1,""smooth"",""up"",""up"",""good_move"",21962.8,10323.4,2778.9,18915.2,268.7,""oops"",""up"",""right"",""good_move"",26972.5,5009.4,2365.3,24325.6,281.6,""oops"",""up"",""down"",""bad_move"",29621.9,2649.2,2339.6,26972.7,309.6,""oops"",""up"",""left"",""bad_move"",35944.2,6322,2544.3,33110.4,289.5,""smooth"",""up"",""up"",""good_move"",38420.7,2476.3,2208.6,35944.5,267.7,""smooth"",""up"",""up"",""good_move"",45357.4,6936.4,2973.6,42110.2,273.6,""oops"",""up"",""right"",""good_move""]"
"1816","","<div style=""width:500px;"">
  <p>What determined the result of this run?</p>
  </div>","0","html-slider-response","39","422623","0.0-7.0-1.5","95","1","2025-07-30 11:22:33","36c45c0696341be0efffe67d72a12abb","94.134.108.182","Mozilla/5.0 (Windows NT 10.0; Win64; x64) AppleWebKit/537.36 (KHTML, like Gecko) Chrome/138.0.0.0 Safari/537.36","WebKit","Chrome","138.0.0.0","Windows","10.0","https://app.prolific.com/","de-DE,de;q=0.9,en-DE;q=0.8,en;q=0.7,es-ES;q=0.6,es;q=0.5,en-US;q=0.4","646219bb0b91a6f3327e39fb","683dba9a53627eb9ab41b36a","688a004e6d905469be4bb6ef","0","646219bb0b91a6f3327e39fb","0","2025-07-30T11:29:37.073Z","","","","AttribQ","","","","","","","","","","","50","","","","","","","","","","","","","","","","","","","","","","","","","","",""
"1817","","<div style=""width:500px;"">
  <p>How much control did you have over the ball?</p>
  </div>","0","html-slider-response","40","424441","0.0-7.0-2.5","95","1","2025-07-30 11:22:33","36c45c0696341be0efffe67d72a12abb","94.134.108.182","Mozilla/5.0 (Windows NT 10.0; Win64; x64) AppleWebKit/537.36 (KHTML, like Gecko) Chrome/138.0.0.0 Safari/537.36","WebKit","Chrome","138.0.0.0","Windows","10.0","https://app.prolific.com/","de-DE,de;q=0.9,en-DE;q=0.8,en;q=0.7,es-ES;q=0.6,es;q=0.5,en-US;q=0.4","646219bb0b91a6f3327e39fb","683dba9a53627eb9ab41b36a","688a004e6d905469be4bb6ef","0","646219bb0b91a6f3327e39fb","0","2025-07-30T11:29:38.891Z","","","","ControlQ","","","","","","","","","","","50","","","","","","","","","","","","","","","","","","","","","","","","","","",""
"1938","","<div style=""width:500px;"">
  <p>How would you describe your current emotional state?</p>
  </div>","78","html-slider-response","41","426380","0.0-7.0-3.5","95","1","2025-07-30 11:22:33","36c45c0696341be0efffe67d72a12abb","94.134.108.182","Mozilla/5.0 (Windows NT 10.0; Win64; x64) AppleWebKit/537.36 (KHTML, like Gecko) Chrome/138.0.0.0 Safari/537.36","WebKit","Chrome","138.0.0.0","Windows","10.0","https://app.prolific.com/","de-DE,de;q=0.9,en-DE;q=0.8,en;q=0.7,es-ES;q=0.6,es;q=0.5,en-US;q=0.4","646219bb0b91a6f3327e39fb","683dba9a53627eb9ab41b36a","688a004e6d905469be4bb6ef","0","646219bb0b91a6f3327e39fb","0","2025-07-30T11:29:40.830Z","","","","StressQ","","","","","","","","","","","50","","","","","","","","","","","","","","","","","","","","","","","","","","",""
"1398","","<div style=""width:500px;"">
  <p>What best describes how you currently feel?</p>
  </div>","43","html-slider-response","42","427778","0.0-7.0-4.5","95","1","2025-07-30 11:22:33","36c45c0696341be0efffe67d72a12abb","94.134.108.182","Mozilla/5.0 (Windows NT 10.0; Win64; x64) AppleWebKit/537.36 (KHTML, like Gecko) Chrome/138.0.0.0 Safari/537.36","WebKit","Chrome","138.0.0.0","Windows","10.0","https://app.prolific.com/","de-DE,de;q=0.9,en-DE;q=0.8,en;q=0.7,es-ES;q=0.6,es;q=0.5,en-US;q=0.4","646219bb0b91a6f3327e39fb","683dba9a53627eb9ab41b36a","688a004e6d905469be4bb6ef","0","646219bb0b91a6f3327e39fb","0","2025-07-30T11:29:42.228Z","","","","MotivationQ","","","","","","","","","","","50","","","","","","","","","","","","","","","","","","","","","","","","","","",""
"","","","","ctl-task-cpt","43","490076","0.0-7.0-0.6","95","1","2025-07-30 11:22:33","36c45c0696341be0efffe67d72a12abb","94.134.108.182","Mozilla/5.0 (Windows NT 10.0; Win64; x64) AppleWebKit/537.36 (KHTML, like Gecko) Chrome/138.0.0.0 Safari/537.36","WebKit","Chrome","138.0.0.0","Windows","10.0","https://app.prolific.com/","de-DE,de;q=0.9,en-DE;q=0.8,en;q=0.7,es-ES;q=0.6,es;q=0.5,en-US;q=0.4","646219bb0b91a6f3327e39fb","683dba9a53627eb9ab41b36a","688a004e6d905469be4bb6ef","0","646219bb0b91a6f3327e39fb","0","2025-07-30T11:30:44.526Z","","","","","","","","","","","","","","","","win-only","1","g1:NE,g2:SW","0.4","7","0","429361.5","535.9","5537.7","59295.6","1","4","8","6","2","-8","-8","3","11","0.022727272727272728","1395.3","3000","-2930","[""down"",""left""]","{""num_key_presses"":11,""num_perfect"":5,""num_errors"":0,""num_randdir"":6,""num_randdir_good_moves"":2,""num_whilered"":0,""num_whileblue"":0,""num_blue"":6,""num_good_moves"":7}","[541.4285714285714,560.3348214285714,0.2,541.4285714285714,560.3348214285714,103.1,541.4285714285714,560.3348214285714,205.2,541.4285714285714,562.3348214285714,310.3,524.4285714285714,583.3348214285714,410.3,470.42857142857144,664.3348214285714,514.5,483.42857142857144,668.3348214285714,615.6,511.42857142857144,645.3348214285714,717.2,442.42857142857144,716.3348214285714,822.6,237.42857142857144,955.3348214285714,922.7,150.42857142857144,1054.3348214285713,1025.3,89.42857142857143,1054.3348214285713,1130,71.42857142857143,1047.3348214285713,1238.2,72.42857142857143,1046.3348214285713,1340.3,72.42857142857143,1046.3348214285713,1442.3,73.42857142857143,1046.3348214285713,1543.2,235.42857142857144,1050.3348214285713,1645.2,1289.4285714285713,1045.3348214285713,1751,1834.4285714285713,1066.3348214285713,1851.4,1834.4285714285713,1051.3348214285713,1952.9,1834.4285714285713,1051.3348214285713,2052.9,1834.4285714285713,1051.3348214285713,2155.3,1834.4285714285713,1051.3348214285713,2259.9,1834.4285714285713,1051.3348214285713,2360.7,1834.4285714285713,1051.3348214285713,2464.5,1834.4285714285713,1051.3348214285713,2564.7,1834.4285714285713,1051.3348214285713,2669,1834.4285714285713,1051.3348214285713,2769.3,1834.4285714285713,1051.3348214285713,2869.4,1834.4285714285713,1051.3348214285713,2971.2,1834.4285714285713,1051.3348214285713,3074.6,1834.4285714285713,1051.3348214285713,3179.8,1834.4285714285713,1051.3348214285713,3280.2,1834.4285714285713,1051.3348214285713,3386.8,1834.4285714285713,1051.3348214285713,3489.5,1834.4285714285713,1051.3348214285713,3589.8,1834.4285714285713,1051.3348214285713,3691.8,1834.4285714285713,1051.3348214285713,3794.6,1834.4285714285713,1051.3348214285713,3895.3,1834.4285714285713,1051.3348214285713,4002,1834.4285714285713,1051.3348214285713,4108.3,1834.4285714285713,1051.3348214285713,4210.9,1834.4285714285713,1051.3348214285713,4315.9,1834.4285714285713,1051.3348214285713,4421.6,1834.4285714285713,1051.3348214285713,4525.7,1834.4285714285713,1051.3348214285713,4630.3,1834.4285714285713,1051.3348214285713,4735.2,1834.4285714285713,1051.3348214285713,4841,1834.4285714285713,1051.3348214285713,4945.5]","[1248.5,1248.5,1000,0,248.5,""oops"",""left"",""right"",""bad_move"",4186.1,2937,2658.7,1249.1,278.3,""smooth"",""left"",""left"",""good_move"",17895.9,13709.4,1999.9,15603.7,292.3,""smooth"",""down"",""down"",""good_move"",24069.2,6173.1,2334.9,21479,255.3,""smooth"",""left"",""left"",""good_move"",29970.3,5900.9,2323.1,27331.7,315.5,""smooth"",""left"",""left"",""good_move"",32185.4,2215,1896.5,29970.4,318.5,""oops"",""down"",""right"",""bad_move"",35258.2,3072.6,2781.3,32185.6,291.3,""oops"",""down"",""up"",""bad_move"",37795.1,2536.8,2292.5,35258.3,244.3,""oops"",""down"",""down"",""good_move"",41722,3926.6,3668,37795.4,258.6,""oops"",""down"",""down"",""good_move"",44824.2,3101.9,2860.3,41722.3,241.6,""oops"",""down"",""right"",""bad_move"",47542.5,2718.1,2458.5,44824.4,259.6,""smooth"",""down"",""down"",""good_move""]"
"2017","","<div style=""width:500px;"">
  <p>What determined the result of this run?</p>
  </div>","0","html-slider-response","44","492094","0.0-7.0-1.6","95","1","2025-07-30 11:22:33","36c45c0696341be0efffe67d72a12abb","94.134.108.182","Mozilla/5.0 (Windows NT 10.0; Win64; x64) AppleWebKit/537.36 (KHTML, like Gecko) Chrome/138.0.0.0 Safari/537.36","WebKit","Chrome","138.0.0.0","Windows","10.0","https://app.prolific.com/","de-DE,de;q=0.9,en-DE;q=0.8,en;q=0.7,es-ES;q=0.6,es;q=0.5,en-US;q=0.4","646219bb0b91a6f3327e39fb","683dba9a53627eb9ab41b36a","688a004e6d905469be4bb6ef","0","646219bb0b91a6f3327e39fb","0","2025-07-30T11:30:46.544Z","","","","AttribQ","","","","","","","","","","","50","","","","","","","","","","","","","","","","","","","","","","","","","","",""
"2285","","<div style=""width:500px;"">
  <p>How much control did you have over the ball?</p>
  </div>","0","html-slider-response","45","494380","0.0-7.0-2.6","95","1","2025-07-30 11:22:33","36c45c0696341be0efffe67d72a12abb","94.134.108.182","Mozilla/5.0 (Windows NT 10.0; Win64; x64) AppleWebKit/537.36 (KHTML, like Gecko) Chrome/138.0.0.0 Safari/537.36","WebKit","Chrome","138.0.0.0","Windows","10.0","https://app.prolific.com/","de-DE,de;q=0.9,en-DE;q=0.8,en;q=0.7,es-ES;q=0.6,es;q=0.5,en-US;q=0.4","646219bb0b91a6f3327e39fb","683dba9a53627eb9ab41b36a","688a004e6d905469be4bb6ef","0","646219bb0b91a6f3327e39fb","0","2025-07-30T11:30:48.830Z","","","","ControlQ","","","","","","","","","","","50","","","","","","","","","","","","","","","","","","","","","","","","","","",""
"1762","","<div style=""width:500px;"">
  <p>How would you describe your current emotional state?</p>
  </div>","100","html-slider-response","46","496143","0.0-7.0-3.6","95","1","2025-07-30 11:22:33","36c45c0696341be0efffe67d72a12abb","94.134.108.182","Mozilla/5.0 (Windows NT 10.0; Win64; x64) AppleWebKit/537.36 (KHTML, like Gecko) Chrome/138.0.0.0 Safari/537.36","WebKit","Chrome","138.0.0.0","Windows","10.0","https://app.prolific.com/","de-DE,de;q=0.9,en-DE;q=0.8,en;q=0.7,es-ES;q=0.6,es;q=0.5,en-US;q=0.4","646219bb0b91a6f3327e39fb","683dba9a53627eb9ab41b36a","688a004e6d905469be4bb6ef","0","646219bb0b91a6f3327e39fb","0","2025-07-30T11:30:50.593Z","","","","StressQ","","","","","","","","","","","50","","","","","","","","","","","","","","","","","","","","","","","","","","",""
"1785","","<div style=""width:500px;"">
  <p>What best describes how you currently feel?</p>
  </div>","27","html-slider-response","47","497929","0.0-7.0-4.6","95","1","2025-07-30 11:22:33","36c45c0696341be0efffe67d72a12abb","94.134.108.182","Mozilla/5.0 (Windows NT 10.0; Win64; x64) AppleWebKit/537.36 (KHTML, like Gecko) Chrome/138.0.0.0 Safari/537.36","WebKit","Chrome","138.0.0.0","Windows","10.0","https://app.prolific.com/","de-DE,de;q=0.9,en-DE;q=0.8,en;q=0.7,es-ES;q=0.6,es;q=0.5,en-US;q=0.4","646219bb0b91a6f3327e39fb","683dba9a53627eb9ab41b36a","688a004e6d905469be4bb6ef","0","646219bb0b91a6f3327e39fb","0","2025-07-30T11:30:52.379Z","","","","MotivationQ","","","","","","","","","","","50","","","","","","","","","","","","","","","","","","","","","","","","","","",""
"","","","","ctl-task-cpt","48","542437","0.0-7.0-0.7","95","1","2025-07-30 11:22:33","36c45c0696341be0efffe67d72a12abb","94.134.108.182","Mozilla/5.0 (Windows NT 10.0; Win64; x64) AppleWebKit/537.36 (KHTML, like Gecko) Chrome/138.0.0.0 Safari/537.36","WebKit","Chrome","138.0.0.0","Windows","10.0","https://app.prolific.com/","de-DE,de;q=0.9,en-DE;q=0.8,en;q=0.7,es-ES;q=0.6,es;q=0.5,en-US;q=0.4","646219bb0b91a6f3327e39fb","683dba9a53627eb9ab41b36a","688a004e6d905469be4bb6ef","0","646219bb0b91a6f3327e39fb","0","2025-07-30T11:31:36.887Z","","","","","","","","","","","","","","","","win-only","0","g1:NW,g2:SE","0.3","8","0","499514","477.1","5481.5","41490.5","1","4","4","6","1","-1","-1","2","3","0.015151515151515152","1071.2","3000","-2930","[""left"",""up""]","{""num_key_presses"":10,""num_perfect"":3,""num_errors"":0,""num_randdir"":7,""num_randdir_good_moves"":2,""num_whilered"":0,""num_whileblue"":0,""num_blue"":2,""num_good_moves"":5}","[554.4285714285714,538.3348214285714,0.1,554.4285714285714,538.3348214285714,115.3,554.4285714285714,538.3348214285714,219.1,550.4285714285714,549.3348214285714,323.4,516.4285714285714,631.3348214285714,424.3,542.4285714285714,769.3348214285714,528.7,677.4285714285714,920.3348214285714,638.5,345.42857142857144,549.3348214285714,738.5,173.42857142857144,298.33482142857144,839.4,139.42857142857144,229.33482142857144,943.8,110.42857142857143,139.33482142857144,1050.1,110.42857142857143,137.33482142857144,1154.2,176.42857142857144,190.33482142857144,1254.3,950.4285714285714,613.3348214285714,1355.1,1459.4285714285713,959.3348214285714,1459,1496.4285714285713,992.3348214285714,1560,1496.4285714285713,992.3348214285714,1667.3,1496.4285714285713,992.3348214285714,1768.4,1496.4285714285713,992.3348214285714,1869.9,1496.4285714285713,992.3348214285714,1974.3,1496.4285714285713,992.3348214285714,2075,1496.4285714285713,992.3348214285714,2178.9,1496.4285714285713,992.3348214285714,2279.3,1496.4285714285713,992.3348214285714,2380.7,1496.4285714285713,992.3348214285714,2485,1496.4285714285713,992.3348214285714,2589.4,1496.4285714285713,992.3348214285714,2690.5,1496.4285714285713,992.3348214285714,2793.8,1496.4285714285713,992.3348214285714,2894.4,1496.4285714285713,992.3348214285714,2998.9,1496.4285714285713,992.3348214285714,3099.4,1496.4285714285713,992.3348214285714,3199.5,1496.4285714285713,992.3348214285714,3304.1,1496.4285714285713,992.3348214285714,3408.6,1496.4285714285713,992.3348214285714,3508.9,1496.4285714285713,992.3348214285714,3613.4,1496.4285714285713,992.3348214285714,3716.3,1496.4285714285713,992.3348214285714,3818.8,1496.4285714285713,992.3348214285714,3919.4,1496.4285714285713,992.3348214285714,4024.4,1496.4285714285713,992.3348214285714,4128.5,1496.4285714285713,992.3348214285714,4229.7,1496.4285714285713,992.3348214285714,4329.7,1496.4285714285713,992.3348214285714,4429.8,1496.4285714285713,992.3348214285714,4537,1496.4285714285713,992.3348214285714,4639,1496.4285714285713,992.3348214285714,4739.3,1496.4285714285713,992.3348214285714,4843.4,1496.4285714285713,992.3348214285714,4943.4]","[1256.8,1256.9,1000,0,256.9,""oops"",""left"",""left"",""good_move"",3866.4,2609.2,2312.6,1257.2,296.6,""smooth"",""left"",""left"",""good_move"",6261,2394.5,2132.1,3866.5,262.4,""oops"",""up"",""up"",""good_move"",9025.7,2764.4,2457.3,6261.3,307.1,""oops"",""up"",""right"",""bad_move"",11509.9,2483.9,2203.2,9026,280.7,""oops"",""up"",""down"",""bad_move"",14856.9,3346.5,3010.1,11510.5,336.3,""smooth"",""up"",""up"",""good_move"",21384,6526.8,3122.4,17978.3,283.3,""smooth"",""up"",""up"",""good_move"",28086.6,6702.3,2683.7,25128.2,274.7,""oops"",""left"",""right"",""bad_move"",31003.9,2917,2637.8,28086.9,279.2,""oops"",""left"",""right"",""bad_move"",33836.6,2832.3,2285.8,31004.4,546.4,""oops"",""left"",""right"",""bad_move""]"
"2273","","<div style=""width:500px;"">
  <p>What determined the result of this run?</p>
  </div>","0","html-slider-response","49","544711","0.0-7.0-1.7","95","1","2025-07-30 11:22:33","36c45c0696341be0efffe67d72a12abb","94.134.108.182","Mozilla/5.0 (Windows NT 10.0; Win64; x64) AppleWebKit/537.36 (KHTML, like Gecko) Chrome/138.0.0.0 Safari/537.36","WebKit","Chrome","138.0.0.0","Windows","10.0","https://app.prolific.com/","de-DE,de;q=0.9,en-DE;q=0.8,en;q=0.7,es-ES;q=0.6,es;q=0.5,en-US;q=0.4","646219bb0b91a6f3327e39fb","683dba9a53627eb9ab41b36a","688a004e6d905469be4bb6ef","0","646219bb0b91a6f3327e39fb","0","2025-07-30T11:31:39.161Z","","","","AttribQ","","","","","","","","","","","50","","","","","","","","","","","","","","","","","","","","","","","","","","",""
"1799","","<div style=""width:500px;"">
  <p>How much control did you have over the ball?</p>
  </div>","0","html-slider-response","50","546510","0.0-7.0-2.7","95","1","2025-07-30 11:22:33","36c45c0696341be0efffe67d72a12abb","94.134.108.182","Mozilla/5.0 (Windows NT 10.0; Win64; x64) AppleWebKit/537.36 (KHTML, like Gecko) Chrome/138.0.0.0 Safari/537.36","WebKit","Chrome","138.0.0.0","Windows","10.0","https://app.prolific.com/","de-DE,de;q=0.9,en-DE;q=0.8,en;q=0.7,es-ES;q=0.6,es;q=0.5,en-US;q=0.4","646219bb0b91a6f3327e39fb","683dba9a53627eb9ab41b36a","688a004e6d905469be4bb6ef","0","646219bb0b91a6f3327e39fb","0","2025-07-30T11:31:40.960Z","","","","ControlQ","","","","","","","","","","","50","","","","","","","","","","","","","","","","","","","","","","","","","","",""
"1978","","<div style=""width:500px;"">
  <p>How would you describe your current emotional state?</p>
  </div>","100","html-slider-response","51","548489","0.0-7.0-3.7","95","1","2025-07-30 11:22:33","36c45c0696341be0efffe67d72a12abb","94.134.108.182","Mozilla/5.0 (Windows NT 10.0; Win64; x64) AppleWebKit/537.36 (KHTML, like Gecko) Chrome/138.0.0.0 Safari/537.36","WebKit","Chrome","138.0.0.0","Windows","10.0","https://app.prolific.com/","de-DE,de;q=0.9,en-DE;q=0.8,en;q=0.7,es-ES;q=0.6,es;q=0.5,en-US;q=0.4","646219bb0b91a6f3327e39fb","683dba9a53627eb9ab41b36a","688a004e6d905469be4bb6ef","0","646219bb0b91a6f3327e39fb","0","2025-07-30T11:31:42.939Z","","","","StressQ","","","","","","","","","","","50","","","","","","","","","","","","","","","","","","","","","","","","","","",""
"1247","","<div style=""width:500px;"">
  <p>What best describes how you currently feel?</p>
  </div>","11","html-slider-response","52","549738","0.0-7.0-4.7","95","1","2025-07-30 11:22:33","36c45c0696341be0efffe67d72a12abb","94.134.108.182","Mozilla/5.0 (Windows NT 10.0; Win64; x64) AppleWebKit/537.36 (KHTML, like Gecko) Chrome/138.0.0.0 Safari/537.36","WebKit","Chrome","138.0.0.0","Windows","10.0","https://app.prolific.com/","de-DE,de;q=0.9,en-DE;q=0.8,en;q=0.7,es-ES;q=0.6,es;q=0.5,en-US;q=0.4","646219bb0b91a6f3327e39fb","683dba9a53627eb9ab41b36a","688a004e6d905469be4bb6ef","0","646219bb0b91a6f3327e39fb","0","2025-07-30T11:31:44.188Z","","","","MotivationQ","","","","","","","","","","","50","","","","","","","","","","","","","","","","","","","","","","","","","","",""
"","","","","ctl-task-cpt","53","594530","0.0-7.0-0.8","95","1","2025-07-30 11:22:33","36c45c0696341be0efffe67d72a12abb","94.134.108.182","Mozilla/5.0 (Windows NT 10.0; Win64; x64) AppleWebKit/537.36 (KHTML, like Gecko) Chrome/138.0.0.0 Safari/537.36","WebKit","Chrome","138.0.0.0","Windows","10.0","https://app.prolific.com/","de-DE,de;q=0.9,en-DE;q=0.8,en;q=0.7,es-ES;q=0.6,es;q=0.5,en-US;q=0.4","646219bb0b91a6f3327e39fb","683dba9a53627eb9ab41b36a","688a004e6d905469be4bb6ef","0","646219bb0b91a6f3327e39fb","0","2025-07-30T11:32:28.980Z","","","","","","","","","","","","","","","","win-only","0","g1:NW,g2:SE","0.4","9","0","551328","576.2","5581.3","41771.2","1","4","8","6","2","-8","-8","0","2","0","1705.3","3000","-2830","[""down"",""right""]","{""num_key_presses"":10,""num_perfect"":4,""num_errors"":0,""num_randdir"":6,""num_randdir_good_moves"":2,""num_whilered"":0,""num_whileblue"":0,""num_blue"":2,""num_good_moves"":6}","[543.4285714285714,548.3348214285714,0.2,544.4285714285714,548.3348214285714,101.1,541.4285714285714,548.3348214285714,204.1,541.4285714285714,548.3348214285714,312.3,535.4285714285714,570.3348214285714,414,507.42857142857144,581.3348214285714,516.3,240.42857142857144,338.33482142857144,618.6,181.42857142857144,164.33482142857144,719.4,138.42857142857144,137.33482142857144,824.3,130.42857142857144,135.33482142857144,928.1,130.42857142857144,135.33482142857144,1030.7,128.42857142857144,135.33482142857144,1135.1,129.42857142857144,144.33482142857144,1239.3,681.4285714285714,721.3348214285714,1340.7,890.4285714285714,892.3348214285714,1447.5,941.4285714285714,918.3348214285714,1550.8,1027.4285714285713,986.3348214285714,1654.5,1041.4285714285713,1015.3348214285714,1764,1056.4285714285713,1015.3348214285714,1864.6,1749.4285714285713,1088.3348214285713,1965.1,1834.4285714285713,1112.3348214285713,2069.8,1834.4285714285713,1112.3348214285713,2170.2,1834.4285714285713,1112.3348214285713,2276.2,1834.4285714285713,1112.3348214285713,2376.2,1834.4285714285713,1112.3348214285713,2481.6,1834.4285714285713,1112.3348214285713,2582.7,1834.4285714285713,1112.3348214285713,2684.2,1834.4285714285713,1112.3348214285713,2787.7,1834.4285714285713,1112.3348214285713,2889.9,1834.4285714285713,1112.3348214285713,2990.5,1834.4285714285713,1112.3348214285713,3098.8,1834.4285714285713,1112.3348214285713,3204.6,1834.4285714285713,1112.3348214285713,3311.1,1834.4285714285713,1112.3348214285713,3416.9,1834.4285714285713,1112.3348214285713,3519.6,1834.4285714285713,1112.3348214285713,3625.6,1834.4285714285713,1112.3348214285713,3731.5,1834.4285714285713,1112.3348214285713,3835,1834.4285714285713,1112.3348214285713,3940.3,1834.4285714285713,1112.3348214285713,4040.5,1834.4285714285713,1112.3348214285713,4145.6,1834.4285714285713,1112.3348214285713,4246.2,1834.4285714285713,1112.3348214285713,4349.1,1834.4285714285713,1112.3348214285713,4449.7,1834.4285714285713,1112.3348214285713,4550.3,1834.4285714285713,1112.3348214285713,4654.7,1834.4285714285713,1112.3348214285713,4755.3,1834.4285714285713,1112.3348214285713,4860.6,1834.4285714285713,1112.3348214285713,4964.8]","[1256.8,1256.8,1000,0,256.8,""oops"",""right"",""down"",""good_move"",4099.3,2842.2,2585.1,1257.1,257.1,""oops"",""right"",""left"",""bad_move"",6711.4,2611.9,2345.1,4099.5,266.8,""smooth"",""right"",""right"",""good_move"",9009.9,2298.2,2025.5,6711.7,272.7,""smooth"",""down"",""down"",""good_move"",11818.5,2808.4,2512.6,9010.1,295.8,""oops"",""right"",""left"",""bad_move"",17938.5,6119.8,2142.5,15498.4,297.6,""smooth"",""right"",""right"",""good_move"",21627.3,3688.6,3160.8,17938.7,527.8,""smooth"",""down"",""down"",""good_move"",23895.4,2267.8,2004,21627.6,263.8,""oops"",""right"",""up"",""bad_move"",26621.3,2725.3,2451.3,23896,274,""oops"",""right"",""up"",""bad_move"",32980.3,6358.9,2358.2,30344.5,277.6,""oops"",""right"",""right"",""good_move""]"
"1655","","<div style=""width:500px;"">
  <p>What determined the result of this run?</p>
  </div>","0","html-slider-response","54","596186","0.0-7.0-1.8","95","1","2025-07-30 11:22:33","36c45c0696341be0efffe67d72a12abb","94.134.108.182","Mozilla/5.0 (Windows NT 10.0; Win64; x64) AppleWebKit/537.36 (KHTML, like Gecko) Chrome/138.0.0.0 Safari/537.36","WebKit","Chrome","138.0.0.0","Windows","10.0","https://app.prolific.com/","de-DE,de;q=0.9,en-DE;q=0.8,en;q=0.7,es-ES;q=0.6,es;q=0.5,en-US;q=0.4","646219bb0b91a6f3327e39fb","683dba9a53627eb9ab41b36a","688a004e6d905469be4bb6ef","0","646219bb0b91a6f3327e39fb","0","2025-07-30T11:32:30.636Z","","","","AttribQ","","","","","","","","","","","50","","","","","","","","","","","","","","","","","","","","","","","","","","",""
"1645","","<div style=""width:500px;"">
  <p>How much control did you have over the ball?</p>
  </div>","0","html-slider-response","55","597833","0.0-7.0-2.8","95","1","2025-07-30 11:22:33","36c45c0696341be0efffe67d72a12abb","94.134.108.182","Mozilla/5.0 (Windows NT 10.0; Win64; x64) AppleWebKit/537.36 (KHTML, like Gecko) Chrome/138.0.0.0 Safari/537.36","WebKit","Chrome","138.0.0.0","Windows","10.0","https://app.prolific.com/","de-DE,de;q=0.9,en-DE;q=0.8,en;q=0.7,es-ES;q=0.6,es;q=0.5,en-US;q=0.4","646219bb0b91a6f3327e39fb","683dba9a53627eb9ab41b36a","688a004e6d905469be4bb6ef","0","646219bb0b91a6f3327e39fb","0","2025-07-30T11:32:32.283Z","","","","ControlQ","","","","","","","","","","","50","","","","","","","","","","","","","","","","","","","","","","","","","","",""
"1505","","<div style=""width:500px;"">
  <p>How would you describe your current emotional state?</p>
  </div>","100","html-slider-response","56","599341","0.0-7.0-3.8","95","1","2025-07-30 11:22:33","36c45c0696341be0efffe67d72a12abb","94.134.108.182","Mozilla/5.0 (Windows NT 10.0; Win64; x64) AppleWebKit/537.36 (KHTML, like Gecko) Chrome/138.0.0.0 Safari/537.36","WebKit","Chrome","138.0.0.0","Windows","10.0","https://app.prolific.com/","de-DE,de;q=0.9,en-DE;q=0.8,en;q=0.7,es-ES;q=0.6,es;q=0.5,en-US;q=0.4","646219bb0b91a6f3327e39fb","683dba9a53627eb9ab41b36a","688a004e6d905469be4bb6ef","0","646219bb0b91a6f3327e39fb","0","2025-07-30T11:32:33.791Z","","","","StressQ","","","","","","","","","","","50","","","","","","","","","","","","","","","","","","","","","","","","","","",""
"1261","","<div style=""width:500px;"">
  <p>What best describes how you currently feel?</p>
  </div>","5","html-slider-response","57","600604","0.0-7.0-4.8","95","1","2025-07-30 11:22:33","36c45c0696341be0efffe67d72a12abb","94.134.108.182","Mozilla/5.0 (Windows NT 10.0; Win64; x64) AppleWebKit/537.36 (KHTML, like Gecko) Chrome/138.0.0.0 Safari/537.36","WebKit","Chrome","138.0.0.0","Windows","10.0","https://app.prolific.com/","de-DE,de;q=0.9,en-DE;q=0.8,en;q=0.7,es-ES;q=0.6,es;q=0.5,en-US;q=0.4","646219bb0b91a6f3327e39fb","683dba9a53627eb9ab41b36a","688a004e6d905469be4bb6ef","0","646219bb0b91a6f3327e39fb","0","2025-07-30T11:32:35.055Z","","","","MotivationQ","","","","","","","","","","","50","","","","","","","","","","","","","","","","","","","","","","","","","","",""
"","","","","ctl-task-cpt","58","654063","0.0-7.0-0.9","95","1","2025-07-30 11:22:33","36c45c0696341be0efffe67d72a12abb","94.134.108.182","Mozilla/5.0 (Windows NT 10.0; Win64; x64) AppleWebKit/537.36 (KHTML, like Gecko) Chrome/138.0.0.0 Safari/537.36","WebKit","Chrome","138.0.0.0","Windows","10.0","https://app.prolific.com/","de-DE,de;q=0.9,en-DE;q=0.8,en;q=0.7,es-ES;q=0.6,es;q=0.5,en-US;q=0.4","646219bb0b91a6f3327e39fb","683dba9a53627eb9ab41b36a","688a004e6d905469be4bb6ef","0","646219bb0b91a6f3327e39fb","0","2025-07-30T11:33:28.513Z","","","","","","","","","","","","","","","","win-only","0","g1:NW,g2:SE","0.5","10","0","602195.2","828.4","5835.9","50435.8","1","4","4","6","2","-4","-4","0","0","0","1305.9","3000","-2765","[""down"",""right""]","{""num_key_presses"":10,""num_perfect"":5,""num_errors"":0,""num_randdir"":5,""num_randdir_good_moves"":1,""num_whilered"":0,""num_whileblue"":0,""num_blue"":4,""num_good_moves"":6}","[551.4285714285714,566.3348214285714,0.2,551.4285714285714,566.3348214285714,101.8,551.4285714285714,566.3348214285714,208.8,551.4285714285714,566.3348214285714,313.8,499.42857142857144,534.3348214285714,414.9,515.4285714285714,551.3348214285714,522.8,535.4285714285714,563.3348214285714,627.3,296.42857142857144,205.33482142857144,728.9,120.42857142857143,74.33482142857143,837.8,250.42857142857144,223.33482142857144,939.6,746.4285714285714,840.3348214285714,1042.8,992.4285714285714,1005.3348214285714,1143.1,1031.4285714285713,1042.3348214285713,1251.1,1035.4285714285713,1044.3348214285713,1351.8,1023.4285714285714,1037.3348214285713,1453.1,1024.4285714285713,1030.3348214285713,1556.1,1465.4285714285713,1031.3348214285713,1659.5,1731.4285714285713,1046.3348214285713,1763.5,1731.4285714285713,1046.3348214285713,1868.9,1731.4285714285713,1046.3348214285713,1972.6,1731.4285714285713,1046.3348214285713,2076.9,1731.4285714285713,1046.3348214285713,2177.5,1731.4285714285713,1046.3348214285713,2279.1,1731.4285714285713,1046.3348214285713,2386.2,1731.4285714285713,1046.3348214285713,2487.6,1731.4285714285713,1046.3348214285713,2588,1731.4285714285713,1046.3348214285713,2692.3,1731.4285714285713,1046.3348214285713,2792.4,1731.4285714285713,1046.3348214285713,2893.1,1731.4285714285713,1046.3348214285713,2997.7,1731.4285714285713,1046.3348214285713,3101.1,1731.4285714285713,1046.3348214285713,3207.2,1731.4285714285713,1046.3348214285713,3307.6,1731.4285714285713,1046.3348214285713,3413,1731.4285714285713,1046.3348214285713,3522.6,1731.4285714285713,1046.3348214285713,3627.1,1731.4285714285713,1046.3348214285713,3727.8,1731.4285714285713,1046.3348214285713,3832.3,1731.4285714285713,1046.3348214285713,3932.3,1731.4285714285713,1046.3348214285713,4032.9,1731.4285714285713,1046.3348214285713,4133.1,1731.4285714285713,1046.3348214285713,4236.9,1731.4285714285713,1046.3348214285713,4337.3,1731.4285714285713,1046.3348214285713,4438.4,1731.4285714285713,1046.3348214285713,4542.8,1731.4285714285713,1046.3348214285713,4642.8,1731.4285714285713,1046.3348214285713,4742.9,1731.4285714285713,1046.3348214285713,4849.9,1731.4285714285713,1046.3348214285713,4955.7]","[4297.6,4297.6,2029.2,2001.6,266.8,""smooth"",""down"",""down"",""good_move"",6854.2,2556.3,2263.5,4297.9,292.8,""oops"",""right"",""left"",""bad_move"",10033.7,3179.2,2901.1,6854.5,278.1,""oops"",""down"",""right"",""good_move"",13131.4,3097.4,2819.2,10034,278.2,""smooth"",""down"",""down"",""good_move"",15613.7,2482.1,2197.7,13131.6,284.4,""oops"",""right"",""left"",""bad_move"",22186.8,6572.8,2972.8,18916.4,297.7,""smooth"",""right"",""right"",""good_move"",25204.5,3017.5,2726.4,22187,291.1,""oops"",""right"",""up"",""bad_move"",28407.1,3202.3,2919.6,25204.8,282.7,""oops"",""right"",""left"",""bad_move"",38739.4,10332,2857.4,35236.4,645.6,""smooth"",""down"",""down"",""good_move"",41937.1,3197.5,2878.4,38739.6,319.1,""smooth"",""right"",""right"",""good_move""]"
"2342","","<div style=""width:500px;"">
  <p>What determined the result of this run?</p>
  </div>","0","html-slider-response","59","656407","0.0-7.0-1.9","95","1","2025-07-30 11:22:33","36c45c0696341be0efffe67d72a12abb","94.134.108.182","Mozilla/5.0 (Windows NT 10.0; Win64; x64) AppleWebKit/537.36 (KHTML, like Gecko) Chrome/138.0.0.0 Safari/537.36","WebKit","Chrome","138.0.0.0","Windows","10.0","https://app.prolific.com/","de-DE,de;q=0.9,en-DE;q=0.8,en;q=0.7,es-ES;q=0.6,es;q=0.5,en-US;q=0.4","646219bb0b91a6f3327e39fb","683dba9a53627eb9ab41b36a","688a004e6d905469be4bb6ef","0","646219bb0b91a6f3327e39fb","0","2025-07-30T11:33:30.857Z","","","","AttribQ","","","","","","","","","","","50","","","","","","","","","","","","","","","","","","","","","","","","","","",""
"3608","","<div style=""width:500px;"">
  <p>How much control did you have over the ball?</p>
  </div>","0","html-slider-response","60","660018","0.0-7.0-2.9","95","1","2025-07-30 11:22:33","36c45c0696341be0efffe67d72a12abb","94.134.108.182","Mozilla/5.0 (Windows NT 10.0; Win64; x64) AppleWebKit/537.36 (KHTML, like Gecko) Chrome/138.0.0.0 Safari/537.36","WebKit","Chrome","138.0.0.0","Windows","10.0","https://app.prolific.com/","de-DE,de;q=0.9,en-DE;q=0.8,en;q=0.7,es-ES;q=0.6,es;q=0.5,en-US;q=0.4","646219bb0b91a6f3327e39fb","683dba9a53627eb9ab41b36a","688a004e6d905469be4bb6ef","0","646219bb0b91a6f3327e39fb","0","2025-07-30T11:33:34.468Z","","","","ControlQ","","","","","","","","","","","50","","","","","","","","","","","","","","","","","","","","","","","","","","",""
"2212","","<div style=""width:500px;"">
  <p>How would you describe your current emotional state?</p>
  </div>","100","html-slider-response","61","662232","0.0-7.0-3.9","95","1","2025-07-30 11:22:33","36c45c0696341be0efffe67d72a12abb","94.134.108.182","Mozilla/5.0 (Windows NT 10.0; Win64; x64) AppleWebKit/537.36 (KHTML, like Gecko) Chrome/138.0.0.0 Safari/537.36","WebKit","Chrome","138.0.0.0","Windows","10.0","https://app.prolific.com/","de-DE,de;q=0.9,en-DE;q=0.8,en;q=0.7,es-ES;q=0.6,es;q=0.5,en-US;q=0.4","646219bb0b91a6f3327e39fb","683dba9a53627eb9ab41b36a","688a004e6d905469be4bb6ef","0","646219bb0b91a6f3327e39fb","0","2025-07-30T11:33:36.682Z","","","","StressQ","","","","","","","","","","","50","","","","","","","","","","","","","","","","","","","","","","","","","","",""
"1656","","<div style=""width:500px;"">
  <p>What best describes how you currently feel?</p>
  </div>","8","html-slider-response","62","663890","0.0-7.0-4.9","95","1","2025-07-30 11:22:33","36c45c0696341be0efffe67d72a12abb","94.134.108.182","Mozilla/5.0 (Windows NT 10.0; Win64; x64) AppleWebKit/537.36 (KHTML, like Gecko) Chrome/138.0.0.0 Safari/537.36","WebKit","Chrome","138.0.0.0","Windows","10.0","https://app.prolific.com/","de-DE,de;q=0.9,en-DE;q=0.8,en;q=0.7,es-ES;q=0.6,es;q=0.5,en-US;q=0.4","646219bb0b91a6f3327e39fb","683dba9a53627eb9ab41b36a","688a004e6d905469be4bb6ef","0","646219bb0b91a6f3327e39fb","0","2025-07-30T11:33:38.340Z","","","","MotivationQ","","","","","","","","","","","50","","","","","","","","","","","","","","","","","","","","","","","","","","",""
"","","","","ctl-task-cpt","63","702719","0.0-7.0-0.10","95","1","2025-07-30 11:22:33","36c45c0696341be0efffe67d72a12abb","94.134.108.182","Mozilla/5.0 (Windows NT 10.0; Win64; x64) AppleWebKit/537.36 (KHTML, like Gecko) Chrome/138.0.0.0 Safari/537.36","WebKit","Chrome","138.0.0.0","Windows","10.0","https://app.prolific.com/","de-DE,de;q=0.9,en-DE;q=0.8,en;q=0.7,es-ES;q=0.6,es;q=0.5,en-US;q=0.4","646219bb0b91a6f3327e39fb","683dba9a53627eb9ab41b36a","688a004e6d905469be4bb6ef","0","646219bb0b91a6f3327e39fb","0","2025-07-30T11:34:17.169Z","","","","","","","","","","","","","","","","win-only","1","g1:NE,g2:SW","0.6","11","0","665481.3","736","5736.8","35800.8","1","4","8","6","2","8","8","8","0","0.06060606060606061","970","3000","930","[""down"",""left""]","{""num_key_presses"":8,""num_perfect"":5,""num_errors"":0,""num_randdir"":3,""num_randdir_good_moves"":2,""num_whilered"":0,""num_whileblue"":0,""num_blue"":3,""num_good_moves"":7}","[547.4285714285714,557.3348214285714,0.1,546.4285714285714,557.3348214285714,102.4,546.4285714285714,557.3348214285714,208.2,546.4285714285714,557.3348214285714,314.8,369.42857142857144,682.3348214285714,418.4,221.42857142857144,905.3348214285714,528,222.42857142857144,898.3348214285714,631.5,257.42857142857144,797.3348214285714,736.4,99.42857142857143,978.3348214285714,836.5,71.42857142857143,1046.3348214285713,942.4,74.42857142857143,1046.3348214285713,1042.7,74.42857142857143,1045.3348214285713,1147.4,81.42857142857143,1041.3348214285713,1249.7,119.42857142857143,1029.3348214285713,1349.8,185.42857142857144,1009.3348214285714,1450,213.42857142857144,1003.3348214285714,1550.5,213.42857142857144,1003.3348214285714,1655.5,213.42857142857144,1003.3348214285714,1755.9,213.42857142857144,1003.3348214285714,1866.2,213.42857142857144,1003.3348214285714,1966.3,213.42857142857144,1003.3348214285714,2069,213.42857142857144,1003.3348214285714,2177.4,213.42857142857144,1003.3348214285714,2285.7,213.42857142857144,1003.3348214285714,2385.7,213.42857142857144,1003.3348214285714,2487.2,54.42857142857143,990.3348214285714,2592.5,-545.5714285714286,923.3348214285714,2699.4,-721.5714285714286,890.3348214285714,2807.2,-721.5714285714286,890.3348214285714,2917.1,-721.5714285714286,890.3348214285714,3017.1,-721.5714285714286,890.3348214285714,3126.1,-721.5714285714286,890.3348214285714,3227.6,-721.5714285714286,890.3348214285714,3329.7,-721.5714285714286,890.3348214285714,3431.1,-721.5714285714286,890.3348214285714,3537,-620.5714285714286,861.3348214285714,3641.1,338.42857142857144,981.3348214285714,3749.5,649.4285714285714,997.3348214285714,3849.6,898.4285714285714,1001.3348214285714,3957.2,907.4285714285714,1001.3348214285714,4061.2,901.4285714285714,1002.3348214285714,4161.3,892.4285714285714,1002.3348214285714,4263.1,892.4285714285714,1002.3348214285714,4365.8,892.4285714285714,1002.3348214285714,4470,892.4285714285714,1002.3348214285714,4580.2,892.4285714285714,1002.3348214285714,4684.9,892.4285714285714,1002.3348214285714,4786.4,892.4285714285714,1002.3348214285714,4889.6,892.4285714285714,1002.3348214285714,4991.3]","[5467.1,5467.2,3172.5,2004.5,290.2,""smooth"",""left"",""left"",""good_move"",8359.6,2892.2,2594.1,5467.5,298.1,""smooth"",""down"",""down"",""good_move"",10404,2043.8,1677.3,8360.2,366.5,""oops"",""left"",""up"",""bad_move"",12774.8,2370.4,2082.7,10404.4,287.7,""smooth"",""down"",""down"",""good_move"",14706.3,1931,1670.6,12775.3,260.4,""oops"",""down"",""down"",""good_move"",20736.3,6029.8,2006.9,18453.6,275.8,""oops"",""left"",""down"",""good_move"",27837.7,7100.8,3062.1,24459.5,316.1,""smooth"",""left"",""left"",""good_move"",29958.1,2120.2,1758,27837.9,362.2,""smooth"",""left"",""left"",""good_move""]"
"1647","","<div style=""width:500px;"">
  <p>What determined the result of this run?</p>
  </div>","5","html-slider-response","64","704369","0.0-7.0-1.10","95","1","2025-07-30 11:22:33","36c45c0696341be0efffe67d72a12abb","94.134.108.182","Mozilla/5.0 (Windows NT 10.0; Win64; x64) AppleWebKit/537.36 (KHTML, like Gecko) Chrome/138.0.0.0 Safari/537.36","WebKit","Chrome","138.0.0.0","Windows","10.0","https://app.prolific.com/","de-DE,de;q=0.9,en-DE;q=0.8,en;q=0.7,es-ES;q=0.6,es;q=0.5,en-US;q=0.4","646219bb0b91a6f3327e39fb","683dba9a53627eb9ab41b36a","688a004e6d905469be4bb6ef","0","646219bb0b91a6f3327e39fb","0","2025-07-30T11:34:18.819Z","","","","AttribQ","","","","","","","","","","","50","","","","","","","","","","","","","","","","","","","","","","","","","","",""
"3016","","<div style=""width:500px;"">
  <p>How much control did you have over the ball?</p>
  </div>","28","html-slider-response","65","707386","0.0-7.0-2.10","95","1","2025-07-30 11:22:33","36c45c0696341be0efffe67d72a12abb","94.134.108.182","Mozilla/5.0 (Windows NT 10.0; Win64; x64) AppleWebKit/537.36 (KHTML, like Gecko) Chrome/138.0.0.0 Safari/537.36","WebKit","Chrome","138.0.0.0","Windows","10.0","https://app.prolific.com/","de-DE,de;q=0.9,en-DE;q=0.8,en;q=0.7,es-ES;q=0.6,es;q=0.5,en-US;q=0.4","646219bb0b91a6f3327e39fb","683dba9a53627eb9ab41b36a","688a004e6d905469be4bb6ef","0","646219bb0b91a6f3327e39fb","0","2025-07-30T11:34:21.836Z","","","","ControlQ","","","","","","","","","","","50","","","","","","","","","","","","","","","","","","","","","","","","","","",""
"3210","","<div style=""width:500px;"">
  <p>How would you describe your current emotional state?</p>
  </div>","100","html-slider-response","66","710598","0.0-7.0-3.10","95","1","2025-07-30 11:22:33","36c45c0696341be0efffe67d72a12abb","94.134.108.182","Mozilla/5.0 (Windows NT 10.0; Win64; x64) AppleWebKit/537.36 (KHTML, like Gecko) Chrome/138.0.0.0 Safari/537.36","WebKit","Chrome","138.0.0.0","Windows","10.0","https://app.prolific.com/","de-DE,de;q=0.9,en-DE;q=0.8,en;q=0.7,es-ES;q=0.6,es;q=0.5,en-US;q=0.4","646219bb0b91a6f3327e39fb","683dba9a53627eb9ab41b36a","688a004e6d905469be4bb6ef","0","646219bb0b91a6f3327e39fb","0","2025-07-30T11:34:25.048Z","","","","StressQ","","","","","","","","","","","50","","","","","","","","","","","","","","","","","","","","","","","","","","",""
"1305","","<div style=""width:500px;"">
  <p>What best describes how you currently feel?</p>
  </div>","10","html-slider-response","67","711907","0.0-7.0-4.10","95","1","2025-07-30 11:22:33","36c45c0696341be0efffe67d72a12abb","94.134.108.182","Mozilla/5.0 (Windows NT 10.0; Win64; x64) AppleWebKit/537.36 (KHTML, like Gecko) Chrome/138.0.0.0 Safari/537.36","WebKit","Chrome","138.0.0.0","Windows","10.0","https://app.prolific.com/","de-DE,de;q=0.9,en-DE;q=0.8,en;q=0.7,es-ES;q=0.6,es;q=0.5,en-US;q=0.4","646219bb0b91a6f3327e39fb","683dba9a53627eb9ab41b36a","688a004e6d905469be4bb6ef","0","646219bb0b91a6f3327e39fb","0","2025-07-30T11:34:26.358Z","","","","MotivationQ","","","","","","","","","","","50","","","","","","","","","","","","","","","","","","","","","","","","","","",""
"","","","","ctl-task-cpt","68","745268","0.0-7.0-0.11","95","1","2025-07-30 11:22:33","36c45c0696341be0efffe67d72a12abb","94.134.108.182","Mozilla/5.0 (Windows NT 10.0; Win64; x64) AppleWebKit/537.36 (KHTML, like Gecko) Chrome/138.0.0.0 Safari/537.36","WebKit","Chrome","138.0.0.0","Windows","10.0","https://app.prolific.com/","de-DE,de;q=0.9,en-DE;q=0.8,en;q=0.7,es-ES;q=0.6,es;q=0.5,en-US;q=0.4","646219bb0b91a6f3327e39fb","683dba9a53627eb9ab41b36a","688a004e6d905469be4bb6ef","0","646219bb0b91a6f3327e39fb","0","2025-07-30T11:34:59.718Z","","","","","","","","","","","","","","","","win-only","1","g1:NE,g2:SW","0.7","12","0","713502.5","622","5626.4","30338","1","4","4","6","2","4","4","12","8","0.09090909090909091","1805.2","3000","925","[""down"",""left""]","{""num_key_presses"":8,""num_perfect"":5,""num_errors"":0,""num_randdir"":3,""num_randdir_good_moves"":2,""num_whilered"":0,""num_whileblue"":0,""num_blue"":1,""num_good_moves"":7}","[553.4285714285714,559.3348214285714,0.6,553.4285714285714,559.3348214285714,106.4,553.4285714285714,559.3348214285714,212.2,550.4285714285714,560.3348214285714,314.3,436.42857142857144,649.3348214285714,420.3,199.42857142857144,1003.3348214285714,526.3,168.42857142857144,1014.3348214285714,633.4,158.42857142857144,1000.3348214285714,736.5,428.42857142857144,691.3348214285714,844.2,929.4285714285714,165.33482142857144,957.7,949.4285714285714,142.33482142857144,1058.5,956.4285714285714,134.33482142857144,1158.6,792.4285714285714,242.33482142857144,1264.9,251.42857142857144,844.3348214285714,1366.3,197.42857142857144,907.3348214285714,1467.2,147.42857142857144,934.3348214285714,1575.4,123.42857142857143,1000.3348214285714,1676.4,125.42857142857143,1020.3348214285714,1786.2,125.42857142857143,1020.3348214285714,1886.2,145.42857142857144,1019.3348214285714,1986.5,355.42857142857144,1079.3348214285713,2089.3,767.4285714285714,1203.3348214285713,2189.8,938.4285714285714,1226.3348214285713,2294.4,941.4285714285714,1224.3348214285713,2401,941.4285714285714,1224.3348214285713,2506.3,941.4285714285714,1224.3348214285713,2609.5,941.4285714285714,1224.3348214285713,2710.7,941.4285714285714,1224.3348214285713,2821.8,941.4285714285714,1224.3348214285713,2924.1,941.4285714285714,1224.3348214285713,3029,941.4285714285714,1224.3348214285713,3131.3,941.4285714285714,1224.3348214285713,3231.4,941.4285714285714,1224.3348214285713,3335.4,941.4285714285714,1224.3348214285713,3438.4,941.4285714285714,1224.3348214285713,3541.2,941.4285714285714,1224.3348214285713,3648.2,941.4285714285714,1224.3348214285713,3750.3,941.4285714285714,1224.3348214285713,3850.4,941.4285714285714,1224.3348214285713,3953.3,941.4285714285714,1224.3348214285713,4055.8,941.4285714285714,1224.3348214285713,4158.6,941.4285714285714,1224.3348214285713,4259.6,941.4285714285714,1224.3348214285713,4359.9,941.4285714285714,1224.3348214285713,4470.6,941.4285714285714,1224.3348214285713,4571.8,941.4285714285714,1224.3348214285713,4674.9,941.4285714285714,1224.3348214285713,4778.3,941.4285714285714,1224.3348214285713,4880.1,941.4285714285714,1224.3348214285713,4990.5]","[1364.3,1364.3,1000,0,364.3,""smooth"",""down"",""down"",""good_move"",4585.1,3220.4,2925.5,1364.7,294.9,""smooth"",""left"",""left"",""good_move"",7633.5,3048.1,2764.5,4585.4,283.6,""oops"",""down"",""right"",""bad_move"",10022.8,2389.1,2098.1,7633.7,291,""smooth"",""down"",""down"",""good_move"",13026.1,3002.7,2639.3,10023.4,363.4,""oops"",""left"",""down"",""good_move"",19642.8,6616.3,2321.7,16995.5,325.6,""smooth"",""left"",""left"",""good_move"",22163.7,2520.7,2210.2,19643,310.5,""smooth"",""left"",""left"",""good_move"",24614.1,2450.2,2179.6,22163.9,270.6,""oops"",""left"",""left"",""good_move""]"
"1637","","<div style=""width:500px;"">
  <p>What determined the result of this run?</p>
  </div>","9","html-slider-response","69","746906","0.0-7.0-1.11","95","1","2025-07-30 11:22:33","36c45c0696341be0efffe67d72a12abb","94.134.108.182","Mozilla/5.0 (Windows NT 10.0; Win64; x64) AppleWebKit/537.36 (KHTML, like Gecko) Chrome/138.0.0.0 Safari/537.36","WebKit","Chrome","138.0.0.0","Windows","10.0","https://app.prolific.com/","de-DE,de;q=0.9,en-DE;q=0.8,en;q=0.7,es-ES;q=0.6,es;q=0.5,en-US;q=0.4","646219bb0b91a6f3327e39fb","683dba9a53627eb9ab41b36a","688a004e6d905469be4bb6ef","0","646219bb0b91a6f3327e39fb","0","2025-07-30T11:35:01.356Z","","","","AttribQ","","","","","","","","","","","50","","","","","","","","","","","","","","","","","","","","","","","","","","",""
"2948","","<div style=""width:500px;"">
  <p>How much control did you have over the ball?</p>
  </div>","51","html-slider-response","70","749855","0.0-7.0-2.11","95","1","2025-07-30 11:22:33","36c45c0696341be0efffe67d72a12abb","94.134.108.182","Mozilla/5.0 (Windows NT 10.0; Win64; x64) AppleWebKit/537.36 (KHTML, like Gecko) Chrome/138.0.0.0 Safari/537.36","WebKit","Chrome","138.0.0.0","Windows","10.0","https://app.prolific.com/","de-DE,de;q=0.9,en-DE;q=0.8,en;q=0.7,es-ES;q=0.6,es;q=0.5,en-US;q=0.4","646219bb0b91a6f3327e39fb","683dba9a53627eb9ab41b36a","688a004e6d905469be4bb6ef","0","646219bb0b91a6f3327e39fb","0","2025-07-30T11:35:04.306Z","","","","ControlQ","","","","","","","","","","","50","","","","","","","","","","","","","","","","","","","","","","","","","","",""
"2209","","<div style=""width:500px;"">
  <p>How would you describe your current emotional state?</p>
  </div>","100","html-slider-response","71","752067","0.0-7.0-3.11","95","1","2025-07-30 11:22:33","36c45c0696341be0efffe67d72a12abb","94.134.108.182","Mozilla/5.0 (Windows NT 10.0; Win64; x64) AppleWebKit/537.36 (KHTML, like Gecko) Chrome/138.0.0.0 Safari/537.36","WebKit","Chrome","138.0.0.0","Windows","10.0","https://app.prolific.com/","de-DE,de;q=0.9,en-DE;q=0.8,en;q=0.7,es-ES;q=0.6,es;q=0.5,en-US;q=0.4","646219bb0b91a6f3327e39fb","683dba9a53627eb9ab41b36a","688a004e6d905469be4bb6ef","0","646219bb0b91a6f3327e39fb","0","2025-07-30T11:35:06.518Z","","","","StressQ","","","","","","","","","","","50","","","","","","","","","","","","","","","","","","","","","","","","","","",""
"1410","","<div style=""width:500px;"">
  <p>What best describes how you currently feel?</p>
  </div>","6","html-slider-response","72","753481","0.0-7.0-4.11","95","1","2025-07-30 11:22:33","36c45c0696341be0efffe67d72a12abb","94.134.108.182","Mozilla/5.0 (Windows NT 10.0; Win64; x64) AppleWebKit/537.36 (KHTML, like Gecko) Chrome/138.0.0.0 Safari/537.36","WebKit","Chrome","138.0.0.0","Windows","10.0","https://app.prolific.com/","de-DE,de;q=0.9,en-DE;q=0.8,en;q=0.7,es-ES;q=0.6,es;q=0.5,en-US;q=0.4","646219bb0b91a6f3327e39fb","683dba9a53627eb9ab41b36a","688a004e6d905469be4bb6ef","0","646219bb0b91a6f3327e39fb","0","2025-07-30T11:35:07.931Z","","","","MotivationQ","","","","","","","","","","","50","","","","","","","","","","","","","","","","","","","","","","","","","","",""
