"rt","response_timestamp","stimulus","response","trial_type","trial_index","time_elapsed","internal_node_id","run_id","condition","recorded_at","source_code_version","ip","user_agent","device","browser","browser_version","platform","platform_version","referer","accept_language","PROLIFIC_PID","STUDY_ID","SESSION_ID","BATCH","prolific_id","batch","realtime","success","question_order","question_id","eventType","responses","item_order","radio_event_ids","radio_event_times","key_event_times","mouse_event_times","straightlining","zigzagging","honeypot","view_history","slider_start","which_type","canvas_config","goals_layout","control_level","trial_number","tutorial_trial_number","trial_start_time","phase1_start_time","phase2_start_time","phase3_start_time","goal_1_value","goal_1_distance","goal_2_value","goal_2_distance","goal_selected","outcome","outcome_total","participant_final_score","participant_initial_score","participant_final_score_prop","goal_choice_rt","allocated_time","allocated_time_remaining","goal_direction","counts","mouse_movements","key_presses"
"9031","1753864756086","<p style='font-size:40px;line-height:1.25'><strong>Welcome to the experiment!</strong></p><p style='font-size:1.1em;line-height:1.25'>Thank you for participanting in our experiment again! You will be asked to play the Dysfunctional Ball Game again. We will briefly recap the rules before we start.</p><p style='font-size:1.1em;line-height:1.25'>Press <strong>Next</strong> to continue.</p>","0","custom-html-button-response","0","9033","0.0-0.0","18","1","2025-07-30 08:39:03","36c45c0696341be0efffe67d72a12abb","118.93.124.120","Mozilla/5.0 (Macintosh; Intel Mac OS X 10_15_7) AppleWebKit/537.36 (KHTML, like Gecko) Chrome/138.0.0.0 Safari/537.36","Macintosh","Chrome","138.0.0.0","OS X","10_15_7","https://app.prolific.com/","en-GB,en-US;q=0.9,en;q=0.8","646a16e2aae07a0225cdb635","687a19d2168e237449fb8af4","6889da081dd1e1f46568dd18","0","646a16e2aae07a0225cdb635","0","2025-07-30T08:39:16.087Z","","","","","","","","","","","","","","","","","","","","","","","","","","","","","","","","","","","","","","","","","",""
"5714","","","","fullscreen","1","15751","0.0-1.0","18","1","2025-07-30 08:39:03","36c45c0696341be0efffe67d72a12abb","118.93.124.120","Mozilla/5.0 (Macintosh; Intel Mac OS X 10_15_7) AppleWebKit/537.36 (KHTML, like Gecko) Chrome/138.0.0.0 Safari/537.36","Macintosh","Chrome","138.0.0.0","OS X","10_15_7","https://app.prolific.com/","en-GB,en-US;q=0.9,en;q=0.8","646a16e2aae07a0225cdb635","687a19d2168e237449fb8af4","6889da081dd1e1f46568dd18","0","646a16e2aae07a0225cdb635","0","","true","","","","","","","","","","","","","","","","","","","","","","","","","","","","","","","","","","","","","","","","",""
"5063","1753864767869"," <p style='font-size:1.1em;line-height:1.25'>Thank you for closing all other tabs.</p><p style='font-size:1.1em;line-height:1.25'>We will now invite you to fill in some questionnaires, before starting the game.<br>This will take about 5 minutes.<br></p><p style='font-size:1.1em;line-height:1.25'>Press the <strong>Next</strong> button to continue.</p>","0","custom-html-button-response","2","20815","0.0-2.0","18","1","2025-07-30 08:39:03","36c45c0696341be0efffe67d72a12abb","118.93.124.120","Mozilla/5.0 (Macintosh; Intel Mac OS X 10_15_7) AppleWebKit/537.36 (KHTML, like Gecko) Chrome/138.0.0.0 Safari/537.36","Macintosh","Chrome","138.0.0.0","OS X","10_15_7","https://app.prolific.com/","en-GB,en-US;q=0.9,en;q=0.8","646a16e2aae07a0225cdb635","687a19d2168e237449fb8af4","6889da081dd1e1f46568dd18","0","646a16e2aae07a0225cdb635","0","2025-07-30T08:39:27.869Z","","","","","","","","","","","","","","","","","","","","","","","","","","","","","","","","","","","","","","","","","",""
"4117","","","{""assigned_sex"":""male""}","survey-multi-choice","3","24935","0.0-3.0-0.0","18","1","2025-07-30 08:39:03","36c45c0696341be0efffe67d72a12abb","118.93.124.120","Mozilla/5.0 (Macintosh; Intel Mac OS X 10_15_7) AppleWebKit/537.36 (KHTML, like Gecko) Chrome/138.0.0.0 Safari/537.36","Macintosh","Chrome","138.0.0.0","OS X","10_15_7","https://app.prolific.com/","en-GB,en-US;q=0.9,en;q=0.8","646a16e2aae07a0225cdb635","687a19d2168e237449fb8af4","6889da081dd1e1f46568dd18","0","646a16e2aae07a0225cdb635","0","","","[0]","0","demographics","","","","","","","","","","","","","","","","","","","","","","","","","","","","","","","","","","","","","",""
"7179","1753864779169","<p style='font-size:1.1em;line-height:1.25'>In the following, we will perform a baseline assessment. This means that we will ask you a few questions relating to your experiences over the past month.<br></p><p style='font-size:1.1em;line-height:1.25'>Press the <strong>Next</strong> button to continue.</p>","0","custom-html-button-response","4","32115","0.0-4.0-0.0","18","1","2025-07-30 08:39:03","36c45c0696341be0efffe67d72a12abb","118.93.124.120","Mozilla/5.0 (Macintosh; Intel Mac OS X 10_15_7) AppleWebKit/537.36 (KHTML, like Gecko) Chrome/138.0.0.0 Safari/537.36","Macintosh","Chrome","138.0.0.0","OS X","10_15_7","https://app.prolific.com/","en-GB,en-US;q=0.9,en;q=0.8","646a16e2aae07a0225cdb635","687a19d2168e237449fb8af4","6889da081dd1e1f46568dd18","0","646a16e2aae07a0225cdb635","0","2025-07-30T08:39:39.170Z","","","","","","","","","","","","","","","","","","","","","","","","","","","","","","","","","","","","","","","","","",""
"40417.799999952316","","","","survey-template","5","72537","0.0-4.0-1.0","18","1","2025-07-30 08:39:03","36c45c0696341be0efffe67d72a12abb","118.93.124.120","Mozilla/5.0 (Macintosh; Intel Mac OS X 10_15_7) AppleWebKit/537.36 (KHTML, like Gecko) Chrome/138.0.0.0 Safari/537.36","Macintosh","Chrome","138.0.0.0","OS X","10_15_7","https://app.prolific.com/","en-GB,en-US;q=0.9,en;q=0.8","646a16e2aae07a0225cdb635","687a19d2168e237449fb8af4","6889da081dd1e1f46568dd18","0","646a16e2aae07a0225cdb635","0","2025-07-30T08:40:19.591Z","","","","pss","{""Q01"":""1"",""Q02"":""2"",""Q03"":""3"",""Q04"":""2"",""Q05"":""3"",""Q06"":""3"",""Q07"":""2"",""Q08"":""3"",""Q09"":""2"",""Q10"":""3""}","[0,1,2,3,4,5,6,7,8,9]","[""Q01"",""Q02"",""Q03"",""Q03"",""Q04"",""Q05"",""Q06"",""Q07"",""Q08"",""Q09"",""Q10""]","[5397.199999809265,8897,13013.899999856949,14680.599999904633,17546.89999985695,22080.5,26663.699999809265,29347.099999904633,32030.39999985695,36063.59999990463,39630.199999809265]","[]","[0,5397.199999809265,8897,13013.899999856949,14680.599999904633,17546.89999985695,22080.5,26663.699999809265,29347.099999904633,32030.39999985695,36063.59999990463,39630.199999809265,40413.59999990463]","0.4","0.8888888888888888","0","","","","","","","","","","","","","","","","","","","","","","","","","","","","",""
"2959","1753864822551","<p style='font-size:1.1em;line-height:1.25'>Thank you for your answers! Now we will ask you a few more questions relating to your feelings in the last 24 hours.<br></p><p style='font-size:1.1em;line-height:1.25'>Press the <strong>Next</strong> button to continue.</p>","0","custom-html-button-response","6","75498","0.0-4.0-2.0","18","1","2025-07-30 08:39:03","36c45c0696341be0efffe67d72a12abb","118.93.124.120","Mozilla/5.0 (Macintosh; Intel Mac OS X 10_15_7) AppleWebKit/537.36 (KHTML, like Gecko) Chrome/138.0.0.0 Safari/537.36","Macintosh","Chrome","138.0.0.0","OS X","10_15_7","https://app.prolific.com/","en-GB,en-US;q=0.9,en;q=0.8","646a16e2aae07a0225cdb635","687a19d2168e237449fb8af4","6889da081dd1e1f46568dd18","0","646a16e2aae07a0225cdb635","0","2025-07-30T08:40:22.552Z","","","","","","","","","","","","","","","","","","","","","","","","","","","","","","","","","","","","","","","","","",""
"58501.799999952316","","","","survey-template","7","134003","0.0-4.0-3.0","18","1","2025-07-30 08:39:03","36c45c0696341be0efffe67d72a12abb","118.93.124.120","Mozilla/5.0 (Macintosh; Intel Mac OS X 10_15_7) AppleWebKit/537.36 (KHTML, like Gecko) Chrome/138.0.0.0 Safari/537.36","Macintosh","Chrome","138.0.0.0","OS X","10_15_7","https://app.prolific.com/","en-GB,en-US;q=0.9,en;q=0.8","646a16e2aae07a0225cdb635","687a19d2168e237449fb8af4","6889da081dd1e1f46568dd18","0","646a16e2aae07a0225cdb635","0","2025-07-30T08:41:21.057Z","","","","drsp","{""Q01"":""1"",""Q02"":""2"",""Q03"":""2"",""Q04"":""3"",""Q05"":""3"",""Q06"":""3"",""Q07"":""1"",""Q08"":""0"",""Q09"":""1"",""Q10"":""2"",""Q11"":""1"",""Q12"":""1"",""Q13"":""5"",""Q14"":""1"",""Q15"":""4"",""Q16"":""4"",""Q17"":""4"",""Q18"":""3"",""Q19"":""0"",""Q20"":""1"",""Q21"":""2"",""Q22"":""0""}","[0,1,2,3,4,5,6,7,8,9,10,11,12,13,14,15,16,17,18,19,20,21]","[""Q01"",""Q02"",""Q03"",""Q04"",""Q05"",""Q06"",""Q07"",""Q08"",""Q09"",""Q10"",""Q11"",""Q12"",""Q13"",""Q14"",""Q15"",""Q16"",""Q17"",""Q18"",""Q19"",""Q20"",""Q21"",""Q21"",""Q22""]","[2464.7000000476837,3564,5847.5,7281.299999952316,8347.400000095367,12797.900000095367,14764.299999952316,16497.400000095367,18963.900000095367,21464.400000095367,23397.299999952316,25163.799999952316,27747.5,34081,35830.90000009537,38680.59999990463,39814.09999990463,42147.200000047684,45483.299999952316,48730.59999990463,51380.5,52214,54597.09999990463]","[]","[0.09999990463256836,2464.7000000476837,3564,5847.5,7281.299999952316,8347.400000095367,12797.900000095367,14764.299999952316,16497.400000095367,18963.900000095367,21464.400000095367,23397.299999952316,25163.799999952316,27747.5,34081,35830.90000009537,38680.59999990463,39814.09999990463,41230.59999990463,42147.200000047684,45483.299999952316,48730.59999990463,51380.5,52214,54597.09999990463,58497.299999952316]","0.3181818181818182","0.42857142857142855","0","","","","","","","","","","","","","","","","","","","","","","","","","","","","",""
"14560.299999952316","","","","survey-template","8","148565","0.0-4.0-4.0","18","1","2025-07-30 08:39:03","36c45c0696341be0efffe67d72a12abb","118.93.124.120","Mozilla/5.0 (Macintosh; Intel Mac OS X 10_15_7) AppleWebKit/537.36 (KHTML, like Gecko) Chrome/138.0.0.0 Safari/537.36","Macintosh","Chrome","138.0.0.0","OS X","10_15_7","https://app.prolific.com/","en-GB,en-US;q=0.9,en;q=0.8","646a16e2aae07a0225cdb635","687a19d2168e237449fb8af4","6889da081dd1e1f46568dd18","0","646a16e2aae07a0225cdb635","0","2025-07-30T08:41:35.619Z","","","","stress","{""Q01"":""3"",""Q02"":""4"",""Q03"":""3""}","[0,1,2]","[""Q01"",""Q02"",""Q03"",""Q03"",""Q03""]","[2642.399999856949,4492.5,6325.799999952316,12442.299999952316,13741.799999952316]","[]","[2642.399999856949,4492.5,6325.799999952316,12442.299999952316,13342.099999904633,13741.799999952316,14558.799999952316]","0.6666666666666666","0","0","","","","","","","","","","","","","","","","","","","","","","","","","","","","",""
"30381","","","","instructions","9","178947","0.0-5.0-0.0","18","1","2025-07-30 08:39:03","36c45c0696341be0efffe67d72a12abb","118.93.124.120","Mozilla/5.0 (Macintosh; Intel Mac OS X 10_15_7) AppleWebKit/537.36 (KHTML, like Gecko) Chrome/138.0.0.0 Safari/537.36","Macintosh","Chrome","138.0.0.0","OS X","10_15_7","https://app.prolific.com/","en-GB,en-US;q=0.9,en;q=0.8","646a16e2aae07a0225cdb635","687a19d2168e237449fb8af4","6889da081dd1e1f46568dd18","0","646a16e2aae07a0225cdb635","0","","","","","","","","","","","","","","","[{""page_index"":0,""viewing_time"":30381}]","","","","","","","","","","","","","","","","","","","","","","","","","","","",""
"9015","","<p>Before you start with this game please answer the following three questions yourself. </p>
  <p>Through this game, we measure several aspects of your cognitive performance, such as reaction times, multi-tasking capabilities </p>
  <p>and the ability to assess the situation you are in.</p>
  <p></p>
  <p><b>How good do you usually are in such tasks?</b></p>","29","html-slider-response","10","187964","0.0-6.0-0.0","18","1","2025-07-30 08:39:03","36c45c0696341be0efffe67d72a12abb","118.93.124.120","Mozilla/5.0 (Macintosh; Intel Mac OS X 10_15_7) AppleWebKit/537.36 (KHTML, like Gecko) Chrome/138.0.0.0 Safari/537.36","Macintosh","Chrome","138.0.0.0","OS X","10_15_7","https://app.prolific.com/","en-GB,en-US;q=0.9,en;q=0.8","646a16e2aae07a0225cdb635","687a19d2168e237449fb8af4","6889da081dd1e1f46568dd18","0","646a16e2aae07a0225cdb635","0","2025-07-30T08:42:15.018Z","","","","PreSkillQ","","","","","","","","","","","50","","","","","","","","","","","","","","","","","","","","","","","","","","",""
"4232","","<div style=""width:500px;"">
  <p>How well do you think you will perform in this task compared to other participants?</p>
  </div>","34","html-slider-response","11","192197","0.0-6.0-1.0","18","1","2025-07-30 08:39:03","36c45c0696341be0efffe67d72a12abb","118.93.124.120","Mozilla/5.0 (Macintosh; Intel Mac OS X 10_15_7) AppleWebKit/537.36 (KHTML, like Gecko) Chrome/138.0.0.0 Safari/537.36","Macintosh","Chrome","138.0.0.0","OS X","10_15_7","https://app.prolific.com/","en-GB,en-US;q=0.9,en;q=0.8","646a16e2aae07a0225cdb635","687a19d2168e237449fb8af4","6889da081dd1e1f46568dd18","0","646a16e2aae07a0225cdb635","0","2025-07-30T08:42:19.251Z","","","","PrePerfQ","","","","","","","","","","","50","","","","","","","","","","","","","","","","","","","","","","","","","","",""
"2732","","<div style=""width:500px;"">
  <p>What best describes how you currently feel?</p>
  </div>","34","html-slider-response","12","194930","0.0-6.0-2.0","18","1","2025-07-30 08:39:03","36c45c0696341be0efffe67d72a12abb","118.93.124.120","Mozilla/5.0 (Macintosh; Intel Mac OS X 10_15_7) AppleWebKit/537.36 (KHTML, like Gecko) Chrome/138.0.0.0 Safari/537.36","Macintosh","Chrome","138.0.0.0","OS X","10_15_7","https://app.prolific.com/","en-GB,en-US;q=0.9,en;q=0.8","646a16e2aae07a0225cdb635","687a19d2168e237449fb8af4","6889da081dd1e1f46568dd18","0","646a16e2aae07a0225cdb635","0","2025-07-30T08:42:21.984Z","","","","PreMotivationQ","","","","","","","","","","","50","","","","","","","","","","","","","","","","","","","","","","","","","","",""
"","","","","ctl-task-cpt","13","226839","0.0-7.0-0.0","18","1","2025-07-30 08:39:03","36c45c0696341be0efffe67d72a12abb","118.93.124.120","Mozilla/5.0 (Macintosh; Intel Mac OS X 10_15_7) AppleWebKit/537.36 (KHTML, like Gecko) Chrome/138.0.0.0 Safari/537.36","Macintosh","Chrome","138.0.0.0","OS X","10_15_7","https://app.prolific.com/","en-GB,en-US;q=0.9,en;q=0.8","646a16e2aae07a0225cdb635","687a19d2168e237449fb8af4","6889da081dd1e1f46568dd18","0","646a16e2aae07a0225cdb635","0","2025-07-30T08:42:53.893Z","","","","","","","","","","","","","","","","win-only","0","g1:NW,g2:SE","1","1","0","199899.7","2730.7","7731.7","28901.8","1","4","4","6","2","4","3","3","0","0.022727272727272728","2769.1","3000","180","[""down"",""right""]","{""num_key_presses"":8,""num_perfect"":7,""num_errors"":1,""num_randdir"":0,""num_randdir_good_moves"":0,""num_whilered"":0,""num_whileblue"":1,""num_blue"":1,""num_good_moves"":7}","[712.9366071428572,713.7334821428572,0.3,712.9366071428572,713.7334821428572,104.1,712.9366071428572,713.7334821428572,205.3,712.9366071428572,713.7334821428572,310.3,712.9366071428572,713.7334821428572,410.3,712.9366071428572,713.7334821428572,510.4,712.9366071428572,713.7334821428572,610.5,712.9366071428572,713.7334821428572,710.9,712.9366071428572,713.7334821428572,816,712.9366071428572,713.7334821428572,920.4,712.9366071428572,713.7334821428572,1025.9,712.9366071428572,713.7334821428572,1130.2,712.9366071428572,713.7334821428572,1230.7,938.9366071428572,1003.7334821428572,1331,1042.9366071428572,1129.7334821428572,1431.1,1042.9366071428572,1129.7334821428572,1535.5,1042.9366071428572,1129.7334821428572,1635.6,1042.9366071428572,1129.7334821428572,1739.8,1042.9366071428572,1129.7334821428572,1840,1042.9366071428572,1129.7334821428572,1940.7,1042.9366071428572,1129.7334821428572,2046.1,1042.9366071428572,1129.7334821428572,2150.2,1042.9366071428572,1129.7334821428572,2251.3,1042.9366071428572,1129.7334821428572,2355.1,1122.9366071428572,1153.7334821428572,2455.6,1324.9366071428572,1253.7334821428572,2560.5,1328.9366071428572,1269.7334821428572,2661,1312.9366071428572,1273.7334821428572,2765.2,1312.9366071428572,1273.7334821428572,2866.3,1312.9366071428572,1273.7334821428572,2970,1312.9366071428572,1273.7334821428572,3070.4,1312.9366071428572,1273.7334821428572,3175.4,1312.9366071428572,1273.7334821428572,3275.6,1312.9366071428572,1273.7334821428572,3380.8,1312.9366071428572,1273.7334821428572,3480.8,1312.9366071428572,1273.7334821428572,3580.8,1312.9366071428572,1273.7334821428572,3685,1312.9366071428572,1273.7334821428572,3785.8,1312.9366071428572,1273.7334821428572,3889.9,1312.9366071428572,1273.7334821428572,3995.6,1312.9366071428572,1273.7334821428572,4100.7,1312.9366071428572,1273.7334821428572,4205.2,1312.9366071428572,1273.7334821428572,4310.6,1312.9366071428572,1273.7334821428572,4411.2,1312.9366071428572,1273.7334821428572,4515.6,1312.9366071428572,1273.7334821428572,4615.9,1312.9366071428572,1273.7334821428572,4720.3,1312.9366071428572,1273.7334821428572,4820.5,1312.9366071428572,1273.7334821428572,4920.5]","[1924.2,1924.2,1000,0,924.2,""smooth"",""right"",""right"",""good_move"",4974.9,3050.3,2665.4,1924.7,384.8,""smooth"",""down"",""down"",""good_move"",7493.1,2517.9,2199.3,4975.2,318.6,""smooth"",""down"",""down"",""good_move"",10826.6,3333.4,3005.6,7493.2,327.8,""smooth"",""down"",""down"",""good_move"",13256.6,2429.8,2178.1,10826.8,251.7,""smooth"",""right"",""right"",""good_move"",15771,2514.1,2217.7,13256.9,296.4,""while_blue"",""right"",""left"",""bad_move"",18586.8,2815.3,2439.6,15771.5,375.7,""smooth"",""right"",""right"",""good_move"",21082.8,2495.8,2226.7,18587,269.1,""smooth"",""right"",""right"",""good_move""]"
"3923","","<div style=""width:500px;"">
  <p>What determined the result of this run?</p>
  </div>","25","html-slider-response","14","230763","0.0-7.0-1.0","18","1","2025-07-30 08:39:03","36c45c0696341be0efffe67d72a12abb","118.93.124.120","Mozilla/5.0 (Macintosh; Intel Mac OS X 10_15_7) AppleWebKit/537.36 (KHTML, like Gecko) Chrome/138.0.0.0 Safari/537.36","Macintosh","Chrome","138.0.0.0","OS X","10_15_7","https://app.prolific.com/","en-GB,en-US;q=0.9,en;q=0.8","646a16e2aae07a0225cdb635","687a19d2168e237449fb8af4","6889da081dd1e1f46568dd18","0","646a16e2aae07a0225cdb635","0","2025-07-30T08:42:57.818Z","","","","AttribQ","","","","","","","","","","","50","","","","","","","","","","","","","","","","","","","","","","","","","","",""
"6448","","<div style=""width:500px;"">
  <p>How much control did you have over the ball?</p>
  </div>","100","html-slider-response","15","237213","0.0-7.0-2.0","18","1","2025-07-30 08:39:03","36c45c0696341be0efffe67d72a12abb","118.93.124.120","Mozilla/5.0 (Macintosh; Intel Mac OS X 10_15_7) AppleWebKit/537.36 (KHTML, like Gecko) Chrome/138.0.0.0 Safari/537.36","Macintosh","Chrome","138.0.0.0","OS X","10_15_7","https://app.prolific.com/","en-GB,en-US;q=0.9,en;q=0.8","646a16e2aae07a0225cdb635","687a19d2168e237449fb8af4","6889da081dd1e1f46568dd18","0","646a16e2aae07a0225cdb635","0","2025-07-30T08:43:04.267Z","","","","ControlQ","","","","","","","","","","","50","","","","","","","","","","","","","","","","","","","","","","","","","","",""
"3365","","<div style=""width:500px;"">
  <p>How would you describe your current emotional state?</p>
  </div>","27","html-slider-response","16","240579","0.0-7.0-3.0","18","1","2025-07-30 08:39:03","36c45c0696341be0efffe67d72a12abb","118.93.124.120","Mozilla/5.0 (Macintosh; Intel Mac OS X 10_15_7) AppleWebKit/537.36 (KHTML, like Gecko) Chrome/138.0.0.0 Safari/537.36","Macintosh","Chrome","138.0.0.0","OS X","10_15_7","https://app.prolific.com/","en-GB,en-US;q=0.9,en;q=0.8","646a16e2aae07a0225cdb635","687a19d2168e237449fb8af4","6889da081dd1e1f46568dd18","0","646a16e2aae07a0225cdb635","0","2025-07-30T08:43:07.633Z","","","","StressQ","","","","","","","","","","","50","","","","","","","","","","","","","","","","","","","","","","","","","","",""
"3632","","<div style=""width:500px;"">
  <p>What best describes how you currently feel?</p>
  </div>","48","html-slider-response","17","244213","0.0-7.0-4.0","18","1","2025-07-30 08:39:03","36c45c0696341be0efffe67d72a12abb","118.93.124.120","Mozilla/5.0 (Macintosh; Intel Mac OS X 10_15_7) AppleWebKit/537.36 (KHTML, like Gecko) Chrome/138.0.0.0 Safari/537.36","Macintosh","Chrome","138.0.0.0","OS X","10_15_7","https://app.prolific.com/","en-GB,en-US;q=0.9,en;q=0.8","646a16e2aae07a0225cdb635","687a19d2168e237449fb8af4","6889da081dd1e1f46568dd18","0","646a16e2aae07a0225cdb635","0","2025-07-30T08:43:11.267Z","","","","MotivationQ","","","","","","","","","","","50","","","","","","","","","","","","","","","","","","","","","","","","","","",""
"","","","","ctl-task-cpt","18","281591","0.0-7.0-0.1","18","1","2025-07-30 08:39:03","36c45c0696341be0efffe67d72a12abb","118.93.124.120","Mozilla/5.0 (Macintosh; Intel Mac OS X 10_15_7) AppleWebKit/537.36 (KHTML, like Gecko) Chrome/138.0.0.0 Safari/537.36","Macintosh","Chrome","138.0.0.0","OS X","10_15_7","https://app.prolific.com/","en-GB,en-US;q=0.9,en;q=0.8","646a16e2aae07a0225cdb635","687a19d2168e237449fb8af4","6889da081dd1e1f46568dd18","0","646a16e2aae07a0225cdb635","0","2025-07-30T08:43:48.645Z","","","","","","","","","","","","","","","","win-only","3","g1:SW,g2:NE","0.9","2","0","249181.5","1884","6886.2","34356.5","1","4","8","6","2","8","6","9","3","0.06818181818181818","3100.2","3000","295","[""up"",""right""]","{""num_key_presses"":11,""num_perfect"":8,""num_errors"":2,""num_randdir"":1,""num_randdir_good_moves"":0,""num_whilered"":0,""num_whileblue"":1,""num_blue"":1,""num_good_moves"":8}","[700.9366071428572,703.7334821428572,0.1,700.9366071428572,703.7334821428572,103,700.9366071428572,703.7334821428572,207.1,700.9366071428572,703.7334821428572,307.1,700.9366071428572,703.7334821428572,411.7,700.9366071428572,703.7334821428572,511.7,700.9366071428572,703.7334821428572,612.4,700.9366071428572,703.7334821428572,717.2,700.9366071428572,703.7334821428572,821.7,700.9366071428572,703.7334821428572,922.1,700.9366071428572,703.7334821428572,1026.6,700.9366071428572,703.7334821428572,1126.7,720.9366071428572,691.7334821428572,1227,1246.9366071428572,195.73348214285716,1332.2,1284.9366071428572,153.73348214285716,1432.7,1284.9366071428572,153.73348214285716,1536.8,1182.9366071428572,241.73348214285716,1637.4,1166.9366071428572,271.73348214285716,1737.9,1166.9366071428572,271.73348214285716,1841.7,528.9366071428572,759.7334821428572,1947.6,286.93660714285716,1003.7334821428572,2052.7,286.93660714285716,1003.7334821428572,2152.9,218.93660714285716,1131.7334821428572,2257.3,178.93660714285716,1215.7334821428572,2357.3,144.93660714285716,1323.7334821428572,2457.3,520.9366071428572,939.7334821428572,2562.5,1132.9366071428572,403.73348214285716,2663.5,1326.9366071428572,259.73348214285716,2766.5,1318.9366071428572,245.73348214285716,2867.1,1268.9366071428572,187.73348214285716,2971.8,1276.9366071428572,131.73348214285716,3072.1,1276.9366071428572,129.73348214285716,3172.2,1276.9366071428572,129.73348214285716,3273.2,1276.9366071428572,209.73348214285716,3377.3,1300.9366071428572,349.73348214285716,3477.5,1300.9366071428572,349.73348214285716,3578.6,1300.9366071428572,349.73348214285716,3681.6,1300.9366071428572,349.73348214285716,3781.8,1300.9366071428572,349.73348214285716,3886.7,1300.9366071428572,349.73348214285716,3986.9,1300.9366071428572,349.73348214285716,4087.2,1300.9366071428572,349.73348214285716,4191.9,1300.9366071428572,349.73348214285716,4297.3,1300.9366071428572,349.73348214285716,4401.3,1300.9366071428572,349.73348214285716,4501.5,1300.9366071428572,349.73348214285716,4606.5,1300.9366071428572,349.73348214285716,4706.5,1300.9366071428572,349.73348214285716,4806.8,1300.9366071428572,349.73348214285716,4907.2]","[301.5,301.5,1000,0,-698.5,""error"",""-"",""-"",""no_move"",4479.5,4177.9,2811.6,1305,363,""smooth"",""up"",""up"",""good_move"",6601.7,2121.6,1723.2,4480.1,398.4,""smooth"",""up"",""up"",""good_move"",9266.2,2664.2,2370.6,6602,293.6,""smooth"",""right"",""right"",""good_move"",12118.3,2851.7,2580.6,9266.6,271.1,""oops"",""right"",""down"",""bad_move"",14701.8,2583.3,2262,12118.7,321.2,""smooth"",""right"",""right"",""good_move"",17883.9,3181.8,2919.9,14702.1,261.9,""smooth"",""up"",""up"",""good_move"",20099.3,2215.2,1910.4,17884.2,304.7,""while_blue"",""up"",""left"",""bad_move"",22101.8,2002,1644.5,20099.8,357.5,""smooth"",""up"",""up"",""good_move"",24718.6,2616.5,2372.9,22102.1,243.6,""smooth"",""right"",""right"",""good_move"",27381.3,2662.5,2415.7,24718.8,246.8,""smooth"",""right"",""right"",""good_move""]"
"2899","","<div style=""width:500px;"">
  <p>What determined the result of this run?</p>
  </div>","23","html-slider-response","19","284492","0.0-7.0-1.1","18","1","2025-07-30 08:39:03","36c45c0696341be0efffe67d72a12abb","118.93.124.120","Mozilla/5.0 (Macintosh; Intel Mac OS X 10_15_7) AppleWebKit/537.36 (KHTML, like Gecko) Chrome/138.0.0.0 Safari/537.36","Macintosh","Chrome","138.0.0.0","OS X","10_15_7","https://app.prolific.com/","en-GB,en-US;q=0.9,en;q=0.8","646a16e2aae07a0225cdb635","687a19d2168e237449fb8af4","6889da081dd1e1f46568dd18","0","646a16e2aae07a0225cdb635","0","2025-07-30T08:43:51.546Z","","","","AttribQ","","","","","","","","","","","50","","","","","","","","","","","","","","","","","","","","","","","","","","",""
"2682","","<div style=""width:500px;"">
  <p>How much control did you have over the ball?</p>
  </div>","34","html-slider-response","20","287176","0.0-7.0-2.1","18","1","2025-07-30 08:39:03","36c45c0696341be0efffe67d72a12abb","118.93.124.120","Mozilla/5.0 (Macintosh; Intel Mac OS X 10_15_7) AppleWebKit/537.36 (KHTML, like Gecko) Chrome/138.0.0.0 Safari/537.36","Macintosh","Chrome","138.0.0.0","OS X","10_15_7","https://app.prolific.com/","en-GB,en-US;q=0.9,en;q=0.8","646a16e2aae07a0225cdb635","687a19d2168e237449fb8af4","6889da081dd1e1f46568dd18","0","646a16e2aae07a0225cdb635","0","2025-07-30T08:43:54.230Z","","","","ControlQ","","","","","","","","","","","50","","","","","","","","","","","","","","","","","","","","","","","","","","",""
"5848","","<div style=""width:500px;"">
  <p>How would you describe your current emotional state?</p>
  </div>","52","html-slider-response","21","293027","0.0-7.0-3.1","18","1","2025-07-30 08:39:03","36c45c0696341be0efffe67d72a12abb","118.93.124.120","Mozilla/5.0 (Macintosh; Intel Mac OS X 10_15_7) AppleWebKit/537.36 (KHTML, like Gecko) Chrome/138.0.0.0 Safari/537.36","Macintosh","Chrome","138.0.0.0","OS X","10_15_7","https://app.prolific.com/","en-GB,en-US;q=0.9,en;q=0.8","646a16e2aae07a0225cdb635","687a19d2168e237449fb8af4","6889da081dd1e1f46568dd18","0","646a16e2aae07a0225cdb635","0","2025-07-30T08:44:00.081Z","","","","StressQ","","","","","","","","","","","50","","","","","","","","","","","","","","","","","","","","","","","","","","",""
"2682","","<div style=""width:500px;"">
  <p>What best describes how you currently feel?</p>
  </div>","43","html-slider-response","22","295711","0.0-7.0-4.1","18","1","2025-07-30 08:39:03","36c45c0696341be0efffe67d72a12abb","118.93.124.120","Mozilla/5.0 (Macintosh; Intel Mac OS X 10_15_7) AppleWebKit/537.36 (KHTML, like Gecko) Chrome/138.0.0.0 Safari/537.36","Macintosh","Chrome","138.0.0.0","OS X","10_15_7","https://app.prolific.com/","en-GB,en-US;q=0.9,en;q=0.8","646a16e2aae07a0225cdb635","687a19d2168e237449fb8af4","6889da081dd1e1f46568dd18","0","646a16e2aae07a0225cdb635","0","2025-07-30T08:44:02.766Z","","","","MotivationQ","","","","","","","","","","","50","","","","","","","","","","","","","","","","","","","","","","","","","","",""
"","","","","ctl-task-cpt","23","323874","0.0-7.0-0.2","18","1","2025-07-30 08:39:03","36c45c0696341be0efffe67d72a12abb","118.93.124.120","Mozilla/5.0 (Macintosh; Intel Mac OS X 10_15_7) AppleWebKit/537.36 (KHTML, like Gecko) Chrome/138.0.0.0 Safari/537.36","Macintosh","Chrome","138.0.0.0","OS X","10_15_7","https://app.prolific.com/","en-GB,en-US;q=0.9,en;q=0.8","646a16e2aae07a0225cdb635","687a19d2168e237449fb8af4","6889da081dd1e1f46568dd18","0","646a16e2aae07a0225cdb635","0","2025-07-30T08:44:30.928Z","","","","","","","","","","","","","","","","win-only","3","g1:SW,g2:NE","0.8","3","0","300666.3","1114.1","6116.6","25146.6","1","4","8","6","2","8","8","17","9","0.12878787878787878","1551.4","3000","1060","[""up"",""right""]","{""num_key_presses"":6,""num_perfect"":5,""num_errors"":0,""num_randdir"":1,""num_randdir_good_moves"":1,""num_whilered"":0,""num_whileblue"":0,""num_blue"":1,""num_good_moves"":6}","[704.9366071428572,707.7334821428572,0.2,704.9366071428572,707.7334821428572,101.9,704.9366071428572,707.7334821428572,206,704.9366071428572,707.7334821428572,306.2,704.9366071428572,707.7334821428572,407.1,704.9366071428572,707.7334821428572,512,704.9366071428572,707.7334821428572,619.4,704.9366071428572,707.7334821428572,722.1,732.9366071428572,691.7334821428572,826.7,1140.9366071428572,389.73348214285716,927,1164.9366071428572,369.73348214285716,1032.3,1164.9366071428572,359.73348214285716,1136.3,1232.9366071428572,179.73348214285716,1241.3,1258.9366071428572,139.73348214285716,1341.7,1266.9366071428572,133.73348214285716,1441.8,1270.9366071428572,127.73348214285714,1547,1270.9366071428572,127.73348214285714,1653.9,1270.9366071428572,127.73348214285714,1757.1,1270.9366071428572,127.73348214285714,1857.9,1270.9366071428572,127.73348214285714,1961.4,1246.9366071428572,149.73348214285716,2061.7,1026.9366071428572,611.7334821428572,2162,1024.9366071428572,673.7334821428572,2266.5,1024.9366071428572,673.7334821428572,2367.4,1448.9366071428572,543.7334821428572,2471.5,1448.9366071428572,543.7334821428572,2572.2,1448.9366071428572,543.7334821428572,2677.6,1628.9366071428572,529.7334821428572,2782,1628.9366071428572,529.7334821428572,2886.4,1628.9366071428572,529.7334821428572,2986.5,1628.9366071428572,529.7334821428572,3086.7,1628.9366071428572,529.7334821428572,3191.4,1628.9366071428572,529.7334821428572,3291.6,1628.9366071428572,529.7334821428572,3392.3,1628.9366071428572,529.7334821428572,3496.2,1628.9366071428572,529.7334821428572,3603.2,1628.9366071428572,529.7334821428572,3704.1,1628.9366071428572,529.7334821428572,3807,1628.9366071428572,529.7334821428572,3911.7,1628.9366071428572,529.7334821428572,4016.2,1628.9366071428572,529.7334821428572,4116.9,1628.9366071428572,529.7334821428572,4217.1,1628.9366071428572,529.7334821428572,4321.3,1628.9366071428572,529.7334821428572,4421.9,1628.9366071428572,529.7334821428572,4521.9,1628.9366071428572,529.7334821428572,4626.6,1628.9366071428572,529.7334821428572,4731.6,1628.9366071428572,529.7334821428572,4831.7,1628.9366071428572,529.7334821428572,4932.7]","[1285.9,1285.9,1000,0,285.9,""smooth"",""up"",""up"",""good_move"",3283.2,1997,1681.9,1286.2,315.1,""smooth"",""up"",""up"",""good_move"",9971.9,6688.5,2754.8,6924.3,292.8,""oops"",""right"",""right"",""good_move"",12885,2912.8,2455.2,9972.2,457.6,""smooth"",""right"",""right"",""good_move"",15685.9,2800.7,2502.1,12885.2,298.6,""smooth"",""right"",""right"",""good_move"",18932.7,3246.7,2932.5,15686.1,314.1,""smooth"",""up"",""up"",""good_move""]"
"9555","","<div style=""width:500px;"">
  <p>What determined the result of this run?</p>
  </div>","31","html-slider-response","24","333430","0.0-7.0-1.2","18","1","2025-07-30 08:39:03","36c45c0696341be0efffe67d72a12abb","118.93.124.120","Mozilla/5.0 (Macintosh; Intel Mac OS X 10_15_7) AppleWebKit/537.36 (KHTML, like Gecko) Chrome/138.0.0.0 Safari/537.36","Macintosh","Chrome","138.0.0.0","OS X","10_15_7","https://app.prolific.com/","en-GB,en-US;q=0.9,en;q=0.8","646a16e2aae07a0225cdb635","687a19d2168e237449fb8af4","6889da081dd1e1f46568dd18","0","646a16e2aae07a0225cdb635","0","2025-07-30T08:44:40.484Z","","","","AttribQ","","","","","","","","","","","50","","","","","","","","","","","","","","","","","","","","","","","","","","",""
"6982","","<div style=""width:500px;"">
  <p>How much control did you have over the ball?</p>
  </div>","28","html-slider-response","25","340413","0.0-7.0-2.2","18","1","2025-07-30 08:39:03","36c45c0696341be0efffe67d72a12abb","118.93.124.120","Mozilla/5.0 (Macintosh; Intel Mac OS X 10_15_7) AppleWebKit/537.36 (KHTML, like Gecko) Chrome/138.0.0.0 Safari/537.36","Macintosh","Chrome","138.0.0.0","OS X","10_15_7","https://app.prolific.com/","en-GB,en-US;q=0.9,en;q=0.8","646a16e2aae07a0225cdb635","687a19d2168e237449fb8af4","6889da081dd1e1f46568dd18","0","646a16e2aae07a0225cdb635","0","2025-07-30T08:44:47.467Z","","","","ControlQ","","","","","","","","","","","50","","","","","","","","","","","","","","","","","","","","","","","","","","",""
"4283","","<div style=""width:500px;"">
  <p>How would you describe your current emotional state?</p>
  </div>","27","html-slider-response","26","344697","0.0-7.0-3.2","18","1","2025-07-30 08:39:03","36c45c0696341be0efffe67d72a12abb","118.93.124.120","Mozilla/5.0 (Macintosh; Intel Mac OS X 10_15_7) AppleWebKit/537.36 (KHTML, like Gecko) Chrome/138.0.0.0 Safari/537.36","Macintosh","Chrome","138.0.0.0","OS X","10_15_7","https://app.prolific.com/","en-GB,en-US;q=0.9,en;q=0.8","646a16e2aae07a0225cdb635","687a19d2168e237449fb8af4","6889da081dd1e1f46568dd18","0","646a16e2aae07a0225cdb635","0","2025-07-30T08:44:51.751Z","","","","StressQ","","","","","","","","","","","50","","","","","","","","","","","","","","","","","","","","","","","","","","",""
"2665","","<div style=""width:500px;"">
  <p>What best describes how you currently feel?</p>
  </div>","35","html-slider-response","27","347363","0.0-7.0-4.2","18","1","2025-07-30 08:39:03","36c45c0696341be0efffe67d72a12abb","118.93.124.120","Mozilla/5.0 (Macintosh; Intel Mac OS X 10_15_7) AppleWebKit/537.36 (KHTML, like Gecko) Chrome/138.0.0.0 Safari/537.36","Macintosh","Chrome","138.0.0.0","OS X","10_15_7","https://app.prolific.com/","en-GB,en-US;q=0.9,en;q=0.8","646a16e2aae07a0225cdb635","687a19d2168e237449fb8af4","6889da081dd1e1f46568dd18","0","646a16e2aae07a0225cdb635","0","2025-07-30T08:44:54.417Z","","","","MotivationQ","","","","","","","","","","","50","","","","","","","","","","","","","","","","","","","","","","","","","","",""
"","","","","ctl-task-cpt","28","373573","0.0-7.0-0.3","18","1","2025-07-30 08:39:03","36c45c0696341be0efffe67d72a12abb","118.93.124.120","Mozilla/5.0 (Macintosh; Intel Mac OS X 10_15_7) AppleWebKit/537.36 (KHTML, like Gecko) Chrome/138.0.0.0 Safari/537.36","Macintosh","Chrome","138.0.0.0","OS X","10_15_7","https://app.prolific.com/","en-GB,en-US;q=0.9,en;q=0.8","646a16e2aae07a0225cdb635","687a19d2168e237449fb8af4","6889da081dd1e1f46568dd18","0","646a16e2aae07a0225cdb635","0","2025-07-30T08:45:20.627Z","","","","","","","","","","","","","","","","win-only","3","g1:SW,g2:NE","0.7","4","0","352314.7","1897.6","6901.9","23201.2","1","4","4","6","2","4","4","21","17","0.1590909090909091","1266.8","3000","1330","[""up"",""right""]","{""num_key_presses"":6,""num_perfect"":5,""num_errors"":0,""num_randdir"":1,""num_randdir_good_moves"":1,""num_whilered"":0,""num_whileblue"":0,""num_blue"":0,""num_good_moves"":6}","[708.9366071428572,713.7334821428572,0.2,708.9366071428572,713.7334821428572,103.9,708.9366071428572,713.7334821428572,207.9,708.9366071428572,713.7334821428572,313.3,708.9366071428572,713.7334821428572,413.7,708.9366071428572,713.7334821428572,517.9,708.9366071428572,713.7334821428572,620.6,708.9366071428572,713.7334821428572,724,708.9366071428572,713.7334821428572,828.7,1172.9366071428572,229.73348214285716,933.6,1216.9366071428572,161.73348214285716,1038.4,1216.9366071428572,161.73348214285716,1139.3,1216.9366071428572,161.73348214285716,1243,1216.9366071428572,161.73348214285716,1344.8,1216.9366071428572,161.73348214285716,1448.8,1216.9366071428572,161.73348214285716,1552.7,1216.9366071428572,161.73348214285716,1653.8,1216.9366071428572,161.73348214285716,1753.8,1216.9366071428572,161.73348214285716,1856.2,1216.9366071428572,161.73348214285716,1958.1,1216.9366071428572,161.73348214285716,2059.1,1216.9366071428572,161.73348214285716,2163.7,1216.9366071428572,161.73348214285716,2267.9,1216.9366071428572,161.73348214285716,2371.5,1216.9366071428572,161.73348214285716,2473.2,1216.9366071428572,161.73348214285716,2578.2,1216.9366071428572,161.73348214285716,2678.3,1216.9366071428572,161.73348214285716,2778.3,1216.9366071428572,161.73348214285716,2883.8,1216.9366071428572,161.73348214285716,2987.6,1216.9366071428572,161.73348214285716,3087.7,1216.9366071428572,161.73348214285716,3188.5,1216.9366071428572,161.73348214285716,3293.3,1216.9366071428572,161.73348214285716,3393.6,1216.9366071428572,161.73348214285716,3498.1,1216.9366071428572,161.73348214285716,3598.1,1216.9366071428572,161.73348214285716,3698.2,1216.9366071428572,161.73348214285716,3803.5,1216.9366071428572,161.73348214285716,3904.1,1216.9366071428572,161.73348214285716,4004.9,1216.9366071428572,161.73348214285716,4109.9,1216.9366071428572,161.73348214285716,4213.1,1216.9366071428572,161.73348214285716,4317.6,1216.9366071428572,161.73348214285716,4418.4,1216.9366071428572,161.73348214285716,4523.3,1216.9366071428572,161.73348214285716,4623.7,1216.9366071428572,161.73348214285716,4729,1216.9366071428572,161.73348214285716,4833.6,1216.9366071428572,161.73348214285716,4937.6]","[1334.9,1334.9,1000,0,334.9,""smooth"",""up"",""up"",""good_move"",3575.9,2240.5,1927.8,1335.4,312.7,""smooth"",""up"",""up"",""good_move"",6363,2786.9,2527.6,3576.2,259.3,""smooth"",""right"",""right"",""good_move"",9534.8,3171.3,2907.2,6363.5,264.1,""oops"",""right"",""right"",""good_move"",13082.8,3547.8,3260.1,9535,287.7,""smooth"",""up"",""up"",""good_move"",16206.3,3123.3,2862.1,13083.1,261.1,""smooth"",""right"",""right"",""good_move""]"
"2972","","<div style=""width:500px;"">
  <p>What determined the result of this run?</p>
  </div>","31","html-slider-response","29","376546","0.0-7.0-1.3","18","1","2025-07-30 08:39:03","36c45c0696341be0efffe67d72a12abb","118.93.124.120","Mozilla/5.0 (Macintosh; Intel Mac OS X 10_15_7) AppleWebKit/537.36 (KHTML, like Gecko) Chrome/138.0.0.0 Safari/537.36","Macintosh","Chrome","138.0.0.0","OS X","10_15_7","https://app.prolific.com/","en-GB,en-US;q=0.9,en;q=0.8","646a16e2aae07a0225cdb635","687a19d2168e237449fb8af4","6889da081dd1e1f46568dd18","0","646a16e2aae07a0225cdb635","0","2025-07-30T08:45:23.600Z","","","","AttribQ","","","","","","","","","","","50","","","","","","","","","","","","","","","","","","","","","","","","","","",""
"3799","","<div style=""width:500px;"">
  <p>How much control did you have over the ball?</p>
  </div>","97","html-slider-response","30","380346","0.0-7.0-2.3","18","1","2025-07-30 08:39:03","36c45c0696341be0efffe67d72a12abb","118.93.124.120","Mozilla/5.0 (Macintosh; Intel Mac OS X 10_15_7) AppleWebKit/537.36 (KHTML, like Gecko) Chrome/138.0.0.0 Safari/537.36","Macintosh","Chrome","138.0.0.0","OS X","10_15_7","https://app.prolific.com/","en-GB,en-US;q=0.9,en;q=0.8","646a16e2aae07a0225cdb635","687a19d2168e237449fb8af4","6889da081dd1e1f46568dd18","0","646a16e2aae07a0225cdb635","0","2025-07-30T08:45:27.401Z","","","","ControlQ","","","","","","","","","","","50","","","","","","","","","","","","","","","","","","","","","","","","","","",""
"2099","","<div style=""width:500px;"">
  <p>How would you describe your current emotional state?</p>
  </div>","40","html-slider-response","31","382447","0.0-7.0-3.3","18","1","2025-07-30 08:39:03","36c45c0696341be0efffe67d72a12abb","118.93.124.120","Mozilla/5.0 (Macintosh; Intel Mac OS X 10_15_7) AppleWebKit/537.36 (KHTML, like Gecko) Chrome/138.0.0.0 Safari/537.36","Macintosh","Chrome","138.0.0.0","OS X","10_15_7","https://app.prolific.com/","en-GB,en-US;q=0.9,en;q=0.8","646a16e2aae07a0225cdb635","687a19d2168e237449fb8af4","6889da081dd1e1f46568dd18","0","646a16e2aae07a0225cdb635","0","2025-07-30T08:45:29.501Z","","","","StressQ","","","","","","","","","","","50","","","","","","","","","","","","","","","","","","","","","","","","","","",""
"2248","","<div style=""width:500px;"">
  <p>What best describes how you currently feel?</p>
  </div>","40","html-slider-response","32","384696","0.0-7.0-4.3","18","1","2025-07-30 08:39:03","36c45c0696341be0efffe67d72a12abb","118.93.124.120","Mozilla/5.0 (Macintosh; Intel Mac OS X 10_15_7) AppleWebKit/537.36 (KHTML, like Gecko) Chrome/138.0.0.0 Safari/537.36","Macintosh","Chrome","138.0.0.0","OS X","10_15_7","https://app.prolific.com/","en-GB,en-US;q=0.9,en;q=0.8","646a16e2aae07a0225cdb635","687a19d2168e237449fb8af4","6889da081dd1e1f46568dd18","0","646a16e2aae07a0225cdb635","0","2025-07-30T08:45:31.751Z","","","","MotivationQ","","","","","","","","","","","50","","","","","","","","","","","","","","","","","","","","","","","","","","",""
"","","","","ctl-task-cpt","33","422336","0.0-7.0-0.4","18","1","2025-07-30 08:39:03","36c45c0696341be0efffe67d72a12abb","118.93.124.120","Mozilla/5.0 (Macintosh; Intel Mac OS X 10_15_7) AppleWebKit/537.36 (KHTML, like Gecko) Chrome/138.0.0.0 Safari/537.36","Macintosh","Chrome","138.0.0.0","OS X","10_15_7","https://app.prolific.com/","en-GB,en-US;q=0.9,en;q=0.8","646a16e2aae07a0225cdb635","687a19d2168e237449fb8af4","6889da081dd1e1f46568dd18","0","646a16e2aae07a0225cdb635","0","2025-07-30T08:46:09.390Z","","","","","","","","","","","","","","","","win-only","2","g1:SE,g2:NW","0.6","5","0","389647.5","1167.1","6171.8","34636.6","1","4","4","6","2","4","3","24","21","0.18181818181818182","918.1","3000","340","[""left"",""up""]","{""num_key_presses"":10,""num_perfect"":6,""num_errors"":1,""num_randdir"":3,""num_randdir_good_moves"":2,""num_whilered"":0,""num_whileblue"":1,""num_blue"":2,""num_good_moves"":8}","[700.9366071428572,701.7334821428572,0.2,700.9366071428572,701.7334821428572,105.1,700.9366071428572,701.7334821428572,208.7,700.9366071428572,701.7334821428572,313.7,700.9366071428572,701.7334821428572,418,636.9366071428572,671.7334821428572,518.4,346.93660714285716,359.73348214285716,619.2,194.93660714285716,189.73348214285716,720.4,140.93660714285716,135.73348214285716,820.4,134.93660714285716,129.73348214285716,923.5,134.93660714285716,129.73348214285716,1024.1,134.93660714285716,129.73348214285716,1124.2,134.93660714285716,129.73348214285716,1229.1,134.93660714285716,129.73348214285716,1335.3,134.93660714285716,129.73348214285716,1437.9,134.93660714285716,129.73348214285716,1538,134.93660714285716,129.73348214285716,1638.5,134.93660714285716,129.73348214285716,1738.8,134.93660714285716,129.73348214285716,1840.5,134.93660714285716,129.73348214285716,1943.9,134.93660714285716,129.73348214285716,2051.9,134.93660714285716,129.73348214285716,2153.7,134.93660714285716,129.73348214285716,2254,134.93660714285716,129.73348214285716,2355.9,134.93660714285716,129.73348214285716,2459.8,134.93660714285716,129.73348214285716,2564.5,134.93660714285716,129.73348214285716,2668.8,134.93660714285716,129.73348214285716,2773.8,134.93660714285716,129.73348214285716,2879.2,134.93660714285716,129.73348214285716,2985.5,134.93660714285716,129.73348214285716,3090.3,134.93660714285716,129.73348214285716,3193.5,134.93660714285716,129.73348214285716,3298.9,134.93660714285716,129.73348214285716,3404.7,134.93660714285716,129.73348214285716,3506.5,134.93660714285716,129.73348214285716,3608,134.93660714285716,129.73348214285716,3709,134.93660714285716,129.73348214285716,3813.6,134.93660714285716,129.73348214285716,3913.9,134.93660714285716,129.73348214285716,4014,134.93660714285716,129.73348214285716,4118.5,134.93660714285716,129.73348214285716,4221.3,134.93660714285716,129.73348214285716,4323.6,134.93660714285716,129.73348214285716,4428,134.93660714285716,129.73348214285716,4528.1,134.93660714285716,129.73348214285716,4629.1,134.93660714285716,129.73348214285716,4729.8,134.93660714285716,129.73348214285716,4833.1,134.93660714285716,129.73348214285716,4938.3]","[1272.7,1272.7,1000,0,272.7,""smooth"",""up"",""up"",""good_move"",4153.6,2880.5,2618.6,1273.1,261.9,""smooth"",""up"",""up"",""good_move"",6518.5,2364.7,2104.9,4153.8,259.8,""oops"",""left"",""up"",""good_move"",9030.1,2511.5,2242.7,6518.6,268.8,""oops"",""left"",""left"",""good_move"",11999.6,2969.2,2720.8,9030.4,248.4,""while_blue"",""left"",""right"",""bad_move"",14949.3,2949.5,2494.3,11999.8,455.2,""smooth"",""left"",""left"",""good_move"",20761.7,5812.3,2332.7,18113.5,315.5,""oops"",""left"",""right"",""bad_move"",23119.4,2357.4,1998.1,20762,359.3,""smooth"",""left"",""left"",""good_move"",25284.9,2165.3,1876.2,23119.6,289.1,""smooth"",""left"",""left"",""good_move"",28368.7,3083.6,2824.7,25285.1,258.9,""smooth"",""left"",""left"",""good_move""]"
"2926","","<div style=""width:500px;"">
  <p>What determined the result of this run?</p>
  </div>","28","html-slider-response","34","425263","0.0-7.0-1.4","18","1","2025-07-30 08:39:03","36c45c0696341be0efffe67d72a12abb","118.93.124.120","Mozilla/5.0 (Macintosh; Intel Mac OS X 10_15_7) AppleWebKit/537.36 (KHTML, like Gecko) Chrome/138.0.0.0 Safari/537.36","Macintosh","Chrome","138.0.0.0","OS X","10_15_7","https://app.prolific.com/","en-GB,en-US;q=0.9,en;q=0.8","646a16e2aae07a0225cdb635","687a19d2168e237449fb8af4","6889da081dd1e1f46568dd18","0","646a16e2aae07a0225cdb635","0","2025-07-30T08:46:12.317Z","","","","AttribQ","","","","","","","","","","","50","","","","","","","","","","","","","","","","","","","","","","","","","","",""
"2432","","<div style=""width:500px;"">
  <p>How much control did you have over the ball?</p>
  </div>","84","html-slider-response","35","427696","0.0-7.0-2.4","18","1","2025-07-30 08:39:03","36c45c0696341be0efffe67d72a12abb","118.93.124.120","Mozilla/5.0 (Macintosh; Intel Mac OS X 10_15_7) AppleWebKit/537.36 (KHTML, like Gecko) Chrome/138.0.0.0 Safari/537.36","Macintosh","Chrome","138.0.0.0","OS X","10_15_7","https://app.prolific.com/","en-GB,en-US;q=0.9,en;q=0.8","646a16e2aae07a0225cdb635","687a19d2168e237449fb8af4","6889da081dd1e1f46568dd18","0","646a16e2aae07a0225cdb635","0","2025-07-30T08:46:14.750Z","","","","ControlQ","","","","","","","","","","","50","","","","","","","","","","","","","","","","","","","","","","","","","","",""
"3332","","<div style=""width:500px;"">
  <p>How would you describe your current emotional state?</p>
  </div>","57","html-slider-response","36","431029","0.0-7.0-3.4","18","1","2025-07-30 08:39:03","36c45c0696341be0efffe67d72a12abb","118.93.124.120","Mozilla/5.0 (Macintosh; Intel Mac OS X 10_15_7) AppleWebKit/537.36 (KHTML, like Gecko) Chrome/138.0.0.0 Safari/537.36","Macintosh","Chrome","138.0.0.0","OS X","10_15_7","https://app.prolific.com/","en-GB,en-US;q=0.9,en;q=0.8","646a16e2aae07a0225cdb635","687a19d2168e237449fb8af4","6889da081dd1e1f46568dd18","0","646a16e2aae07a0225cdb635","0","2025-07-30T08:46:18.083Z","","","","StressQ","","","","","","","","","","","50","","","","","","","","","","","","","","","","","","","","","","","","","","",""
"4366","","<div style=""width:500px;"">
  <p>What best describes how you currently feel?</p>
  </div>","61","html-slider-response","37","435396","0.0-7.0-4.4","18","1","2025-07-30 08:39:03","36c45c0696341be0efffe67d72a12abb","118.93.124.120","Mozilla/5.0 (Macintosh; Intel Mac OS X 10_15_7) AppleWebKit/537.36 (KHTML, like Gecko) Chrome/138.0.0.0 Safari/537.36","Macintosh","Chrome","138.0.0.0","OS X","10_15_7","https://app.prolific.com/","en-GB,en-US;q=0.9,en;q=0.8","646a16e2aae07a0225cdb635","687a19d2168e237449fb8af4","6889da081dd1e1f46568dd18","0","646a16e2aae07a0225cdb635","0","2025-07-30T08:46:22.450Z","","","","MotivationQ","","","","","","","","","","","50","","","","","","","","","","","","","","","","","","","","","","","","","","",""
"","","","","ctl-task-cpt","38","481516","0.0-7.0-0.5","18","1","2025-07-30 08:39:03","36c45c0696341be0efffe67d72a12abb","118.93.124.120","Mozilla/5.0 (Macintosh; Intel Mac OS X 10_15_7) AppleWebKit/537.36 (KHTML, like Gecko) Chrome/138.0.0.0 Safari/537.36","Macintosh","Chrome","138.0.0.0","OS X","10_15_7","https://app.prolific.com/","en-GB,en-US;q=0.9,en;q=0.8","646a16e2aae07a0225cdb635","687a19d2168e237449fb8af4","6889da081dd1e1f46568dd18","0","646a16e2aae07a0225cdb635","0","2025-07-30T08:47:08.570Z","","","","","","","","","","","","","","","","win-only","2","g1:SE,g2:NW","0.5","6","0","440346.5","1115","6115.7","43105.6","1","4","8","6","2","-8","-10","14","24","0.10606060606060606","788.5","3000","-2845","[""left"",""up""]","{""num_key_presses"":12,""num_perfect"":5,""num_errors"":2,""num_randdir"":5,""num_randdir_good_moves"":2,""num_whilered"":0,""num_whileblue"":1,""num_blue"":2,""num_good_moves"":8}","[702.9366071428572,719.7334821428572,0.1,702.9366071428572,719.7334821428572,104.2,702.9366071428572,719.7334821428572,206.3,702.9366071428572,719.7334821428572,310.4,646.9366071428572,721.7334821428572,411.4,316.93660714285716,335.73348214285716,516.2,184.93660714285716,227.73348214285716,622.5,162.93660714285716,175.73348214285716,722.9,162.93660714285716,165.73348214285716,823.2,162.93660714285716,165.73348214285716,926.4,162.93660714285716,165.73348214285716,1026.5,162.93660714285716,165.73348214285716,1129.1,162.93660714285716,165.73348214285716,1230.8,162.93660714285716,165.73348214285716,1330.9,162.93660714285716,165.73348214285716,1439.5,162.93660714285716,165.73348214285716,1540.1,162.93660714285716,165.73348214285716,1640.7,162.93660714285716,165.73348214285716,1742.1,162.93660714285716,165.73348214285716,1846,162.93660714285716,165.73348214285716,1947,162.93660714285716,165.73348214285716,2054.2,162.93660714285716,165.73348214285716,2155.3,162.93660714285716,165.73348214285716,2258.4,162.93660714285716,165.73348214285716,2360.7,162.93660714285716,165.73348214285716,2466.9,162.93660714285716,165.73348214285716,2572.2,162.93660714285716,165.73348214285716,2676.3,162.93660714285716,165.73348214285716,2780.5,162.93660714285716,165.73348214285716,2881.3,162.93660714285716,165.73348214285716,2988.5,162.93660714285716,165.73348214285716,3091.2,162.93660714285716,165.73348214285716,3196,162.93660714285716,165.73348214285716,3296.1,162.93660714285716,165.73348214285716,3400.4,162.93660714285716,165.73348214285716,3503.1,162.93660714285716,165.73348214285716,3605.1,162.93660714285716,165.73348214285716,3708.2,162.93660714285716,165.73348214285716,3809,162.93660714285716,165.73348214285716,3909.2,162.93660714285716,165.73348214285716,4010.6,162.93660714285716,165.73348214285716,4110.8,162.93660714285716,165.73348214285716,4215.3,162.93660714285716,165.73348214285716,4318,162.93660714285716,165.73348214285716,4422.8,162.93660714285716,165.73348214285716,4524.7,162.93660714285716,165.73348214285716,4625.6,162.93660714285716,165.73348214285716,4726.3,162.93660714285716,165.73348214285716,4830.5,162.93660714285716,165.73348214285716,4932.6]","[1321.5,1321.5,1000,0,321.5,""oops"",""left"",""up"",""good_move"",7745.7,6423.7,2543.4,4925.5,276.8,""smooth"",""left"",""left"",""good_move"",10421.8,2675.8,2359.1,7746,316.7,""oops"",""left"",""right"",""bad_move"",12502,2079.9,1737.5,10422.1,342.4,""smooth"",""left"",""left"",""good_move"",15211,2708.9,2381.8,12502.2,327,""smooth"",""left"",""left"",""good_move"",18578.8,3367.7,3067.4,15211.1,300.4,""oops"",""left"",""right"",""bad_move"",21160.4,2581.3,2279.4,18579.1,301.9,""oops"",""up"",""up"",""good_move"",24072.7,2912,2669.5,21160.7,242.5,""smooth"",""up"",""up"",""good_move"",26690.2,2617.4,2383,24072.8,234.4,""while_blue"",""left"",""left"",""good_move"",29122.8,2432.4,2085.9,26690.4,346.5,""oops"",""left"",""right"",""bad_move"",31450.8,2327.7,3033.3,29123.1,-705.6,""error"",""-"",""-"",""no_move"",34935.5,3484.6,2211.9,32456.9,266.7,""smooth"",""left"",""left"",""good_move""]"
"3312","","<div style=""width:500px;"">
  <p>What determined the result of this run?</p>
  </div>","26","html-slider-response","39","484829","0.0-7.0-1.5","18","1","2025-07-30 08:39:03","36c45c0696341be0efffe67d72a12abb","118.93.124.120","Mozilla/5.0 (Macintosh; Intel Mac OS X 10_15_7) AppleWebKit/537.36 (KHTML, like Gecko) Chrome/138.0.0.0 Safari/537.36","Macintosh","Chrome","138.0.0.0","OS X","10_15_7","https://app.prolific.com/","en-GB,en-US;q=0.9,en;q=0.8","646a16e2aae07a0225cdb635","687a19d2168e237449fb8af4","6889da081dd1e1f46568dd18","0","646a16e2aae07a0225cdb635","0","2025-07-30T08:47:11.883Z","","","","AttribQ","","","","","","","","","","","50","","","","","","","","","","","","","","","","","","","","","","","","","","",""
"2599","","<div style=""width:500px;"">
  <p>How much control did you have over the ball?</p>
  </div>","34","html-slider-response","40","487429","0.0-7.0-2.5","18","1","2025-07-30 08:39:03","36c45c0696341be0efffe67d72a12abb","118.93.124.120","Mozilla/5.0 (Macintosh; Intel Mac OS X 10_15_7) AppleWebKit/537.36 (KHTML, like Gecko) Chrome/138.0.0.0 Safari/537.36","Macintosh","Chrome","138.0.0.0","OS X","10_15_7","https://app.prolific.com/","en-GB,en-US;q=0.9,en;q=0.8","646a16e2aae07a0225cdb635","687a19d2168e237449fb8af4","6889da081dd1e1f46568dd18","0","646a16e2aae07a0225cdb635","0","2025-07-30T08:47:14.483Z","","","","ControlQ","","","","","","","","","","","50","","","","","","","","","","","","","","","","","","","","","","","","","","",""
"2149","","<div style=""width:500px;"">
  <p>How would you describe your current emotional state?</p>
  </div>","73","html-slider-response","41","489579","0.0-7.0-3.5","18","1","2025-07-30 08:39:03","36c45c0696341be0efffe67d72a12abb","118.93.124.120","Mozilla/5.0 (Macintosh; Intel Mac OS X 10_15_7) AppleWebKit/537.36 (KHTML, like Gecko) Chrome/138.0.0.0 Safari/537.36","Macintosh","Chrome","138.0.0.0","OS X","10_15_7","https://app.prolific.com/","en-GB,en-US;q=0.9,en;q=0.8","646a16e2aae07a0225cdb635","687a19d2168e237449fb8af4","6889da081dd1e1f46568dd18","0","646a16e2aae07a0225cdb635","0","2025-07-30T08:47:16.633Z","","","","StressQ","","","","","","","","","","","50","","","","","","","","","","","","","","","","","","","","","","","","","","",""
"2332","","<div style=""width:500px;"">
  <p>What best describes how you currently feel?</p>
  </div>","60","html-slider-response","42","491912","0.0-7.0-4.5","18","1","2025-07-30 08:39:03","36c45c0696341be0efffe67d72a12abb","118.93.124.120","Mozilla/5.0 (Macintosh; Intel Mac OS X 10_15_7) AppleWebKit/537.36 (KHTML, like Gecko) Chrome/138.0.0.0 Safari/537.36","Macintosh","Chrome","138.0.0.0","OS X","10_15_7","https://app.prolific.com/","en-GB,en-US;q=0.9,en;q=0.8","646a16e2aae07a0225cdb635","687a19d2168e237449fb8af4","6889da081dd1e1f46568dd18","0","646a16e2aae07a0225cdb635","0","2025-07-30T08:47:18.967Z","","","","MotivationQ","","","","","","","","","","","50","","","","","","","","","","","","","","","","","","","","","","","","","","",""
"","","","","ctl-task-cpt","43","541185","0.0-7.0-0.6","18","1","2025-07-30 08:39:03","36c45c0696341be0efffe67d72a12abb","118.93.124.120","Mozilla/5.0 (Macintosh; Intel Mac OS X 10_15_7) AppleWebKit/537.36 (KHTML, like Gecko) Chrome/138.0.0.0 Safari/537.36","Macintosh","Chrome","138.0.0.0","OS X","10_15_7","https://app.prolific.com/","en-GB,en-US;q=0.9,en;q=0.8","646a16e2aae07a0225cdb635","687a19d2168e237449fb8af4","6889da081dd1e1f46568dd18","0","646a16e2aae07a0225cdb635","0","2025-07-30T08:48:08.239Z","","","","","","","","","","","","","","","","win-only","0","g1:NW,g2:SE","0.4","7","0","496863.5","1880.9","6885.8","46260.7","1","4","4","6","2","-4","-7","7","14","0.05303030303030303","1021.7","3000","-2855","[""down"",""right""]","{""num_key_presses"":12,""num_perfect"":4,""num_errors"":3,""num_randdir"":5,""num_randdir_good_moves"":1,""num_whilered"":0,""num_whileblue"":2,""num_blue"":3,""num_good_moves"":6}","[706.9366071428572,713.7334821428572,0.1,706.9366071428572,713.7334821428572,103.3,706.9366071428572,713.7334821428572,204.5,706.9366071428572,713.7334821428572,310.1,706.9366071428572,713.7334821428572,410.3,740.9366071428572,711.7334821428572,515.1,1186.9366071428572,1061.7334821428572,615.3,1234.9366071428572,1115.7334821428572,719.9,1244.9366071428572,1137.7334821428572,826.9,1282.9366071428572,1225.7334821428572,929.5,1284.9366071428572,1239.7334821428572,1029.9,1284.9366071428572,1239.7334821428572,1134.8,1284.9366071428572,1239.7334821428572,1240.1,1284.9366071428572,1239.7334821428572,1341.2,1284.9366071428572,1239.7334821428572,1445,1284.9366071428572,1239.7334821428572,1550.2,1284.9366071428572,1239.7334821428572,1657.1,1284.9366071428572,1239.7334821428572,1758.5,1284.9366071428572,1239.7334821428572,1860,1284.9366071428572,1239.7334821428572,1960.3,1284.9366071428572,1239.7334821428572,2064.8,1284.9366071428572,1239.7334821428572,2169.4,1284.9366071428572,1239.7334821428572,2273.6,1284.9366071428572,1239.7334821428572,2374.6,1284.9366071428572,1239.7334821428572,2476.7,1284.9366071428572,1239.7334821428572,2579.9,1284.9366071428572,1239.7334821428572,2685,1284.9366071428572,1239.7334821428572,2794.2,1284.9366071428572,1239.7334821428572,2895.2,1284.9366071428572,1239.7334821428572,2999.5,1284.9366071428572,1239.7334821428572,3100.1,1284.9366071428572,1239.7334821428572,3204.5,1284.9366071428572,1239.7334821428572,3305.6,1284.9366071428572,1239.7334821428572,3409.2,1284.9366071428572,1239.7334821428572,3510.1,1284.9366071428572,1239.7334821428572,3610.1,1284.9366071428572,1239.7334821428572,3714.6,1284.9366071428572,1239.7334821428572,3814.9,1284.9366071428572,1239.7334821428572,3923.3,1284.9366071428572,1239.7334821428572,4025.2,1284.9366071428572,1239.7334821428572,4129.2,1284.9366071428572,1239.7334821428572,4229.9,1284.9366071428572,1239.7334821428572,4338.7,1284.9366071428572,1239.7334821428572,4439.3,1284.9366071428572,1239.7334821428572,4539.5,1284.9366071428572,1239.7334821428572,4644.4,1284.9366071428572,1239.7334821428572,4744.6,1284.9366071428572,1239.7334821428572,4845.2,1284.9366071428572,1239.7334821428572,4950.2]","[1321.2,1321.2,1000,0,321.2,""oops"",""down"",""up"",""bad_move"",3751.4,2429.8,2064.2,1321.6,365.6,""smooth"",""down"",""down"",""good_move"",6652.1,2900.4,2596.8,3751.7,303.6,""oops"",""down"",""left"",""bad_move"",10017.2,3364.7,3075.8,6652.5,288.9,""oops"",""down"",""up"",""bad_move"",12450.8,2433.2,2119,10017.6,314.2,""smooth"",""down"",""down"",""good_move"",15767.3,3316.3,3058.2,12451.1,258.1,""while_blue"",""down"",""up"",""bad_move"",19806.2,4038.6,2184.1,19540.2,-1918.1,""error"",""-"",""-"",""no_move"",23988.2,4181.8,2856.7,20809.7,321.8,""smooth"",""down"",""down"",""good_move"",27303.2,3314.6,2994.8,23988.6,319.8,""smooth"",""down"",""down"",""good_move"",30700.5,3397,3075.3,27303.5,321.7,""oops"",""down"",""up"",""bad_move"",33682.7,2982.1,2655.7,30700.7,326.4,""oops"",""down"",""down"",""good_move"",36128.5,2445.5,2186.8,33683,258.7,""while_blue"",""down"",""down"",""good_move""]"
"2976","","<div style=""width:500px;"">
  <p>What determined the result of this run?</p>
  </div>","16","html-slider-response","44","544162","0.0-7.0-1.6","18","1","2025-07-30 08:39:03","36c45c0696341be0efffe67d72a12abb","118.93.124.120","Mozilla/5.0 (Macintosh; Intel Mac OS X 10_15_7) AppleWebKit/537.36 (KHTML, like Gecko) Chrome/138.0.0.0 Safari/537.36","Macintosh","Chrome","138.0.0.0","OS X","10_15_7","https://app.prolific.com/","en-GB,en-US;q=0.9,en;q=0.8","646a16e2aae07a0225cdb635","687a19d2168e237449fb8af4","6889da081dd1e1f46568dd18","0","646a16e2aae07a0225cdb635","0","2025-07-30T08:48:11.216Z","","","","AttribQ","","","","","","","","","","","50","","","","","","","","","","","","","","","","","","","","","","","","","","",""
"3132","","<div style=""width:500px;"">
  <p>How much control did you have over the ball?</p>
  </div>","2","html-slider-response","45","547295","0.0-7.0-2.6","18","1","2025-07-30 08:39:03","36c45c0696341be0efffe67d72a12abb","118.93.124.120","Mozilla/5.0 (Macintosh; Intel Mac OS X 10_15_7) AppleWebKit/537.36 (KHTML, like Gecko) Chrome/138.0.0.0 Safari/537.36","Macintosh","Chrome","138.0.0.0","OS X","10_15_7","https://app.prolific.com/","en-GB,en-US;q=0.9,en;q=0.8","646a16e2aae07a0225cdb635","687a19d2168e237449fb8af4","6889da081dd1e1f46568dd18","0","646a16e2aae07a0225cdb635","0","2025-07-30T08:48:14.349Z","","","","ControlQ","","","","","","","","","","","50","","","","","","","","","","","","","","","","","","","","","","","","","","",""
"1616","","<div style=""width:500px;"">
  <p>How would you describe your current emotional state?</p>
  </div>","91","html-slider-response","46","548912","0.0-7.0-3.6","18","1","2025-07-30 08:39:03","36c45c0696341be0efffe67d72a12abb","118.93.124.120","Mozilla/5.0 (Macintosh; Intel Mac OS X 10_15_7) AppleWebKit/537.36 (KHTML, like Gecko) Chrome/138.0.0.0 Safari/537.36","Macintosh","Chrome","138.0.0.0","OS X","10_15_7","https://app.prolific.com/","en-GB,en-US;q=0.9,en;q=0.8","646a16e2aae07a0225cdb635","687a19d2168e237449fb8af4","6889da081dd1e1f46568dd18","0","646a16e2aae07a0225cdb635","0","2025-07-30T08:48:15.966Z","","","","StressQ","","","","","","","","","","","50","","","","","","","","","","","","","","","","","","","","","","","","","","",""
"3049","","<div style=""width:500px;"">
  <p>What best describes how you currently feel?</p>
  </div>","38","html-slider-response","47","551962","0.0-7.0-4.6","18","1","2025-07-30 08:39:03","36c45c0696341be0efffe67d72a12abb","118.93.124.120","Mozilla/5.0 (Macintosh; Intel Mac OS X 10_15_7) AppleWebKit/537.36 (KHTML, like Gecko) Chrome/138.0.0.0 Safari/537.36","Macintosh","Chrome","138.0.0.0","OS X","10_15_7","https://app.prolific.com/","en-GB,en-US;q=0.9,en;q=0.8","646a16e2aae07a0225cdb635","687a19d2168e237449fb8af4","6889da081dd1e1f46568dd18","0","646a16e2aae07a0225cdb635","0","2025-07-30T08:48:19.016Z","","","","MotivationQ","","","","","","","","","","","50","","","","","","","","","","","","","","","","","","","","","","","","","","",""
"","","","","ctl-task-cpt","48","593085","0.0-7.0-0.7","18","1","2025-07-30 08:39:03","36c45c0696341be0efffe67d72a12abb","118.93.124.120","Mozilla/5.0 (Macintosh; Intel Mac OS X 10_15_7) AppleWebKit/537.36 (KHTML, like Gecko) Chrome/138.0.0.0 Safari/537.36","Macintosh","Chrome","138.0.0.0","OS X","10_15_7","https://app.prolific.com/","en-GB,en-US;q=0.9,en;q=0.8","646a16e2aae07a0225cdb635","687a19d2168e237449fb8af4","6889da081dd1e1f46568dd18","0","646a16e2aae07a0225cdb635","0","2025-07-30T08:49:00.140Z","","","","","","","","","","","","","","","","win-only","3","g1:SW,g2:NE","0.3","8","0","556912.2","1221.6","6225.6","38110.8","1","4","8","6","2","-8","-8","0","7","0","1227.2","3000","-2905","[""up"",""right""]","{""num_key_presses"":10,""num_perfect"":3,""num_errors"":0,""num_randdir"":7,""num_randdir_good_moves"":3,""num_whilered"":0,""num_whileblue"":0,""num_blue"":1,""num_good_moves"":6}","[706.9366071428572,707.7334821428572,0.1,706.9366071428572,707.7334821428572,102.2,706.9366071428572,707.7334821428572,202.2,706.9366071428572,707.7334821428572,303.7,706.9366071428572,707.7334821428572,409.4,706.9366071428572,707.7334821428572,519,706.9366071428572,707.7334821428572,619.3,706.9366071428572,707.7334821428572,724.5,794.9366071428572,651.7334821428572,829.1,1132.9366071428572,401.73348214285716,933.9,1238.9366071428572,191.73348214285716,1037,1246.9366071428572,147.73348214285716,1138.5,1300.9366071428572,83.73348214285714,1239.1,1300.9366071428572,83.73348214285714,1344.2,1300.9366071428572,83.73348214285714,1444.4,1300.9366071428572,83.73348214285714,1552.4,1300.9366071428572,83.73348214285714,1652.4,1300.9366071428572,83.73348214285714,1753.8,1300.9366071428572,83.73348214285714,1859.7,1300.9366071428572,83.73348214285714,1967.7,1300.9366071428572,83.73348214285714,2069.6,1300.9366071428572,83.73348214285714,2171.3,1300.9366071428572,83.73348214285714,2273.6,1300.9366071428572,83.73348214285714,2374.3,1300.9366071428572,83.73348214285714,2475.1,1300.9366071428572,83.73348214285714,2584.4,1300.9366071428572,83.73348214285714,2689.4,1300.9366071428572,83.73348214285714,2789.5,1300.9366071428572,83.73348214285714,2889.5,1300.9366071428572,83.73348214285714,2994.4,1300.9366071428572,83.73348214285714,3101.6,1300.9366071428572,83.73348214285714,3203.2,1300.9366071428572,83.73348214285714,3304.6,1300.9366071428572,83.73348214285714,3409.3,1300.9366071428572,83.73348214285714,3517.9,1300.9366071428572,83.73348214285714,3619.5,1300.9366071428572,83.73348214285714,3724.1,1300.9366071428572,83.73348214285714,3824.2,1300.9366071428572,83.73348214285714,3924.4,1300.9366071428572,83.73348214285714,4029.4,1300.9366071428572,83.73348214285714,4133.4,1300.9366071428572,83.73348214285714,4236.2,1300.9366071428572,83.73348214285714,4338.6,1300.9366071428572,83.73348214285714,4439.1,1300.9366071428572,83.73348214285714,4539.7,1300.9366071428572,83.73348214285714,4640.1,1300.9366071428572,83.73348214285714,4743.6,1300.9366071428572,83.73348214285714,4844.4,1300.9366071428572,83.73348214285714,4951]","[1328.7,1328.7,1000,0,328.7,""oops"",""up"",""right"",""good_move"",7561.4,6232.4,2094,5148.4,319,""oops"",""up"",""up"",""good_move"",10495.4,2933.6,2592.8,7561.8,340.8,""oops"",""up"",""up"",""good_move"",12461.6,1965.9,1502.3,10495.7,463.6,""oops"",""up"",""down"",""bad_move"",15483.3,3021.3,2698,12462,323.3,""smooth"",""up"",""up"",""good_move"",17995.2,2511.7,2234.5,15483.6,277.1,""smooth"",""up"",""up"",""good_move"",20734.3,2738.9,2457.2,17995.4,281.7,""smooth"",""right"",""right"",""good_move"",23235.8,2501.3,2215.4,20734.5,285.9,""oops"",""right"",""left"",""bad_move"",26274.3,3038.2,2779.7,23236.2,258.5,""oops"",""right"",""left"",""bad_move"",29353.2,3078.7,2836.3,26274.5,242.4,""oops"",""right"",""down"",""bad_move""]"
"1709","","<div style=""width:500px;"">
  <p>What determined the result of this run?</p>
  </div>","15","html-slider-response","49","594795","0.0-7.0-1.7","18","1","2025-07-30 08:39:03","36c45c0696341be0efffe67d72a12abb","118.93.124.120","Mozilla/5.0 (Macintosh; Intel Mac OS X 10_15_7) AppleWebKit/537.36 (KHTML, like Gecko) Chrome/138.0.0.0 Safari/537.36","Macintosh","Chrome","138.0.0.0","OS X","10_15_7","https://app.prolific.com/","en-GB,en-US;q=0.9,en;q=0.8","646a16e2aae07a0225cdb635","687a19d2168e237449fb8af4","6889da081dd1e1f46568dd18","0","646a16e2aae07a0225cdb635","0","2025-07-30T08:49:01.849Z","","","","AttribQ","","","","","","","","","","","50","","","","","","","","","","","","","","","","","","","","","","","","","","",""
"5566","","<div style=""width:500px;"">
  <p>How much control did you have over the ball?</p>
  </div>","0","html-slider-response","50","600362","0.0-7.0-2.7","18","1","2025-07-30 08:39:03","36c45c0696341be0efffe67d72a12abb","118.93.124.120","Mozilla/5.0 (Macintosh; Intel Mac OS X 10_15_7) AppleWebKit/537.36 (KHTML, like Gecko) Chrome/138.0.0.0 Safari/537.36","Macintosh","Chrome","138.0.0.0","OS X","10_15_7","https://app.prolific.com/","en-GB,en-US;q=0.9,en;q=0.8","646a16e2aae07a0225cdb635","687a19d2168e237449fb8af4","6889da081dd1e1f46568dd18","0","646a16e2aae07a0225cdb635","0","2025-07-30T08:49:07.416Z","","","","ControlQ","","","","","","","","","","","50","","","","","","","","","","","","","","","","","","","","","","","","","","",""
"1749","","<div style=""width:500px;"">
  <p>How would you describe your current emotional state?</p>
  </div>","100","html-slider-response","51","602112","0.0-7.0-3.7","18","1","2025-07-30 08:39:03","36c45c0696341be0efffe67d72a12abb","118.93.124.120","Mozilla/5.0 (Macintosh; Intel Mac OS X 10_15_7) AppleWebKit/537.36 (KHTML, like Gecko) Chrome/138.0.0.0 Safari/537.36","Macintosh","Chrome","138.0.0.0","OS X","10_15_7","https://app.prolific.com/","en-GB,en-US;q=0.9,en;q=0.8","646a16e2aae07a0225cdb635","687a19d2168e237449fb8af4","6889da081dd1e1f46568dd18","0","646a16e2aae07a0225cdb635","0","2025-07-30T08:49:09.166Z","","","","StressQ","","","","","","","","","","","50","","","","","","","","","","","","","","","","","","","","","","","","","","",""
"2832","","<div style=""width:500px;"">
  <p>What best describes how you currently feel?</p>
  </div>","24","html-slider-response","52","604945","0.0-7.0-4.7","18","1","2025-07-30 08:39:03","36c45c0696341be0efffe67d72a12abb","118.93.124.120","Mozilla/5.0 (Macintosh; Intel Mac OS X 10_15_7) AppleWebKit/537.36 (KHTML, like Gecko) Chrome/138.0.0.0 Safari/537.36","Macintosh","Chrome","138.0.0.0","OS X","10_15_7","https://app.prolific.com/","en-GB,en-US;q=0.9,en;q=0.8","646a16e2aae07a0225cdb635","687a19d2168e237449fb8af4","6889da081dd1e1f46568dd18","0","646a16e2aae07a0225cdb635","0","2025-07-30T08:49:11.999Z","","","","MotivationQ","","","","","","","","","","","50","","","","","","","","","","","","","","","","","","","","","","","","","","",""
"","","","","ctl-task-cpt","53","643602","0.0-7.0-0.8","18","1","2025-07-30 08:39:03","36c45c0696341be0efffe67d72a12abb","118.93.124.120","Mozilla/5.0 (Macintosh; Intel Mac OS X 10_15_7) AppleWebKit/537.36 (KHTML, like Gecko) Chrome/138.0.0.0 Safari/537.36","Macintosh","Chrome","138.0.0.0","OS X","10_15_7","https://app.prolific.com/","en-GB,en-US;q=0.9,en;q=0.8","646a16e2aae07a0225cdb635","687a19d2168e237449fb8af4","6889da081dd1e1f46568dd18","0","646a16e2aae07a0225cdb635","0","2025-07-30T08:49:50.656Z","","","","","","","","","","","","","","","","win-only","2","g1:SE,g2:NW","0.4","9","0","609895.6","815.2","5816.3","35639.5","1","4","8","6","2","-8","-9","0","0","0","1283.6","3000","-2915","[""left"",""up""]","{""num_key_presses"":11,""num_perfect"":4,""num_errors"":1,""num_randdir"":6,""num_randdir_good_moves"":2,""num_whilered"":0,""num_whileblue"":1,""num_blue"":1,""num_good_moves"":6}","[704.9366071428572,731.7334821428572,0.1,704.9366071428572,731.7334821428572,100.8,704.9366071428572,731.7334821428572,207.1,704.9366071428572,731.7334821428572,308.7,704.9366071428572,731.7334821428572,410.7,704.9366071428572,731.7334821428572,510.8,228.93660714285716,131.73348214285716,611.1,36.93660714285714,-62.26651785714286,715.9,36.93660714285714,-60.26651785714286,820.6,192.93660714285716,129.73348214285716,921.3,256.93660714285716,243.73348214285716,1025.8,252.93660714285716,239.73348214285716,1128,174.93660714285716,145.73348214285716,1231,166.93660714285716,137.73348214285716,1337.5,166.93660714285716,137.73348214285716,1439.6,166.93660714285716,137.73348214285716,1540.6,166.93660714285716,137.73348214285716,1640.8,166.93660714285716,137.73348214285716,1741.1,166.93660714285716,137.73348214285716,1845.8,166.93660714285716,137.73348214285716,1950.7,166.93660714285716,137.73348214285716,2058,166.93660714285716,137.73348214285716,2160.3,166.93660714285716,137.73348214285716,2260.5,166.93660714285716,137.73348214285716,2365.4,166.93660714285716,137.73348214285716,2465.5,166.93660714285716,137.73348214285716,2565.6,166.93660714285716,137.73348214285716,2673.9,166.93660714285716,137.73348214285716,2775.6,166.93660714285716,137.73348214285716,2880.1,166.93660714285716,137.73348214285716,2981,166.93660714285716,137.73348214285716,3085,166.93660714285716,137.73348214285716,3186.7,166.93660714285716,137.73348214285716,3293.5,166.93660714285716,137.73348214285716,3395.4,166.93660714285716,137.73348214285716,3495.9,166.93660714285716,137.73348214285716,3600.6,166.93660714285716,137.73348214285716,3708.7,166.93660714285716,137.73348214285716,3810.3,166.93660714285716,137.73348214285716,3910.9,166.93660714285716,137.73348214285716,4015.4,166.93660714285716,137.73348214285716,4116.1,166.93660714285716,137.73348214285716,4220.1,166.93660714285716,137.73348214285716,4320.4,166.93660714285716,137.73348214285716,4420.7,166.93660714285716,137.73348214285716,4525.8,166.93660714285716,137.73348214285716,4630.4,166.93660714285716,137.73348214285716,4731.1,166.93660714285716,137.73348214285716,4840.6,166.93660714285716,137.73348214285716,4945.8]","[1322.9,1322.9,1000,0,322.9,""smooth"",""up"",""up"",""good_move"",3553.4,2230.2,1943.8,1323.2,286.4,""smooth"",""up"",""up"",""good_move"",6520.3,2966.7,2616.6,3553.7,350,""oops"",""left"",""left"",""good_move"",9148.4,2627.8,2349.3,6520.6,278.5,""oops"",""left"",""up"",""good_move"",12616.4,3467.8,3138.5,9148.6,329.3,""oops"",""left"",""down"",""bad_move"",14987.9,2371.1,2055.5,12616.8,315.6,""smooth"",""left"",""left"",""good_move"",17571.4,2583.1,2312.7,14988.3,270.5,""oops"",""up"",""right"",""bad_move"",20001.8,2430,2166.5,17571.8,263.5,""oops"",""up"",""down"",""bad_move"",22811.8,2809.4,2566.8,20002.4,242.6,""while_blue"",""up"",""right"",""bad_move"",24671.9,1859.9,1467,22812,392.9,""smooth"",""up"",""up"",""good_move"",27636.6,2964.4,2683.5,24672.2,280.9,""oops"",""up"",""right"",""bad_move""]"
"1725","","<div style=""width:500px;"">
  <p>What determined the result of this run?</p>
  </div>","12","html-slider-response","54","645328","0.0-7.0-1.8","18","1","2025-07-30 08:39:03","36c45c0696341be0efffe67d72a12abb","118.93.124.120","Mozilla/5.0 (Macintosh; Intel Mac OS X 10_15_7) AppleWebKit/537.36 (KHTML, like Gecko) Chrome/138.0.0.0 Safari/537.36","Macintosh","Chrome","138.0.0.0","OS X","10_15_7","https://app.prolific.com/","en-GB,en-US;q=0.9,en;q=0.8","646a16e2aae07a0225cdb635","687a19d2168e237449fb8af4","6889da081dd1e1f46568dd18","0","646a16e2aae07a0225cdb635","0","2025-07-30T08:49:52.382Z","","","","AttribQ","","","","","","","","","","","50","","","","","","","","","","","","","","","","","","","","","","","","","","",""
"1816","","<div style=""width:500px;"">
  <p>How much control did you have over the ball?</p>
  </div>","14","html-slider-response","55","647145","0.0-7.0-2.8","18","1","2025-07-30 08:39:03","36c45c0696341be0efffe67d72a12abb","118.93.124.120","Mozilla/5.0 (Macintosh; Intel Mac OS X 10_15_7) AppleWebKit/537.36 (KHTML, like Gecko) Chrome/138.0.0.0 Safari/537.36","Macintosh","Chrome","138.0.0.0","OS X","10_15_7","https://app.prolific.com/","en-GB,en-US;q=0.9,en;q=0.8","646a16e2aae07a0225cdb635","687a19d2168e237449fb8af4","6889da081dd1e1f46568dd18","0","646a16e2aae07a0225cdb635","0","2025-07-30T08:49:54.199Z","","","","ControlQ","","","","","","","","","","","50","","","","","","","","","","","","","","","","","","","","","","","","","","",""
"1465","","<div style=""width:500px;"">
  <p>How would you describe your current emotional state?</p>
  </div>","94","html-slider-response","56","648611","0.0-7.0-3.8","18","1","2025-07-30 08:39:03","36c45c0696341be0efffe67d72a12abb","118.93.124.120","Mozilla/5.0 (Macintosh; Intel Mac OS X 10_15_7) AppleWebKit/537.36 (KHTML, like Gecko) Chrome/138.0.0.0 Safari/537.36","Macintosh","Chrome","138.0.0.0","OS X","10_15_7","https://app.prolific.com/","en-GB,en-US;q=0.9,en;q=0.8","646a16e2aae07a0225cdb635","687a19d2168e237449fb8af4","6889da081dd1e1f46568dd18","0","646a16e2aae07a0225cdb635","0","2025-07-30T08:49:55.665Z","","","","StressQ","","","","","","","","","","","50","","","","","","","","","","","","","","","","","","","","","","","","","","",""
"1833","","<div style=""width:500px;"">
  <p>What best describes how you currently feel?</p>
  </div>","32","html-slider-response","57","650445","0.0-7.0-4.8","18","1","2025-07-30 08:39:03","36c45c0696341be0efffe67d72a12abb","118.93.124.120","Mozilla/5.0 (Macintosh; Intel Mac OS X 10_15_7) AppleWebKit/537.36 (KHTML, like Gecko) Chrome/138.0.0.0 Safari/537.36","Macintosh","Chrome","138.0.0.0","OS X","10_15_7","https://app.prolific.com/","en-GB,en-US;q=0.9,en;q=0.8","646a16e2aae07a0225cdb635","687a19d2168e237449fb8af4","6889da081dd1e1f46568dd18","0","646a16e2aae07a0225cdb635","0","2025-07-30T08:49:57.499Z","","","","MotivationQ","","","","","","","","","","","50","","","","","","","","","","","","","","","","","","","","","","","","","","",""
"","","","","ctl-task-cpt","58","678975","0.0-7.0-0.9","18","1","2025-07-30 08:39:03","36c45c0696341be0efffe67d72a12abb","118.93.124.120","Mozilla/5.0 (Macintosh; Intel Mac OS X 10_15_7) AppleWebKit/537.36 (KHTML, like Gecko) Chrome/138.0.0.0 Safari/537.36","Macintosh","Chrome","138.0.0.0","OS X","10_15_7","https://app.prolific.com/","en-GB,en-US;q=0.9,en;q=0.8","646a16e2aae07a0225cdb635","687a19d2168e237449fb8af4","6889da081dd1e1f46568dd18","0","646a16e2aae07a0225cdb635","0","2025-07-30T08:50:26.029Z","","","","","","","","","","","","","","","","win-only","1","g1:NE,g2:SW","0.5","10","0","655395.2","831.3","5840.3","25521.2","1","4","4","6","2","4","4","4","0","0.030303030303030304","1306.5","3000","1105","[""down"",""left""]","{""num_key_presses"":6,""num_perfect"":5,""num_errors"":0,""num_randdir"":1,""num_randdir_good_moves"":1,""num_whilered"":0,""num_whileblue"":0,""num_blue"":1,""num_good_moves"":6}","[702.9366071428572,703.7334821428572,0.1,702.9366071428572,703.7334821428572,104.5,702.9366071428572,703.7334821428572,204.7,690.9366071428572,723.7334821428572,312.5,688.9366071428572,721.7334821428572,413.8,836.9366071428572,603.7334821428572,513.9,846.9366071428572,563.7334821428572,614,908.9366071428572,471.73348214285716,714.7,452.93660714285716,777.7334821428572,814.7,-97.06339285714286,1177.7334821428572,914.9,-93.06339285714286,1279.7334821428572,1019.3,-17.06339285714286,1331.7334821428572,1128.2,44.93660714285714,1347.7334821428572,1229.5,54.93660714285714,1337.7334821428572,1334.7,54.93660714285714,1337.7334821428572,1442,54.93660714285714,1337.7334821428572,1544.1,-133.06339285714284,1027.7334821428572,1649.6,-321.06339285714284,999.7334821428572,1749.8,-321.06339285714284,999.7334821428572,1854.3,-321.06339285714284,999.7334821428572,1957.5,-321.06339285714284,999.7334821428572,2059.7,-321.06339285714284,999.7334821428572,2159.8,-321.06339285714284,999.7334821428572,2260.2,-321.06339285714284,999.7334821428572,2364.4,-321.06339285714284,999.7334821428572,2464.8,-321.06339285714284,999.7334821428572,2573.7,-321.06339285714284,999.7334821428572,2676.8,-321.06339285714284,999.7334821428572,2779.1,-321.06339285714284,999.7334821428572,2879.5,-321.06339285714284,999.7334821428572,2984.1,-321.06339285714284,999.7334821428572,3084.3,-321.06339285714284,999.7334821428572,3184.5,-321.06339285714284,999.7334821428572,3292.5,-321.06339285714284,999.7334821428572,3394.4,-321.06339285714284,999.7334821428572,3495.4,-321.06339285714284,999.7334821428572,3598.8,-321.06339285714284,999.7334821428572,3699.5,-321.06339285714284,999.7334821428572,3799.8,-321.06339285714284,999.7334821428572,3904.6,-321.06339285714284,999.7334821428572,4009.8,-321.06339285714284,999.7334821428572,4114.5,-321.06339285714284,999.7334821428572,4219.2,-321.06339285714284,999.7334821428572,4319.4,-321.06339285714284,999.7334821428572,4419.7,-321.06339285714284,999.7334821428572,4520.3,-321.06339285714284,999.7334821428572,4623.9,-321.06339285714284,999.7334821428572,4725.2,-321.06339285714284,999.7334821428572,4829.5,-321.06339285714284,999.7334821428572,4934.4]","[4547.1,4547.1,2141.6,2004.9,400.6,""smooth"",""down"",""down"",""good_move"",7892.1,3344.7,3009.5,4547.4,335.2,""smooth"",""left"",""left"",""good_move"",10703.1,2810.6,2452.2,7892.5,358.4,""smooth"",""left"",""left"",""good_move"",14414.5,3711,3385.8,10703.5,325.2,""oops"",""down"",""down"",""good_move"",17144.6,2729.7,2377.3,14414.9,352.4,""smooth"",""down"",""down"",""good_move"",19581.8,2437.1,2146,17144.8,291,""smooth"",""left"",""left"",""good_move""]"
"1669","","<div style=""width:500px;"">
  <p>What determined the result of this run?</p>
  </div>","17","html-slider-response","59","680645","0.0-7.0-1.9","18","1","2025-07-30 08:39:03","36c45c0696341be0efffe67d72a12abb","118.93.124.120","Mozilla/5.0 (Macintosh; Intel Mac OS X 10_15_7) AppleWebKit/537.36 (KHTML, like Gecko) Chrome/138.0.0.0 Safari/537.36","Macintosh","Chrome","138.0.0.0","OS X","10_15_7","https://app.prolific.com/","en-GB,en-US;q=0.9,en;q=0.8","646a16e2aae07a0225cdb635","687a19d2168e237449fb8af4","6889da081dd1e1f46568dd18","0","646a16e2aae07a0225cdb635","0","2025-07-30T08:50:27.699Z","","","","AttribQ","","","","","","","","","","","50","","","","","","","","","","","","","","","","","","","","","","","","","","",""
"2865","","<div style=""width:500px;"">
  <p>How much control did you have over the ball?</p>
  </div>","88","html-slider-response","60","683511","0.0-7.0-2.9","18","1","2025-07-30 08:39:03","36c45c0696341be0efffe67d72a12abb","118.93.124.120","Mozilla/5.0 (Macintosh; Intel Mac OS X 10_15_7) AppleWebKit/537.36 (KHTML, like Gecko) Chrome/138.0.0.0 Safari/537.36","Macintosh","Chrome","138.0.0.0","OS X","10_15_7","https://app.prolific.com/","en-GB,en-US;q=0.9,en;q=0.8","646a16e2aae07a0225cdb635","687a19d2168e237449fb8af4","6889da081dd1e1f46568dd18","0","646a16e2aae07a0225cdb635","0","2025-07-30T08:50:30.565Z","","","","ControlQ","","","","","","","","","","","50","","","","","","","","","","","","","","","","","","","","","","","","","","",""
"2316","","<div style=""width:500px;"">
  <p>How would you describe your current emotional state?</p>
  </div>","79","html-slider-response","61","685828","0.0-7.0-3.9","18","1","2025-07-30 08:39:03","36c45c0696341be0efffe67d72a12abb","118.93.124.120","Mozilla/5.0 (Macintosh; Intel Mac OS X 10_15_7) AppleWebKit/537.36 (KHTML, like Gecko) Chrome/138.0.0.0 Safari/537.36","Macintosh","Chrome","138.0.0.0","OS X","10_15_7","https://app.prolific.com/","en-GB,en-US;q=0.9,en;q=0.8","646a16e2aae07a0225cdb635","687a19d2168e237449fb8af4","6889da081dd1e1f46568dd18","0","646a16e2aae07a0225cdb635","0","2025-07-30T08:50:32.882Z","","","","StressQ","","","","","","","","","","","50","","","","","","","","","","","","","","","","","","","","","","","","","","",""
"3283","","<div style=""width:500px;"">
  <p>What best describes how you currently feel?</p>
  </div>","23","html-slider-response","62","689111","0.0-7.0-4.9","18","1","2025-07-30 08:39:03","36c45c0696341be0efffe67d72a12abb","118.93.124.120","Mozilla/5.0 (Macintosh; Intel Mac OS X 10_15_7) AppleWebKit/537.36 (KHTML, like Gecko) Chrome/138.0.0.0 Safari/537.36","Macintosh","Chrome","138.0.0.0","OS X","10_15_7","https://app.prolific.com/","en-GB,en-US;q=0.9,en;q=0.8","646a16e2aae07a0225cdb635","687a19d2168e237449fb8af4","6889da081dd1e1f46568dd18","0","646a16e2aae07a0225cdb635","0","2025-07-30T08:50:36.165Z","","","","MotivationQ","","","","","","","","","","","50","","","","","","","","","","","","","","","","","","","","","","","","","","",""
"","","","","ctl-task-cpt","63","713083","0.0-7.0-0.10","18","1","2025-07-30 08:39:03","36c45c0696341be0efffe67d72a12abb","118.93.124.120","Mozilla/5.0 (Macintosh; Intel Mac OS X 10_15_7) AppleWebKit/537.36 (KHTML, like Gecko) Chrome/138.0.0.0 Safari/537.36","Macintosh","Chrome","138.0.0.0","OS X","10_15_7","https://app.prolific.com/","en-GB,en-US;q=0.9,en;q=0.8","646a16e2aae07a0225cdb635","687a19d2168e237449fb8af4","6889da081dd1e1f46568dd18","0","646a16e2aae07a0225cdb635","0","2025-07-30T08:51:00.137Z","","","","","","","","","","","","","","","","win-only","1","g1:NE,g2:SW","0.6","11","0","694061.5","782.2","5785.6","20961.2","1","4","8","6","2","8","7","11","4","0.08333333333333333","1532.7","3000","1580","[""down"",""left""]","{""num_key_presses"":6,""num_perfect"":4,""num_errors"":1,""num_randdir"":1,""num_randdir_good_moves"":1,""num_whilered"":0,""num_whileblue"":1,""num_blue"":1,""num_good_moves"":6}","[702.9366071428572,705.7334821428572,0.1,702.9366071428572,705.7334821428572,103.2,702.9366071428572,705.7334821428572,203.8,698.9366071428572,771.7334821428572,310.3,686.9366071428572,641.7334821428572,410.3,724.9366071428572,737.7334821428572,513.9,788.9366071428572,687.7334821428572,618.4,836.9366071428572,605.7334821428572,725.1,842.9366071428572,579.7334821428572,828.8,842.9366071428572,579.7334821428572,933.2,842.9366071428572,579.7334821428572,1033.5,230.93660714285716,1011.7334821428572,1133.8,-67.06339285714286,1373.7334821428572,1234,-51.06339285714286,1373.7334821428572,1338.9,130.93660714285716,1311.7334821428572,1443.1,170.93660714285716,1293.7334821428572,1543.4,170.93660714285716,1293.7334821428572,1648.8,170.93660714285716,1293.7334821428572,1754,170.93660714285716,1293.7334821428572,1854.5,170.93660714285716,1293.7334821428572,1958.4,170.93660714285716,1293.7334821428572,2058.8,170.93660714285716,1293.7334821428572,2163.1,170.93660714285716,1293.7334821428572,2263.8,170.93660714285716,1293.7334821428572,2368.1,170.93660714285716,1293.7334821428572,2468.4,170.93660714285716,1293.7334821428572,2568.8,170.93660714285716,1293.7334821428572,2673.5,170.93660714285716,1293.7334821428572,2778.1,170.93660714285716,1293.7334821428572,2878.3,170.93660714285716,1293.7334821428572,2982.9,170.93660714285716,1293.7334821428572,3084,170.93660714285716,1293.7334821428572,3188.2,170.93660714285716,1293.7334821428572,3292.2,170.93660714285716,1293.7334821428572,3393.2,170.93660714285716,1293.7334821428572,3493.6,170.93660714285716,1293.7334821428572,3594,170.93660714285716,1293.7334821428572,3698.5,170.93660714285716,1293.7334821428572,3798.9,170.93660714285716,1293.7334821428572,3898.9,170.93660714285716,1293.7334821428572,4003.8,170.93660714285716,1293.7334821428572,4107.3,170.93660714285716,1293.7334821428572,4208.4,170.93660714285716,1293.7334821428572,4308.7,170.93660714285716,1293.7334821428572,4410.7,170.93660714285716,1293.7334821428572,4512.1,170.93660714285716,1293.7334821428572,4613.4,170.93660714285716,1293.7334821428572,4718.7,170.93660714285716,1293.7334821428572,4826.3,170.93660714285716,1293.7334821428572,4927]","[1283.1,1283.1,1000,0,283.1,""smooth"",""left"",""left"",""good_move"",4234.2,2950.8,2699.1,1283.4,251.7,""smooth"",""left"",""left"",""good_move"",7014.3,2779.9,2461.6,4234.4,318.3,""oops"",""down"",""down"",""good_move"",9247,2232.4,1877.9,7014.6,354.5,""smooth"",""left"",""left"",""good_move"",12248.8,3001.3,2712.6,9247.5,288.7,""while_blue"",""down"",""down"",""good_move"",15082.7,2833.6,2532.1,12249.1,301.5,""smooth"",""down"",""down"",""good_move""]"
"1794","","<div style=""width:500px;"">
  <p>What determined the result of this run?</p>
  </div>","18","html-slider-response","64","714878","0.0-7.0-1.10","18","1","2025-07-30 08:39:03","36c45c0696341be0efffe67d72a12abb","118.93.124.120","Mozilla/5.0 (Macintosh; Intel Mac OS X 10_15_7) AppleWebKit/537.36 (KHTML, like Gecko) Chrome/138.0.0.0 Safari/537.36","Macintosh","Chrome","138.0.0.0","OS X","10_15_7","https://app.prolific.com/","en-GB,en-US;q=0.9,en;q=0.8","646a16e2aae07a0225cdb635","687a19d2168e237449fb8af4","6889da081dd1e1f46568dd18","0","646a16e2aae07a0225cdb635","0","2025-07-30T08:51:01.932Z","","","","AttribQ","","","","","","","","","","","50","","","","","","","","","","","","","","","","","","","","","","","","","","",""
"2583","","<div style=""width:500px;"">
  <p>How much control did you have over the ball?</p>
  </div>","85","html-slider-response","65","717461","0.0-7.0-2.10","18","1","2025-07-30 08:39:03","36c45c0696341be0efffe67d72a12abb","118.93.124.120","Mozilla/5.0 (Macintosh; Intel Mac OS X 10_15_7) AppleWebKit/537.36 (KHTML, like Gecko) Chrome/138.0.0.0 Safari/537.36","Macintosh","Chrome","138.0.0.0","OS X","10_15_7","https://app.prolific.com/","en-GB,en-US;q=0.9,en;q=0.8","646a16e2aae07a0225cdb635","687a19d2168e237449fb8af4","6889da081dd1e1f46568dd18","0","646a16e2aae07a0225cdb635","0","2025-07-30T08:51:04.515Z","","","","ControlQ","","","","","","","","","","","50","","","","","","","","","","","","","","","","","","","","","","","","","","",""
"2166","","<div style=""width:500px;"">
  <p>How would you describe your current emotional state?</p>
  </div>","66","html-slider-response","66","719628","0.0-7.0-3.10","18","1","2025-07-30 08:39:03","36c45c0696341be0efffe67d72a12abb","118.93.124.120","Mozilla/5.0 (Macintosh; Intel Mac OS X 10_15_7) AppleWebKit/537.36 (KHTML, like Gecko) Chrome/138.0.0.0 Safari/537.36","Macintosh","Chrome","138.0.0.0","OS X","10_15_7","https://app.prolific.com/","en-GB,en-US;q=0.9,en;q=0.8","646a16e2aae07a0225cdb635","687a19d2168e237449fb8af4","6889da081dd1e1f46568dd18","0","646a16e2aae07a0225cdb635","0","2025-07-30T08:51:06.682Z","","","","StressQ","","","","","","","","","","","50","","","","","","","","","","","","","","","","","","","","","","","","","","",""
"2782","","<div style=""width:500px;"">
  <p>What best describes how you currently feel?</p>
  </div>","54","html-slider-response","67","722411","0.0-7.0-4.10","18","1","2025-07-30 08:39:03","36c45c0696341be0efffe67d72a12abb","118.93.124.120","Mozilla/5.0 (Macintosh; Intel Mac OS X 10_15_7) AppleWebKit/537.36 (KHTML, like Gecko) Chrome/138.0.0.0 Safari/537.36","Macintosh","Chrome","138.0.0.0","OS X","10_15_7","https://app.prolific.com/","en-GB,en-US;q=0.9,en;q=0.8","646a16e2aae07a0225cdb635","687a19d2168e237449fb8af4","6889da081dd1e1f46568dd18","0","646a16e2aae07a0225cdb635","0","2025-07-30T08:51:09.465Z","","","","MotivationQ","","","","","","","","","","","50","","","","","","","","","","","","","","","","","","","","","","","","","","",""
"","","","","ctl-task-cpt","68","755245","0.0-7.0-0.11","18","1","2025-07-30 08:39:03","36c45c0696341be0efffe67d72a12abb","118.93.124.120","Mozilla/5.0 (Macintosh; Intel Mac OS X 10_15_7) AppleWebKit/537.36 (KHTML, like Gecko) Chrome/138.0.0.0 Safari/537.36","Macintosh","Chrome","138.0.0.0","OS X","10_15_7","https://app.prolific.com/","en-GB,en-US;q=0.9,en;q=0.8","646a16e2aae07a0225cdb635","687a19d2168e237449fb8af4","6889da081dd1e1f46568dd18","0","646a16e2aae07a0225cdb635","0","2025-07-30T08:51:42.299Z","","","","","","","","","","","","","","","","win-only","0","g1:NW,g2:SE","0.7","12","0","727361.2","1115.1","6116","29824.5","1","4","4","6","2","4","3","14","11","0.10606060606060606","1000","3000","850","[""down"",""right""]","{""num_key_presses"":8,""num_perfect"":4,""num_errors"":1,""num_randdir"":3,""num_randdir_good_moves"":2,""num_whilered"":0,""num_whileblue"":1,""num_blue"":2,""num_good_moves"":7}","[712.9366071428572,717.7334821428572,0.2,712.9366071428572,717.7334821428572,100.2,712.9366071428572,717.7334821428572,200.9,712.9366071428572,717.7334821428572,301.1,678.9366071428572,655.7334821428572,405,754.9366071428572,709.7334821428572,508.4,1110.9366071428572,967.7334821428572,610.5,1128.9366071428572,985.7334821428572,711,1146.9366071428572,1021.7334821428572,815.1,1278.9366071428572,1281.7334821428572,915.8,1290.9366071428572,1291.7334821428572,1020.6,1290.9366071428572,1291.7334821428572,1124.9,1270.9366071428572,1269.7334821428572,1225.1,1046.9366071428572,1065.7334821428572,1325.9,1030.9366071428572,1053.7334821428572,1425.9,1030.9366071428572,1053.7334821428572,1530.7,1030.9366071428572,1053.7334821428572,1635.1,1030.9366071428572,1053.7334821428572,1735.4,1030.9366071428572,1053.7334821428572,1836.1,1030.9366071428572,1053.7334821428572,1940.7,1030.9366071428572,1053.7334821428572,2040.8,1030.9366071428572,1053.7334821428572,2140.9,1030.9366071428572,1053.7334821428572,2240.9,1030.9366071428572,1053.7334821428572,2343.6,1030.9366071428572,1053.7334821428572,2445.5,1030.9366071428572,1053.7334821428572,2550.1,1030.9366071428572,1053.7334821428572,2650.6,1030.9366071428572,1053.7334821428572,2755.2,1030.9366071428572,1053.7334821428572,2855.8,1030.9366071428572,1053.7334821428572,2960.6,1030.9366071428572,1053.7334821428572,3065.4,1030.9366071428572,1053.7334821428572,3166,1030.9366071428572,1053.7334821428572,3270.9,1030.9366071428572,1053.7334821428572,3375.7,1030.9366071428572,1053.7334821428572,3480.4,1030.9366071428572,1053.7334821428572,3585.6,1030.9366071428572,1053.7334821428572,3685.6,1030.9366071428572,1053.7334821428572,3785.7,1030.9366071428572,1053.7334821428572,3885.8,1030.9366071428572,1053.7334821428572,3993.7,1030.9366071428572,1053.7334821428572,4095.3,1030.9366071428572,1053.7334821428572,4195.7,1030.9366071428572,1053.7334821428572,4295.8,1030.9366071428572,1053.7334821428572,4400.1,1030.9366071428572,1053.7334821428572,4500.8,1030.9366071428572,1053.7334821428572,4605.2,1030.9366071428572,1053.7334821428572,4709.7,1030.9366071428572,1053.7334821428572,4809.7,1030.9366071428572,1053.7334821428572,4910.5]","[1307.2,1307.2,1000,0,307.2,""smooth"",""down"",""down"",""good_move"",3495.5,2188,1906.1,1307.5,281.9,""oops"",""down"",""down"",""good_move"",5782.9,2287.3,1999.2,3495.6,288.1,""while_blue"",""right"",""down"",""good_move"",8416.1,2633,2278.4,5783.1,354.6,""oops"",""right"",""left"",""bad_move"",15190,6773.5,3390.5,11484.4,315.1,""smooth"",""right"",""right"",""good_move"",17757.4,2567.3,2210.7,15190.1,356.6,""oops"",""right"",""right"",""good_move"",20570.2,2812.6,2497.8,17757.6,314.8,""smooth"",""right"",""right"",""good_move"",23606.6,3036.2,2715.1,20570.4,321.1,""smooth"",""right"",""right"",""good_move""]"
"2931","","<div style=""width:500px;"">
  <p>What determined the result of this run?</p>
  </div>","19","html-slider-response","69","758177","0.0-7.0-1.11","18","1","2025-07-30 08:39:03","36c45c0696341be0efffe67d72a12abb","118.93.124.120","Mozilla/5.0 (Macintosh; Intel Mac OS X 10_15_7) AppleWebKit/537.36 (KHTML, like Gecko) Chrome/138.0.0.0 Safari/537.36","Macintosh","Chrome","138.0.0.0","OS X","10_15_7","https://app.prolific.com/","en-GB,en-US;q=0.9,en;q=0.8","646a16e2aae07a0225cdb635","687a19d2168e237449fb8af4","6889da081dd1e1f46568dd18","0","646a16e2aae07a0225cdb635","0","2025-07-30T08:51:45.231Z","","","","AttribQ","","","","","","","","","","","50","","","","","","","","","","","","","","","","","","","","","","","","","","",""
"2233","","<div style=""width:500px;"">
  <p>How much control did you have over the ball?</p>
  </div>","39","html-slider-response","70","760411","0.0-7.0-2.11","18","1","2025-07-30 08:39:03","36c45c0696341be0efffe67d72a12abb","118.93.124.120","Mozilla/5.0 (Macintosh; Intel Mac OS X 10_15_7) AppleWebKit/537.36 (KHTML, like Gecko) Chrome/138.0.0.0 Safari/537.36","Macintosh","Chrome","138.0.0.0","OS X","10_15_7","https://app.prolific.com/","en-GB,en-US;q=0.9,en;q=0.8","646a16e2aae07a0225cdb635","687a19d2168e237449fb8af4","6889da081dd1e1f46568dd18","0","646a16e2aae07a0225cdb635","0","2025-07-30T08:51:47.465Z","","","","ControlQ","","","","","","","","","","","50","","","","","","","","","","","","","","","","","","","","","","","","","","",""
"1932","","<div style=""width:500px;"">
  <p>How would you describe your current emotional state?</p>
  </div>","65","html-slider-response","71","762344","0.0-7.0-3.11","18","1","2025-07-30 08:39:03","36c45c0696341be0efffe67d72a12abb","118.93.124.120","Mozilla/5.0 (Macintosh; Intel Mac OS X 10_15_7) AppleWebKit/537.36 (KHTML, like Gecko) Chrome/138.0.0.0 Safari/537.36","Macintosh","Chrome","138.0.0.0","OS X","10_15_7","https://app.prolific.com/","en-GB,en-US;q=0.9,en;q=0.8","646a16e2aae07a0225cdb635","687a19d2168e237449fb8af4","6889da081dd1e1f46568dd18","0","646a16e2aae07a0225cdb635","0","2025-07-30T08:51:49.398Z","","","","StressQ","","","","","","","","","","","50","","","","","","","","","","","","","","","","","","","","","","","","","","",""
"2215","","<div style=""width:500px;"">
  <p>What best describes how you currently feel?</p>
  </div>","37","html-slider-response","72","764560","0.0-7.0-4.11","18","1","2025-07-30 08:39:03","36c45c0696341be0efffe67d72a12abb","118.93.124.120","Mozilla/5.0 (Macintosh; Intel Mac OS X 10_15_7) AppleWebKit/537.36 (KHTML, like Gecko) Chrome/138.0.0.0 Safari/537.36","Macintosh","Chrome","138.0.0.0","OS X","10_15_7","https://app.prolific.com/","en-GB,en-US;q=0.9,en;q=0.8","646a16e2aae07a0225cdb635","687a19d2168e237449fb8af4","6889da081dd1e1f46568dd18","0","646a16e2aae07a0225cdb635","0","2025-07-30T08:51:51.614Z","","","","MotivationQ","","","","","","","","","","","50","","","","","","","","","","","","","","","","","","","","","","","","","","",""
"","","","","ctl-task-cpt","73","790946","0.0-7.0-0.12","18","1","2025-07-30 08:39:03","36c45c0696341be0efffe67d72a12abb","118.93.124.120","Mozilla/5.0 (Macintosh; Intel Mac OS X 10_15_7) AppleWebKit/537.36 (KHTML, like Gecko) Chrome/138.0.0.0 Safari/537.36","Macintosh","Chrome","138.0.0.0","OS X","10_15_7","https://app.prolific.com/","en-GB,en-US;q=0.9,en;q=0.8","646a16e2aae07a0225cdb635","687a19d2168e237449fb8af4","6889da081dd1e1f46568dd18","0","646a16e2aae07a0225cdb635","0","2025-07-30T08:52:18.000Z","","","","","","","","","","","","","","","","win-only","2","g1:SE,g2:NW","0.8","13","0","769510.4","932.6","5940.1","23376.1","1","4","4","6","2","4","4","18","14","0.13636363636363635","1017.1","3000","1170","[""left"",""up""]","{""num_key_presses"":6,""num_perfect"":5,""num_errors"":0,""num_randdir"":1,""num_randdir_good_moves"":1,""num_whilered"":0,""num_whileblue"":0,""num_blue"":1,""num_good_moves"":6}","[706.9366071428572,709.7334821428572,0.2,706.9366071428572,709.7334821428572,102.9,706.9366071428572,709.7334821428572,207.9,706.9366071428572,773.7334821428572,308.5,708.9366071428572,731.7334821428572,412.6,716.9366071428572,705.7334821428572,513.3,452.93660714285716,433.73348214285716,617.8,410.93660714285716,345.73348214285716,718.2,338.93660714285716,299.73348214285716,822.8,198.93660714285716,197.73348214285716,923.3,178.93660714285716,173.73348214285716,1024,188.93660714285716,179.73348214285716,1127.5,548.9366071428572,385.73348214285716,1228.5,574.9366071428572,395.73348214285716,1333.5,574.9366071428572,395.73348214285716,1437.6,574.9366071428572,395.73348214285716,1537.9,574.9366071428572,395.73348214285716,1638.7,574.9366071428572,395.73348214285716,1742.6,574.9366071428572,395.73348214285716,1843.3,574.9366071428572,395.73348214285716,1943.5,574.9366071428572,395.73348214285716,2047.7,574.9366071428572,395.73348214285716,2148.4,574.9366071428572,395.73348214285716,2253,574.9366071428572,395.73348214285716,2357.9,574.9366071428572,395.73348214285716,2458.4,574.9366071428572,395.73348214285716,2558.6,574.9366071428572,395.73348214285716,2663.3,574.9366071428572,395.73348214285716,2768.1,574.9366071428572,395.73348214285716,2872.6,574.9366071428572,395.73348214285716,2973.2,574.9366071428572,395.73348214285716,3073.2,574.9366071428572,395.73348214285716,3178.1,574.9366071428572,395.73348214285716,3282.9,574.9366071428572,395.73348214285716,3388.4,574.9366071428572,395.73348214285716,3493.2,574.9366071428572,395.73348214285716,3593.5,574.9366071428572,395.73348214285716,3697.5,574.9366071428572,395.73348214285716,3798.2,574.9366071428572,395.73348214285716,3908.6,574.9366071428572,395.73348214285716,4011.2,574.9366071428572,395.73348214285716,4113.3,574.9366071428572,395.73348214285716,4218,574.9366071428572,395.73348214285716,4318,574.9366071428572,395.73348214285716,4418.1,574.9366071428572,395.73348214285716,4518.5,574.9366071428572,395.73348214285716,4623.3,574.9366071428572,395.73348214285716,4723.3,574.9366071428572,395.73348214285716,4823.6,574.9366071428572,395.73348214285716,4927.5]","[4820.1,4820.1,2439.9,2000.3,379.9,""smooth"",""up"",""up"",""good_move"",7036.8,2216.5,1871.7,4820.3,344.8,""smooth"",""up"",""up"",""good_move"",9509.2,2472.4,2162.3,7036.9,310.1,""smooth"",""left"",""left"",""good_move"",12009.3,2499.8,2186.9,9509.5,312.9,""oops"",""left"",""up"",""good_move"",14927.7,2918.1,2645.4,12009.6,272.7,""smooth"",""left"",""left"",""good_move"",17347.4,2419.5,2145.9,14927.9,273.6,""smooth"",""left"",""left"",""good_move""]"
"2413","","<div style=""width:500px;"">
  <p>What determined the result of this run?</p>
  </div>","23","html-slider-response","74","793360","0.0-7.0-1.12","18","1","2025-07-30 08:39:03","36c45c0696341be0efffe67d72a12abb","118.93.124.120","Mozilla/5.0 (Macintosh; Intel Mac OS X 10_15_7) AppleWebKit/537.36 (KHTML, like Gecko) Chrome/138.0.0.0 Safari/537.36","Macintosh","Chrome","138.0.0.0","OS X","10_15_7","https://app.prolific.com/","en-GB,en-US;q=0.9,en;q=0.8","646a16e2aae07a0225cdb635","687a19d2168e237449fb8af4","6889da081dd1e1f46568dd18","0","646a16e2aae07a0225cdb635","0","2025-07-30T08:52:20.414Z","","","","AttribQ","","","","","","","","","","","50","","","","","","","","","","","","","","","","","","","","","","","","","","",""
"2200","","<div style=""width:500px;"">
  <p>How much control did you have over the ball?</p>
  </div>","97","html-slider-response","75","795561","0.0-7.0-2.12","18","1","2025-07-30 08:39:03","36c45c0696341be0efffe67d72a12abb","118.93.124.120","Mozilla/5.0 (Macintosh; Intel Mac OS X 10_15_7) AppleWebKit/537.36 (KHTML, like Gecko) Chrome/138.0.0.0 Safari/537.36","Macintosh","Chrome","138.0.0.0","OS X","10_15_7","https://app.prolific.com/","en-GB,en-US;q=0.9,en;q=0.8","646a16e2aae07a0225cdb635","687a19d2168e237449fb8af4","6889da081dd1e1f46568dd18","0","646a16e2aae07a0225cdb635","0","2025-07-30T08:52:22.615Z","","","","ControlQ","","","","","","","","","","","50","","","","","","","","","","","","","","","","","","","","","","","","","","",""
"2966","","<div style=""width:500px;"">
