"rt","response_timestamp","stimulus","response","trial_type","trial_index","time_elapsed","internal_node_id","run_id","condition","recorded_at","source_code_version","ip","user_agent","device","browser","browser_version","platform","platform_version","referer","accept_language","PROLIFIC_PID","STUDY_ID","SESSION_ID","BATCH","prolific_id","batch","realtime","success","question_order","question_id","eventType","responses","item_order","radio_event_ids","radio_event_times","key_event_times","mouse_event_times","straightlining","zigzagging","honeypot","view_history","slider_start","which_type","canvas_config","goals_layout","control_level","trial_number","tutorial_trial_number","trial_start_time","phase1_start_time","phase2_start_time","phase3_start_time","goal_1_value","goal_1_distance","goal_2_value","goal_2_distance","goal_selected","outcome","outcome_total","participant_final_score","participant_initial_score","participant_final_score_prop","goal_choice_rt","allocated_time","allocated_time_remaining","goal_direction","counts","mouse_movements","key_presses"
"8394","1753864974127","<p style='font-size:40px;line-height:1.25'><strong>Welcome to the experiment!</strong></p><p style='font-size:1.1em;line-height:1.25'>Thank you for participanting in our experiment again! You will be asked to play the Dysfunctional Ball Game again. We will briefly recap the rules before we start.</p><p style='font-size:1.1em;line-height:1.25'>Press <strong>Next</strong> to continue.</p>","0","custom-html-button-response","0","8400","0.0-0.0","42","1","2025-07-30 08:42:45","36c45c0696341be0efffe67d72a12abb","83.233.137.59","Mozilla/5.0 (Windows NT 10.0; Win64; x64) AppleWebKit/537.36 (KHTML, like Gecko) Chrome/138.0.0.0 Safari/537.36","WebKit","Chrome","138.0.0.0","Windows","10.0","https://app.prolific.com/","en-US,en;q=0.9","647df23a62de26114fdcb29c","687a19d2168e237449fb8af4","6889d9f4b579322e9adf04dc","0","647df23a62de26114fdcb29c","0","2025-07-30T08:42:54.130Z","","","","","","","","","","","","","","","","","","","","","","","","","","","","","","","","","","","","","","","","","",""
"13785","","","","fullscreen","1","23196","0.0-1.0","42","1","2025-07-30 08:42:45","36c45c0696341be0efffe67d72a12abb","83.233.137.59","Mozilla/5.0 (Windows NT 10.0; Win64; x64) AppleWebKit/537.36 (KHTML, like Gecko) Chrome/138.0.0.0 Safari/537.36","WebKit","Chrome","138.0.0.0","Windows","10.0","https://app.prolific.com/","en-US,en;q=0.9","647df23a62de26114fdcb29c","687a19d2168e237449fb8af4","6889d9f4b579322e9adf04dc","0","647df23a62de26114fdcb29c","0","","true","","","","","","","","","","","","","","","","","","","","","","","","","","","","","","","","","","","","","","","","",""
"4923","1753864993851"," <p style='font-size:1.1em;line-height:1.25'>Thank you for closing all other tabs.</p><p style='font-size:1.1em;line-height:1.25'>We will now invite you to fill in some questionnaires, before starting the game.<br>This will take about 5 minutes.<br></p><p style='font-size:1.1em;line-height:1.25'>Press the <strong>Next</strong> button to continue.</p>","0","custom-html-button-response","2","28126","0.0-2.0","42","1","2025-07-30 08:42:45","36c45c0696341be0efffe67d72a12abb","83.233.137.59","Mozilla/5.0 (Windows NT 10.0; Win64; x64) AppleWebKit/537.36 (KHTML, like Gecko) Chrome/138.0.0.0 Safari/537.36","WebKit","Chrome","138.0.0.0","Windows","10.0","https://app.prolific.com/","en-US,en;q=0.9","647df23a62de26114fdcb29c","687a19d2168e237449fb8af4","6889d9f4b579322e9adf04dc","0","647df23a62de26114fdcb29c","0","2025-07-30T08:43:13.857Z","","","","","","","","","","","","","","","","","","","","","","","","","","","","","","","","","","","","","","","","","",""
"5450","","","{""assigned_sex"":""male""}","survey-multi-choice","3","33581","0.0-3.0-0.0","42","1","2025-07-30 08:42:45","36c45c0696341be0efffe67d72a12abb","83.233.137.59","Mozilla/5.0 (Windows NT 10.0; Win64; x64) AppleWebKit/537.36 (KHTML, like Gecko) Chrome/138.0.0.0 Safari/537.36","WebKit","Chrome","138.0.0.0","Windows","10.0","https://app.prolific.com/","en-US,en;q=0.9","647df23a62de26114fdcb29c","687a19d2168e237449fb8af4","6889d9f4b579322e9adf04dc","0","647df23a62de26114fdcb29c","0","","","[0]","0","demographics","","","","","","","","","","","","","","","","","","","","","","","","","","","","","","","","","","","","","",""
"4925","1753865004237","<p style='font-size:1.1em;line-height:1.25'>In the following, we will perform a baseline assessment. This means that we will ask you a few questions relating to your experiences over the past month.<br></p><p style='font-size:1.1em;line-height:1.25'>Press the <strong>Next</strong> button to continue.</p>","0","custom-html-button-response","4","38508","0.0-4.0-0.0","42","1","2025-07-30 08:42:45","36c45c0696341be0efffe67d72a12abb","83.233.137.59","Mozilla/5.0 (Windows NT 10.0; Win64; x64) AppleWebKit/537.36 (KHTML, like Gecko) Chrome/138.0.0.0 Safari/537.36","WebKit","Chrome","138.0.0.0","Windows","10.0","https://app.prolific.com/","en-US,en;q=0.9","647df23a62de26114fdcb29c","687a19d2168e237449fb8af4","6889d9f4b579322e9adf04dc","0","647df23a62de26114fdcb29c","0","2025-07-30T08:43:24.238Z","","","","","","","","","","","","","","","","","","","","","","","","","","","","","","","","","","","","","","","","","",""
"58585.700000047684","","","","survey-template","5","97099","0.0-4.0-1.0","42","1","2025-07-30 08:42:45","36c45c0696341be0efffe67d72a12abb","83.233.137.59","Mozilla/5.0 (Windows NT 10.0; Win64; x64) AppleWebKit/537.36 (KHTML, like Gecko) Chrome/138.0.0.0 Safari/537.36","WebKit","Chrome","138.0.0.0","Windows","10.0","https://app.prolific.com/","en-US,en;q=0.9","647df23a62de26114fdcb29c","687a19d2168e237449fb8af4","6889d9f4b579322e9adf04dc","0","647df23a62de26114fdcb29c","0","2025-07-30T08:44:22.829Z","","","","pss","{""Q01"":""0"",""Q02"":""1"",""Q03"":""2"",""Q04"":""1"",""Q05"":""2"",""Q06"":""0"",""Q07"":""0"",""Q08"":""1"",""Q09"":""1"",""Q10"":""0""}","[0,1,2,3,4,5,6,7,8,9]","[""Q01"",""Q02"",""Q03"",""Q04"",""Q05"",""Q06"",""Q07"",""Q08"",""Q08"",""Q09"",""Q10""]","[11810.299999952316,15940.700000047684,19589.299999952316,24016.200000047684,28554.200000047684,33104.39999985695,40388.59999990463,44349.09999990463,46021.89999985695,51389.200000047684,56972]","[]","[0.09999990463256836,11810.299999952316,15940.700000047684,19589.299999952316,24016.200000047684,28554.200000047684,33104.39999985695,40388.59999990463,44349.09999990463,46021.89999985695,51389.200000047684,56972,58580.700000047684]","0.3","0.7777777777777778","0","","","","","","","","","","","","","","","","","","","","","","","","","","","","",""
"3513","1753865066343","<p style='font-size:1.1em;line-height:1.25'>Thank you for your answers! Now we will ask you a few more questions relating to your feelings in the last 24 hours.<br></p><p style='font-size:1.1em;line-height:1.25'>Press the <strong>Next</strong> button to continue.</p>","0","custom-html-button-response","6","100614","0.0-4.0-2.0","42","1","2025-07-30 08:42:45","36c45c0696341be0efffe67d72a12abb","83.233.137.59","Mozilla/5.0 (Windows NT 10.0; Win64; x64) AppleWebKit/537.36 (KHTML, like Gecko) Chrome/138.0.0.0 Safari/537.36","WebKit","Chrome","138.0.0.0","Windows","10.0","https://app.prolific.com/","en-US,en;q=0.9","647df23a62de26114fdcb29c","687a19d2168e237449fb8af4","6889d9f4b579322e9adf04dc","0","647df23a62de26114fdcb29c","0","2025-07-30T08:44:26.344Z","","","","","","","","","","","","","","","","","","","","","","","","","","","","","","","","","","","","","","","","","",""
"107487.5","","","","survey-template","7","208108","0.0-4.0-3.0","42","1","2025-07-30 08:42:45","36c45c0696341be0efffe67d72a12abb","83.233.137.59","Mozilla/5.0 (Windows NT 10.0; Win64; x64) AppleWebKit/537.36 (KHTML, like Gecko) Chrome/138.0.0.0 Safari/537.36","WebKit","Chrome","138.0.0.0","Windows","10.0","https://app.prolific.com/","en-US,en;q=0.9","647df23a62de26114fdcb29c","687a19d2168e237449fb8af4","6889d9f4b579322e9adf04dc","0","647df23a62de26114fdcb29c","0","2025-07-30T08:46:13.839Z","","","","drsp","{""Q01"":""0"",""Q02"":""1"",""Q03"":""1"",""Q04"":""0"",""Q05"":""0"",""Q06"":""0"",""Q07"":""0"",""Q08"":""0"",""Q09"":""1"",""Q10"":""0"",""Q11"":""3"",""Q12"":""3"",""Q13"":""5"",""Q14"":""3"",""Q15"":""0"",""Q16"":""2"",""Q17"":""0"",""Q18"":""0"",""Q19"":""0"",""Q20"":""0"",""Q21"":""2"",""Q22"":""0""}","[0,1,2,3,4,5,6,7,8,9,10,11,12,13,14,15,16,17,18,19,20,21]","[""Q01"",""Q02"",""Q03"",""Q04"",""Q05"",""Q06"",""Q07"",""Q08"",""Q09"",""Q10"",""Q11"",""Q12"",""Q13"",""Q14"",""Q16"",""Q17"",""Q18"",""Q19"",""Q20"",""Q21"",""Q22"",""Q21"",""Q15""]","[4893.599999904633,6811.099999904633,8278.899999856949,12616.700000047684,13638.399999856949,16743,17963.5,19384.700000047684,21525.700000047684,23451.099999904633,26131.599999904633,30502.099999904633,33171.59999990463,42399.200000047684,49563.59999990463,52540.59999990463,58476.299999952316,61288.39999985695,65414.5,69312.59999990463,79954.5,83683.70000004768,101624.89999985695]","[]","[0.09999990463256836,4893.599999904633,6811.099999904633,8278.899999856949,12616.700000047684,13638.399999856949,16743,17963.5,19384.700000047684,21525.700000047684,23451.099999904633,26131.599999904633,30502.099999904633,33171.59999990463,42399.200000047684,46250.299999952316,49563.59999990463,51488.799999952316,52540.59999990463,53614.5,58476.299999952316,61288.39999985695,65414.5,69312.59999990463,79954.5,83683.70000004768,96251,101624.89999985695,107479.79999995232]","0.5909090909090909","0.19047619047619047","0","","","","","","","","","","","","","","","","","","","","","","","","","","","","",""
"15385.200000047684","","","","survey-template","8","223497","0.0-4.0-4.0","42","1","2025-07-30 08:42:45","36c45c0696341be0efffe67d72a12abb","83.233.137.59","Mozilla/5.0 (Windows NT 10.0; Win64; x64) AppleWebKit/537.36 (KHTML, like Gecko) Chrome/138.0.0.0 Safari/537.36","WebKit","Chrome","138.0.0.0","Windows","10.0","https://app.prolific.com/","en-US,en;q=0.9","647df23a62de26114fdcb29c","687a19d2168e237449fb8af4","6889d9f4b579322e9adf04dc","0","647df23a62de26114fdcb29c","0","2025-07-30T08:46:29.227Z","","","","stress","{""Q01"":""0"",""Q02"":""3"",""Q03"":""0""}","[0,1,2]","[""Q01"",""Q02"",""Q02"",""Q02"",""Q03""]","[2592.300000190735,7435.600000143051,10252.700000047684,11024.700000047684,13718.700000047684]","[]","[2592.300000190735,7435.600000143051,10252.700000047684,11024.700000047684,13718.700000047684,15383.700000047684]","0.6666666666666666","0","0","","","","","","","","","","","","","","","","","","","","","","","","","","","","",""
"37519","","","","instructions","9","261017","0.0-5.0-0.0","42","1","2025-07-30 08:42:45","36c45c0696341be0efffe67d72a12abb","83.233.137.59","Mozilla/5.0 (Windows NT 10.0; Win64; x64) AppleWebKit/537.36 (KHTML, like Gecko) Chrome/138.0.0.0 Safari/537.36","WebKit","Chrome","138.0.0.0","Windows","10.0","https://app.prolific.com/","en-US,en;q=0.9","647df23a62de26114fdcb29c","687a19d2168e237449fb8af4","6889d9f4b579322e9adf04dc","0","647df23a62de26114fdcb29c","0","","","","","","","","","","","","","","","[{""page_index"":0,""viewing_time"":37518}]","","","","","","","","","","","","","","","","","","","","","","","","","","","",""
"14906","","<p>Before you start with this game please answer the following three questions yourself. </p>
  <p>Through this game, we measure several aspects of your cognitive performance, such as reaction times, multi-tasking capabilities </p>
  <p>and the ability to assess the situation you are in.</p>
  <p></p>
  <p><b>How good do you usually are in such tasks?</b></p>","93","html-slider-response","10","275928","0.0-6.0-0.0","42","1","2025-07-30 08:42:45","36c45c0696341be0efffe67d72a12abb","83.233.137.59","Mozilla/5.0 (Windows NT 10.0; Win64; x64) AppleWebKit/537.36 (KHTML, like Gecko) Chrome/138.0.0.0 Safari/537.36","WebKit","Chrome","138.0.0.0","Windows","10.0","https://app.prolific.com/","en-US,en;q=0.9","647df23a62de26114fdcb29c","687a19d2168e237449fb8af4","6889d9f4b579322e9adf04dc","0","647df23a62de26114fdcb29c","0","2025-07-30T08:47:21.658Z","","","","PreSkillQ","","","","","","","","","","","50","","","","","","","","","","","","","","","","","","","","","","","","","","",""
"4389","","<div style=""width:500px;"">
  <p>How well do you think you will perform in this task compared to other participants?</p>
  </div>","85","html-slider-response","11","280319","0.0-6.0-1.0","42","1","2025-07-30 08:42:45","36c45c0696341be0efffe67d72a12abb","83.233.137.59","Mozilla/5.0 (Windows NT 10.0; Win64; x64) AppleWebKit/537.36 (KHTML, like Gecko) Chrome/138.0.0.0 Safari/537.36","WebKit","Chrome","138.0.0.0","Windows","10.0","https://app.prolific.com/","en-US,en;q=0.9","647df23a62de26114fdcb29c","687a19d2168e237449fb8af4","6889d9f4b579322e9adf04dc","0","647df23a62de26114fdcb29c","0","2025-07-30T08:47:26.049Z","","","","PrePerfQ","","","","","","","","","","","50","","","","","","","","","","","","","","","","","","","","","","","","","","",""
"3606","","<div style=""width:500px;"">
  <p>What best describes how you currently feel?</p>
  </div>","90","html-slider-response","12","283928","0.0-6.0-2.0","42","1","2025-07-30 08:42:45","36c45c0696341be0efffe67d72a12abb","83.233.137.59","Mozilla/5.0 (Windows NT 10.0; Win64; x64) AppleWebKit/537.36 (KHTML, like Gecko) Chrome/138.0.0.0 Safari/537.36","WebKit","Chrome","138.0.0.0","Windows","10.0","https://app.prolific.com/","en-US,en;q=0.9","647df23a62de26114fdcb29c","687a19d2168e237449fb8af4","6889d9f4b579322e9adf04dc","0","647df23a62de26114fdcb29c","0","2025-07-30T08:47:29.658Z","","","","PreMotivationQ","","","","","","","","","","","50","","","","","","","","","","","","","","","","","","","","","","","","","","",""
"","","","","ctl-task-cpt","13","310524","0.0-7.0-0.0","42","1","2025-07-30 08:42:45","36c45c0696341be0efffe67d72a12abb","83.233.137.59","Mozilla/5.0 (Windows NT 10.0; Win64; x64) AppleWebKit/537.36 (KHTML, like Gecko) Chrome/138.0.0.0 Safari/537.36","WebKit","Chrome","138.0.0.0","Windows","10.0","https://app.prolific.com/","en-US,en;q=0.9","647df23a62de26114fdcb29c","687a19d2168e237449fb8af4","6889d9f4b579322e9adf04dc","0","647df23a62de26114fdcb29c","0","2025-07-30T08:47:56.254Z","","","","","","","","","","","","","","","","win-only","2","g1:SE,g2:NW","1","1","0","286272.1","2237.9","7247.5","23589.8","1","4","8","6","2","8","7","7","0","0.05303030303030303","988.4","3000","1490","[""left"",""up""]","{""num_key_presses"":7,""num_perfect"":6,""num_errors"":1,""num_randdir"":0,""num_randdir_good_moves"":0,""num_whilered"":0,""num_whileblue"":0,""num_blue"":0,""num_good_moves"":6}","[348.14285714285717,349.04910714285717,2.2,348.14285714285717,349.04910714285717,106.5,348.14285714285717,349.04910714285717,208,348.14285714285717,349.04910714285717,308.1,348.14285714285717,349.04910714285717,409.3,285.14285714285717,294.04910714285717,513.9,169.14285714285714,182.04910714285714,614.4,141.14285714285714,139.04910714285714,719.4,111.14285714285714,117.04910714285714,822.8,71.14285714285714,72.04910714285714,928,68.14285714285714,68.04910714285714,1030.3,68.14285714285714,68.04910714285714,1133.7,68.14285714285714,68.04910714285714,1236.1,68.14285714285714,68.04910714285714,1339,68.14285714285714,68.04910714285714,1443.2,68.14285714285714,68.04910714285714,1543.9,68.14285714285714,68.04910714285714,1654.3,68.14285714285714,68.04910714285714,1759.3,68.14285714285714,68.04910714285714,1859.7,68.14285714285714,68.04910714285714,1963.1,68.14285714285714,68.04910714285714,2064.8,68.14285714285714,68.04910714285714,2168.9,68.14285714285714,68.04910714285714,2273.4,68.14285714285714,68.04910714285714,2373.7,68.14285714285714,68.04910714285714,2483.3,68.14285714285714,68.04910714285714,2584.6,68.14285714285714,68.04910714285714,2688.7,68.14285714285714,68.04910714285714,2798.4,68.14285714285714,68.04910714285714,2899.3,68.14285714285714,68.04910714285714,3007.7,68.14285714285714,68.04910714285714,3109.3,68.14285714285714,68.04910714285714,3209.6,68.14285714285714,68.04910714285714,3317.3,68.14285714285714,68.04910714285714,3418.3,68.14285714285714,68.04910714285714,3518.8,68.14285714285714,68.04910714285714,3623.2,68.14285714285714,68.04910714285714,3731,68.14285714285714,68.04910714285714,3835.2,68.14285714285714,68.04910714285714,3938.4,68.14285714285714,68.04910714285714,4040.3,68.14285714285714,68.04910714285714,4143.9,68.14285714285714,68.04910714285714,4245.5,68.14285714285714,68.04910714285714,4348.9,68.14285714285714,68.04910714285714,4453.4,68.14285714285714,68.04910714285714,4559.2,68.14285714285714,68.04910714285714,4664.6,68.14285714285714,68.04910714285714,4768.1,68.14285714285714,68.04910714285714,4873.1,68.14285714285714,68.04910714285714,4977.9]","[2180.2,2180.2,1000,0,1180.2,""smooth"",""up"",""up"",""good_move"",4968.8,2787.3,2411.3,2181.5,376,""smooth"",""up"",""up"",""good_move"",7886.1,2914.2,2550.3,4971.9,363.9,""smooth"",""up"",""up"",""good_move"",9902,2014,1696.8,7888.1,317.2,""smooth"",""left"",""left"",""good_move"",12578.1,2674.7,2386.7,9903.5,287.9,""smooth"",""left"",""left"",""good_move"",16240,3660.8,1930,12579.2,1730.8,""smooth"",""left"",""left"",""good_move"",16242.3,0.8,2338,16241.6,-2337.3,""error"",""-"",""-"",""no_move""]"
"3314","","<div style=""width:500px;"">
  <p>What determined the result of this run?</p>
  </div>","76","html-slider-response","14","313839","0.0-7.0-1.0","42","1","2025-07-30 08:42:45","36c45c0696341be0efffe67d72a12abb","83.233.137.59","Mozilla/5.0 (Windows NT 10.0; Win64; x64) AppleWebKit/537.36 (KHTML, like Gecko) Chrome/138.0.0.0 Safari/537.36","WebKit","Chrome","138.0.0.0","Windows","10.0","https://app.prolific.com/","en-US,en;q=0.9","647df23a62de26114fdcb29c","687a19d2168e237449fb8af4","6889d9f4b579322e9adf04dc","0","647df23a62de26114fdcb29c","0","2025-07-30T08:47:59.569Z","","","","AttribQ","","","","","","","","","","","50","","","","","","","","","","","","","","","","","","","","","","","","","","",""
"2720","","<div style=""width:500px;"">
  <p>How much control did you have over the ball?</p>
  </div>","96","html-slider-response","15","316560","0.0-7.0-2.0","42","1","2025-07-30 08:42:45","36c45c0696341be0efffe67d72a12abb","83.233.137.59","Mozilla/5.0 (Windows NT 10.0; Win64; x64) AppleWebKit/537.36 (KHTML, like Gecko) Chrome/138.0.0.0 Safari/537.36","WebKit","Chrome","138.0.0.0","Windows","10.0","https://app.prolific.com/","en-US,en;q=0.9","647df23a62de26114fdcb29c","687a19d2168e237449fb8af4","6889d9f4b579322e9adf04dc","0","647df23a62de26114fdcb29c","0","2025-07-30T08:48:02.291Z","","","","ControlQ","","","","","","","","","","","50","","","","","","","","","","","","","","","","","","","","","","","","","","",""
"3324","","<div style=""width:500px;"">
  <p>How would you describe your current emotional state?</p>
  </div>","31","html-slider-response","16","319886","0.0-7.0-3.0","42","1","2025-07-30 08:42:45","36c45c0696341be0efffe67d72a12abb","83.233.137.59","Mozilla/5.0 (Windows NT 10.0; Win64; x64) AppleWebKit/537.36 (KHTML, like Gecko) Chrome/138.0.0.0 Safari/537.36","WebKit","Chrome","138.0.0.0","Windows","10.0","https://app.prolific.com/","en-US,en;q=0.9","647df23a62de26114fdcb29c","687a19d2168e237449fb8af4","6889d9f4b579322e9adf04dc","0","647df23a62de26114fdcb29c","0","2025-07-30T08:48:05.616Z","","","","StressQ","","","","","","","","","","","50","","","","","","","","","","","","","","","","","","","","","","","","","","",""
"3463","","<div style=""width:500px;"">
  <p>What best describes how you currently feel?</p>
  </div>","100","html-slider-response","17","323351","0.0-7.0-4.0","42","1","2025-07-30 08:42:45","36c45c0696341be0efffe67d72a12abb","83.233.137.59","Mozilla/5.0 (Windows NT 10.0; Win64; x64) AppleWebKit/537.36 (KHTML, like Gecko) Chrome/138.0.0.0 Safari/537.36","WebKit","Chrome","138.0.0.0","Windows","10.0","https://app.prolific.com/","en-US,en;q=0.9","647df23a62de26114fdcb29c","687a19d2168e237449fb8af4","6889d9f4b579322e9adf04dc","0","647df23a62de26114fdcb29c","0","2025-07-30T08:48:09.082Z","","","","MotivationQ","","","","","","","","","","","50","","","","","","","","","","","","","","","","","","","","","","","","","","",""
"","","","","ctl-task-cpt","18","369749","0.0-7.0-0.1","42","1","2025-07-30 08:42:45","36c45c0696341be0efffe67d72a12abb","83.233.137.59","Mozilla/5.0 (Windows NT 10.0; Win64; x64) AppleWebKit/537.36 (KHTML, like Gecko) Chrome/138.0.0.0 Safari/537.36","WebKit","Chrome","138.0.0.0","Windows","10.0","https://app.prolific.com/","en-US,en;q=0.9","647df23a62de26114fdcb29c","687a19d2168e237449fb8af4","6889d9f4b579322e9adf04dc","0","647df23a62de26114fdcb29c","0","2025-07-30T08:48:55.479Z","","","","","","","","","","","","","","","","win-only","1","g1:NE,g2:SW","0.9","2","0","325693.9","3075.3","8077.1","43391.5","1","4","4","6","2","4","4","11","7","0.08333333333333333","1130.9","3000","445","[""down"",""left""]","{""num_key_presses"":8,""num_perfect"":7,""num_errors"":0,""num_randdir"":1,""num_randdir_good_moves"":0,""num_whilered"":0,""num_whileblue"":0,""num_blue"":4,""num_good_moves"":7}","[347.14285714285717,349.04910714285717,1.2,347.14285714285717,349.04910714285717,101.1,347.14285714285717,349.04910714285717,201.4,347.14285714285717,349.04910714285717,308.2,347.14285714285717,349.04910714285717,413,347.14285714285717,349.04910714285717,515.9,279.14285714285717,393.04910714285717,618.7,143.14285714285714,532.0491071428571,724.8,108.14285714285714,573.0491071428571,836.2,101.14285714285714,586.0491071428571,953.1,72.14285714285714,615.0491071428571,1054.7,71.14285714285714,624.0491071428571,1160.6,71.14285714285714,624.0491071428571,1260.8,71.14285714285714,624.0491071428571,1367.3,81.14285714285714,618.0491071428571,1476.8,365.14285714285717,518.0491071428571,1595.4,598.1428571428571,444.04910714285717,1704.4,647.1428571428571,422.04910714285717,1804.6,650.1428571428571,416.04910714285717,1906.7,650.1428571428571,413.04910714285717,2010.9,650.1428571428571,411.04910714285717,2111,650.1428571428571,411.04910714285717,2212,650.1428571428571,411.04910714285717,2312.5,650.1428571428571,411.04910714285717,2420.5,650.1428571428571,411.04910714285717,2522,650.1428571428571,411.04910714285717,2625.2,650.1428571428571,411.04910714285717,2725.8,650.1428571428571,411.04910714285717,2825.9,650.1428571428571,411.04910714285717,2926.5,650.1428571428571,411.04910714285717,3035.3,650.1428571428571,411.04910714285717,3142.3,650.1428571428571,411.04910714285717,3246.4,650.1428571428571,411.04910714285717,3354.1,650.1428571428571,411.04910714285717,3456.5,650.1428571428571,411.04910714285717,3558.3,650.1428571428571,411.04910714285717,3662,650.1428571428571,410.04910714285717,3767.2,650.1428571428571,410.04910714285717,3870.6,650.1428571428571,410.04910714285717,3971.2,650.1428571428571,410.04910714285717,4072,650.1428571428571,410.04910714285717,4175.9,650.1428571428571,410.04910714285717,4282.2,650.1428571428571,410.04910714285717,4389.3,650.1428571428571,410.04910714285717,4490.8,650.1428571428571,410.04910714285717,4595,650.1428571428571,410.04910714285717,4701.3,650.1428571428571,410.04910714285717,4805.8,650.1428571428571,410.04910714285717,4906.1]","[4674.7,4674.7,2327.9,2008.1,338.7,""smooth"",""down"",""down"",""good_move"",11059.8,6383.6,2506.1,8144.7,409,""smooth"",""down"",""down"",""good_move"",13806,2745.4,2296.7,11060.6,448.7,""smooth"",""down"",""down"",""good_move"",16599.5,2792.3,2423.8,13807.2,368.5,""smooth"",""left"",""left"",""good_move"",22702.5,6101.6,2813.8,19463.8,424.9,""oops"",""left"",""right"",""bad_move"",25492.8,2789.3,2444.6,22703.5,344.7,""smooth"",""left"",""left"",""good_move"",28906.5,3411.8,3092,25494.7,319.8,""smooth"",""left"",""left"",""good_move"",35207.7,6298.6,2426.1,32441.9,339.7,""smooth"",""left"",""left"",""good_move""]"
"4082","","<div style=""width:500px;"">
  <p>What determined the result of this run?</p>
  </div>","86","html-slider-response","19","373833","0.0-7.0-1.1","42","1","2025-07-30 08:42:45","36c45c0696341be0efffe67d72a12abb","83.233.137.59","Mozilla/5.0 (Windows NT 10.0; Win64; x64) AppleWebKit/537.36 (KHTML, like Gecko) Chrome/138.0.0.0 Safari/537.36","WebKit","Chrome","138.0.0.0","Windows","10.0","https://app.prolific.com/","en-US,en;q=0.9","647df23a62de26114fdcb29c","687a19d2168e237449fb8af4","6889d9f4b579322e9adf04dc","0","647df23a62de26114fdcb29c","0","2025-07-30T08:48:59.563Z","","","","AttribQ","","","","","","","","","","","50","","","","","","","","","","","","","","","","","","","","","","","","","","",""
"3178","","<div style=""width:500px;"">
  <p>How much control did you have over the ball?</p>
  </div>","83","html-slider-response","20","377013","0.0-7.0-2.1","42","1","2025-07-30 08:42:45","36c45c0696341be0efffe67d72a12abb","83.233.137.59","Mozilla/5.0 (Windows NT 10.0; Win64; x64) AppleWebKit/537.36 (KHTML, like Gecko) Chrome/138.0.0.0 Safari/537.36","WebKit","Chrome","138.0.0.0","Windows","10.0","https://app.prolific.com/","en-US,en;q=0.9","647df23a62de26114fdcb29c","687a19d2168e237449fb8af4","6889d9f4b579322e9adf04dc","0","647df23a62de26114fdcb29c","0","2025-07-30T08:49:02.743Z","","","","ControlQ","","","","","","","","","","","50","","","","","","","","","","","","","","","","","","","","","","","","","","",""
"7134","","<div style=""width:500px;"">
  <p>How would you describe your current emotional state?</p>
  </div>","64","html-slider-response","21","384149","0.0-7.0-3.1","42","1","2025-07-30 08:42:45","36c45c0696341be0efffe67d72a12abb","83.233.137.59","Mozilla/5.0 (Windows NT 10.0; Win64; x64) AppleWebKit/537.36 (KHTML, like Gecko) Chrome/138.0.0.0 Safari/537.36","WebKit","Chrome","138.0.0.0","Windows","10.0","https://app.prolific.com/","en-US,en;q=0.9","647df23a62de26114fdcb29c","687a19d2168e237449fb8af4","6889d9f4b579322e9adf04dc","0","647df23a62de26114fdcb29c","0","2025-07-30T08:49:09.879Z","","","","StressQ","","","","","","","","","","","50","","","","","","","","","","","","","","","","","","","","","","","","","","",""
"2497","","<div style=""width:500px;"">
  <p>What best describes how you currently feel?</p>
  </div>","100","html-slider-response","22","386648","0.0-7.0-4.1","42","1","2025-07-30 08:42:45","36c45c0696341be0efffe67d72a12abb","83.233.137.59","Mozilla/5.0 (Windows NT 10.0; Win64; x64) AppleWebKit/537.36 (KHTML, like Gecko) Chrome/138.0.0.0 Safari/537.36","WebKit","Chrome","138.0.0.0","Windows","10.0","https://app.prolific.com/","en-US,en;q=0.9","647df23a62de26114fdcb29c","687a19d2168e237449fb8af4","6889d9f4b579322e9adf04dc","0","647df23a62de26114fdcb29c","0","2025-07-30T08:49:12.378Z","","","","MotivationQ","","","","","","","","","","","50","","","","","","","","","","","","","","","","","","","","","","","","","","",""
"","","","","ctl-task-cpt","23","417634","0.0-7.0-0.2","42","1","2025-07-30 08:42:45","36c45c0696341be0efffe67d72a12abb","83.233.137.59","Mozilla/5.0 (Windows NT 10.0; Win64; x64) AppleWebKit/537.36 (KHTML, like Gecko) Chrome/138.0.0.0 Safari/537.36","WebKit","Chrome","138.0.0.0","Windows","10.0","https://app.prolific.com/","en-US,en;q=0.9","647df23a62de26114fdcb29c","687a19d2168e237449fb8af4","6889d9f4b579322e9adf04dc","0","647df23a62de26114fdcb29c","0","2025-07-30T08:49:43.364Z","","","","","","","","","","","","","","","","win-only","3","g1:SW,g2:NE","0.8","3","0","388994.3","1535.2","6548.4","27972.2","1","4","8","6","2","8","8","19","11","0.14393939393939395","924.8","3000","1540","[""up"",""right""]","{""num_key_presses"":6,""num_perfect"":6,""num_errors"":0,""num_randdir"":0,""num_randdir_good_moves"":0,""num_whilered"":0,""num_whileblue"":0,""num_blue"":1,""num_good_moves"":6}","[352.14285714285717,348.04910714285717,0.8,352.14285714285717,348.04910714285717,105.5,352.14285714285717,348.04910714285717,208.3,352.14285714285717,348.04910714285717,311.3,377.14285714285717,300.04910714285717,422.1,555.1428571428571,114.04910714285714,524.7,598.1428571428571,82.04910714285714,632.5,599.1428571428571,81.04910714285714,734.3,623.1428571428571,68.04910714285714,837.7,636.1428571428571,64.04910714285714,938.3,636.1428571428571,64.04910714285714,1038.6,636.1428571428571,64.04910714285714,1141.3,636.1428571428571,64.04910714285714,1241.8,636.1428571428571,64.04910714285714,1349.2,636.1428571428571,64.04910714285714,1456.3,636.1428571428571,64.04910714285714,1564.9,636.1428571428571,64.04910714285714,1669.2,636.1428571428571,64.04910714285714,1771.3,636.1428571428571,64.04910714285714,1877.9,636.1428571428571,64.04910714285714,1987.7,636.1428571428571,64.04910714285714,2091.1,636.1428571428571,64.04910714285714,2204.8,636.1428571428571,64.04910714285714,2305.9,636.1428571428571,64.04910714285714,2405.9,636.1428571428571,64.04910714285714,2515.6,636.1428571428571,64.04910714285714,2618.5,636.1428571428571,64.04910714285714,2719,636.1428571428571,64.04910714285714,2821.1,636.1428571428571,64.04910714285714,2921.3,636.1428571428571,64.04910714285714,3028.7,636.1428571428571,64.04910714285714,3131.6,636.1428571428571,64.04910714285714,3232.5,636.1428571428571,64.04910714285714,3337.3,636.1428571428571,64.04910714285714,3443.4,636.1428571428571,64.04910714285714,3550.9,636.1428571428571,64.04910714285714,3654,636.1428571428571,64.04910714285714,3763.4,636.1428571428571,64.04910714285714,3866.4,636.1428571428571,64.04910714285714,3971.1,636.1428571428571,64.04910714285714,4082,636.1428571428571,64.04910714285714,4182,636.1428571428571,64.04910714285714,4282,636.1428571428571,64.04910714285714,4384.1,636.1428571428571,64.04910714285714,4486.2,636.1428571428571,64.04910714285714,4588.9,636.1428571428571,64.04910714285714,4691.6,636.1428571428571,64.04910714285714,4796.9,636.1428571428571,64.04910714285714,4897.9]","[1323.9,1323.9,1000,0,323.9,""smooth"",""up"",""up"",""good_move"",3737.1,2411.4,2080.5,1325.7,330.9,""smooth"",""up"",""up"",""good_move"",6806.9,3066.5,2764,3740.5,302.5,""smooth"",""up"",""up"",""good_move"",9847.1,3037.9,2740.7,6809.3,297.2,""smooth"",""right"",""right"",""good_move"",17373.2,7523,3249,13785.2,339,""smooth"",""right"",""right"",""good_move"",21289.6,3914.9,3536.1,17374.9,378.7,""smooth"",""right"",""right"",""good_move""]"
"2744","","<div style=""width:500px;"">
  <p>What determined the result of this run?</p>
  </div>","100","html-slider-response","24","420381","0.0-7.0-1.2","42","1","2025-07-30 08:42:45","36c45c0696341be0efffe67d72a12abb","83.233.137.59","Mozilla/5.0 (Windows NT 10.0; Win64; x64) AppleWebKit/537.36 (KHTML, like Gecko) Chrome/138.0.0.0 Safari/537.36","WebKit","Chrome","138.0.0.0","Windows","10.0","https://app.prolific.com/","en-US,en;q=0.9","647df23a62de26114fdcb29c","687a19d2168e237449fb8af4","6889d9f4b579322e9adf04dc","0","647df23a62de26114fdcb29c","0","2025-07-30T08:49:46.112Z","","","","AttribQ","","","","","","","","","","","50","","","","","","","","","","","","","","","","","","","","","","","","","","",""
"2131","","<div style=""width:500px;"">
  <p>How much control did you have over the ball?</p>
  </div>","100","html-slider-response","25","422517","0.0-7.0-2.2","42","1","2025-07-30 08:42:45","36c45c0696341be0efffe67d72a12abb","83.233.137.59","Mozilla/5.0 (Windows NT 10.0; Win64; x64) AppleWebKit/537.36 (KHTML, like Gecko) Chrome/138.0.0.0 Safari/537.36","WebKit","Chrome","138.0.0.0","Windows","10.0","https://app.prolific.com/","en-US,en;q=0.9","647df23a62de26114fdcb29c","687a19d2168e237449fb8af4","6889d9f4b579322e9adf04dc","0","647df23a62de26114fdcb29c","0","2025-07-30T08:49:48.247Z","","","","ControlQ","","","","","","","","","","","50","","","","","","","","","","","","","","","","","","","","","","","","","","",""
"5176","","<div style=""width:500px;"">
  <p>How would you describe your current emotional state?</p>
  </div>","38","html-slider-response","26","427695","0.0-7.0-3.2","42","1","2025-07-30 08:42:45","36c45c0696341be0efffe67d72a12abb","83.233.137.59","Mozilla/5.0 (Windows NT 10.0; Win64; x64) AppleWebKit/537.36 (KHTML, like Gecko) Chrome/138.0.0.0 Safari/537.36","WebKit","Chrome","138.0.0.0","Windows","10.0","https://app.prolific.com/","en-US,en;q=0.9","647df23a62de26114fdcb29c","687a19d2168e237449fb8af4","6889d9f4b579322e9adf04dc","0","647df23a62de26114fdcb29c","0","2025-07-30T08:49:53.425Z","","","","StressQ","","","","","","","","","","","50","","","","","","","","","","","","","","","","","","","","","","","","","","",""
"2271","","<div style=""width:500px;"">
  <p>What best describes how you currently feel?</p>
  </div>","100","html-slider-response","27","429968","0.0-7.0-4.2","42","1","2025-07-30 08:42:45","36c45c0696341be0efffe67d72a12abb","83.233.137.59","Mozilla/5.0 (Windows NT 10.0; Win64; x64) AppleWebKit/537.36 (KHTML, like Gecko) Chrome/138.0.0.0 Safari/537.36","WebKit","Chrome","138.0.0.0","Windows","10.0","https://app.prolific.com/","en-US,en;q=0.9","647df23a62de26114fdcb29c","687a19d2168e237449fb8af4","6889d9f4b579322e9adf04dc","0","647df23a62de26114fdcb29c","0","2025-07-30T08:49:55.698Z","","","","MotivationQ","","","","","","","","","","","50","","","","","","","","","","","","","","","","","","","","","","","","","","",""
"","","","","ctl-task-cpt","28","460801","0.0-7.0-0.3","42","1","2025-07-30 08:42:45","36c45c0696341be0efffe67d72a12abb","83.233.137.59","Mozilla/5.0 (Windows NT 10.0; Win64; x64) AppleWebKit/537.36 (KHTML, like Gecko) Chrome/138.0.0.0 Safari/537.36","WebKit","Chrome","138.0.0.0","Windows","10.0","https://app.prolific.com/","en-US,en;q=0.9","647df23a62de26114fdcb29c","687a19d2168e237449fb8af4","6889d9f4b579322e9adf04dc","0","647df23a62de26114fdcb29c","0","2025-07-30T08:50:26.532Z","","","","","","","","","","","","","","","","win-only","1","g1:NE,g2:SW","0.7","4","0","432311.2","1451.9","6457","27819.9","1","4","4","6","2","4","4","23","19","0.17424242424242425","1046.5","3000","1000","[""down"",""left""]","{""num_key_presses"":8,""num_perfect"":6,""num_errors"":0,""num_randdir"":2,""num_randdir_good_moves"":1,""num_whilered"":0,""num_whileblue"":0,""num_blue"":0,""num_good_moves"":7}","[349.14285714285717,351.04910714285717,1.9,349.14285714285717,351.04910714285717,116.5,349.14285714285717,351.04910714285717,221.2,349.14285714285717,351.04910714285717,333.1,349.14285714285717,351.04910714285717,435.9,198.14285714285714,456.04910714285717,542.9,67.14285714285714,555.0491071428571,647.5,58.142857142857146,586.0491071428571,760.8,57.142857142857146,600.0491071428571,864.9,68.14285714285714,614.0491071428571,966.9,68.14285714285714,615.0491071428571,1079.8,68.14285714285714,615.0491071428571,1183,70.14285714285714,614.0491071428571,1286,233.14285714285714,548.0491071428571,1386.8,988.1428571428571,409.04910714285717,1488.1,1002.1428571428571,409.04910714285717,1592.4,1002.1428571428571,409.04910714285717,1696.4,1002.1428571428571,409.04910714285717,1798.4,1002.1428571428571,409.04910714285717,1903.3,1002.1428571428571,409.04910714285717,2008,1002.1428571428571,409.04910714285717,2117.3,1002.1428571428571,409.04910714285717,2223,1002.1428571428571,409.04910714285717,2326.3,1002.1428571428571,409.04910714285717,2427.8,1002.1428571428571,409.04910714285717,2529.9,1002.1428571428571,409.04910714285717,2632.4,1002.1428571428571,409.04910714285717,2739.1,1002.1428571428571,409.04910714285717,2845.2,1002.1428571428571,409.04910714285717,2951.6,1002.1428571428571,409.04910714285717,3058.4,1002.1428571428571,409.04910714285717,3165.7,1002.1428571428571,409.04910714285717,3272.1,1002.1428571428571,409.04910714285717,3379,1002.1428571428571,409.04910714285717,3488.7,1002.1428571428571,409.04910714285717,3591,1002.1428571428571,409.04910714285717,3691.5,1002.1428571428571,409.04910714285717,3794.7,1002.1428571428571,409.04910714285717,3906.1,1002.1428571428571,409.04910714285717,4009.6,1002.1428571428571,409.04910714285717,4125.1,1002.1428571428571,409.04910714285717,4225.1,1002.1428571428571,409.04910714285717,4325.4,1002.1428571428571,409.04910714285717,4429.6,1002.1428571428571,409.04910714285717,4530.5,1002.1428571428571,409.04910714285717,4635.5,1002.1428571428571,409.04910714285717,4738.2,1002.1428571428571,409.04910714285717,4840.4,1002.1428571428571,409.04910714285717,4945.3]","[1343.8,1343.8,1000,0,343.8,""smooth"",""down"",""down"",""good_move"",3682.2,2337.1,1947.2,1345.1,389.9,""oops"",""down"",""up"",""bad_move"",6971.4,3287.2,2853.6,3684.2,433.6,""smooth"",""down"",""down"",""good_move"",8927.6,1954.6,1553.6,6975.1,398.9,""oops"",""down"",""down"",""good_move"",11921.6,2991.5,2618.7,8930.1,372.8,""smooth"",""down"",""down"",""good_move"",15263.3,3339,3003.7,11924.3,335.3,""smooth"",""left"",""left"",""good_move"",18362.3,3095.7,2742.1,15266.6,353.6,""smooth"",""left"",""left"",""good_move"",21240,2876.3,2522.6,18363.8,353.6,""smooth"",""left"",""left"",""good_move""]"
"3028","","<div style=""width:500px;"">
  <p>What determined the result of this run?</p>
  </div>","83","html-slider-response","29","463833","0.0-7.0-1.3","42","1","2025-07-30 08:42:45","36c45c0696341be0efffe67d72a12abb","83.233.137.59","Mozilla/5.0 (Windows NT 10.0; Win64; x64) AppleWebKit/537.36 (KHTML, like Gecko) Chrome/138.0.0.0 Safari/537.36","WebKit","Chrome","138.0.0.0","Windows","10.0","https://app.prolific.com/","en-US,en;q=0.9","647df23a62de26114fdcb29c","687a19d2168e237449fb8af4","6889d9f4b579322e9adf04dc","0","647df23a62de26114fdcb29c","0","2025-07-30T08:50:29.563Z","","","","AttribQ","","","","","","","","","","","50","","","","","","","","","","","","","","","","","","","","","","","","","","",""
"2588","","<div style=""width:500px;"">
  <p>How much control did you have over the ball?</p>
  </div>","88","html-slider-response","30","466422","0.0-7.0-2.3","42","1","2025-07-30 08:42:45","36c45c0696341be0efffe67d72a12abb","83.233.137.59","Mozilla/5.0 (Windows NT 10.0; Win64; x64) AppleWebKit/537.36 (KHTML, like Gecko) Chrome/138.0.0.0 Safari/537.36","WebKit","Chrome","138.0.0.0","Windows","10.0","https://app.prolific.com/","en-US,en;q=0.9","647df23a62de26114fdcb29c","687a19d2168e237449fb8af4","6889d9f4b579322e9adf04dc","0","647df23a62de26114fdcb29c","0","2025-07-30T08:50:32.153Z","","","","ControlQ","","","","","","","","","","","50","","","","","","","","","","","","","","","","","","","","","","","","","","",""
"2686","","<div style=""width:500px;"">
  <p>How would you describe your current emotional state?</p>
  </div>","37","html-slider-response","31","469112","0.0-7.0-3.3","42","1","2025-07-30 08:42:45","36c45c0696341be0efffe67d72a12abb","83.233.137.59","Mozilla/5.0 (Windows NT 10.0; Win64; x64) AppleWebKit/537.36 (KHTML, like Gecko) Chrome/138.0.0.0 Safari/537.36","WebKit","Chrome","138.0.0.0","Windows","10.0","https://app.prolific.com/","en-US,en;q=0.9","647df23a62de26114fdcb29c","687a19d2168e237449fb8af4","6889d9f4b579322e9adf04dc","0","647df23a62de26114fdcb29c","0","2025-07-30T08:50:34.842Z","","","","StressQ","","","","","","","","","","","50","","","","","","","","","","","","","","","","","","","","","","","","","","",""
"2082","","<div style=""width:500px;"">
  <p>What best describes how you currently feel?</p>
  </div>","100","html-slider-response","32","471197","0.0-7.0-4.3","42","1","2025-07-30 08:42:45","36c45c0696341be0efffe67d72a12abb","83.233.137.59","Mozilla/5.0 (Windows NT 10.0; Win64; x64) AppleWebKit/537.36 (KHTML, like Gecko) Chrome/138.0.0.0 Safari/537.36","WebKit","Chrome","138.0.0.0","Windows","10.0","https://app.prolific.com/","en-US,en;q=0.9","647df23a62de26114fdcb29c","687a19d2168e237449fb8af4","6889d9f4b579322e9adf04dc","0","647df23a62de26114fdcb29c","0","2025-07-30T08:50:36.927Z","","","","MotivationQ","","","","","","","","","","","50","","","","","","","","","","","","","","","","","","","","","","","","","","",""
"","","","","ctl-task-cpt","33","558310","0.0-7.0-0.4","42","1","2025-07-30 08:42:45","36c45c0696341be0efffe67d72a12abb","83.233.137.59","Mozilla/5.0 (Windows NT 10.0; Win64; x64) AppleWebKit/537.36 (KHTML, like Gecko) Chrome/138.0.0.0 Safari/537.36","WebKit","Chrome","138.0.0.0","Windows","10.0","https://app.prolific.com/","en-US,en;q=0.9","647df23a62de26114fdcb29c","687a19d2168e237449fb8af4","6889d9f4b579322e9adf04dc","0","647df23a62de26114fdcb29c","0","2025-07-30T08:52:04.040Z","","","","","","","","","","","","","","","","win-only","1","g1:NE,g2:SW","0.6","5","0","473541.5","1374.7","6378.7","84086.6","1","4","4","6","2","-4","-7","16","23","0.12121212121212122","870.8","3000","-1750","[""down"",""left""]","{""num_key_presses"":17,""num_perfect"":7,""num_errors"":3,""num_randdir"":7,""num_randdir_good_moves"":2,""num_whilered"":0,""num_whileblue"":3,""num_blue"":11,""num_good_moves"":10}","[347.14285714285717,347.04910714285717,8.1,347.14285714285717,347.04910714285717,102.1,347.14285714285717,347.04910714285717,207.5,347.14285714285717,347.04910714285717,316.2,344.14285714285717,349.04910714285717,424.8,76.14285714285714,536.0491071428571,527.2,32.142857142857146,601.0491071428571,635.7,37.142857142857146,619.0491071428571,750.2,41.142857142857146,622.0491071428571,865.8,41.142857142857146,622.0491071428571,968.7,43.142857142857146,618.0491071428571,1072.7,306.14285714285717,523.0491071428571,1181.7,769.1428571428571,450.04910714285717,1291.7,825.1428571428571,435.04910714285717,1399.1,825.1428571428571,435.04910714285717,1501.1,825.1428571428571,435.04910714285717,1606.6,825.1428571428571,434.04910714285717,1707.8,825.1428571428571,434.04910714285717,1815.3,825.1428571428571,434.04910714285717,1917.6,825.1428571428571,434.04910714285717,2027.7,825.1428571428571,434.04910714285717,2136.3,825.1428571428571,434.04910714285717,2238,825.1428571428571,434.04910714285717,2338.7,825.1428571428571,434.04910714285717,2440,825.1428571428571,434.04910714285717,2546.3,825.1428571428571,434.04910714285717,2655.8,825.1428571428571,434.04910714285717,2764.3,825.1428571428571,434.04910714285717,2870,825.1428571428571,434.04910714285717,2970.7,825.1428571428571,434.04910714285717,3071,825.1428571428571,434.04910714285717,3178.3,825.1428571428571,434.04910714285717,3278.3,825.1428571428571,434.04910714285717,3385.9,825.1428571428571,434.04910714285717,3488.2,825.1428571428571,434.04910714285717,3590.1,825.1428571428571,434.04910714285717,3692,825.1428571428571,434.04910714285717,3798.9,825.1428571428571,434.04910714285717,3906.3,825.1428571428571,434.04910714285717,4010.5,825.1428571428571,434.04910714285717,4111.7,825.1428571428571,434.04910714285717,4214.6,825.1428571428571,434.04910714285717,4318.3,825.1428571428571,434.04910714285717,4419.1,825.1428571428571,434.04910714285717,4531.6,825.1428571428571,434.04910714285717,4632.9,825.1428571428571,434.04910714285717,4739.3,825.1428571428571,434.04910714285717,4847.5,825.1428571428571,434.04910714285717,4954.1]","[1389.7,1389.7,1000,0,389.7,""oops"",""down"",""up"",""bad_move"",7874,6482.8,2732.3,4818.4,323.3,""smooth"",""down"",""down"",""good_move"",10641.3,2766,2425.9,7875.4,340,""oops"",""down"",""left"",""good_move"",20501.1,9855.9,2606.4,17527.6,367.1,""oops"",""down"",""right"",""bad_move"",23859.2,3356,3002.2,20503.2,353.8,""smooth"",""down"",""down"",""good_move"",26634,2773.5,2418.3,23860.6,355.1,""smooth"",""down"",""down"",""good_move"",34005.1,7368.9,2799.2,30842,364,""smooth"",""down"",""down"",""good_move"",37187,3180.8,2801.3,34006.3,379.5,""smooth"",""left"",""left"",""good_move"",39433.1,2243.4,1878.4,37189.7,365,""smooth"",""left"",""left"",""good_move"",42478.3,3038.7,2697.5,39439.6,341.2,""oops"",""left"",""up"",""bad_move"",45075.8,2595.7,2255.7,42480.1,340,""oops"",""left"",""up"",""bad_move"",48424.7,3347.3,3009.9,45077.4,337.4,""smooth"",""left"",""left"",""good_move"",51436,3008.7,2748.5,48427.3,260.2,""while_blue"",""down"",""down"",""good_move"",61489.7,10051.9,2332.1,58777.4,380.2,""oops"",""down"",""right"",""bad_move"",66778.8,5287.5,1618.8,64857.7,302.3,""oops"",""down"",""left"",""good_move"",69554,2773.8,2475.9,66780.3,297.8,""while_blue"",""down"",""right"",""bad_move"",72048.8,2493.3,2146.5,69555.5,346.8,""while_blue"",""down"",""up"",""bad_move""]"
"3187","","<div style=""width:500px;"">
  <p>What determined the result of this run?</p>
  </div>","18","html-slider-response","34","561501","0.0-7.0-1.4","42","1","2025-07-30 08:42:45","36c45c0696341be0efffe67d72a12abb","83.233.137.59","Mozilla/5.0 (Windows NT 10.0; Win64; x64) AppleWebKit/537.36 (KHTML, like Gecko) Chrome/138.0.0.0 Safari/537.36","WebKit","Chrome","138.0.0.0","Windows","10.0","https://app.prolific.com/","en-US,en;q=0.9","647df23a62de26114fdcb29c","687a19d2168e237449fb8af4","6889d9f4b579322e9adf04dc","0","647df23a62de26114fdcb29c","0","2025-07-30T08:52:07.231Z","","","","AttribQ","","","","","","","","","","","50","","","","","","","","","","","","","","","","","","","","","","","","","","",""
"2331","","<div style=""width:500px;"">
  <p>How much control did you have over the ball?</p>
  </div>","31","html-slider-response","35","563835","0.0-7.0-2.4","42","1","2025-07-30 08:42:45","36c45c0696341be0efffe67d72a12abb","83.233.137.59","Mozilla/5.0 (Windows NT 10.0; Win64; x64) AppleWebKit/537.36 (KHTML, like Gecko) Chrome/138.0.0.0 Safari/537.36","WebKit","Chrome","138.0.0.0","Windows","10.0","https://app.prolific.com/","en-US,en;q=0.9","647df23a62de26114fdcb29c","687a19d2168e237449fb8af4","6889d9f4b579322e9adf04dc","0","647df23a62de26114fdcb29c","0","2025-07-30T08:52:09.565Z","","","","ControlQ","","","","","","","","","","","50","","","","","","","","","","","","","","","","","","","","","","","","","","",""
"2681","","<div style=""width:500px;"">
  <p>How would you describe your current emotional state?</p>
  </div>","81","html-slider-response","36","566519","0.0-7.0-3.4","42","1","2025-07-30 08:42:45","36c45c0696341be0efffe67d72a12abb","83.233.137.59","Mozilla/5.0 (Windows NT 10.0; Win64; x64) AppleWebKit/537.36 (KHTML, like Gecko) Chrome/138.0.0.0 Safari/537.36","WebKit","Chrome","138.0.0.0","Windows","10.0","https://app.prolific.com/","en-US,en;q=0.9","647df23a62de26114fdcb29c","687a19d2168e237449fb8af4","6889d9f4b579322e9adf04dc","0","647df23a62de26114fdcb29c","0","2025-07-30T08:52:12.249Z","","","","StressQ","","","","","","","","","","","50","","","","","","","","","","","","","","","","","","","","","","","","","","",""
"4469","","<div style=""width:500px;"">
  <p>What best describes how you currently feel?</p>
  </div>","100","html-slider-response","37","570991","0.0-7.0-4.4","42","1","2025-07-30 08:42:45","36c45c0696341be0efffe67d72a12abb","83.233.137.59","Mozilla/5.0 (Windows NT 10.0; Win64; x64) AppleWebKit/537.36 (KHTML, like Gecko) Chrome/138.0.0.0 Safari/537.36","WebKit","Chrome","138.0.0.0","Windows","10.0","https://app.prolific.com/","en-US,en;q=0.9","647df23a62de26114fdcb29c","687a19d2168e237449fb8af4","6889d9f4b579322e9adf04dc","0","647df23a62de26114fdcb29c","0","2025-07-30T08:52:16.721Z","","","","MotivationQ","","","","","","","","","","","50","","","","","","","","","","","","","","","","","","","","","","","","","","",""
"","","","","ctl-task-cpt","38","611713","0.0-7.0-0.5","42","1","2025-07-30 08:42:45","36c45c0696341be0efffe67d72a12abb","83.233.137.59","Mozilla/5.0 (Windows NT 10.0; Win64; x64) AppleWebKit/537.36 (KHTML, like Gecko) Chrome/138.0.0.0 Safari/537.36","WebKit","Chrome","138.0.0.0","Windows","10.0","https://app.prolific.com/","en-US,en;q=0.9","647df23a62de26114fdcb29c","687a19d2168e237449fb8af4","6889d9f4b579322e9adf04dc","0","647df23a62de26114fdcb29c","0","2025-07-30T08:52:57.444Z","","","","","","","","","","","","","","","","win-only","0","g1:NW,g2:SE","0.5","6","0","573336.3","1111.7","6116.4","37682.8","1","4","8","6","2","8","8","24","16","0.18181818181818182","884.6","3000","1865","[""down"",""right""]","{""num_key_presses"":6,""num_perfect"":4,""num_errors"":0,""num_randdir"":2,""num_randdir_good_moves"":2,""num_whilered"":0,""num_whileblue"":0,""num_blue"":4,""num_good_moves"":6}","[346.14285714285717,346.04910714285717,0.9,346.14285714285717,346.04910714285717,100.8,347.14285714285717,346.04910714285717,207.2,347.14285714285717,346.04910714285717,310,343.14285714285717,346.04910714285717,424.9,446.14285714285717,468.04910714285717,530.6,593.1428571428571,595.0491071428571,656,612.1428571428571,600.0491071428571,758.4,625.1428571428571,612.0491071428571,861.5,634.1428571428571,615.0491071428571,973.2,634.1428571428571,616.0491071428571,1073.5,634.1428571428571,616.0491071428571,1179.7,634.1428571428571,616.0491071428571,1280.9,634.1428571428571,616.0491071428571,1386.8,634.1428571428571,616.0491071428571,1489.8,634.1428571428571,616.0491071428571,1600.2,634.1428571428571,616.0491071428571,1706.2,634.1428571428571,616.0491071428571,1809.6,634.1428571428571,616.0491071428571,1913.4,634.1428571428571,616.0491071428571,2022.3,634.1428571428571,616.0491071428571,2131.5,634.1428571428571,616.0491071428571,2235.7,634.1428571428571,616.0491071428571,2342.9,634.1428571428571,616.0491071428571,2443.8,634.1428571428571,616.0491071428571,2544.1,634.1428571428571,616.0491071428571,2644.8,634.1428571428571,616.0491071428571,2756.8,634.1428571428571,616.0491071428571,2864.3,634.1428571428571,616.0491071428571,2964.8,634.1428571428571,616.0491071428571,3074.6,634.1428571428571,616.0491071428571,3180.2,634.1428571428571,616.0491071428571,3284.9,634.1428571428571,616.0491071428571,3386.3,634.1428571428571,616.0491071428571,3493.6,634.1428571428571,616.0491071428571,3600.2,634.1428571428571,616.0491071428571,3704.5,634.1428571428571,616.0491071428571,3809.4,634.1428571428571,616.0491071428571,3915.8,634.1428571428571,616.0491071428571,4017.9,634.1428571428571,616.0491071428571,4120.1,634.1428571428571,616.0491071428571,4224,634.1428571428571,616.0491071428571,4334.4,634.1428571428571,616.0491071428571,4444.4,634.1428571428571,616.0491071428571,4550.2,634.1428571428571,616.0491071428571,4655,634.1428571428571,616.0491071428571,4765.2,634.1428571428571,616.0491071428571,4868.8,634.1428571428571,616.0491071428571,4976.2]","[1404.4,1404.4,1000,0,404.4,""oops"",""down"",""down"",""good_move"",4663.5,3254.9,2884.1,1408.6,370.8,""smooth"",""down"",""down"",""good_move"",7806,3140.6,2732.8,4665.4,407.8,""smooth"",""down"",""down"",""good_move"",14320.3,6511.9,2782.4,11151,386.9,""oops"",""right"",""right"",""good_move"",28280.9,13956.1,2898,24976,406.9,""smooth"",""right"",""right"",""good_move"",31394,3109.9,2655.5,28284.2,454.4,""smooth"",""right"",""right"",""good_move""]"
"2894","","<div style=""width:500px;"">
  <p>What determined the result of this run?</p>
  </div>","100","html-slider-response","39","614612","0.0-7.0-1.5","42","1","2025-07-30 08:42:45","36c45c0696341be0efffe67d72a12abb","83.233.137.59","Mozilla/5.0 (Windows NT 10.0; Win64; x64) AppleWebKit/537.36 (KHTML, like Gecko) Chrome/138.0.0.0 Safari/537.36","WebKit","Chrome","138.0.0.0","Windows","10.0","https://app.prolific.com/","en-US,en;q=0.9","647df23a62de26114fdcb29c","687a19d2168e237449fb8af4","6889d9f4b579322e9adf04dc","0","647df23a62de26114fdcb29c","0","2025-07-30T08:53:00.343Z","","","","AttribQ","","","","","","","","","","","50","","","","","","","","","","","","","","","","","","","","","","","","","","",""
"2695","","<div style=""width:500px;"">
  <p>How much control did you have over the ball?</p>
  </div>","100","html-slider-response","40","617315","0.0-7.0-2.5","42","1","2025-07-30 08:42:45","36c45c0696341be0efffe67d72a12abb","83.233.137.59","Mozilla/5.0 (Windows NT 10.0; Win64; x64) AppleWebKit/537.36 (KHTML, like Gecko) Chrome/138.0.0.0 Safari/537.36","WebKit","Chrome","138.0.0.0","Windows","10.0","https://app.prolific.com/","en-US,en;q=0.9","647df23a62de26114fdcb29c","687a19d2168e237449fb8af4","6889d9f4b579322e9adf04dc","0","647df23a62de26114fdcb29c","0","2025-07-30T08:53:03.045Z","","","","ControlQ","","","","","","","","","","","50","","","","","","","","","","","","","","","","","","","","","","","","","","",""
"2341","","<div style=""width:500px;"">
  <p>How would you describe your current emotional state?</p>
  </div>","67","html-slider-response","41","619661","0.0-7.0-3.5","42","1","2025-07-30 08:42:45","36c45c0696341be0efffe67d72a12abb","83.233.137.59","Mozilla/5.0 (Windows NT 10.0; Win64; x64) AppleWebKit/537.36 (KHTML, like Gecko) Chrome/138.0.0.0 Safari/537.36","WebKit","Chrome","138.0.0.0","Windows","10.0","https://app.prolific.com/","en-US,en;q=0.9","647df23a62de26114fdcb29c","687a19d2168e237449fb8af4","6889d9f4b579322e9adf04dc","0","647df23a62de26114fdcb29c","0","2025-07-30T08:53:05.391Z","","","","StressQ","","","","","","","","","","","50","","","","","","","","","","","","","","","","","","","","","","","","","","",""
"2388","","<div style=""width:500px;"">
  <p>What best describes how you currently feel?</p>
  </div>","100","html-slider-response","42","622052","0.0-7.0-4.5","42","1","2025-07-30 08:42:45","36c45c0696341be0efffe67d72a12abb","83.233.137.59","Mozilla/5.0 (Windows NT 10.0; Win64; x64) AppleWebKit/537.36 (KHTML, like Gecko) Chrome/138.0.0.0 Safari/537.36","WebKit","Chrome","138.0.0.0","Windows","10.0","https://app.prolific.com/","en-US,en;q=0.9","647df23a62de26114fdcb29c","687a19d2168e237449fb8af4","6889d9f4b579322e9adf04dc","0","647df23a62de26114fdcb29c","0","2025-07-30T08:53:07.784Z","","","","MotivationQ","","","","","","","","","","","50","","","","","","","","","","","","","","","","","","","","","","","","","","",""
"","","","","ctl-task-cpt","43","678082","0.0-7.0-0.6","42","1","2025-07-30 08:42:45","36c45c0696341be0efffe67d72a12abb","83.233.137.59","Mozilla/5.0 (Windows NT 10.0; Win64; x64) AppleWebKit/537.36 (KHTML, like Gecko) Chrome/138.0.0.0 Safari/537.36","WebKit","Chrome","138.0.0.0","Windows","10.0","https://app.prolific.com/","en-US,en;q=0.9","647df23a62de26114fdcb29c","687a19d2168e237449fb8af4","6889d9f4b579322e9adf04dc","0","647df23a62de26114fdcb29c","0","2025-07-30T08:54:03.812Z","","","","","","","","","","","","","","","","win-only","2","g1:SE,g2:NW","0.4","7","0","624400","1237.5","6251.6","53003.3","1","4","8","6","2","8","7","31","24","0.23484848484848486","1108","3000","1560","[""left"",""up""]","{""num_key_presses"":12,""num_perfect"":5,""num_errors"":1,""num_randdir"":6,""num_randdir_good_moves"":3,""num_whilered"":0,""num_whileblue"":1,""num_blue"":4,""num_good_moves"":9}","[351.14285714285717,353.04910714285717,1,351.14285714285717,353.04910714285717,121.3,351.14285714285717,353.04910714285717,237.5,351.14285714285717,353.04910714285717,343.9,351.14285714285717,353.04910714285717,454.5,312.14285714285717,355.04910714285717,574.4,112.14285714285714,220.04910714285714,682.2,85.14285714285714,147.04910714285714,789.5,71.14285714285714,117.04910714285714,897.2,69.14285714285714,94.04910714285714,1005.8,67.14285714285714,83.04910714285714,1116.5,67.14285714285714,83.04910714285714,1222.9,67.14285714285714,82.04910714285714,1325.7,159.14285714285714,92.04910714285714,1429.2,849.1428571428571,182.04910714285714,1534.5,972.1428571428571,222.04910714285714,1642.3,972.1428571428571,222.04910714285714,1747.6,945.1428571428571,223.04910714285714,1860.6,914.1428571428571,222.04910714285714,1969.7,913.1428571428571,222.04910714285714,2086.5,913.1428571428571,222.04910714285714,2196.6,913.1428571428571,222.04910714285714,2304.1,913.1428571428571,222.04910714285714,2409.6,913.1428571428571,222.04910714285714,2515.1,913.1428571428571,222.04910714285714,2615.9,913.1428571428571,222.04910714285714,2720.5,913.1428571428571,222.04910714285714,2826.7,913.1428571428571,222.04910714285714,2932.2,913.1428571428571,222.04910714285714,3036.8,913.1428571428571,222.04910714285714,3140.6,913.1428571428571,222.04910714285714,3245.2,913.1428571428571,222.04910714285714,3347.4,913.1428571428571,222.04910714285714,3457.9,913.1428571428571,222.04910714285714,3566.4,913.1428571428571,222.04910714285714,3670.9,913.1428571428571,222.04910714285714,3776.9,913.1428571428571,222.04910714285714,3885.8,913.1428571428571,222.04910714285714,3990.1,913.1428571428571,222.04910714285714,4097.7,913.1428571428571,222.04910714285714,4201.6,913.1428571428571,222.04910714285714,4308.4,913.1428571428571,222.04910714285714,4418.3,913.1428571428571,222.04910714285714,4520.4,913.1428571428571,222.04910714285714,4621.9,913.1428571428571,222.04910714285714,4723.8,913.1428571428571,222.04910714285714,4827.7,913.1428571428571,222.04910714285714,4937.3]","[4731.2,4731.2,2351.2,2005.1,374.9,""oops"",""up"",""up"",""good_move"",7757.4,3014.4,2570.6,4743.1,443.7,""oops"",""up"",""down"",""bad_move"",10630.5,2870.4,2496.1,7760.1,374.3,""oops"",""up"",""down"",""bad_move"",13512,2879.5,2519.5,10632.5,360,""smooth"",""up"",""up"",""good_move"",16595.9,3082.6,2760.5,13513.4,322,""while_blue"",""up"",""left"",""good_move"",20376.2,3778.6,3175.2,16597.7,603.3,""oops"",""up"",""right"",""bad_move"",23441.8,3064.4,2659.3,20377.6,405.1,""oops"",""up"",""up"",""good_move"",26580.2,3136.8,2735.8,23443.4,401,""oops"",""up"",""up"",""good_move"",37805.1,11218.5,2602,34865.7,337.5,""smooth"",""left"",""left"",""good_move"",40297.5,2491.5,2121.8,37806.1,369.7,""smooth"",""up"",""up"",""good_move"",43488.6,3188.4,2787.5,40300.2,400.9,""smooth"",""left"",""left"",""good_move"",46501.4,3011.1,2652.2,43490.3,358.9,""smooth"",""left"",""left"",""good_move""]"
"2964","","<div style=""width:500px;"">
  <p>What determined the result of this run?</p>
  </div>","65","html-slider-response","44","681050","0.0-7.0-1.6","42","1","2025-07-30 08:42:45","36c45c0696341be0efffe67d72a12abb","83.233.137.59","Mozilla/5.0 (Windows NT 10.0; Win64; x64) AppleWebKit/537.36 (KHTML, like Gecko) Chrome/138.0.0.0 Safari/537.36","WebKit","Chrome","138.0.0.0","Windows","10.0","https://app.prolific.com/","en-US,en;q=0.9","647df23a62de26114fdcb29c","687a19d2168e237449fb8af4","6889d9f4b579322e9adf04dc","0","647df23a62de26114fdcb29c","0","2025-07-30T08:54:06.781Z","","","","AttribQ","","","","","","","","","","","50","","","","","","","","","","","","","","","","","","","","","","","","","","",""
"2477","","<div style=""width:500px;"">
  <p>How much control did you have over the ball?</p>
  </div>","41","html-slider-response","45","683530","0.0-7.0-2.6","42","1","2025-07-30 08:42:45","36c45c0696341be0efffe67d72a12abb","83.233.137.59","Mozilla/5.0 (Windows NT 10.0; Win64; x64) AppleWebKit/537.36 (KHTML, like Gecko) Chrome/138.0.0.0 Safari/537.36","WebKit","Chrome","138.0.0.0","Windows","10.0","https://app.prolific.com/","en-US,en;q=0.9","647df23a62de26114fdcb29c","687a19d2168e237449fb8af4","6889d9f4b579322e9adf04dc","0","647df23a62de26114fdcb29c","0","2025-07-30T08:54:09.261Z","","","","ControlQ","","","","","","","","","","","50","","","","","","","","","","","","","","","","","","","","","","","","","","",""
"2706","","<div style=""width:500px;"">
  <p>How would you describe your current emotional state?</p>
  </div>","76","html-slider-response","46","686239","0.0-7.0-3.6","42","1","2025-07-30 08:42:45","36c45c0696341be0efffe67d72a12abb","83.233.137.59","Mozilla/5.0 (Windows NT 10.0; Win64; x64) AppleWebKit/537.36 (KHTML, like Gecko) Chrome/138.0.0.0 Safari/537.36","WebKit","Chrome","138.0.0.0","Windows","10.0","https://app.prolific.com/","en-US,en;q=0.9","647df23a62de26114fdcb29c","687a19d2168e237449fb8af4","6889d9f4b579322e9adf04dc","0","647df23a62de26114fdcb29c","0","2025-07-30T08:54:11.969Z","","","","StressQ","","","","","","","","","","","50","","","","","","","","","","","","","","","","","","","","","","","","","","",""
"2383","","<div style=""width:500px;"">
  <p>What best describes how you currently feel?</p>
  </div>","100","html-slider-response","47","688626","0.0-7.0-4.6","42","1","2025-07-30 08:42:45","36c45c0696341be0efffe67d72a12abb","83.233.137.59","Mozilla/5.0 (Windows NT 10.0; Win64; x64) AppleWebKit/537.36 (KHTML, like Gecko) Chrome/138.0.0.0 Safari/537.36","WebKit","Chrome","138.0.0.0","Windows","10.0","https://app.prolific.com/","en-US,en;q=0.9","647df23a62de26114fdcb29c","687a19d2168e237449fb8af4","6889d9f4b579322e9adf04dc","0","647df23a62de26114fdcb29c","0","2025-07-30T08:54:14.356Z","","","","MotivationQ","","","","","","","","","","","50","","","","","","","","","","","","","","","","","","","","","","","","","","",""
"","","","","ctl-task-cpt","48","746124","0.0-7.0-0.7","42","1","2025-07-30 08:42:45","36c45c0696341be0efffe67d72a12abb","83.233.137.59","Mozilla/5.0 (Windows NT 10.0; Win64; x64) AppleWebKit/537.36 (KHTML, like Gecko) Chrome/138.0.0.0 Safari/537.36","WebKit","Chrome","138.0.0.0","Windows","10.0","https://app.prolific.com/","en-US,en;q=0.9","647df23a62de26114fdcb29c","687a19d2168e237449fb8af4","6889d9f4b579322e9adf04dc","0","647df23a62de26114fdcb29c","0","2025-07-30T08:55:11.854Z","","","","","","","","","","","","","","","","win-only","0","g1:NW,g2:SE","0.3","8","0","690974.5","1208.1","6223.8","54474.6","1","4","4","6","2","4","4","35","31","0.26515151515151514","980.7","3000","1710","[""down"",""right""]","{""num_key_presses"":12,""num_perfect"":3,""num_errors"":0,""num_randdir"":9,""num_randdir_good_moves"":6,""num_whilered"":0,""num_whileblue"":0,""num_blue"":4,""num_good_moves"":9}","[352.14285714285717,341.04910714285717,2.3,352.14285714285717,341.04910714285717,100.9,352.14285714285717,341.04910714285717,203.8,352.14285714285717,341.04910714285717,304,352.14285714285717,341.04910714285717,419.8,444.14285714285717,454.04910714285717,536.6,565.1428571428571,577.0491071428571,659.9,593.1428571428571,588.0491071428571,787.3,632.1428571428571,612.0491071428571,889.6,655.1428571428571,623.0491071428571,1001.7,656.1428571428571,624.0491071428571,1109.3,661.1428571428571,616.0491071428571,1227,902.1428571428571,511.04910714285717,1336.4,984.1428571428571,499.04910714285717,1443.4,985.1428571428571,498.04910714285717,1554.6,985.1428571428571,498.04910714285717,1669.3,985.1428571428571,498.04910714285717,1776,985.1428571428571,498.04910714285717,1892.7,985.1428571428571,498.04910714285717,2005.2,985.1428571428571,498.04910714285717,2114.9,985.1428571428571,498.04910714285717,2232.8,985.1428571428571,498.04910714285717,2342.9,985.1428571428571,498.04910714285717,2450.4,985.1428571428571,498.04910714285717,2553.5,985.1428571428571,498.04910714285717,2660.6,985.1428571428571,498.04910714285717,2763.3,985.1428571428571,498.04910714285717,2865.4,985.1428571428571,498.04910714285717,2979,985.1428571428571,498.04910714285717,3080.2,985.1428571428571,498.04910714285717,3183.8,985.1428571428571,498.04910714285717,3284.9,985.1428571428571,498.04910714285717,3389.4,985.1428571428571,498.04910714285717,3497.8,985.1428571428571,498.04910714285717,3597.8,985.1428571428571,498.04910714285717,3712.7,985.1428571428571,498.04910714285717,3814.9,985.1428571428571,498.04910714285717,3927.8,985.1428571428571,498.04910714285717,4030.1,985.1428571428571,498.04910714285717,4139.3,985.1428571428571,498.04910714285717,4251.9,985.1428571428571,498.04910714285717,4375.7,985.1428571428571,498.04910714285717,4498.7,985.1428571428571,498.04910714285717,4599.6,985.1428571428571,498.04910714285717,4714.5,985.1428571428571,498.04910714285717,4826.4,985.1428571428571,498.04910714285717,4931.9]","[1411,1411,1000,0,411,""smooth"",""down"",""down"",""good_move"",3890.2,2477.6,2097.6,1412.6,380,""oops"",""down"",""right"",""good_move"",7059.1,3151.6,2785.3,3907.5,366.3,""oops"",""down"",""up"",""bad_move"",10028.2,2967.3,1653.8,7060.9,1313.5,""smooth"",""down"",""down"",""good_move"",12869.8,2839.8,2454.9,10030,384.9,""oops"",""down"",""down"",""good_move"",15323.9,2452.2,2047.3,12871.7,404.9,""oops"",""down"",""down"",""good_move"",18829.9,3503.8,3131.3,15326.1,372.5,""smooth"",""right"",""right"",""good_move"",28239.4,9408.1,2350.8,25449.1,439.5,""oops"",""right"",""left"",""bad_move"",32708.2,4467.6,2682,28240.7,1785.6,""oops"",""right"",""right"",""good_move"",35553.5,2843.5,2429.2,32710,414.3,""oops"",""right"",""left"",""bad_move"",44765.9,9206.2,2571.4,41818.8,375.7,""oops"",""right"",""right"",""good_move"",47923.4,3156.4,2795.4,44767,361,""oops"",""right"",""right"",""good_move""]"
"2649","","<div style=""width:500px;"">
  <p>What determined the result of this run?</p>
  </div>","59","html-slider-response","49","748776","0.0-7.0-1.7","42","1","2025-07-30 08:42:45","36c45c0696341be0efffe67d72a12abb","83.233.137.59","Mozilla/5.0 (Windows NT 10.0; Win64; x64) AppleWebKit/537.36 (KHTML, like Gecko) Chrome/138.0.0.0 Safari/537.36","WebKit","Chrome","138.0.0.0","Windows","10.0","https://app.prolific.com/","en-US,en;q=0.9","647df23a62de26114fdcb29c","687a19d2168e237449fb8af4","6889d9f4b579322e9adf04dc","0","647df23a62de26114fdcb29c","0","2025-07-30T08:55:14.506Z","","","","AttribQ","","","","","","","","","","","50","","","","","","","","","","","","","","","","","","","","","","","","","","",""
"2235","","<div style=""width:500px;"">
  <p>How much control did you have over the ball?</p>
  </div>","62","html-slider-response","50","751014","0.0-7.0-2.7","42","1","2025-07-30 08:42:45","36c45c0696341be0efffe67d72a12abb","83.233.137.59","Mozilla/5.0 (Windows NT 10.0; Win64; x64) AppleWebKit/537.36 (KHTML, like Gecko) Chrome/138.0.0.0 Safari/537.36","WebKit","Chrome","138.0.0.0","Windows","10.0","https://app.prolific.com/","en-US,en;q=0.9","647df23a62de26114fdcb29c","687a19d2168e237449fb8af4","6889d9f4b579322e9adf04dc","0","647df23a62de26114fdcb29c","0","2025-07-30T08:55:16.744Z","","","","ControlQ","","","","","","","","","","","50","","","","","","","","","","","","","","","","","","","","","","","","","","",""
"2584","","<div style=""width:500px;"">
  <p>How would you describe your current emotional state?</p>
  </div>","70","html-slider-response","51","753601","0.0-7.0-3.7","42","1","2025-07-30 08:42:45","36c45c0696341be0efffe67d72a12abb","83.233.137.59","Mozilla/5.0 (Windows NT 10.0; Win64; x64) AppleWebKit/537.36 (KHTML, like Gecko) Chrome/138.0.0.0 Safari/537.36","WebKit","Chrome","138.0.0.0","Windows","10.0","https://app.prolific.com/","en-US,en;q=0.9","647df23a62de26114fdcb29c","687a19d2168e237449fb8af4","6889d9f4b579322e9adf04dc","0","647df23a62de26114fdcb29c","0","2025-07-30T08:55:19.331Z","","","","StressQ","","","","","","","","","","","50","","","","","","","","","","","","","","","","","","","","","","","","","","",""
"1962","","<div style=""width:500px;"">
  <p>What best describes how you currently feel?</p>
  </div>","100","html-slider-response","52","755566","0.0-7.0-4.7","42","1","2025-07-30 08:42:45","36c45c0696341be0efffe67d72a12abb","83.233.137.59","Mozilla/5.0 (Windows NT 10.0; Win64; x64) AppleWebKit/537.36 (KHTML, like Gecko) Chrome/138.0.0.0 Safari/537.36","WebKit","Chrome","138.0.0.0","Windows","10.0","https://app.prolific.com/","en-US,en;q=0.9","647df23a62de26114fdcb29c","687a19d2168e237449fb8af4","6889d9f4b579322e9adf04dc","0","647df23a62de26114fdcb29c","0","2025-07-30T08:55:21.296Z","","","","MotivationQ","","","","","","","","","","","50","","","","","","","","","","","","","","","","","","","","","","","","","","",""
"","","","","ctl-task-cpt","53","801616","0.0-7.0-0.8","42","1","2025-07-30 08:42:45","36c45c0696341be0efffe67d72a12abb","83.233.137.59","Mozilla/5.0 (Windows NT 10.0; Win64; x64) AppleWebKit/537.36 (KHTML, like Gecko) Chrome/138.0.0.0 Safari/537.36","WebKit","Chrome","138.0.0.0","Windows","10.0","https://app.prolific.com/","en-US,en;q=0.9","647df23a62de26114fdcb29c","687a19d2168e237449fb8af4","6889d9f4b579322e9adf04dc","0","647df23a62de26114fdcb29c","0","2025-07-30T08:56:07.346Z","","","","","","","","","","","","","","","","win-only","1","g1:NE,g2:SW","0.4","9","0","757912.9","1894.6","6908.7","43013.3","1","4","8","6","2","8","8","43","35","0.32575757575757575","1064","3000","2105","[""down"",""left""]","{""num_key_presses"":8,""num_perfect"":3,""num_errors"":0,""num_randdir"":5,""num_randdir_good_moves"":4,""num_whilered"":0,""num_whileblue"":0,""num_blue"":4,""num_good_moves"":7}","[350.14285714285717,344.04910714285717,1.2,350.14285714285717,344.04910714285717,112.9,350.14285714285717,344.04910714285717,225.6,350.14285714285717,344.04910714285717,339,322.14285714285717,360.04910714285717,472.2,-87.85714285714286,656.0491071428571,588.8,-93.85714285714286,670.0491071428571,716.6,-16.857142857142854,665.0491071428571,833,49.142857142857146,640.0491071428571,942.8,56.142857142857146,636.0491071428571,1054.6,57.142857142857146,636.0491071428571,1167.5,57.142857142857146,636.0491071428571,1291.1,119.14285714285714,597.0491071428571,1399.3,962.1428571428571,455.04910714285717,1529.9,987.1428571428571,447.04910714285717,1640,987.1428571428571,447.04910714285717,1741.1,988.1428571428571,447.04910714285717,1841.3,988.1428571428571,447.04910714285717,1959.1,988.1428571428571,447.04910714285717,2059.3,988.1428571428571,447.04910714285717,2163.2,988.1428571428571,447.04910714285717,2277.3,988.1428571428571,447.04910714285717,2394.5,988.1428571428571,447.04910714285717,2510.5,988.1428571428571,447.04910714285717,2622.1,988.1428571428571,447.04910714285717,2742.2,988.1428571428571,447.04910714285717,2856.9,988.1428571428571,447.04910714285717,2974.4,988.1428571428571,447.04910714285717,3097.2,988.1428571428571,447.04910714285717,3204.6,988.1428571428571,447.04910714285717,3319.5,988.1428571428571,447.04910714285717,3436,988.1428571428571,447.04910714285717,3553.2,988.1428571428571,447.04910714285717,3669.9,988.1428571428571,447.04910714285717,3778.4,988.1428571428571,447.04910714285717,3890.9,988.1428571428571,447.04910714285717,3998.9,988.1428571428571,447.04910714285717,4122,988.1428571428571,447.04910714285717,4235.9,988.1428571428571,447.04910714285717,4351.4,988.1428571428571,447.04910714285717,4466.4,988.1428571428571,447.04910714285717,4568.4,988.1428571428571,447.04910714285717,4690.8,988.1428571428571,447.04910714285717,4801.6,988.1428571428571,447.04910714285717,4915.6]","[1406.6,1406.6,1000,0,406.6,""oops"",""down"",""right"",""bad_move"",3653.3,2245.2,1803.7,1408.1,441.5,""oops"",""down"",""left"",""good_move"",8125,4470,2735.3,3655,1734.7,""smooth"",""down"",""down"",""good_move"",10608.7,2481.8,2084.4,8126.9,397.4,""oops"",""down"",""left"",""good_move"",14641.8,4028.6,2215.9,10613.2,1812.7,""oops"",""down"",""down"",""good_move"",24446.6,9803,2839.9,21172.5,434.2,""smooth"",""down"",""down"",""good_move"",26884.4,2433.6,1977.5,24450.8,456.1,""smooth"",""left"",""left"",""good_move"",35732.3,8846.7,1884.7,33485.7,362,""oops"",""left"",""left"",""good_move""]"
"3436","","<div style=""width:500px;"">
  <p>What determined the result of this run?</p>
  </div>","58","html-slider-response","54","805058","0.0-7.0-1.8","42","1","2025-07-30 08:42:45","36c45c0696341be0efffe67d72a12abb","83.233.137.59","Mozilla/5.0 (Windows NT 10.0; Win64; x64) AppleWebKit/537.36 (KHTML, like Gecko) Chrome/138.0.0.0 Safari/537.36","WebKit","Chrome","138.0.0.0","Windows","10.0","https://app.prolific.com/","en-US,en;q=0.9","647df23a62de26114fdcb29c","687a19d2168e237449fb8af4","6889d9f4b579322e9adf04dc","0","647df23a62de26114fdcb29c","0","2025-07-30T08:56:10.788Z","","","","AttribQ","","","","","","","","","","","50","","","","","","","","","","","","","","","","","","","","","","","","","","",""
"1893","","<div style=""width:500px;"">
  <p>How much control did you have over the ball?</p>
  </div>","56","html-slider-response","55","806954","0.0-7.0-2.8","42","1","2025-07-30 08:42:45","36c45c0696341be0efffe67d72a12abb","83.233.137.59","Mozilla/5.0 (Windows NT 10.0; Win64; x64) AppleWebKit/537.36 (KHTML, like Gecko) Chrome/138.0.0.0 Safari/537.36","WebKit","Chrome","138.0.0.0","Windows","10.0","https://app.prolific.com/","en-US,en;q=0.9","647df23a62de26114fdcb29c","687a19d2168e237449fb8af4","6889d9f4b579322e9adf04dc","0","647df23a62de26114fdcb29c","0","2025-07-30T08:56:12.685Z","","","","ControlQ","","","","","","","","","","","50","","","","","","","","","","","","","","","","","","","","","","","","","","",""
"2666","","<div style=""width:500px;"">
  <p>How would you describe your current emotional state?</p>
  </div>","67","html-slider-response","56","809626","0.0-7.0-3.8","42","1","2025-07-30 08:42:45","36c45c0696341be0efffe67d72a12abb","83.233.137.59","Mozilla/5.0 (Windows NT 10.0; Win64; x64) AppleWebKit/537.36 (KHTML, like Gecko) Chrome/138.0.0.0 Safari/537.36","WebKit","Chrome","138.0.0.0","Windows","10.0","https://app.prolific.com/","en-US,en;q=0.9","647df23a62de26114fdcb29c","687a19d2168e237449fb8af4","6889d9f4b579322e9adf04dc","0","647df23a62de26114fdcb29c","0","2025-07-30T08:56:15.356Z","","","","StressQ","","","","","","","","","","","50","","","","","","","","","","","","","","","","","","","","","","","","","","",""
"2557","","<div style=""width:500px;"">
  <p>What best describes how you currently feel?</p>
  </div>","100","html-slider-response","57","812187","0.0-7.0-4.8","42","1","2025-07-30 08:42:45","36c45c0696341be0efffe67d72a12abb","83.233.137.59","Mozilla/5.0 (Windows NT 10.0; Win64; x64) AppleWebKit/537.36 (KHTML, like Gecko) Chrome/138.0.0.0 Safari/537.36","WebKit","Chrome","138.0.0.0","Windows","10.0","https://app.prolific.com/","en-US,en;q=0.9","647df23a62de26114fdcb29c","687a19d2168e237449fb8af4","6889d9f4b579322e9adf04dc","0","647df23a62de26114fdcb29c","0","2025-07-30T08:56:17.918Z","","","","MotivationQ","","","","","","","","","","","50","","","","","","","","","","","","","","","","","","","","","","","","","","",""
"","","","","ctl-task-cpt","58","874770","0.0-7.0-0.9","42","1","2025-07-30 08:42:45","36c45c0696341be0efffe67d72a12abb","83.233.137.59","Mozilla/5.0 (Windows NT 10.0; Win64; x64) AppleWebKit/537.36 (KHTML, like Gecko) Chrome/138.0.0.0 Safari/537.36","WebKit","Chrome","138.0.0.0","Windows","10.0","https://app.prolific.com/","en-US,en;q=0.9","647df23a62de26114fdcb29c","687a19d2168e237449fb8af4","6889d9f4b579322e9adf04dc","0","647df23a62de26114fdcb29c","0","2025-07-30T08:57:20.500Z","","","","","","","","","","","","","","","","win-only","1","g1:NE,g2:SW","0.5","10","0","814534.5","1074","6089","59546.4","1","4","4","6","2","4","4","47","43","0.3560606060606061","1011.4","3000","2010","[""down"",""left""]","{""num_key_presses"":12,""num_perfect"":6,""num_errors"":0,""num_randdir"":6,""num_randdir_good_moves"":3,""num_whilered"":0,""num_whileblue"":0,""num_blue"":3,""num_good_moves"":9}","[343.14285714285717,351.04910714285717,7.1,343.14285714285717,351.04910714285717,121.3,344.14285714285717,351.04910714285717,227.6,344.14285714285717,351.04910714285717,334.7,203.14285714285714,450.04910714285717,503.8,150.14285714285714,529.0491071428571,614.9,134.14285714285714,551.0491071428571,723.2,102.14285714285714,586.0491071428571,826.7,93.14285714285714,608.0491071428571,952.6,90.14285714285714,609.0491071428571,1070.3,89.14285714285714,611.0491071428571,1191,88.14285714285714,610.0491071428571,1328.1,325.14285714285717,538.0491071428571,1470.6,1028.142857142857,416.04910714285717,1570.7,1028.142857142857,416.04910714285717,1685.9,1028.142857142857,416.04910714285717,1800,1028.142857142857,416.04910714285717,1914.1,1028.142857142857,416.04910714285717,2036.7,1028.142857142857,416.04910714285717,2161.1,1028.142857142857,416.04910714285717,2282.3,1028.142857142857,416.04910714285717,2398.8,1028.142857142857,416.04910714285717,2512.3,1028.142857142857,416.04910714285717,2635,1028.142857142857,416.04910714285717,2748.1,1028.142857142857,416.04910714285717,2863.6,1028.142857142857,416.04910714285717,2983,1028.142857142857,416.04910714285717,3100.8,1028.142857142857,416.04910714285717,3227.6,1028.142857142857,416.04910714285717,3344.6,1028.142857142857,416.04910714285717,3460.4,1028.142857142857,416.04910714285717,3578,1028.142857142857,416.04910714285717,3694.8,1028.142857142857,416.04910714285717,3808.3,1028.142857142857,416.04910714285717,3929.1,1028.142857142857,416.04910714285717,4045.8,1028.142857142857,416.04910714285717,4147.2,1028.142857142857,416.04910714285717,4264.8,1028.142857142857,416.04910714285717,4378.4,1028.142857142857,416.04910714285717,4490,1028.142857142857,416.04910714285717,4606.2,1028.142857142857,416.04910714285717,4711.8,1028.142857142857,416.04910714285717,4839.1,1028.142857142857,416.04910714285717,4961.6]","[1371.8,1371.8,1000,0,371.8,""oops"",""down"",""down"",""good_move"",3780.1,2406.6,2039.4,1373.5,367.3,""smooth"",""down"",""down"",""good_move"",13574.8,9793,2732.3,10441,401.5,""oops"",""down"",""up"",""bad_move"",17892.8,4316.7,2596.5,13576.1,1720.2,""oops"",""down"",""up"",""bad_move"",22612.2,4716.5,2829.6,17895.7,1886.9,""smooth"",""down"",""down"",""good_move"",25475.5,2861.6,2432.4,22614,429.1,""oops"",""down"",""up"",""bad_move"",29926.8,4449.7,2533.6,25477.1,1916.1,""smooth"",""down"",""down"",""good_move"",36452.4,6521,2916.4,33126,410.1,""smooth"",""down"",""down"",""good_move"",39486.4,3032.6,2669.3,36453.8,363.3,""oops"",""down"",""left"",""good_move"",44111.7,4615.7,2087.7,39496,2528,""smooth"",""down"",""down"",""good_move"",47424.6,3311.5,2868.2,44113.2,443.2,""smooth"",""left"",""left"",""good_move"",52835.2,5408.9,2151,47426.4,3257.8,""oops"",""left"",""left"",""good_move""]"
"3801","","<div style=""width:500px;"">
  <p>What determined the result of this run?</p>
  </div>","59","html-slider-response","59","878574","0.0-7.0-1.9","42","1","2025-07-30 08:42:45","36c45c0696341be0efffe67d72a12abb","83.233.137.59","Mozilla/5.0 (Windows NT 10.0; Win64; x64) AppleWebKit/537.36 (KHTML, like Gecko) Chrome/138.0.0.0 Safari/537.36","WebKit","Chrome","138.0.0.0","Windows","10.0","https://app.prolific.com/","en-US,en;q=0.9","647df23a62de26114fdcb29c","687a19d2168e237449fb8af4","6889d9f4b579322e9adf04dc","0","647df23a62de26114fdcb29c","0","2025-07-30T08:57:24.305Z","","","","AttribQ","","","","","","","","","","","50","","","","","","","","","","","","","","","","","","","","","","","","","","",""
"1761","","<div style=""width:500px;"">
  <p>How much control did you have over the ball?</p>
  </div>","43","html-slider-response","60","880339","0.0-7.0-2.9","42","1","2025-07-30 08:42:45","36c45c0696341be0efffe67d72a12abb","83.233.137.59","Mozilla/5.0 (Windows NT 10.0; Win64; x64) AppleWebKit/537.36 (KHTML, like Gecko) Chrome/138.0.0.0 Safari/537.36","WebKit","Chrome","138.0.0.0","Windows","10.0","https://app.prolific.com/","en-US,en;q=0.9","647df23a62de26114fdcb29c","687a19d2168e237449fb8af4","6889d9f4b579322e9adf04dc","0","647df23a62de26114fdcb29c","0","2025-07-30T08:57:26.069Z","","","","ControlQ","","","","","","","","","","","50","","","","","","","","","","","","","","","","","","","","","","","","","","",""
"2549","","<div style=""width:500px;"">
  <p>How would you describe your current emotional state?</p>
  </div>","71","html-slider-response","61","882891","0.0-7.0-3.9","42","1","2025-07-30 08:42:45","36c45c0696341be0efffe67d72a12abb","83.233.137.59","Mozilla/5.0 (Windows NT 10.0; Win64; x64) AppleWebKit/537.36 (KHTML, like Gecko) Chrome/138.0.0.0 Safari/537.36","WebKit","Chrome","138.0.0.0","Windows","10.0","https://app.prolific.com/","en-US,en;q=0.9","647df23a62de26114fdcb29c","687a19d2168e237449fb8af4","6889d9f4b579322e9adf04dc","0","647df23a62de26114fdcb29c","0","2025-07-30T08:57:28.621Z","","","","StressQ","","","","","","","","","","","50","","","","","","","","","","","","","","","","","","","","","","","","","","",""
"2949","","<div style=""width:500px;"">
  <p>What best describes how you currently feel?</p>
  </div>","100","html-slider-response","62","885844","0.0-7.0-4.9","42","1","2025-07-30 08:42:45","36c45c0696341be0efffe67d72a12abb","83.233.137.59","Mozilla/5.0 (Windows NT 10.0; Win64; x64) AppleWebKit/537.36 (KHTML, like Gecko) Chrome/138.0.0.0 Safari/537.36","WebKit","Chrome","138.0.0.0","Windows","10.0","https://app.prolific.com/","en-US,en;q=0.9","647df23a62de26114fdcb29c","687a19d2168e237449fb8af4","6889d9f4b579322e9adf04dc","0","647df23a62de26114fdcb29c","0","2025-07-30T08:57:31.574Z","","","","MotivationQ","","","","","","","","","","","50","","","","","","","","","","","","","","","","","","","","","","","","","","",""
"","","","","ctl-task-cpt","63","912762","0.0-7.0-0.10","42","1","2025-07-30 08:42:45","36c45c0696341be0efffe67d72a12abb","83.233.137.59","Mozilla/5.0 (Windows NT 10.0; Win64; x64) AppleWebKit/537.36 (KHTML, like Gecko) Chrome/138.0.0.0 Safari/537.36","WebKit","Chrome","138.0.0.0","Windows","10.0","https://app.prolific.com/","en-US,en;q=0.9","647df23a62de26114fdcb29c","687a19d2168e237449fb8af4","6889d9f4b579322e9adf04dc","0","647df23a62de26114fdcb29c","0","2025-07-30T08:57:58.493Z","","","","","","","","","","","","","","","","win-only","0","g1:NW,g2:SE","0.6","11","0","888190.4","1819.2","6837.2","23878.1","1","4","4","6","2","4","4","51","47","0.38636363636363635","969.5","3000","2535","[""down"",""right""]","{""num_key_presses"":6,""num_perfect"":4,""num_errors"":0,""num_randdir"":2,""num_randdir_good_moves"":2,""num_whilered"":0,""num_whileblue"":0,""num_blue"":0,""num_good_moves"":6}","[344.14285714285717,345.04910714285717,7,344.14285714285717,345.04910714285717,111.1,344.14285714285717,345.04910714285717,225.3,344.14285714285717,345.04910714285717,335.2,325.14285714285717,326.04910714285717,437.5,445.14285714285717,424.04910714285717,572.8,642.1428571428571,581.0491071428571,690.3,669.1428571428571,628.0491071428571,810.1,669.1428571428571,628.0491071428571,918.2,669.1428571428571,628.0491071428571,1033.5,669.1428571428571,628.0491071428571,1135.7,673.1428571428571,627.0491071428571,1246.9,754.1428571428571,603.0491071428571,1371.2,917.1428571428571,554.0491071428571,1488.3,917.1428571428571,554.0491071428571,1591,917.1428571428571,554.0491071428571,1699.4,917.1428571428571,554.0491071428571,1815.6,917.1428571428571,553.0491071428571,1919.2,917.1428571428571,553.0491071428571,2023.3,917.1428571428571,553.0491071428571,2141.3,917.1428571428571,553.0491071428571,2248.9,917.1428571428571,553.0491071428571,2365.9,917.1428571428571,553.0491071428571,2485.7,917.1428571428571,553.0491071428571,2596.1,917.1428571428571,553.0491071428571,2698.1,917.1428571428571,553.0491071428571,2808.4,917.1428571428571,553.0491071428571,2924.8,917.1428571428571,553.0491071428571,3027.7,917.1428571428571,553.0491071428571,3135.6,917.1428571428571,553.0491071428571,3253,917.1428571428571,553.0491071428571,3367.9,917.1428571428571,553.0491071428571,3480.1,917.1428571428571,553.0491071428571,3583.2,917.1428571428571,553.0491071428571,3696.1,917.1428571428571,553.0491071428571,3809.9,917.1428571428571,553.0491071428571,3917.4,917.1428571428571,553.0491071428571,4028.9,917.1428571428571,553.0491071428571,4133.7,917.1428571428571,553.0491071428571,4240,917.1428571428571,553.0491071428571,4344.4,917.1428571428571,553.0491071428571,4458.8,917.1428571428571,553.0491071428571,4576.5,917.1428571428571,553.0491071428571,4695.6,917.1428571428571,553.0491071428571,4812.8,917.1428571428571,553.0491071428571,4923.3]","[1375.9,1375.9,1000,0,375.9,""oops"",""down"",""down"",""good_move"",4208.3,2818.8,2422.8,1389.5,396,""smooth"",""down"",""down"",""good_move"",7261.4,3046.2,2620.6,4215.3,425.6,""smooth"",""down"",""down"",""good_move"",10218.5,2950.5,2533.6,7268,416.9,""smooth"",""right"",""right"",""good_move"",13546.6,3326,2966.9,10220.6,359.1,""oops"",""right"",""right"",""good_move"",16442.2,2877.1,2370.4,13565.2,506.6,""smooth"",""right"",""right"",""good_move""]"
"3468","","<div style=""width:500px;"">
  <p>What determined the result of this run?</p>
  </div>","26","html-slider-response","64","916237","0.0-7.0-1.10","42","1","2025-07-30 08:42:45","36c45c0696341be0efffe67d72a12abb","83.233.137.59","Mozilla/5.0 (Windows NT 10.0; Win64; x64) AppleWebKit/537.36 (KHTML, like Gecko) Chrome/138.0.0.0 Safari/537.36","WebKit","Chrome","138.0.0.0","Windows","10.0","https://app.prolific.com/","en-US,en;q=0.9","647df23a62de26114fdcb29c","687a19d2168e237449fb8af4","6889d9f4b579322e9adf04dc","0","647df23a62de26114fdcb29c","0","2025-07-30T08:58:01.967Z","","","","AttribQ","","","","","","","","","","","50","","","","","","","","","","","","","","","","","","","","","","","","","","",""
"3152","","<div style=""width:500px;"">
  <p>How much control did you have over the ball?</p>
  </div>","7","html-slider-response","65","919392","0.0-7.0-2.10","42","1","2025-07-30 08:42:45","36c45c0696341be0efffe67d72a12abb","83.233.137.59","Mozilla/5.0 (Windows NT 10.0; Win64; x64) AppleWebKit/537.36 (KHTML, like Gecko) Chrome/138.0.0.0 Safari/537.36","WebKit","Chrome","138.0.0.0","Windows","10.0","https://app.prolific.com/","en-US,en;q=0.9","647df23a62de26114fdcb29c","687a19d2168e237449fb8af4","6889d9f4b579322e9adf04dc","0","647df23a62de26114fdcb29c","0","2025-07-30T08:58:05.123Z","","","","ControlQ","","","","","","","","","","","50","","","","","","","","","","","","","","","","","","","","","","","","","","",""
"4789","","<div style=""width:500px;"">
  <p>How would you describe your current emotional state?</p>
  </div>","76","html-slider-response","66","924185","0.0-7.0-3.10","42","1","2025-07-30 08:42:45","36c45c0696341be0efffe67d72a12abb","83.233.137.59","Mozilla/5.0 (Windows NT 10.0; Win64; x64) AppleWebKit/537.36 (KHTML, like Gecko) Chrome/138.0.0.0 Safari/537.36","WebKit","Chrome","138.0.0.0","Windows","10.0","https://app.prolific.com/","en-US,en;q=0.9","647df23a62de26114fdcb29c","687a19d2168e237449fb8af4","6889d9f4b579322e9adf04dc","0","647df23a62de26114fdcb29c","0","2025-07-30T08:58:09.915Z","","","","StressQ","","","","","","","","","","","50","","","","","","","","","","","","","","","","","","","","","","","","","","",""
"4658","","<div style=""width:500px;"">
  <p>What best describes how you currently feel?</p>
  </div>","100","html-slider-response","67","928846","0.0-7.0-4.10","42","1","2025-07-30 08:42:45","36c45c0696341be0efffe67d72a12abb","83.233.137.59","Mozilla/5.0 (Windows NT 10.0; Win64; x64) AppleWebKit/537.36 (KHTML, like Gecko) Chrome/138.0.0.0 Safari/537.36","WebKit","Chrome","138.0.0.0","Windows","10.0","https://app.prolific.com/","en-US,en;q=0.9","647df23a62de26114fdcb29c","687a19d2168e237449fb8af4","6889d9f4b579322e9adf04dc","0","647df23a62de26114fdcb29c","0","2025-07-30T08:58:14.576Z","","","","MotivationQ","","","","","","","","","","","50","","","","","","","","","","","","","","","","","","","","","","","","","","",""
"","","","","ctl-task-cpt","68","974864","0.0-7.0-0.11","42","1","2025-07-30 08:42:45","36c45c0696341be0efffe67d72a12abb","83.233.137.59","Mozilla/5.0 (Windows NT 10.0; Win64; x64) AppleWebKit/537.36 (KHTML, like Gecko) Chrome/138.0.0.0 Safari/537.36","WebKit","Chrome","138.0.0.0","Windows","10.0","https://app.prolific.com/","en-US,en;q=0.9","647df23a62de26114fdcb29c","687a19d2168e237449fb8af4","6889d9f4b579322e9adf04dc","0","647df23a62de26114fdcb29c","0","2025-07-30T08:59:00.594Z","","","","","","","","","","","","","","","","win-only","3","g1:SW,g2:NE","0.7","12","0","931193.3","1176.3","6205.2","42981.4","1","4","8","6","2","8","8","59","51","0.44696969696969696","876.5","3000","2465","[""up"",""right""]","{""num_key_presses"":6,""num_perfect"":5,""num_errors"":0,""num_randdir"":1,""num_randdir_good_moves"":1,""num_whilered"":0,""num_whileblue"":0,""num_blue"":5,""num_good_moves"":6}","[343.14285714285717,353.04910714285717,1.4,343.14285714285717,353.04910714285717,113.8,343.14285714285717,353.04910714285717,238.8,343.14285714285717,353.04910714285717,344.6,421.14285714285717,259.04910714285717,496,638.1428571428571,34.049107142857146,616.9,639.1428571428571,34.049107142857146,718.7,639.1428571428571,54.049107142857146,839.5,641.1428571428571,58.049107142857146,940.6,641.1428571428571,58.049107142857146,1069.6,641.1428571428571,58.049107142857146,1180.6,1002.1428571428571,158.04910714285714,1308.1,1003.1428571428571,158.04910714285714,1408.7,1003.1428571428571,158.04910714285714,1508.8,1003.1428571428571,158.04910714285714,1636.1,1003.1428571428571,158.04910714285714,1765.8,1003.1428571428571,158.04910714285714,1870.6,1003.1428571428571,158.04910714285714,2001,1003.1428571428571,158.04910714285714,2115.2,1003.1428571428571,158.04910714285714,2224.2,1003.1428571428571,158.04910714285714,2356.6,1003.1428571428571,158.04910714285714,2456.6,1003.1428571428571,158.04910714285714,2586.2,1003.1428571428571,158.04910714285714,2686.6,1003.1428571428571,158.04910714285714,2823.4,1003.1428571428571,158.04910714285714,2954.6,1003.1428571428571,158.04910714285714,3054.8,1003.1428571428571,158.04910714285714,3166.6,1003.1428571428571,158.04910714285714,3272.2,1003.1428571428571,158.04910714285714,3373.4,1003.1428571428571,158.04910714285714,3477.8,1003.1428571428571,158.04910714285714,3608,1003.1428571428571,158.04910714285714,3740.5,1003.1428571428571,158.04910714285714,3874.4,1003.1428571428571,158.04910714285714,4008.9,1003.1428571428571,158.04910714285714,4110.7,1003.1428571428571,158.04910714285714,4211.7,1003.1428571428571,158.04910714285714,4342.1,1003.1428571428571,158.04910714285714,4447,1003.1428571428571,158.04910714285714,4571,1003.1428571428571,158.04910714285714,4710,1003.1428571428571,158.04910714285714,4836.8,1003.1428571428571,158.04910714285714,4945.4]","[1418.1,1418.1,1000,0,418.1,""smooth"",""up"",""up"",""good_move"",11351.9,9932.3,2817.6,8142.8,391.5,""smooth"",""up"",""up"",""good_move"",15071.7,3718.7,2758.5,11353,960.2,""smooth"",""up"",""up"",""good_move"",21765.4,6688,2159.9,19213.8,391.7,""oops"",""right"",""right"",""good_move"",24001.4,2235,1788.2,21766.4,446.8,""smooth"",""right"",""right"",""good_move"",36151.1,12142.1,2129,33495.7,526.4,""smooth"",""right"",""right"",""good_move""]"
"3308","","<div style=""width:500px;"">
  <p>What determined the result of this run?</p>
  </div>","62","html-slider-response","69","978176","0.0-7.0-1.11","42","1","2025-07-30 08:42:45","36c45c0696341be0efffe67d72a12abb","83.233.137.59","Mozilla/5.0 (Windows NT 10.0; Win64; x64) AppleWebKit/537.36 (KHTML, like Gecko) Chrome/138.0.0.0 Safari/537.36","WebKit","Chrome","138.0.0.0","Windows","10.0","https://app.prolific.com/","en-US,en;q=0.9","647df23a62de26114fdcb29c","687a19d2168e237449fb8af4","6889d9f4b579322e9adf04dc","0","647df23a62de26114fdcb29c","0","2025-07-30T08:59:03.906Z","","","","AttribQ","","","","","","","","","","","50","","","","","","","","","","","","","","","","","","","","","","","","","","",""
"3189","","<div style=""width:500px;"">
  <p>How much control did you have over the ball?</p>
  </div>","55","html-slider-response","70","981369","0.0-7.0-2.11","42","1","2025-07-30 08:42:45","36c45c0696341be0efffe67d72a12abb","83.233.137.59","Mozilla/5.0 (Windows NT 10.0; Win64; x64) AppleWebKit/537.36 (KHTML, like Gecko) Chrome/138.0.0.0 Safari/537.36","WebKit","Chrome","138.0.0.0","Windows","10.0","https://app.prolific.com/","en-US,en;q=0.9","647df23a62de26114fdcb29c","687a19d2168e237449fb8af4","6889d9f4b579322e9adf04dc","0","647df23a62de26114fdcb29c","0","2025-07-30T08:59:07.099Z","","","","ControlQ","","","","","","","","","","","50","","","","","","","","","","","","","","","","","","","","","","","","","","",""
"2821","","<div style=""width:500px;"">
  <p>How would you describe your current emotional state?</p>
  </div>","70","html-slider-response","71","984194","0.0-7.0-3.11","42","1","2025-07-30 08:42:45","36c45c0696341be0efffe67d72a12abb","83.233.137.59","Mozilla/5.0 (Windows NT 10.0; Win64; x64) AppleWebKit/537.36 (KHTML, like Gecko) Chrome/138.0.0.0 Safari/537.36","WebKit","Chrome","138.0.0.0","Windows","10.0","https://app.prolific.com/","en-US,en;q=0.9","647df23a62de26114fdcb29c","687a19d2168e237449fb8af4","6889d9f4b579322e9adf04dc","0","647df23a62de26114fdcb29c","0","2025-07-30T08:59:09.924Z","","","","StressQ","","","","","","","","","","","50","","","","","","","","","","","","","","","","","","","","","","","","","","",""
"3245","","<div style=""width:500px;"">
  <p>What best describes how you currently feel?</p>
  </div>","100","html-slider-response","72","987444","0.0-7.0-4.11","42","1","2025-07-30 08:42:45","36c45c0696341be0efffe67d72a12abb","83.233.137.59","Mozilla/5.0 (Windows NT 10.0; Win64; x64) AppleWebKit/537.36 (KHTML, like Gecko) Chrome/138.0.0.0 Safari/537.36","WebKit","Chrome","138.0.0.0","Windows","10.0","https://app.prolific.com/","en-US,en;q=0.9","647df23a62de26114fdcb29c","687a19d2168e237449fb8af4","6889d9f4b579322e9adf04dc","0","647df23a62de26114fdcb29c","0","2025-07-30T08:59:13.174Z","","","","MotivationQ","","","","","","","","","","","50","","","","","","","","","","","","","","","","","","","","","","","","","","",""
"","","","","ctl-task-cpt","73","1028673","0.0-7.0-0.12","42","1","2025-07-30 08:42:45","36c45c0696341be0efffe67d72a12abb","83.233.137.59","Mozilla/5.0 (Windows NT 10.0; Win64; x64) AppleWebKit/537.36 (KHTML, like Gecko) Chrome/138.0.0.0 Safari/537.36","WebKit","Chrome","138.0.0.0","Windows","10.0","https://app.prolific.com/","en-US,en;q=0.9","647df23a62de26114fdcb29c","687a19d2168e237449fb8af4","6889d9f4b579322e9adf04dc","0","647df23a62de26114fdcb29c","0","2025-07-30T08:59:54.403Z","","","","","","","","","","","","","","","","win-only","0","g1:NW,g2:SE","0.8","13","0","989788.2","1507.2","6512.4","38182.8","1","4","4","6","2","4","4","63","59","0.4772727272727273","993.6","3000","2465","[""down"",""right""]","{""num_key_presses"":8,""num_perfect"":7,""num_errors"":0,""num_randdir"":1,""num_randdir_good_moves"":0,""num_whilered"":0,""num_whileblue"":0,""num_blue"":2,""num_good_moves"":7}","[353.14285714285717,347.04910714285717,1.1,353.14285714285717,347.04910714285717,109.9,353.14285714285717,347.04910714285717,228.6,353.14285714285717,347.04910714285717,359.4,370.14285714285717,365.04910714285717,483.8,553.1428571428571,556.0491071428571,626.7,566.1428571428571,564.0491071428571,743.5,605.1428571428571,602.0491071428571,887.1,643.1428571428571,626.0491071428571,1018.5,643.1428571428571,631.0491071428571,1146.4,640.1428571428571,629.0491071428571,1287.1,990.1428571428571,508.04910714285717,1395.2,1027.142857142857,486.04910714285717,1497,1027.142857142857,486.04910714285717,1597.6,1027.142857142857,486.04910714285717,1702.6,1027.142857142857,486.04910714285717,1824.7,1027.142857142857,486.04910714285717,1933.5,1027.142857142857,486.04910714285717,2057.7,1027.142857142857,486.04910714285717,2168.9,1027.142857142857,486.04910714285717,2281.6,1027.142857142857,486.04910714285717,2387.4,1027.142857142857,486.04910714285717,2513.3,1027.142857142857,486.04910714285717,2618.8,1027.142857142857,486.04910714285717,2723.2,1027.142857142857,486.04910714285717,2826.6,1027.142857142857,486.04910714285717,2931.5,1027.142857142857,486.04910714285717,3039,1027.142857142857,486.04910714285717,3157.6,1027.142857142857,486.04910714285717,3264.7,1027.142857142857,486.04910714285717,3366.2,1027.142857142857,486.04910714285717,3485.7,1027.142857142857,486.04910714285717,3595.4,1027.142857142857,486.04910714285717,3718.8,1027.142857142857,486.04910714285717,3829.1,1027.142857142857,486.04910714285717,3933.8,1027.142857142857,486.04910714285717,4036.9,1027.142857142857,486.04910714285717,4153.3,1027.142857142857,486.04910714285717,4266.5,1027.142857142857,486.04910714285717,4372.6,1027.142857142857,486.04910714285717,4478.6,1027.142857142857,486.04910714285717,4584.3,1027.142857142857,486.04910714285717,4711.3,1027.142857142857,486.04910714285717,4823.5,1027.142857142857,486.04910714285717,4926.8]","[1418.5,1418.5,1000,0,418.5,""smooth"",""down"",""down"",""good_move"",5156.8,3736.7,3343.1,1420.1,393.6,""oops"",""down"",""left"",""bad_move"",9770.8,4611.9,1754,5158.9,2857.9,""smooth"",""down"",""down"",""good_move"",13077.4,3305,2864.9,9772.4,440.1,""smooth"",""down"",""down"",""good_move"",15860,2780.1,2318.3,13080,461.7,""smooth"",""right"",""right"",""good_move"",21783,5921,2555,18849.3,378.7,""smooth"",""right"",""right"",""good_move"",24619.3,2833.7,2348.3,21785.6,485.4,""smooth"",""right"",""right"",""good_move"",30952.1,6331.1,2599.3,27938.7,414.1,""smooth"",""right"",""right"",""good_move""]"
"3226","","<div style=""width:500px;"">
  <p>What determined the result of this run?</p>
  </div>","76","html-slider-response","74","1031905","0.0-7.0-1.12","42","1","2025-07-30 08:42:45","36c45c0696341be0efffe67d72a12abb","83.233.137.59","Mozilla/5.0 (Windows NT 10.0; Win64; x64) AppleWebKit/537.36 (KHTML, like Gecko) Chrome/138.0.0.0 Safari/537.36","WebKit","Chrome","138.0.0.0","Windows","10.0","https://app.prolific.com/","en-US,en;q=0.9","647df23a62de26114fdcb29c","687a19d2168e237449fb8af4","6889d9f4b579322e9adf04dc","0","647df23a62de26114fdcb29c","0","2025-07-30T08:59:57.635Z","","","","AttribQ","","","","","","","","","","","50","","","","","","","","","","","","","","","","","","","","","","","","","","",""
"2608","","<div style=""width:500px;"">
  <p>How much control did you have over the ball?</p>
  </div>","69","html-slider-response","75","1034516","0.0-7.0-2.12","42","1","2025-07-30 08:42:45","36c45c0696341be0efffe67d72a12abb","83.233.137.59","Mozilla/5.0 (Windows NT 10.0; Win64; x64) AppleWebKit/537.36 (KHTML, like Gecko) Chrome/138.0.0.0 Safari/537.36","WebKit","Chrome","138.0.0.0","Windows","10.0","https://app.prolific.com/","en-US,en;q=0.9","647df23a62de26114fdcb29c","687a19d2168e237449fb8af4","6889d9f4b579322e9adf04dc","0","647df23a62de26114fdcb29c","0","2025-07-30T09:00:00.246Z","","","","ControlQ","","","","","","","","","","","50","","","","","","","","","","","","","","","","","","","","","","","","","","",""
"3902","","<div style=""width:500px;"">
  <p>How would you describe your current emotional state?</p>
  </div>","70","html-slider-response","76","1038419","0.0-7.0-3.12","42","1","2025-07-30 08:42:45","36c45c0696341be0efffe67d72a12abb","83.233.137.59","Mozilla/5.0 (Windows NT 10.0; Win64; x64) AppleWebKit/537.36 (KHTML, like Gecko) Chrome/138.0.0.0 Safari/537.36","WebKit","Chrome","138.0.0.0","Windows","10.0","https://app.prolific.com/","en-US,en;q=0.9","647df23a62de26114fdcb29c","687a19d2168e237449fb8af4","6889d9f4b579322e9adf04dc","0","647df23a62de26114fdcb29c","0","2025-07-30T09:00:04.150Z","","","","StressQ","","","","","","","","","","","50","","","","","","","","","","","","","","","","","","","","","","","","","","",""
"1767","","<div style=""width:500px;"">
  <p>What best describes how you currently feel?</p>
  </div>","100","html-slider-response","77","1040190","0.0-7.0-4.12","42","1","2025-07-30 08:42:45","36c45c0696341be0efffe67d72a12abb","83.233.137.59","Mozilla/5.0 (Windows NT 10.0; Win64; x64) AppleWebKit/537.36 (KHTML, like Gecko) Chrome/138.0.0.0 Safari/537.36","WebKit","Chrome","138.0.0.0","Windows","10.0","https://app.prolific.com/","en-US,en;q=0.9","647df23a62de26114fdcb29c","687a19d2168e237449fb8af4","6889d9f4b579322e9adf04dc","0","647df23a62de26114fdcb29c","0","2025-07-30T09:00:05.920Z","","","","MotivationQ","","","","","","","","","","","50","","","","","","","","","","","","","","","","","","","","","","","","","","",""
