"rt","response_timestamp","stimulus","response","trial_type","trial_index","time_elapsed","internal_node_id","run_id","condition","recorded_at","source_code_version","ip","user_agent","device","browser","browser_version","platform","platform_version","referer","accept_language","PROLIFIC_PID","STUDY_ID","SESSION_ID","BATCH","prolific_id","batch","realtime","success","question_order","question_id","eventType","responses","item_order","radio_event_ids","radio_event_times","key_event_times","mouse_event_times","straightlining","zigzagging","honeypot","view_history","slider_start","which_type","canvas_config","goals_layout","control_level","trial_number","tutorial_trial_number","trial_start_time","phase1_start_time","phase2_start_time","phase3_start_time","goal_1_value","goal_1_distance","goal_2_value","goal_2_distance","goal_selected","outcome","outcome_total","participant_final_score","participant_initial_score","participant_final_score_prop","goal_choice_rt","allocated_time","allocated_time_remaining","goal_direction","counts","mouse_movements","key_presses"
"35370","1754471958448","<p style='font-size:40px;line-height:1.25'><strong>Welcome to the experiment!</strong></p><p style='font-size:1.1em;line-height:1.25'>Thank you for participanting in our experiment again! You will be asked to play the Dysfunctional Ball Game again. We will briefly recap the rules before we start.</p><p style='font-size:1.1em;line-height:1.25'>Press <strong>Next</strong> to continue.</p>","0","custom-html-button-response","0","35379","0.0-0.0","162","1","2025-08-06 09:18:39","36c45c0696341be0efffe67d72a12abb","102.33.153.170","Mozilla/5.0 (Windows NT 10.0; Win64; x64; rv:142.0) Gecko/20100101 Firefox/142.0","","Firefox","142.0","Windows","10.0","https://app.prolific.com/","en-US,en;q=0.5","64d23e803ee1da9a01e52faa","687a1a965b9f5b85a264363e","68931d91c86fc5d36b7e85e5","1","64d23e803ee1da9a01e52faa","1","2025-08-06T09:19:18.448Z","","","","","","","","","","","","","","","","","","","","","","","","","","","","","","","","","","","","","","","","","",""
"34451","","","","fullscreen","1","70854","0.0-1.0","162","1","2025-08-06 09:18:39","36c45c0696341be0efffe67d72a12abb","102.33.153.170","Mozilla/5.0 (Windows NT 10.0; Win64; x64; rv:142.0) Gecko/20100101 Firefox/142.0","","Firefox","142.0","Windows","10.0","https://app.prolific.com/","en-US,en;q=0.5","64d23e803ee1da9a01e52faa","687a1a965b9f5b85a264363e","68931d91c86fc5d36b7e85e5","1","64d23e803ee1da9a01e52faa","1","","true","","","","","","","","","","","","","","","","","","","","","","","","","","","","","","","","","","","","","","","","",""
"6295","1754472000219"," <p style='font-size:1.1em;line-height:1.25'>Thank you for closing all other tabs.</p><p style='font-size:1.1em;line-height:1.25'>We will now invite you to fill in some questionnaires, before starting the game.<br>This will take about 5 minutes.<br></p><p style='font-size:1.1em;line-height:1.25'>Press the <strong>Next</strong> button to continue.</p>","0","custom-html-button-response","2","77150","0.0-2.0","162","1","2025-08-06 09:18:39","36c45c0696341be0efffe67d72a12abb","102.33.153.170","Mozilla/5.0 (Windows NT 10.0; Win64; x64; rv:142.0) Gecko/20100101 Firefox/142.0","","Firefox","142.0","Windows","10.0","https://app.prolific.com/","en-US,en;q=0.5","64d23e803ee1da9a01e52faa","687a1a965b9f5b85a264363e","68931d91c86fc5d36b7e85e5","1","64d23e803ee1da9a01e52faa","1","2025-08-06T09:20:00.219Z","","","","","","","","","","","","","","","","","","","","","","","","","","","","","","","","","","","","","","","","","",""
"3166","","","{""assigned_sex"":""female""}","survey-multi-choice","3","80319","0.0-3.0-0.0","162","1","2025-08-06 09:18:39","36c45c0696341be0efffe67d72a12abb","102.33.153.170","Mozilla/5.0 (Windows NT 10.0; Win64; x64; rv:142.0) Gecko/20100101 Firefox/142.0","","Firefox","142.0","Windows","10.0","https://app.prolific.com/","en-US,en;q=0.5","64d23e803ee1da9a01e52faa","687a1a965b9f5b85a264363e","68931d91c86fc5d36b7e85e5","1","64d23e803ee1da9a01e52faa","1","","","[0]","0","demographics","","","","","","","","","","","","","","","","","","","","","","","","","","","","","","","","","","","","","",""
"1938","1754472005326","<p style='font-size:1.1em;line-height:1.25'>In the following, we will perform a baseline assessment. This means that we will ask you a few questions relating to your experiences over the past month.<br></p><p style='font-size:1.1em;line-height:1.25'>Press the <strong>Next</strong> button to continue.</p>","0","custom-html-button-response","4","82257","0.0-4.0-0.0","162","1","2025-08-06 09:18:39","36c45c0696341be0efffe67d72a12abb","102.33.153.170","Mozilla/5.0 (Windows NT 10.0; Win64; x64; rv:142.0) Gecko/20100101 Firefox/142.0","","Firefox","142.0","Windows","10.0","https://app.prolific.com/","en-US,en;q=0.5","64d23e803ee1da9a01e52faa","687a1a965b9f5b85a264363e","68931d91c86fc5d36b7e85e5","1","64d23e803ee1da9a01e52faa","1","2025-08-06T09:20:05.327Z","","","","","","","","","","","","","","","","","","","","","","","","","","","","","","","","","","","","","","","","","",""
"51773","","","","survey-template","5","134033","0.0-4.0-1.0","162","1","2025-08-06 09:18:39","36c45c0696341be0efffe67d72a12abb","102.33.153.170","Mozilla/5.0 (Windows NT 10.0; Win64; x64; rv:142.0) Gecko/20100101 Firefox/142.0","","Firefox","142.0","Windows","10.0","https://app.prolific.com/","en-US,en;q=0.5","64d23e803ee1da9a01e52faa","687a1a965b9f5b85a264363e","68931d91c86fc5d36b7e85e5","1","64d23e803ee1da9a01e52faa","1","2025-08-06T09:20:57.103Z","","","","pss","{""Q01"":""2"",""Q02"":""2"",""Q03"":""1"",""Q04"":""1"",""Q05"":""0"",""Q06"":""2"",""Q07"":""3"",""Q08"":""2"",""Q09"":""2"",""Q10"":""1""}","[0,1,2,3,4,5,6,7,8,9]","[""Q01"",""Q02"",""Q03"",""Q04"",""Q05"",""Q05"",""Q06"",""Q07"",""Q08"",""Q09"",""Q10""]","[6102,8500,12859,19542,23578,28806,31193,36792,38211,40604,47102]","[]","[0,6102,7624,8500,10310,12859,17127,18238,19542,23578,27342,28806,31193,36792,38211,40604,47102,51772]","0.5","0.5555555555555556","0","","","","","","","","","","","","","","","","","","","","","","","","","","","","",""
"4949","1754472062054","<p style='font-size:1.1em;line-height:1.25'>Thank you for your answers! Now we will ask you a few more questions relating to your feelings in the last 24 hours.<br></p><p style='font-size:1.1em;line-height:1.25'>Press the <strong>Next</strong> button to continue.</p>","0","custom-html-button-response","6","138986","0.0-4.0-2.0","162","1","2025-08-06 09:18:39","36c45c0696341be0efffe67d72a12abb","102.33.153.170","Mozilla/5.0 (Windows NT 10.0; Win64; x64; rv:142.0) Gecko/20100101 Firefox/142.0","","Firefox","142.0","Windows","10.0","https://app.prolific.com/","en-US,en;q=0.5","64d23e803ee1da9a01e52faa","687a1a965b9f5b85a264363e","68931d91c86fc5d36b7e85e5","1","64d23e803ee1da9a01e52faa","1","2025-08-06T09:21:02.055Z","","","","","","","","","","","","","","","","","","","","","","","","","","","","","","","","","","","","","","","","","",""
"118965","","","","survey-template","7","257958","0.0-4.0-3.0","162","1","2025-08-06 09:18:39","36c45c0696341be0efffe67d72a12abb","102.33.153.170","Mozilla/5.0 (Windows NT 10.0; Win64; x64; rv:142.0) Gecko/20100101 Firefox/142.0","","Firefox","142.0","Windows","10.0","https://app.prolific.com/","en-US,en;q=0.5","64d23e803ee1da9a01e52faa","687a1a965b9f5b85a264363e","68931d91c86fc5d36b7e85e5","1","64d23e803ee1da9a01e52faa","1","2025-08-06T09:23:01.027Z","","","","drsp","{""Q01"":""1"",""Q02"":""0"",""Q03"":""1"",""Q04"":""1"",""Q05"":""3"",""Q06"":""1"",""Q07"":""1"",""Q08"":""1"",""Q09"":""2"",""Q10"":""1"",""Q11"":""3"",""Q12"":""2"",""Q13"":""5"",""Q14"":""1"",""Q15"":""2"",""Q16"":""2"",""Q17"":""1"",""Q18"":""1"",""Q19"":""4"",""Q20"":""2"",""Q21"":""2"",""Q22"":""2""}","[0,1,2,3,4,5,6,7,8,9,10,11,12,13,14,15,16,17,18,19,20,21]","[""Q02"",""Q03"",""Q04"",""Q05"",""Q06"",""Q07"",""Q08"",""Q08"",""Q09"",""Q10"",""Q11"",""Q12"",""Q13"",""Q14"",""Q15"",""Q16"",""Q17"",""Q18"",""Q19"",""Q20"",""Q21"",""Q22"",""Q01""]","[38270,40536,41924,44867,48291,51000,52673,54992,60085,62210,66980,77199,80482,82967,86285,87141,90087,94522,99817,103089,105884,108139,113975]","[]","[0,36219,38270,38990,40536,41924,44867,48291,49230,50092,51000,52673,54992,60085,62210,66980,75624,77199,80482,82967,84325,86285,87141,90087,94522,99817,103089,105884,108139,109665,113975,118964]","0.45454545454545453","0.3333333333333333","0","","","","","","","","","","","","","","","","","","","","","","","","","","","","",""
"9248","","","","survey-template","8","267208","0.0-4.0-4.0","162","1","2025-08-06 09:18:39","36c45c0696341be0efffe67d72a12abb","102.33.153.170","Mozilla/5.0 (Windows NT 10.0; Win64; x64; rv:142.0) Gecko/20100101 Firefox/142.0","","Firefox","142.0","Windows","10.0","https://app.prolific.com/","en-US,en;q=0.5","64d23e803ee1da9a01e52faa","687a1a965b9f5b85a264363e","68931d91c86fc5d36b7e85e5","1","64d23e803ee1da9a01e52faa","1","2025-08-06T09:23:10.277Z","","","","stress","{""Q01"":""1"",""Q02"":""4"",""Q03"":""1""}","[0,1,2]","[""Q01"",""Q02"",""Q03""]","[2740,4407,7943]","[]","[2740,4407,7943,9247]","1","0","0","","","","","","","","","","","","","","","","","","","","","","","","","","","","",""
"35545","","","","instructions","9","302756","0.0-5.0-0.0","162","1","2025-08-06 09:18:39","36c45c0696341be0efffe67d72a12abb","102.33.153.170","Mozilla/5.0 (Windows NT 10.0; Win64; x64; rv:142.0) Gecko/20100101 Firefox/142.0","","Firefox","142.0","Windows","10.0","https://app.prolific.com/","en-US,en;q=0.5","64d23e803ee1da9a01e52faa","687a1a965b9f5b85a264363e","68931d91c86fc5d36b7e85e5","1","64d23e803ee1da9a01e52faa","1","","","","","","","","","","","","","","","[{""page_index"":0,""viewing_time"":35544}]","","","","","","","","","","","","","","","","","","","","","","","","","","","",""
"7625","","<p>Before you start with this game please answer the following three questions yourself. </p>
  <p>Through this game, we measure several aspects of your cognitive performance, such as reaction times, multi-tasking capabilities </p>
  <p>and the ability to assess the situation you are in.</p>
  <p></p>
  <p><b>How good do you usually are in such tasks?</b></p>","93","html-slider-response","10","310381","0.0-6.0-0.0","162","1","2025-08-06 09:18:39","36c45c0696341be0efffe67d72a12abb","102.33.153.170","Mozilla/5.0 (Windows NT 10.0; Win64; x64; rv:142.0) Gecko/20100101 Firefox/142.0","","Firefox","142.0","Windows","10.0","https://app.prolific.com/","en-US,en;q=0.5","64d23e803ee1da9a01e52faa","687a1a965b9f5b85a264363e","68931d91c86fc5d36b7e85e5","1","64d23e803ee1da9a01e52faa","1","2025-08-06T09:23:53.450Z","","","","PreSkillQ","","","","","","","","","","","50","","","","","","","","","","","","","","","","","","","","","","","","","","",""
"3893","","<div style=""width:500px;"">
  <p>How well do you think you will perform in this task compared to other participants?</p>
  </div>","65","html-slider-response","11","314277","0.0-6.0-1.0","162","1","2025-08-06 09:18:39","36c45c0696341be0efffe67d72a12abb","102.33.153.170","Mozilla/5.0 (Windows NT 10.0; Win64; x64; rv:142.0) Gecko/20100101 Firefox/142.0","","Firefox","142.0","Windows","10.0","https://app.prolific.com/","en-US,en;q=0.5","64d23e803ee1da9a01e52faa","687a1a965b9f5b85a264363e","68931d91c86fc5d36b7e85e5","1","64d23e803ee1da9a01e52faa","1","2025-08-06T09:23:57.346Z","","","","PrePerfQ","","","","","","","","","","","50","","","","","","","","","","","","","","","","","","","","","","","","","","",""
"3845","","<div style=""width:500px;"">
  <p>What best describes how you currently feel?</p>
  </div>","71","html-slider-response","12","318125","0.0-6.0-2.0","162","1","2025-08-06 09:18:39","36c45c0696341be0efffe67d72a12abb","102.33.153.170","Mozilla/5.0 (Windows NT 10.0; Win64; x64; rv:142.0) Gecko/20100101 Firefox/142.0","","Firefox","142.0","Windows","10.0","https://app.prolific.com/","en-US,en;q=0.5","64d23e803ee1da9a01e52faa","687a1a965b9f5b85a264363e","68931d91c86fc5d36b7e85e5","1","64d23e803ee1da9a01e52faa","1","2025-08-06T09:24:01.194Z","","","","PreMotivationQ","","","","","","","","","","","50","","","","","","","","","","","","","","","","","","","","","","","","","","",""
"","","","","ctl-task-cpt","13","352641","0.0-7.0-0.0","162","1","2025-08-06 09:18:39","36c45c0696341be0efffe67d72a12abb","102.33.153.170","Mozilla/5.0 (Windows NT 10.0; Win64; x64; rv:142.0) Gecko/20100101 Firefox/142.0","","Firefox","142.0","Windows","10.0","https://app.prolific.com/","en-US,en;q=0.5","64d23e803ee1da9a01e52faa","687a1a965b9f5b85a264363e","68931d91c86fc5d36b7e85e5","1","64d23e803ee1da9a01e52faa","1","2025-08-06T09:24:35.710Z","","","","","","","","","","","","","","","","win-only","1","g1:NE,g2:SW","1","1","0","323869","3930","8931","31501","1","4","4","6","2","4","3","3","0","0.022727272727272728","3161","3000","1890","[""down"",""left""]","{""num_key_presses"":7,""num_perfect"":6,""num_errors"":1,""num_randdir"":0,""num_randdir_good_moves"":0,""num_whilered"":0,""num_whileblue"":0,""num_blue"":1,""num_good_moves"":6}","[457.8571428571429,460.10714667184016,0,457.8571428571429,460.10714667184016,102,457.8571428571429,460.10714667184016,202,457.8571428571429,460.10714667184016,304,457.8571428571429,460.10714667184016,417,457.8571428571429,460.10714667184016,520,457.8571428571429,460.10714667184016,625,457.8571428571429,460.10714667184016,725,457.8571428571429,455.10714667184016,825,460.3571428571429,413.85714667184016,925,460.3571428571429,408.85714667184016,1033,481.6071428571429,413.85714667184016,1133,505.3571428571429,418.85714667184016,1235,519.1071428571429,427.60714667184016,1335,510.3571428571429,470.10714667184016,1438,504.1071428571429,477.60714667184016,1542,504.1071428571429,477.60714667184016,1645,504.1071428571429,477.60714667184016,1753,504.1071428571429,477.60714667184016,1855,504.1071428571429,477.60714667184016,1965,462.8571428571429,467.60714667184016,2072,175.35714285714286,723.8571466718402,2175,87.85714285714286,887.6071466718402,2281,67.85714285714286,917.6071466718402,2393,22.85714285714286,948.8571466718402,2502,-3.392857142857139,981.3571466718402,2602,-3.392857142857139,981.3571466718402,2708,-3.392857142857139,981.3571466718402,2817,60.35714285714286,870.1071466718402,2923,67.85714285714286,858.8571466718402,3027,67.85714285714286,858.8571466718402,3129,67.85714285714286,858.8571466718402,3231,67.85714285714286,858.8571466718402,3339,67.85714285714286,858.8571466718402,3449,67.85714285714286,858.8571466718402,3561,67.85714285714286,858.8571466718402,3666,67.85714285714286,858.8571466718402,3771,77.85714285714286,850.1071466718402,3882,414.1071428571429,700.1071466718402,3987,464.1071428571429,700.1071466718402,4092,464.1071428571429,700.1071466718402,4193,464.1071428571429,700.1071466718402,4296,464.1071428571429,700.1071466718402,4399,464.1071428571429,700.1071466718402,4501,464.1071428571429,700.1071466718402,4611,464.1071428571429,700.1071466718402,4714,464.1071428571429,700.1071466718402,4818,464.1071428571429,700.1071466718402,4928]","[1454,1454,1000,0,454,""smooth"",""down"",""down"",""good_move"",2758,1304,2527.8,1454,-1223.8,""error"",""-"",""-"",""no_move"",6640,3882,2367.2,3759,513.8,""smooth"",""down"",""down"",""good_move"",13536,6896,2772.8,10315,448.2,""smooth"",""down"",""down"",""good_move"",16524,2988,2431.7,13536,556.3,""smooth"",""left"",""left"",""good_move"",19153,2629,1962.2,16524,666.8,""smooth"",""left"",""left"",""good_move"",22357,3204,2735.8,19153,468.2,""smooth"",""left"",""left"",""good_move""]"
"3664","","<div style=""width:500px;"">
  <p>What determined the result of this run?</p>
  </div>","91","html-slider-response","14","356305","0.0-7.0-1.0","162","1","2025-08-06 09:18:39","36c45c0696341be0efffe67d72a12abb","102.33.153.170","Mozilla/5.0 (Windows NT 10.0; Win64; x64; rv:142.0) Gecko/20100101 Firefox/142.0","","Firefox","142.0","Windows","10.0","https://app.prolific.com/","en-US,en;q=0.5","64d23e803ee1da9a01e52faa","687a1a965b9f5b85a264363e","68931d91c86fc5d36b7e85e5","1","64d23e803ee1da9a01e52faa","1","2025-08-06T09:24:39.375Z","","","","AttribQ","","","","","","","","","","","50","","","","","","","","","","","","","","","","","","","","","","","","","","",""
"2721","","<div style=""width:500px;"">
  <p>How much control did you have over the ball?</p>
  </div>","71","html-slider-response","15","359028","0.0-7.0-2.0","162","1","2025-08-06 09:18:39","36c45c0696341be0efffe67d72a12abb","102.33.153.170","Mozilla/5.0 (Windows NT 10.0; Win64; x64; rv:142.0) Gecko/20100101 Firefox/142.0","","Firefox","142.0","Windows","10.0","https://app.prolific.com/","en-US,en;q=0.5","64d23e803ee1da9a01e52faa","687a1a965b9f5b85a264363e","68931d91c86fc5d36b7e85e5","1","64d23e803ee1da9a01e52faa","1","2025-08-06T09:24:42.097Z","","","","ControlQ","","","","","","","","","","","50","","","","","","","","","","","","","","","","","","","","","","","","","","",""
"5324","","<div style=""width:500px;"">
  <p>How would you describe your current emotional state?</p>
  </div>","28","html-slider-response","16","364354","0.0-7.0-3.0","162","1","2025-08-06 09:18:39","36c45c0696341be0efffe67d72a12abb","102.33.153.170","Mozilla/5.0 (Windows NT 10.0; Win64; x64; rv:142.0) Gecko/20100101 Firefox/142.0","","Firefox","142.0","Windows","10.0","https://app.prolific.com/","en-US,en;q=0.5","64d23e803ee1da9a01e52faa","687a1a965b9f5b85a264363e","68931d91c86fc5d36b7e85e5","1","64d23e803ee1da9a01e52faa","1","2025-08-06T09:24:47.423Z","","","","StressQ","","","","","","","","","","","50","","","","","","","","","","","","","","","","","","","","","","","","","","",""
"3471","","<div style=""width:500px;"">
  <p>What best describes how you currently feel?</p>
  </div>","68","html-slider-response","17","367826","0.0-7.0-4.0","162","1","2025-08-06 09:18:39","36c45c0696341be0efffe67d72a12abb","102.33.153.170","Mozilla/5.0 (Windows NT 10.0; Win64; x64; rv:142.0) Gecko/20100101 Firefox/142.0","","Firefox","142.0","Windows","10.0","https://app.prolific.com/","en-US,en;q=0.5","64d23e803ee1da9a01e52faa","687a1a965b9f5b85a264363e","68931d91c86fc5d36b7e85e5","1","64d23e803ee1da9a01e52faa","1","2025-08-06T09:24:50.895Z","","","","MotivationQ","","","","","","","","","","","50","","","","","","","","","","","","","","","","","","","","","","","","","","",""
"","","","","ctl-task-cpt","18","405626","0.0-7.0-0.1","162","1","2025-08-06 09:18:39","36c45c0696341be0efffe67d72a12abb","102.33.153.170","Mozilla/5.0 (Windows NT 10.0; Win64; x64; rv:142.0) Gecko/20100101 Firefox/142.0","","Firefox","142.0","Windows","10.0","https://app.prolific.com/","en-US,en;q=0.5","64d23e803ee1da9a01e52faa","687a1a965b9f5b85a264363e","68931d91c86fc5d36b7e85e5","1","64d23e803ee1da9a01e52faa","1","2025-08-06T09:25:28.695Z","","","","","","","","","","","","","","","","win-only","0","g1:NW,g2:SE","0.9","2","0","373568","1490","6496","34795","1","4","8","6","2","8","8","11","3","0.08333333333333333","2049","3000","1760","[""down"",""right""]","{""num_key_presses"":6,""num_perfect"":6,""num_errors"":0,""num_randdir"":0,""num_randdir_good_moves"":0,""num_whilered"":0,""num_whileblue"":0,""num_blue"":3,""num_good_moves"":6}","[467.8571428571429,466.35714667184016,0,467.8571428571429,466.35714667184016,108,467.8571428571429,466.35714667184016,211,467.8571428571429,466.35714667184016,315,467.8571428571429,466.35714667184016,427,467.8571428571429,466.35714667184016,540,467.8571428571429,466.35714667184016,643,467.8571428571429,466.35714667184016,744,467.8571428571429,466.35714667184016,857,467.8571428571429,466.35714667184016,974,467.8571428571429,466.35714667184016,1087,467.8571428571429,466.35714667184016,1193,467.8571428571429,466.35714667184016,1296,467.8571428571429,466.35714667184016,1405,480.3571428571429,483.85714667184016,1511,845.3571428571429,835.1071466718402,1614,871.6071428571429,878.8571466718402,1720,875.3571428571429,885.1071466718402,1828,876.6071428571429,885.1071466718402,1937,876.6071428571429,885.1071466718402,2050,876.6071428571429,885.1071466718402,2160,876.6071428571429,885.1071466718402,2271,876.6071428571429,885.1071466718402,2373,876.6071428571429,885.1071466718402,2480,876.6071428571429,885.1071466718402,2586,724.1071428571429,763.8571466718402,2687,680.3571428571429,742.6071466718402,2791,680.3571428571429,742.6071466718402,2895,680.3571428571429,742.6071466718402,3007,680.3571428571429,742.6071466718402,3111,680.3571428571429,742.6071466718402,3211,680.3571428571429,742.6071466718402,3313,680.3571428571429,742.6071466718402,3421,680.3571428571429,742.6071466718402,3528,680.3571428571429,742.6071466718402,3633,680.3571428571429,742.6071466718402,3744,680.3571428571429,742.6071466718402,3846,680.3571428571429,742.6071466718402,3960,680.3571428571429,742.6071466718402,4071,680.3571428571429,742.6071466718402,4182,680.3571428571429,742.6071466718402,4290,680.3571428571429,742.6071466718402,4405,680.3571428571429,742.6071466718402,4507,680.3571428571429,742.6071466718402,4608,680.3571428571429,742.6071466718402,4708,680.3571428571429,742.6071466718402,4822,680.3571428571429,742.6071466718402,4929]","[1665,1665,1000,0,665,""smooth"",""down"",""down"",""good_move"",12179,10514,2618.7,9103,457.3,""smooth"",""right"",""right"",""good_move"",18364,6185,1874.3,15962,527.7,""smooth"",""down"",""down"",""good_move"",21564,3200,2540.8,18364,659.2,""smooth"",""right"",""right"",""good_move"",24455,2891,2380.4,21564,510.6,""smooth"",""down"",""down"",""good_move"",28090,3635,3167.1,24455,467.9,""smooth"",""right"",""right"",""good_move""]"
"3378","","<div style=""width:500px;"">
  <p>What determined the result of this run?</p>
  </div>","83","html-slider-response","19","409005","0.0-7.0-1.1","162","1","2025-08-06 09:18:39","36c45c0696341be0efffe67d72a12abb","102.33.153.170","Mozilla/5.0 (Windows NT 10.0; Win64; x64; rv:142.0) Gecko/20100101 Firefox/142.0","","Firefox","142.0","Windows","10.0","https://app.prolific.com/","en-US,en;q=0.5","64d23e803ee1da9a01e52faa","687a1a965b9f5b85a264363e","68931d91c86fc5d36b7e85e5","1","64d23e803ee1da9a01e52faa","1","2025-08-06T09:25:32.074Z","","","","AttribQ","","","","","","","","","","","50","","","","","","","","","","","","","","","","","","","","","","","","","","",""
"5982","","<div style=""width:500px;"">
  <p>How much control did you have over the ball?</p>
  </div>","69","html-slider-response","20","414988","0.0-7.0-2.1","162","1","2025-08-06 09:18:39","36c45c0696341be0efffe67d72a12abb","102.33.153.170","Mozilla/5.0 (Windows NT 10.0; Win64; x64; rv:142.0) Gecko/20100101 Firefox/142.0","","Firefox","142.0","Windows","10.0","https://app.prolific.com/","en-US,en;q=0.5","64d23e803ee1da9a01e52faa","687a1a965b9f5b85a264363e","68931d91c86fc5d36b7e85e5","1","64d23e803ee1da9a01e52faa","1","2025-08-06T09:25:38.057Z","","","","ControlQ","","","","","","","","","","","50","","","","","","","","","","","","","","","","","","","","","","","","","","",""
"3269","","<div style=""width:500px;"">
  <p>How would you describe your current emotional state?</p>
  </div>","22","html-slider-response","21","418259","0.0-7.0-3.1","162","1","2025-08-06 09:18:39","36c45c0696341be0efffe67d72a12abb","102.33.153.170","Mozilla/5.0 (Windows NT 10.0; Win64; x64; rv:142.0) Gecko/20100101 Firefox/142.0","","Firefox","142.0","Windows","10.0","https://app.prolific.com/","en-US,en;q=0.5","64d23e803ee1da9a01e52faa","687a1a965b9f5b85a264363e","68931d91c86fc5d36b7e85e5","1","64d23e803ee1da9a01e52faa","1","2025-08-06T09:25:41.328Z","","","","StressQ","","","","","","","","","","","50","","","","","","","","","","","","","","","","","","","","","","","","","","",""
"3758","","<div style=""width:500px;"">
  <p>What best describes how you currently feel?</p>
  </div>","78","html-slider-response","22","422020","0.0-7.0-4.1","162","1","2025-08-06 09:18:39","36c45c0696341be0efffe67d72a12abb","102.33.153.170","Mozilla/5.0 (Windows NT 10.0; Win64; x64; rv:142.0) Gecko/20100101 Firefox/142.0","","Firefox","142.0","Windows","10.0","https://app.prolific.com/","en-US,en;q=0.5","64d23e803ee1da9a01e52faa","687a1a965b9f5b85a264363e","68931d91c86fc5d36b7e85e5","1","64d23e803ee1da9a01e52faa","1","2025-08-06T09:25:45.089Z","","","","MotivationQ","","","","","","","","","","","50","","","","","","","","","","","","","","","","","","","","","","","","","","",""
"","","","","ctl-task-cpt","23","457087","0.0-7.0-0.2","162","1","2025-08-06 09:18:39","36c45c0696341be0efffe67d72a12abb","102.33.153.170","Mozilla/5.0 (Windows NT 10.0; Win64; x64; rv:142.0) Gecko/20100101 Firefox/142.0","","Firefox","142.0","Windows","10.0","https://app.prolific.com/","en-US,en;q=0.5","64d23e803ee1da9a01e52faa","687a1a965b9f5b85a264363e","68931d91c86fc5d36b7e85e5","1","64d23e803ee1da9a01e52faa","1","2025-08-06T09:26:20.156Z","","","","","","","","","","","","","","","","win-only","3","g1:SW,g2:NE","0.8","3","0","427762","1394","6400","32050","1","4","4","6","1","1","1","12","11","0.09090909090909091","1798","3000","1495","[""down"",""left""]","{""num_key_presses"":8,""num_perfect"":6,""num_errors"":0,""num_randdir"":2,""num_randdir_good_moves"":0,""num_whilered"":0,""num_whileblue"":0,""num_blue"":1,""num_good_moves"":6}","[461.6071428571429,470.10714667184016,0,461.6071428571429,470.10714667184016,102,461.6071428571429,470.10714667184016,206,461.6071428571429,470.10714667184016,309,461.6071428571429,470.10714667184016,419,461.6071428571429,470.10714667184016,526,461.6071428571429,470.10714667184016,631,461.6071428571429,470.10714667184016,740,461.6071428571429,470.10714667184016,847,461.6071428571429,470.10714667184016,951,461.6071428571429,470.10714667184016,1060,240.35714285714286,667.6071466718402,1171,159.10714285714286,723.8571466718402,1274,140.35714285714286,742.6071466718402,1381,106.60714285714286,786.3571466718402,1487,69.10714285714286,850.1071466718402,1595,69.10714285714286,850.1071466718402,1696,69.10714285714286,850.1071466718402,1801,69.10714285714286,850.1071466718402,1905,69.10714285714286,850.1071466718402,2015,69.10714285714286,850.1071466718402,2117,69.10714285714286,850.1071466718402,2225,69.10714285714286,850.1071466718402,2327,69.10714285714286,850.1071466718402,2440,146.60714285714286,796.3571466718402,2546,340.3571428571429,771.3571466718402,2655,384.1071428571429,796.3571466718402,2758,384.1071428571429,796.3571466718402,2865,384.1071428571429,796.3571466718402,2970,384.1071428571429,796.3571466718402,3075,384.1071428571429,796.3571466718402,3175,384.1071428571429,796.3571466718402,3282,384.1071428571429,796.3571466718402,3388,384.1071428571429,796.3571466718402,3496,384.1071428571429,796.3571466718402,3598,384.1071428571429,796.3571466718402,3701,384.1071428571429,796.3571466718402,3805,384.1071428571429,796.3571466718402,3908,384.1071428571429,796.3571466718402,4008,384.1071428571429,796.3571466718402,4109,384.1071428571429,796.3571466718402,4219,384.1071428571429,796.3571466718402,4327,384.1071428571429,796.3571466718402,4429,384.1071428571429,796.3571466718402,4537,384.1071428571429,796.3571466718402,4639,384.1071428571429,796.3571466718402,4739,384.1071428571429,796.3571466718402,4839,384.1071428571429,796.3571466718402,4939]","[1690,1690,1000,0,690,""smooth"",""left"",""left"",""good_move"",4809,3119,2647.5,1690,471.5,""smooth"",""down"",""down"",""good_move"",7525,2716,2224.5,4809,491.5,""oops"",""left"",""up"",""bad_move"",13601,6075,2212.8,10936,452.2,""smooth"",""down"",""down"",""good_move"",16768,3167,2687,13601,480,""oops"",""down"",""up"",""bad_move"",20001,3233,2681.1,16768,551.9,""smooth"",""down"",""down"",""good_move"",23064,3063,2683.1,20001,379.9,""smooth"",""down"",""down"",""good_move"",25422,2358,1927.1,23064,430.9,""smooth"",""left"",""left"",""good_move""]"
"3083","","<div style=""width:500px;"">
  <p>What determined the result of this run?</p>
  </div>","79","html-slider-response","24","460172","0.0-7.0-1.2","162","1","2025-08-06 09:18:39","36c45c0696341be0efffe67d72a12abb","102.33.153.170","Mozilla/5.0 (Windows NT 10.0; Win64; x64; rv:142.0) Gecko/20100101 Firefox/142.0","","Firefox","142.0","Windows","10.0","https://app.prolific.com/","en-US,en;q=0.5","64d23e803ee1da9a01e52faa","687a1a965b9f5b85a264363e","68931d91c86fc5d36b7e85e5","1","64d23e803ee1da9a01e52faa","1","2025-08-06T09:26:23.241Z","","","","AttribQ","","","","","","","","","","","50","","","","","","","","","","","","","","","","","","","","","","","","","","",""
"2955","","<div style=""width:500px;"">
  <p>How much control did you have over the ball?</p>
  </div>","80","html-slider-response","25","463128","0.0-7.0-2.2","162","1","2025-08-06 09:18:39","36c45c0696341be0efffe67d72a12abb","102.33.153.170","Mozilla/5.0 (Windows NT 10.0; Win64; x64; rv:142.0) Gecko/20100101 Firefox/142.0","","Firefox","142.0","Windows","10.0","https://app.prolific.com/","en-US,en;q=0.5","64d23e803ee1da9a01e52faa","687a1a965b9f5b85a264363e","68931d91c86fc5d36b7e85e5","1","64d23e803ee1da9a01e52faa","1","2025-08-06T09:26:26.197Z","","","","ControlQ","","","","","","","","","","","50","","","","","","","","","","","","","","","","","","","","","","","","","","",""
"3239","","<div style=""width:500px;"">
  <p>How would you describe your current emotional state?</p>
  </div>","86","html-slider-response","26","466370","0.0-7.0-3.2","162","1","2025-08-06 09:18:39","36c45c0696341be0efffe67d72a12abb","102.33.153.170","Mozilla/5.0 (Windows NT 10.0; Win64; x64; rv:142.0) Gecko/20100101 Firefox/142.0","","Firefox","142.0","Windows","10.0","https://app.prolific.com/","en-US,en;q=0.5","64d23e803ee1da9a01e52faa","687a1a965b9f5b85a264363e","68931d91c86fc5d36b7e85e5","1","64d23e803ee1da9a01e52faa","1","2025-08-06T09:26:29.439Z","","","","StressQ","","","","","","","","","","","50","","","","","","","","","","","","","","","","","","","","","","","","","","",""
"2695","","<div style=""width:500px;"">
  <p>What best describes how you currently feel?</p>
  </div>","79","html-slider-response","27","469065","0.0-7.0-4.2","162","1","2025-08-06 09:18:39","36c45c0696341be0efffe67d72a12abb","102.33.153.170","Mozilla/5.0 (Windows NT 10.0; Win64; x64; rv:142.0) Gecko/20100101 Firefox/142.0","","Firefox","142.0","Windows","10.0","https://app.prolific.com/","en-US,en;q=0.5","64d23e803ee1da9a01e52faa","687a1a965b9f5b85a264363e","68931d91c86fc5d36b7e85e5","1","64d23e803ee1da9a01e52faa","1","2025-08-06T09:26:32.134Z","","","","MotivationQ","","","","","","","","","","","50","","","","","","","","","","","","","","","","","","","","","","","","","","",""
"","","","","ctl-task-cpt","28","516471","0.0-7.0-0.3","162","1","2025-08-06 09:18:39","36c45c0696341be0efffe67d72a12abb","102.33.153.170","Mozilla/5.0 (Windows NT 10.0; Win64; x64; rv:142.0) Gecko/20100101 Firefox/142.0","","Firefox","142.0","Windows","10.0","https://app.prolific.com/","en-US,en;q=0.5","64d23e803ee1da9a01e52faa","687a1a965b9f5b85a264363e","68931d91c86fc5d36b7e85e5","1","64d23e803ee1da9a01e52faa","1","2025-08-06T09:27:19.540Z","","","","","","","","","","","","","","","","win-only","3","g1:SW,g2:NE","0.7","4","0","474807","1247","6256","44402","1","4","8","6","2","8","7","19","12","0.14393939393939395","1630","3000","495","[""up"",""right""]","{""num_key_presses"":12,""num_perfect"":8,""num_errors"":1,""num_randdir"":3,""num_randdir_good_moves"":1,""num_whilered"":0,""num_whileblue"":1,""num_blue"":1,""num_good_moves"":9}","[467.8571428571429,458.85714667184016,0,467.8571428571429,458.85714667184016,110,467.8571428571429,458.85714667184016,210,467.8571428571429,458.85714667184016,315,467.8571428571429,458.85714667184016,425,467.8571428571429,458.85714667184016,526,467.8571428571429,458.85714667184016,639,467.8571428571429,458.85714667184016,751,664.1071428571429,317.60714667184016,857,807.8571428571429,215.10714667184013,960,807.8571428571429,200.10714667184013,1067,799.1071428571429,156.35714667184013,1170,816.6071428571429,87.60714667184013,1278,835.3571428571429,78.85714667184013,1381,835.3571428571429,77.60714667184013,1482,835.3571428571429,77.60714667184013,1590,835.3571428571429,77.60714667184013,1702,835.3571428571429,77.60714667184013,1804,835.3571428571429,77.60714667184013,1910,835.3571428571429,77.60714667184013,2014,835.3571428571429,77.60714667184013,2124,765.3571428571429,120.10714667184013,2232,569.1071428571429,270.10714667184016,2338,495.3571428571429,375.10714667184016,2446,485.3571428571429,395.10714667184016,2549,484.1071428571429,401.35714667184016,2650,484.1071428571429,401.35714667184016,2751,484.1071428571429,401.35714667184016,2859,484.1071428571429,401.35714667184016,2963,475.3571428571429,412.60714667184016,3075,410.3571428571429,502.60714667184016,3188,375.3571428571429,557.6071466718402,3302,371.6071428571429,565.1071466718402,3407,374.1071428571429,560.1071466718402,3509,379.1071428571429,550.1071466718402,3622,380.3571428571429,550.1071466718402,3722,380.3571428571429,550.1071466718402,3823,380.3571428571429,550.1071466718402,3931,380.3571428571429,550.1071466718402,4038,380.3571428571429,550.1071466718402,4139,380.3571428571429,550.1071466718402,4239,380.3571428571429,550.1071466718402,4342,380.3571428571429,550.1071466718402,4445,380.3571428571429,550.1071466718402,4547,380.3571428571429,550.1071466718402,4653,380.3571428571429,550.1071466718402,4754,380.3571428571429,550.1071466718402,4858,380.3571428571429,550.1071466718402,4972]","[1683,1683,1000,0,683,""oops"",""up"",""right"",""good_move"",4836,3153,2182.6,1683,970.4,""smooth"",""up"",""up"",""good_move"",8431,3595,3019.9,4836,575.1,""oops"",""right"",""left"",""bad_move"",12493,4062,3486.6,8431,575.4,""smooth"",""up"",""up"",""good_move"",15392,2898,2423.3,12494,474.7,""smooth"",""right"",""right"",""good_move"",19317,3925,3503.6,15392,421.4,""smooth"",""up"",""up"",""good_move"",22469,3152,2589.5,19317,562.5,""smooth"",""right"",""right"",""good_move"",25623,3153,2731,22470,422,""while_blue"",""right"",""down"",""bad_move"",29070,3447,2783.6,25623,663.4,""oops"",""up"",""left"",""bad_move"",31889,2819,1754.2,29070,1064.8,""smooth"",""right"",""right"",""good_move"",34992,3103,2540.9,31889,562.1,""smooth"",""right"",""right"",""good_move"",37918,2926,2433.4,34992,492.6,""smooth"",""up"",""up"",""good_move""]"
"4875","","<div style=""width:500px;"">
  <p>What determined the result of this run?</p>
  </div>","93","html-slider-response","29","521345","0.0-7.0-1.3","162","1","2025-08-06 09:18:39","36c45c0696341be0efffe67d72a12abb","102.33.153.170","Mozilla/5.0 (Windows NT 10.0; Win64; x64; rv:142.0) Gecko/20100101 Firefox/142.0","","Firefox","142.0","Windows","10.0","https://app.prolific.com/","en-US,en;q=0.5","64d23e803ee1da9a01e52faa","687a1a965b9f5b85a264363e","68931d91c86fc5d36b7e85e5","1","64d23e803ee1da9a01e52faa","1","2025-08-06T09:27:24.414Z","","","","AttribQ","","","","","","","","","","","50","","","","","","","","","","","","","","","","","","","","","","","","","","",""
"2542","","<div style=""width:500px;"">
  <p>How much control did you have over the ball?</p>
  </div>","80","html-slider-response","30","523890","0.0-7.0-2.3","162","1","2025-08-06 09:18:39","36c45c0696341be0efffe67d72a12abb","102.33.153.170","Mozilla/5.0 (Windows NT 10.0; Win64; x64; rv:142.0) Gecko/20100101 Firefox/142.0","","Firefox","142.0","Windows","10.0","https://app.prolific.com/","en-US,en;q=0.5","64d23e803ee1da9a01e52faa","687a1a965b9f5b85a264363e","68931d91c86fc5d36b7e85e5","1","64d23e803ee1da9a01e52faa","1","2025-08-06T09:27:26.959Z","","","","ControlQ","","","","","","","","","","","50","","","","","","","","","","","","","","","","","","","","","","","","","","",""
"2629","","<div style=""width:500px;"">
  <p>How would you describe your current emotional state?</p>
  </div>","80","html-slider-response","31","526521","0.0-7.0-3.3","162","1","2025-08-06 09:18:39","36c45c0696341be0efffe67d72a12abb","102.33.153.170","Mozilla/5.0 (Windows NT 10.0; Win64; x64; rv:142.0) Gecko/20100101 Firefox/142.0","","Firefox","142.0","Windows","10.0","https://app.prolific.com/","en-US,en;q=0.5","64d23e803ee1da9a01e52faa","687a1a965b9f5b85a264363e","68931d91c86fc5d36b7e85e5","1","64d23e803ee1da9a01e52faa","1","2025-08-06T09:27:29.590Z","","","","StressQ","","","","","","","","","","","50","","","","","","","","","","","","","","","","","","","","","","","","","","",""
"2984","","<div style=""width:500px;"">
  <p>What best describes how you currently feel?</p>
  </div>","81","html-slider-response","32","529507","0.0-7.0-4.3","162","1","2025-08-06 09:18:39","36c45c0696341be0efffe67d72a12abb","102.33.153.170","Mozilla/5.0 (Windows NT 10.0; Win64; x64; rv:142.0) Gecko/20100101 Firefox/142.0","","Firefox","142.0","Windows","10.0","https://app.prolific.com/","en-US,en;q=0.5","64d23e803ee1da9a01e52faa","687a1a965b9f5b85a264363e","68931d91c86fc5d36b7e85e5","1","64d23e803ee1da9a01e52faa","1","2025-08-06T09:27:32.576Z","","","","MotivationQ","","","","","","","","","","","50","","","","","","","","","","","","","","","","","","","","","","","","","","",""
"","","","","ctl-task-cpt","33","557571","0.0-7.0-0.4","162","1","2025-08-06 09:18:39","36c45c0696341be0efffe67d72a12abb","102.33.153.170","Mozilla/5.0 (Windows NT 10.0; Win64; x64; rv:142.0) Gecko/20100101 Firefox/142.0","","Firefox","142.0","Windows","10.0","https://app.prolific.com/","en-US,en;q=0.5","64d23e803ee1da9a01e52faa","687a1a965b9f5b85a264363e","68931d91c86fc5d36b7e85e5","1","64d23e803ee1da9a01e52faa","1","2025-08-06T09:28:00.640Z","","","","","","","","","","","","","","","","win-only","1","g1:NE,g2:SW","0.6","5","0","535249","1141","6155","25051","1","4","8","6","1","1","1","20","19","0.15151515151515152","1692","3000","2055","[""up"",""right""]","{""num_key_presses"":4,""num_perfect"":4,""num_errors"":0,""num_randdir"":0,""num_randdir_good_moves"":0,""num_whilered"":0,""num_whileblue"":0,""num_blue"":2,""num_good_moves"":4}","[452.8571428571429,470.10714667184016,0,452.8571428571429,470.10714667184016,107,452.8571428571429,470.10714667184016,212,452.8571428571429,470.10714667184016,319,452.8571428571429,470.10714667184016,423,452.8571428571429,470.10714667184016,531,452.8571428571429,470.10714667184016,639,452.8571428571429,470.10714667184016,740,452.8571428571429,470.10714667184016,843,452.8571428571429,470.10714667184016,945,471.6071428571429,443.85714667184016,1047,709.1071428571429,248.85714667184013,1153,750.3571428571429,160.10714667184013,1263,760.3571428571429,141.35714667184013,1363,804.1071428571429,103.85714667184013,1470,806.6071428571429,101.35714667184013,1570,806.6071428571429,101.35714667184013,1670,806.6071428571429,101.35714667184013,1771,806.6071428571429,101.35714667184013,1885,806.6071428571429,101.35714667184013,1987,806.6071428571429,101.35714667184013,2087,806.6071428571429,101.35714667184013,2191,689.1071428571429,245.10714667184013,2300,590.3571428571429,390.10714667184016,2406,560.3571428571429,426.35714667184016,2515,560.3571428571429,426.35714667184016,2618,560.3571428571429,426.35714667184016,2718,560.3571428571429,426.35714667184016,2820,560.3571428571429,426.35714667184016,2925,560.3571428571429,426.35714667184016,3032,560.3571428571429,426.35714667184016,3142,560.3571428571429,426.35714667184016,3251,560.3571428571429,426.35714667184016,3364,560.3571428571429,426.35714667184016,3469,560.3571428571429,426.35714667184016,3572,560.3571428571429,426.35714667184016,3676,560.3571428571429,426.35714667184016,3776,560.3571428571429,426.35714667184016,3887,560.3571428571429,426.35714667184016,3993,560.3571428571429,426.35714667184016,4093,560.3571428571429,426.35714667184016,4194,560.3571428571429,426.35714667184016,4296,560.3571428571429,426.35714667184016,4397,560.3571428571429,426.35714667184016,4500,560.3571428571429,426.35714667184016,4603,560.3571428571429,426.35714667184016,4710,560.3571428571429,426.35714667184016,4822,560.3571428571429,426.35714667184016,4930]","[8030,8030,2161.5,5372,496.5,""smooth"",""right"",""right"",""good_move"",11254,3224,2663.3,8030,560.7,""smooth"",""right"",""right"",""good_move"",15854,4600,3631.2,11254,968.8,""smooth"",""up"",""up"",""good_move"",18672,2817,1893.3,15855,923.7,""smooth"",""up"",""up"",""good_move""]"
"7044","","<div style=""width:500px;"">
  <p>What determined the result of this run?</p>
  </div>","89","html-slider-response","34","564617","0.0-7.0-1.4","162","1","2025-08-06 09:18:39","36c45c0696341be0efffe67d72a12abb","102.33.153.170","Mozilla/5.0 (Windows NT 10.0; Win64; x64; rv:142.0) Gecko/20100101 Firefox/142.0","","Firefox","142.0","Windows","10.0","https://app.prolific.com/","en-US,en;q=0.5","64d23e803ee1da9a01e52faa","687a1a965b9f5b85a264363e","68931d91c86fc5d36b7e85e5","1","64d23e803ee1da9a01e52faa","1","2025-08-06T09:28:07.686Z","","","","AttribQ","","","","","","","","","","","50","","","","","","","","","","","","","","","","","","","","","","","","","","",""
"2653","","<div style=""width:500px;"">
  <p>How much control did you have over the ball?</p>
  </div>","69","html-slider-response","35","567271","0.0-7.0-2.4","162","1","2025-08-06 09:18:39","36c45c0696341be0efffe67d72a12abb","102.33.153.170","Mozilla/5.0 (Windows NT 10.0; Win64; x64; rv:142.0) Gecko/20100101 Firefox/142.0","","Firefox","142.0","Windows","10.0","https://app.prolific.com/","en-US,en;q=0.5","64d23e803ee1da9a01e52faa","687a1a965b9f5b85a264363e","68931d91c86fc5d36b7e85e5","1","64d23e803ee1da9a01e52faa","1","2025-08-06T09:28:10.341Z","","","","ControlQ","","","","","","","","","","","50","","","","","","","","","","","","","","","","","","","","","","","","","","",""
"3148","","<div style=""width:500px;"">
  <p>How would you describe your current emotional state?</p>
  </div>","77","html-slider-response","36","570423","0.0-7.0-3.4","162","1","2025-08-06 09:18:39","36c45c0696341be0efffe67d72a12abb","102.33.153.170","Mozilla/5.0 (Windows NT 10.0; Win64; x64; rv:142.0) Gecko/20100101 Firefox/142.0","","Firefox","142.0","Windows","10.0","https://app.prolific.com/","en-US,en;q=0.5","64d23e803ee1da9a01e52faa","687a1a965b9f5b85a264363e","68931d91c86fc5d36b7e85e5","1","64d23e803ee1da9a01e52faa","1","2025-08-06T09:28:13.492Z","","","","StressQ","","","","","","","","","","","50","","","","","","","","","","","","","","","","","","","","","","","","","","",""
"3259","","<div style=""width:500px;"">
  <p>What best describes how you currently feel?</p>
  </div>","77","html-slider-response","37","573683","0.0-7.0-4.4","162","1","2025-08-06 09:18:39","36c45c0696341be0efffe67d72a12abb","102.33.153.170","Mozilla/5.0 (Windows NT 10.0; Win64; x64; rv:142.0) Gecko/20100101 Firefox/142.0","","Firefox","142.0","Windows","10.0","https://app.prolific.com/","en-US,en;q=0.5","64d23e803ee1da9a01e52faa","687a1a965b9f5b85a264363e","68931d91c86fc5d36b7e85e5","1","64d23e803ee1da9a01e52faa","1","2025-08-06T09:28:16.752Z","","","","MotivationQ","","","","","","","","","","","50","","","","","","","","","","","","","","","","","","","","","","","","","","",""
"","","","","ctl-task-cpt","38","631610","0.0-7.0-0.5","162","1","2025-08-06 09:18:39","36c45c0696341be0efffe67d72a12abb","102.33.153.170","Mozilla/5.0 (Windows NT 10.0; Win64; x64; rv:142.0) Gecko/20100101 Firefox/142.0","","Firefox","142.0","Windows","10.0","https://app.prolific.com/","en-US,en;q=0.5","64d23e803ee1da9a01e52faa","687a1a965b9f5b85a264363e","68931d91c86fc5d36b7e85e5","1","64d23e803ee1da9a01e52faa","1","2025-08-06T09:29:14.679Z","","","","","","","","","","","","","","","","win-only","2","g1:SE,g2:NW","0.5","6","0","579425","1307","6311","54914","1","4","4","6","2","4","3","23","20","0.17424242424242425","1481","3000","250","[""left"",""up""]","{""num_key_presses"":16,""num_perfect"":9,""num_errors"":1,""num_randdir"":6,""num_randdir_good_moves"":1,""num_whilered"":0,""num_whileblue"":1,""num_blue"":1,""num_good_moves"":11}","[450.3571428571429,466.35714667184016,0,450.3571428571429,466.35714667184016,108,450.3571428571429,466.35714667184016,208,450.3571428571429,466.35714667184016,309,450.3571428571429,466.35714667184016,410,450.3571428571429,466.35714667184016,520,450.3571428571429,466.35714667184016,622,450.3571428571429,466.35714667184016,733,450.3571428571429,466.35714667184016,834,210.35714285714286,127.60714667184013,943,160.35714285714286,75.10714667184013,1052,144.10714285714286,75.10714667184013,1160,129.10714285714286,75.10714667184013,1265,129.10714285714286,75.10714667184013,1368,129.10714285714286,75.10714667184013,1478,129.10714285714286,75.10714667184013,1579,129.10714285714286,75.10714667184013,1679,129.10714285714286,75.10714667184013,1789,129.10714285714286,75.10714667184013,1893,129.10714285714286,75.10714667184013,2003,129.10714285714286,75.10714667184013,2103,129.10714285714286,75.10714667184013,2211,129.10714285714286,75.10714667184013,2322,129.10714285714286,75.10714667184013,2422,129.10714285714286,75.10714667184013,2531,256.6071428571429,218.85714667184013,2641,350.3571428571429,338.85714667184016,2755,350.3571428571429,338.85714667184016,2857,350.3571428571429,338.85714667184016,2964,350.3571428571429,338.85714667184016,3074,350.3571428571429,338.85714667184016,3174,350.3571428571429,338.85714667184016,3282,350.3571428571429,338.85714667184016,3391,350.3571428571429,338.85714667184016,3503,350.3571428571429,338.85714667184016,3617,350.3571428571429,338.85714667184016,3724,350.3571428571429,338.85714667184016,3830,350.3571428571429,338.85714667184016,3934,350.3571428571429,338.85714667184016,4047,350.3571428571429,338.85714667184016,4151,350.3571428571429,338.85714667184016,4252,350.3571428571429,338.85714667184016,4360,350.3571428571429,338.85714667184016,4469,350.3571428571429,338.85714667184016,4569,350.3571428571429,338.85714667184016,4678,350.3571428571429,338.85714667184016,4780,350.3571428571429,338.85714667184016,4893]","[1656,1656,1000,0,656,""smooth"",""left"",""left"",""good_move"",4472,2816,2314.8,1656,501.2,""smooth"",""left"",""left"",""good_move"",8069,3597,3068.7,4472,528.3,""smooth"",""left"",""left"",""good_move"",10768,2699,1174.7,8069,1524.3,""smooth"",""up"",""up"",""good_move"",13527,2759,2269.7,10768,489.3,""oops"",""up"",""right"",""bad_move"",16893,3366,2885.3,13527,480.7,""oops"",""up"",""right"",""bad_move"",19963,3070,2523.9,16893,546.1,""smooth"",""up"",""up"",""good_move"",23085,3121,2330.2,19964,790.8,""oops"",""up"",""right"",""bad_move"",26073,2987,2479.6,23086,507.4,""oops"",""left"",""up"",""good_move"",29212,3139,2425.6,26073,713.4,""oops"",""left"",""down"",""bad_move"",32779,3567,2555.3,29212,1011.7,""smooth"",""left"",""left"",""good_move"",35887,3108,2405,32779,703,""smooth"",""left"",""left"",""good_move"",38963,3076,2427.7,35887,648.3,""oops"",""left"",""right"",""bad_move"",41662,2699,2046.4,38963,652.6,""smooth"",""left"",""left"",""good_move"",44920,3258,2845,41662,413,""while_blue"",""left"",""left"",""good_move"",48349,3429,3016,44920,413,""smooth"",""up"",""up"",""good_move""]"
"3213","","<div style=""width:500px;"">
  <p>What determined the result of this run?</p>
  </div>","89","html-slider-response","39","634822","0.0-7.0-1.5","162","1","2025-08-06 09:18:39","36c45c0696341be0efffe67d72a12abb","102.33.153.170","Mozilla/5.0 (Windows NT 10.0; Win64; x64; rv:142.0) Gecko/20100101 Firefox/142.0","","Firefox","142.0","Windows","10.0","https://app.prolific.com/","en-US,en;q=0.5","64d23e803ee1da9a01e52faa","687a1a965b9f5b85a264363e","68931d91c86fc5d36b7e85e5","1","64d23e803ee1da9a01e52faa","1","2025-08-06T09:29:17.891Z","","","","AttribQ","","","","","","","","","","","50","","","","","","","","","","","","","","","","","","","","","","","","","","",""
"2684","","<div style=""width:500px;"">
  <p>How much control did you have over the ball?</p>
  </div>","67","html-slider-response","40","637507","0.0-7.0-2.5","162","1","2025-08-06 09:18:39","36c45c0696341be0efffe67d72a12abb","102.33.153.170","Mozilla/5.0 (Windows NT 10.0; Win64; x64; rv:142.0) Gecko/20100101 Firefox/142.0","","Firefox","142.0","Windows","10.0","https://app.prolific.com/","en-US,en;q=0.5","64d23e803ee1da9a01e52faa","687a1a965b9f5b85a264363e","68931d91c86fc5d36b7e85e5","1","64d23e803ee1da9a01e52faa","1","2025-08-06T09:29:20.576Z","","","","ControlQ","","","","","","","","","","","50","","","","","","","","","","","","","","","","","","","","","","","","","","",""
"2849","","<div style=""width:500px;"">
  <p>How would you describe your current emotional state?</p>
  </div>","33","html-slider-response","41","640358","0.0-7.0-3.5","162","1","2025-08-06 09:18:39","36c45c0696341be0efffe67d72a12abb","102.33.153.170","Mozilla/5.0 (Windows NT 10.0; Win64; x64; rv:142.0) Gecko/20100101 Firefox/142.0","","Firefox","142.0","Windows","10.0","https://app.prolific.com/","en-US,en;q=0.5","64d23e803ee1da9a01e52faa","687a1a965b9f5b85a264363e","68931d91c86fc5d36b7e85e5","1","64d23e803ee1da9a01e52faa","1","2025-08-06T09:29:23.427Z","","","","StressQ","","","","","","","","","","","50","","","","","","","","","","","","","","","","","","","","","","","","","","",""
"2845","","<div style=""width:500px;"">
  <p>What best describes how you currently feel?</p>
  </div>","69","html-slider-response","42","643205","0.0-7.0-4.5","162","1","2025-08-06 09:18:39","36c45c0696341be0efffe67d72a12abb","102.33.153.170","Mozilla/5.0 (Windows NT 10.0; Win64; x64; rv:142.0) Gecko/20100101 Firefox/142.0","","Firefox","142.0","Windows","10.0","https://app.prolific.com/","en-US,en;q=0.5","64d23e803ee1da9a01e52faa","687a1a965b9f5b85a264363e","68931d91c86fc5d36b7e85e5","1","64d23e803ee1da9a01e52faa","1","2025-08-06T09:29:26.274Z","","","","MotivationQ","","","","","","","","","","","50","","","","","","","","","","","","","","","","","","","","","","","","","","",""
"","","","","ctl-task-cpt","43","708419","0.0-7.0-0.6","162","1","2025-08-06 09:18:39","36c45c0696341be0efffe67d72a12abb","102.33.153.170","Mozilla/5.0 (Windows NT 10.0; Win64; x64; rv:142.0) Gecko/20100101 Firefox/142.0","","Firefox","142.0","Windows","10.0","https://app.prolific.com/","en-US,en;q=0.5","64d23e803ee1da9a01e52faa","687a1a965b9f5b85a264363e","68931d91c86fc5d36b7e85e5","1","64d23e803ee1da9a01e52faa","1","2025-08-06T09:30:31.488Z","","","","","","","","","","","","","","","","win-only","0","g1:NW,g2:SE","0.4","7","0","648946","1180","6183","62209","1","4","8","6","2","-8","-8","15","23","0.11363636363636363","1799","3000","-1175","[""down"",""right""]","{""num_key_presses"":12,""num_perfect"":4,""num_errors"":0,""num_randdir"":8,""num_randdir_good_moves"":3,""num_whilered"":0,""num_whileblue"":0,""num_blue"":5,""num_good_moves"":7}","[455.3571428571429,465.10714667184016,0,455.3571428571429,465.10714667184016,100,455.3571428571429,465.10714667184016,207,455.3571428571429,465.10714667184016,315,455.3571428571429,465.10714667184016,421,455.3571428571429,465.10714667184016,524,455.3571428571429,465.10714667184016,630,455.3571428571429,465.10714667184016,732,455.3571428571429,465.10714667184016,833,455.3571428571429,465.10714667184016,938,455.3571428571429,465.10714667184016,1045,455.3571428571429,465.10714667184016,1148,815.3571428571429,885.1071466718402,1253,810.3571428571429,872.6071466718402,1354,800.3571428571429,862.6071466718402,1462,781.6071428571429,830.1071466718402,1572,781.6071428571429,827.6071466718402,1681,781.6071428571429,827.6071466718402,1791,781.6071428571429,827.6071466718402,1897,781.6071428571429,827.6071466718402,2005,781.6071428571429,827.6071466718402,2105,781.6071428571429,827.6071466718402,2216,781.6071428571429,827.6071466718402,2321,781.6071428571429,827.6071466718402,2428,781.6071428571429,827.6071466718402,2530,781.6071428571429,827.6071466718402,2639,781.6071428571429,827.6071466718402,2741,731.6071428571429,750.1071466718402,2842,705.3571428571429,695.1071466718402,2946,705.3571428571429,695.1071466718402,3050,705.3571428571429,695.1071466718402,3157,705.3571428571429,695.1071466718402,3258,705.3571428571429,695.1071466718402,3366,705.3571428571429,695.1071466718402,3466,705.3571428571429,695.1071466718402,3566,705.3571428571429,695.1071466718402,3670,705.3571428571429,695.1071466718402,3778,705.3571428571429,695.1071466718402,3878,705.3571428571429,695.1071466718402,3988,705.3571428571429,695.1071466718402,4091,705.3571428571429,695.1071466718402,4191,705.3571428571429,695.1071466718402,4298,705.3571428571429,695.1071466718402,4404,705.3571428571429,695.1071466718402,4504,705.3571428571429,695.1071466718402,4610,705.3571428571429,695.1071466718402,4714,705.3571428571429,695.1071466718402,4821,705.3571428571429,695.1071466718402,4921]","[2270,2270,1000,0,1270,""oops"",""down"",""left"",""bad_move"",5635,3364,2862.8,2271,501.2,""oops"",""down"",""up"",""bad_move"",12482,6847,3176.2,8805,500.8,""smooth"",""right"",""right"",""good_move"",25664,13182,2446.8,22576,641.2,""smooth"",""right"",""right"",""good_move"",28846,3182,2516.9,25664,665.1,""smooth"",""right"",""right"",""good_move"",31782,2936,2412.8,28846,523.2,""smooth"",""right"",""right"",""good_move"",34815,3033,2496.3,31782,536.7,""oops"",""down"",""down"",""good_move"",37644,2828,2161.4,34816,666.6,""oops"",""down"",""left"",""bad_move"",40706,3062,2505.4,37644,556.6,""oops"",""down"",""down"",""good_move"",43958,3252,2782.5,40706,469.5,""oops"",""down"",""left"",""bad_move"",47336,3378,2749.6,43958,628.4,""oops"",""down"",""up"",""bad_move"",53798,6461,2835.2,50488,474.8,""oops"",""down"",""down"",""good_move""]"
"3449","","<div style=""width:500px;"">
  <p>What determined the result of this run?</p>
  </div>","69","html-slider-response","44","711868","0.0-7.0-1.6","162","1","2025-08-06 09:18:39","36c45c0696341be0efffe67d72a12abb","102.33.153.170","Mozilla/5.0 (Windows NT 10.0; Win64; x64; rv:142.0) Gecko/20100101 Firefox/142.0","","Firefox","142.0","Windows","10.0","https://app.prolific.com/","en-US,en;q=0.5","64d23e803ee1da9a01e52faa","687a1a965b9f5b85a264363e","68931d91c86fc5d36b7e85e5","1","64d23e803ee1da9a01e52faa","1","2025-08-06T09:30:34.937Z","","","","AttribQ","","","","","","","","","","","50","","","","","","","","","","","","","","","","","","","","","","","","","","",""
"2335","","<div style=""width:500px;"">
  <p>How much control did you have over the ball?</p>
  </div>","68","html-slider-response","45","714205","0.0-7.0-2.6","162","1","2025-08-06 09:18:39","36c45c0696341be0efffe67d72a12abb","102.33.153.170","Mozilla/5.0 (Windows NT 10.0; Win64; x64; rv:142.0) Gecko/20100101 Firefox/142.0","","Firefox","142.0","Windows","10.0","https://app.prolific.com/","en-US,en;q=0.5","64d23e803ee1da9a01e52faa","687a1a965b9f5b85a264363e","68931d91c86fc5d36b7e85e5","1","64d23e803ee1da9a01e52faa","1","2025-08-06T09:30:37.274Z","","","","ControlQ","","","","","","","","","","","50","","","","","","","","","","","","","","","","","","","","","","","","","","",""
"2469","","<div style=""width:500px;"">
  <p>How would you describe your current emotional state?</p>
  </div>","35","html-slider-response","46","716675","0.0-7.0-3.6","162","1","2025-08-06 09:18:39","36c45c0696341be0efffe67d72a12abb","102.33.153.170","Mozilla/5.0 (Windows NT 10.0; Win64; x64; rv:142.0) Gecko/20100101 Firefox/142.0","","Firefox","142.0","Windows","10.0","https://app.prolific.com/","en-US,en;q=0.5","64d23e803ee1da9a01e52faa","687a1a965b9f5b85a264363e","68931d91c86fc5d36b7e85e5","1","64d23e803ee1da9a01e52faa","1","2025-08-06T09:30:39.744Z","","","","StressQ","","","","","","","","","","","50","","","","","","","","","","","","","","","","","","","","","","","","","","",""
"3108","","<div style=""width:500px;"">
  <p>What best describes how you currently feel?</p>
  </div>","80","html-slider-response","47","719786","0.0-7.0-4.6","162","1","2025-08-06 09:18:39","36c45c0696341be0efffe67d72a12abb","102.33.153.170","Mozilla/5.0 (Windows NT 10.0; Win64; x64; rv:142.0) Gecko/20100101 Firefox/142.0","","Firefox","142.0","Windows","10.0","https://app.prolific.com/","en-US,en;q=0.5","64d23e803ee1da9a01e52faa","687a1a965b9f5b85a264363e","68931d91c86fc5d36b7e85e5","1","64d23e803ee1da9a01e52faa","1","2025-08-06T09:30:42.855Z","","","","MotivationQ","","","","","","","","","","","50","","","","","","","","","","","","","","","","","","","","","","","","","","",""
"","","","","ctl-task-cpt","48","807433","0.0-7.0-0.7","162","1","2025-08-06 09:18:39","36c45c0696341be0efffe67d72a12abb","102.33.153.170","Mozilla/5.0 (Windows NT 10.0; Win64; x64; rv:142.0) Gecko/20100101 Firefox/142.0","","Firefox","142.0","Windows","10.0","https://app.prolific.com/","en-US,en;q=0.5","64d23e803ee1da9a01e52faa","687a1a965b9f5b85a264363e","68931d91c86fc5d36b7e85e5","1","64d23e803ee1da9a01e52faa","1","2025-08-06T09:32:10.503Z","","","","","","","","","","","","","","","","win-only","3","g1:SW,g2:NE","0.3","8","0","725527","1066","6072","84629","1","4","4","6","1","-1","-2","13","15","0.09848484848484848","2286","3000","-1180","[""down"",""left""]","{""num_key_presses"":14,""num_perfect"":4,""num_errors"":1,""num_randdir"":9,""num_randdir_good_moves"":4,""num_whilered"":0,""num_whileblue"":0,""num_blue"":10,""num_good_moves"":8}","[450.3571428571429,455.10714667184016,0,450.3571428571429,455.10714667184016,107,450.3571428571429,455.10714667184016,211,450.3571428571429,455.10714667184016,313,450.3571428571429,455.10714667184016,423,450.3571428571429,455.10714667184016,533,446.6071428571429,458.85714667184016,641,390.3571428571429,510.10714667184016,741,390.3571428571429,511.35714667184016,847,390.3571428571429,511.35714667184016,957,390.3571428571429,511.35714667184016,1062,390.3571428571429,512.6071466718402,1168,390.3571428571429,512.6071466718402,1278,390.3571428571429,512.6071466718402,1386,390.3571428571429,512.6071466718402,1486,390.3571428571429,512.6071466718402,1586,390.3571428571429,512.6071466718402,1687,184.10714285714286,688.8571466718402,1794,126.60714285714286,780.1071466718402,1900,117.85714285714286,795.1071466718402,2001,115.35714285714286,798.8571466718402,2101,115.35714285714286,798.8571466718402,2203,115.35714285714286,798.8571466718402,2310,115.35714285714286,798.8571466718402,2419,115.35714285714286,798.8571466718402,2525,115.35714285714286,798.8571466718402,2632,115.35714285714286,798.8571466718402,2740,115.35714285714286,798.8571466718402,2845,115.35714285714286,798.8571466718402,2957,115.35714285714286,798.8571466718402,3063,115.35714285714286,798.8571466718402,3173,115.35714285714286,798.8571466718402,3274,115.35714285714286,798.8571466718402,3384,115.35714285714286,798.8571466718402,3487,115.35714285714286,798.8571466718402,3588,115.35714285714286,798.8571466718402,3699,117.85714285714286,792.6071466718402,3800,122.85714285714286,775.1071466718402,3901,122.85714285714286,775.1071466718402,4010,122.85714285714286,775.1071466718402,4123,122.85714285714286,775.1071466718402,4224,122.85714285714286,775.1071466718402,4338,122.85714285714286,775.1071466718402,4451,122.85714285714286,775.1071466718402,4553,122.85714285714286,775.1071466718402,4661,122.85714285714286,775.1071466718402,4762,122.85714285714286,775.1071466718402,4875,122.85714285714286,775.1071466718402,4982]","[1530,1530,1000,0,530,""oops"",""down"",""up"",""bad_move"",12487,10957,2840.5,9165,481.5,""oops"",""left"",""left"",""good_move"",15854,3367,2469.1,12487,897.9,""oops"",""left"",""right"",""bad_move"",23138,7284,3272.6,19293,572.4,""oops"",""down"",""up"",""bad_move"",25876,2738,2245.6,23138,492.4,""oops"",""down"",""left"",""good_move"",29135,3259,2623.2,25876,635.8,""oops"",""left"",""up"",""bad_move"",32026,2891,2453,29135,438,""oops"",""down"",""left"",""good_move"",35349,3323,2842.1,32026,480.9,""smooth"",""down"",""down"",""good_move"",42893,7544,2211.5,42367,-1685.5,""error"",""-"",""-"",""no_move"",47530,4637,3129.2,43894,506.8,""smooth"",""down"",""down"",""good_move"",56801,9271,2015.6,54157,628.4,""smooth"",""down"",""down"",""good_move"",60006,3205,2012.1,56801,1192.9,""oops"",""down"",""down"",""good_move"",66128,6122,2196.1,63471,460.9,""oops"",""down"",""right"",""bad_move"",75663,9536,2283.4,72907,473.6,""smooth"",""left"",""left"",""good_move""]"
"3997","","<div style=""width:500px;"">
  <p>What determined the result of this run?</p>
  </div>","67","html-slider-response","49","811431","0.0-7.0-1.7","162","1","2025-08-06 09:18:39","36c45c0696341be0efffe67d72a12abb","102.33.153.170","Mozilla/5.0 (Windows NT 10.0; Win64; x64; rv:142.0) Gecko/20100101 Firefox/142.0","","Firefox","142.0","Windows","10.0","https://app.prolific.com/","en-US,en;q=0.5","64d23e803ee1da9a01e52faa","687a1a965b9f5b85a264363e","68931d91c86fc5d36b7e85e5","1","64d23e803ee1da9a01e52faa","1","2025-08-06T09:32:14.500Z","","","","AttribQ","","","","","","","","","","","50","","","","","","","","","","","","","","","","","","","","","","","","","","",""
"3504","","<div style=""width:500px;"">
  <p>How much control did you have over the ball?</p>
  </div>","68","html-slider-response","50","814937","0.0-7.0-2.7","162","1","2025-08-06 09:18:39","36c45c0696341be0efffe67d72a12abb","102.33.153.170","Mozilla/5.0 (Windows NT 10.0; Win64; x64; rv:142.0) Gecko/20100101 Firefox/142.0","","Firefox","142.0","Windows","10.0","https://app.prolific.com/","en-US,en;q=0.5","64d23e803ee1da9a01e52faa","687a1a965b9f5b85a264363e","68931d91c86fc5d36b7e85e5","1","64d23e803ee1da9a01e52faa","1","2025-08-06T09:32:18.006Z","","","","ControlQ","","","","","","","","","","","50","","","","","","","","","","","","","","","","","","","","","","","","","","",""
"3263","","<div style=""width:500px;"">
  <p>How would you describe your current emotional state?</p>
  </div>","33","html-slider-response","51","818204","0.0-7.0-3.7","162","1","2025-08-06 09:18:39","36c45c0696341be0efffe67d72a12abb","102.33.153.170","Mozilla/5.0 (Windows NT 10.0; Win64; x64; rv:142.0) Gecko/20100101 Firefox/142.0","","Firefox","142.0","Windows","10.0","https://app.prolific.com/","en-US,en;q=0.5","64d23e803ee1da9a01e52faa","687a1a965b9f5b85a264363e","68931d91c86fc5d36b7e85e5","1","64d23e803ee1da9a01e52faa","1","2025-08-06T09:32:21.273Z","","","","StressQ","","","","","","","","","","","50","","","","","","","","","","","","","","","","","","","","","","","","","","",""
"2589","","<div style=""width:500px;"">
  <p>What best describes how you currently feel?</p>
  </div>","40","html-slider-response","52","820793","0.0-7.0-4.7","162","1","2025-08-06 09:18:39","36c45c0696341be0efffe67d72a12abb","102.33.153.170","Mozilla/5.0 (Windows NT 10.0; Win64; x64; rv:142.0) Gecko/20100101 Firefox/142.0","","Firefox","142.0","Windows","10.0","https://app.prolific.com/","en-US,en;q=0.5","64d23e803ee1da9a01e52faa","687a1a965b9f5b85a264363e","68931d91c86fc5d36b7e85e5","1","64d23e803ee1da9a01e52faa","1","2025-08-06T09:32:23.862Z","","","","MotivationQ","","","","","","","","","","","50","","","","","","","","","","","","","","","","","","","","","","","","","","",""
"","","","","ctl-task-cpt","53","852571","0.0-7.0-0.8","162","1","2025-08-06 09:18:39","36c45c0696341be0efffe67d72a12abb","102.33.153.170","Mozilla/5.0 (Windows NT 10.0; Win64; x64; rv:142.0) Gecko/20100101 Firefox/142.0","","Firefox","142.0","Windows","10.0","https://app.prolific.com/","en-US,en;q=0.5","64d23e803ee1da9a01e52faa","687a1a965b9f5b85a264363e","68931d91c86fc5d36b7e85e5","1","64d23e803ee1da9a01e52faa","1","2025-08-06T09:32:55.640Z","","","","","","","","","","","","","","","","win-only","0","g1:NW,g2:SE","0.4","9","0","826534","1185","6189","28766","1","4","8","6","2","8","8","21","13","0.1590909090909091","1682","3000","830","[""down"",""right""]","{""num_key_presses"":6,""num_perfect"":4,""num_errors"":0,""num_randdir"":2,""num_randdir_good_moves"":2,""num_whilered"":0,""num_whileblue"":0,""num_blue"":1,""num_good_moves"":6}","[467.8571428571429,462.60714667184016,0,467.8571428571429,462.60714667184016,102,467.8571428571429,462.60714667184016,215,467.8571428571429,462.60714667184016,315,467.8571428571429,462.60714667184016,428,467.8571428571429,462.60714667184016,528,467.8571428571429,462.60714667184016,629,467.8571428571429,462.60714667184016,736,467.8571428571429,462.60714667184016,836,470.3571428571429,467.60714667184016,939,599.1071428571429,518.8571466718402,1040,781.6071428571429,707.6071466718402,1148,817.8571428571429,771.3571466718402,1248,840.3571428571429,785.1071466718402,1357,854.1071428571429,810.1071466718402,1465,854.1071428571429,810.1071466718402,1573,854.1071428571429,810.1071466718402,1680,854.1071428571429,810.1071466718402,1787,854.1071428571429,810.1071466718402,1901,854.1071428571429,810.1071466718402,2008,854.1071428571429,810.1071466718402,2121,854.1071428571429,810.1071466718402,2225,854.1071428571429,810.1071466718402,2329,854.1071428571429,810.1071466718402,2433,854.1071428571429,810.1071466718402,2540,854.1071428571429,810.1071466718402,2647,854.1071428571429,810.1071466718402,2756,854.1071428571429,810.1071466718402,2861,854.1071428571429,810.1071466718402,2961,854.1071428571429,810.1071466718402,3068,854.1071428571429,810.1071466718402,3176,854.1071428571429,810.1071466718402,3285,854.1071428571429,810.1071466718402,3398,854.1071428571429,810.1071466718402,3504,854.1071428571429,810.1071466718402,3605,854.1071428571429,810.1071466718402,3715,854.1071428571429,810.1071466718402,3822,854.1071428571429,810.1071466718402,3924,854.1071428571429,810.1071466718402,4028,854.1071428571429,810.1071466718402,4140,854.1071428571429,810.1071466718402,4247,854.1071428571429,810.1071466718402,4354,854.1071428571429,810.1071466718402,4454,854.1071428571429,810.1071466718402,4554,854.1071428571429,810.1071466718402,4665,854.1071428571429,810.1071466718402,4769,854.1071428571429,810.1071466718402,4880,854.1071428571429,810.1071466718402,4990]","[2452,2452,1000,0,1452,""smooth"",""down"",""down"",""good_move"",5198,2746,2276.4,2452,469.6,""smooth"",""right"",""right"",""good_move"",8373,3175,1719.1,5198,1455.9,""oops"",""down"",""right"",""good_move"",15401,7028,2702.1,12198,500.9,""oops"",""right"",""right"",""good_move"",19259,3858,2870.4,15401,987.6,""smooth"",""down"",""down"",""good_move"",22359,3100,2347.9,19259,752.1,""smooth"",""down"",""down"",""good_move""]"
"4838","","<div style=""width:500px;"">
  <p>What determined the result of this run?</p>
  </div>","82","html-slider-response","54","857411","0.0-7.0-1.8","162","1","2025-08-06 09:18:39","36c45c0696341be0efffe67d72a12abb","102.33.153.170","Mozilla/5.0 (Windows NT 10.0; Win64; x64; rv:142.0) Gecko/20100101 Firefox/142.0","","Firefox","142.0","Windows","10.0","https://app.prolific.com/","en-US,en;q=0.5","64d23e803ee1da9a01e52faa","687a1a965b9f5b85a264363e","68931d91c86fc5d36b7e85e5","1","64d23e803ee1da9a01e52faa","1","2025-08-06T09:33:00.480Z","","","","AttribQ","","","","","","","","","","","50","","","","","","","","","","","","","","","","","","","","","","","","","","",""
"4232","","<div style=""width:500px;"">
  <p>How much control did you have over the ball?</p>
  </div>","63","html-slider-response","55","861644","0.0-7.0-2.8","162","1","2025-08-06 09:18:39","36c45c0696341be0efffe67d72a12abb","102.33.153.170","Mozilla/5.0 (Windows NT 10.0; Win64; x64; rv:142.0) Gecko/20100101 Firefox/142.0","","Firefox","142.0","Windows","10.0","https://app.prolific.com/","en-US,en;q=0.5","64d23e803ee1da9a01e52faa","687a1a965b9f5b85a264363e","68931d91c86fc5d36b7e85e5","1","64d23e803ee1da9a01e52faa","1","2025-08-06T09:33:04.713Z","","","","ControlQ","","","","","","","","","","","50","","","","","","","","","","","","","","","","","","","","","","","","","","",""
"2047","","<div style=""width:500px;"">
  <p>How would you describe your current emotional state?</p>
  </div>","65","html-slider-response","56","863692","0.0-7.0-3.8","162","1","2025-08-06 09:18:39","36c45c0696341be0efffe67d72a12abb","102.33.153.170","Mozilla/5.0 (Windows NT 10.0; Win64; x64; rv:142.0) Gecko/20100101 Firefox/142.0","","Firefox","142.0","Windows","10.0","https://app.prolific.com/","en-US,en;q=0.5","64d23e803ee1da9a01e52faa","687a1a965b9f5b85a264363e","68931d91c86fc5d36b7e85e5","1","64d23e803ee1da9a01e52faa","1","2025-08-06T09:33:06.761Z","","","","StressQ","","","","","","","","","","","50","","","","","","","","","","","","","","","","","","","","","","","","","","",""
"2312","","<div style=""width:500px;"">
  <p>What best describes how you currently feel?</p>
  </div>","60","html-slider-response","57","866005","0.0-7.0-4.8","162","1","2025-08-06 09:18:39","36c45c0696341be0efffe67d72a12abb","102.33.153.170","Mozilla/5.0 (Windows NT 10.0; Win64; x64; rv:142.0) Gecko/20100101 Firefox/142.0","","Firefox","142.0","Windows","10.0","https://app.prolific.com/","en-US,en;q=0.5","64d23e803ee1da9a01e52faa","687a1a965b9f5b85a264363e","68931d91c86fc5d36b7e85e5","1","64d23e803ee1da9a01e52faa","1","2025-08-06T09:33:09.075Z","","","","MotivationQ","","","","","","","","","","","50","","","","","","","","","","","","","","","","","","","","","","","","","","",""
"","","","","ctl-task-cpt","58","919775","0.0-7.0-0.9","162","1","2025-08-06 09:18:39","36c45c0696341be0efffe67d72a12abb","102.33.153.170","Mozilla/5.0 (Windows NT 10.0; Win64; x64; rv:142.0) Gecko/20100101 Firefox/142.0","","Firefox","142.0","Windows","10.0","https://app.prolific.com/","en-US,en;q=0.5","64d23e803ee1da9a01e52faa","687a1a965b9f5b85a264363e","68931d91c86fc5d36b7e85e5","1","64d23e803ee1da9a01e52faa","1","2025-08-06T09:34:02.844Z","","","","","","","","","","","","","","","","win-only","0","g1:NW,g2:SE","0.5","10","0","871747","2935","7942","50753","1","4","4","6","2","-4","-4","17","21","0.12878787878787878","2288","3000","-1185","[""down"",""right""]","{""num_key_presses"":8,""num_perfect"":3,""num_errors"":0,""num_randdir"":5,""num_randdir_good_moves"":3,""num_whilered"":0,""num_whileblue"":0,""num_blue"":4,""num_good_moves"":6}","[472.8571428571429,465.10714667184016,0,472.8571428571429,465.10714667184016,112,472.8571428571429,465.10714667184016,214,472.8571428571429,465.10714667184016,316,472.8571428571429,465.10714667184016,417,472.8571428571429,465.10714667184016,524,472.8571428571429,465.10714667184016,634,472.8571428571429,465.10714667184016,736,472.8571428571429,465.10714667184016,838,472.8571428571429,465.10714667184016,938,472.8571428571429,465.10714667184016,1042,435.3571428571429,427.60714667184016,1149,411.6071428571429,397.60714667184016,1249,410.3571428571429,396.35714667184016,1355,410.3571428571429,396.35714667184016,1458,410.3571428571429,396.35714667184016,1568,865.3571428571429,723.8571466718402,1668,915.3571428571429,800.1071466718402,1769,905.3571428571429,823.8571466718402,1870,900.3571428571429,862.6071466718402,1974,885.3571428571429,870.1071466718402,2074,885.3571428571429,870.1071466718402,2182,885.3571428571429,870.1071466718402,2296,885.3571428571429,870.1071466718402,2406,885.3571428571429,870.1071466718402,2508,885.3571428571429,870.1071466718402,2619,885.3571428571429,870.1071466718402,2720,885.3571428571429,870.1071466718402,2828,885.3571428571429,870.1071466718402,2931,885.3571428571429,870.1071466718402,3038,885.3571428571429,870.1071466718402,3144,885.3571428571429,870.1071466718402,3258,885.3571428571429,870.1071466718402,3372,885.3571428571429,870.1071466718402,3473,885.3571428571429,870.1071466718402,3574,885.3571428571429,870.1071466718402,3675,885.3571428571429,870.1071466718402,3788,885.3571428571429,870.1071466718402,3895,885.3571428571429,870.1071466718402,3996,885.3571428571429,870.1071466718402,4100,885.3571428571429,870.1071466718402,4209,885.3571428571429,870.1071466718402,4311,885.3571428571429,870.1071466718402,4414,885.3571428571429,870.1071466718402,4514,885.3571428571429,870.1071466718402,4619,885.3571428571429,870.1071466718402,4722,885.3571428571429,870.1071466718402,4824,885.3571428571429,870.1071466718402,4934]","[1882,1882,1000,0,882,""smooth"",""down"",""down"",""good_move"",7903,6021,2625.7,4763,514.3,""oops"",""right"",""down"",""good_move"",11444,3541,2775.6,7903,765.4,""oops"",""right"",""up"",""bad_move"",14672,3228,2712.7,11444,515.3,""oops"",""right"",""up"",""bad_move"",18027,3355,2442.5,14672,912.5,""oops"",""right"",""right"",""good_move"",28614,10586,2920.1,24444,1249.9,""oops"",""down"",""down"",""good_move"",32695,4081,2315.1,28614,1765.9,""smooth"",""down"",""down"",""good_move"",39548,6853,2507.9,36496,544.1,""smooth"",""right"",""right"",""good_move""]"
"3675","","<div style=""width:500px;"">
  <p>What determined the result of this run?</p>
  </div>","76","html-slider-response","59","923451","0.0-7.0-1.9","162","1","2025-08-06 09:18:39","36c45c0696341be0efffe67d72a12abb","102.33.153.170","Mozilla/5.0 (Windows NT 10.0; Win64; x64; rv:142.0) Gecko/20100101 Firefox/142.0","","Firefox","142.0","Windows","10.0","https://app.prolific.com/","en-US,en;q=0.5","64d23e803ee1da9a01e52faa","687a1a965b9f5b85a264363e","68931d91c86fc5d36b7e85e5","1","64d23e803ee1da9a01e52faa","1","2025-08-06T09:34:06.520Z","","","","AttribQ","","","","","","","","","","","50","","","","","","","","","","","","","","","","","","","","","","","","","","",""
"3815","","<div style=""width:500px;"">
  <p>How much control did you have over the ball?</p>
  </div>","70","html-slider-response","60","927268","0.0-7.0-2.9","162","1","2025-08-06 09:18:39","36c45c0696341be0efffe67d72a12abb","102.33.153.170","Mozilla/5.0 (Windows NT 10.0; Win64; x64; rv:142.0) Gecko/20100101 Firefox/142.0","","Firefox","142.0","Windows","10.0","https://app.prolific.com/","en-US,en;q=0.5","64d23e803ee1da9a01e52faa","687a1a965b9f5b85a264363e","68931d91c86fc5d36b7e85e5","1","64d23e803ee1da9a01e52faa","1","2025-08-06T09:34:10.337Z","","","","ControlQ","","","","","","","","","","","50","","","","","","","","","","","","","","","","","","","","","","","","","","",""
"2589","","<div style=""width:500px;"">
  <p>How would you describe your current emotional state?</p>
  </div>","38","html-slider-response","61","929859","0.0-7.0-3.9","162","1","2025-08-06 09:18:39","36c45c0696341be0efffe67d72a12abb","102.33.153.170","Mozilla/5.0 (Windows NT 10.0; Win64; x64; rv:142.0) Gecko/20100101 Firefox/142.0","","Firefox","142.0","Windows","10.0","https://app.prolific.com/","en-US,en;q=0.5","64d23e803ee1da9a01e52faa","687a1a965b9f5b85a264363e","68931d91c86fc5d36b7e85e5","1","64d23e803ee1da9a01e52faa","1","2025-08-06T09:34:12.928Z","","","","StressQ","","","","","","","","","","","50","","","","","","","","","","","","","","","","","","","","","","","","","","",""
"2082","","<div style=""width:500px;"">
  <p>What best describes how you currently feel?</p>
  </div>","58","html-slider-response","62","931943","0.0-7.0-4.9","162","1","2025-08-06 09:18:39","36c45c0696341be0efffe67d72a12abb","102.33.153.170","Mozilla/5.0 (Windows NT 10.0; Win64; x64; rv:142.0) Gecko/20100101 Firefox/142.0","","Firefox","142.0","Windows","10.0","https://app.prolific.com/","en-US,en;q=0.5","64d23e803ee1da9a01e52faa","687a1a965b9f5b85a264363e","68931d91c86fc5d36b7e85e5","1","64d23e803ee1da9a01e52faa","1","2025-08-06T09:34:15.012Z","","","","MotivationQ","","","","","","","","","","","50","","","","","","","","","","","","","","","","","","","","","","","","","","",""
"","","","","ctl-task-cpt","63","966613","0.0-7.0-0.10","162","1","2025-08-06 09:18:39","36c45c0696341be0efffe67d72a12abb","102.33.153.170","Mozilla/5.0 (Windows NT 10.0; Win64; x64; rv:142.0) Gecko/20100101 Firefox/142.0","","Firefox","142.0","Windows","10.0","https://app.prolific.com/","en-US,en;q=0.5","64d23e803ee1da9a01e52faa","687a1a965b9f5b85a264363e","68931d91c86fc5d36b7e85e5","1","64d23e803ee1da9a01e52faa","1","2025-08-06T09:34:49.682Z","","","","","","","","","","","","","","","","win-only","3","g1:SW,g2:NE","0.6","11","0","937686","1508","6515","31660","1","4","8","6","1","1","1","18","17","0.13636363636363635","4389","3000","1145","[""down"",""left""]","{""num_key_presses"":6,""num_perfect"":4,""num_errors"":0,""num_randdir"":2,""num_randdir_good_moves"":1,""num_whilered"":0,""num_whileblue"":0,""num_blue"":2,""num_good_moves"":5}","[465.3571428571429,466.35714667184016,0,465.3571428571429,466.35714667184016,109,465.3571428571429,466.35714667184016,209,465.3571428571429,466.35714667184016,319,465.3571428571429,466.35714667184016,421,465.3571428571429,466.35714667184016,527,465.3571428571429,466.35714667184016,632,465.3571428571429,466.35714667184016,740,465.3571428571429,466.35714667184016,852,465.3571428571429,466.35714667184016,955,465.3571428571429,466.35714667184016,1060,465.3571428571429,466.35714667184016,1170,465.3571428571429,466.35714667184016,1271,465.3571428571429,466.35714667184016,1377,465.3571428571429,466.35714667184016,1485,465.3571428571429,466.35714667184016,1590,465.3571428571429,466.35714667184016,1695,465.3571428571429,466.35714667184016,1799,465.3571428571429,466.35714667184016,1905,465.3571428571429,466.35714667184016,2013,465.3571428571429,466.35714667184016,2118,465.3571428571429,466.35714667184016,2221,465.3571428571429,466.35714667184016,2325,465.3571428571429,466.35714667184016,2439,465.3571428571429,466.35714667184016,2552,465.3571428571429,466.35714667184016,2656,465.3571428571429,466.35714667184016,2769,465.3571428571429,466.35714667184016,2871,465.3571428571429,466.35714667184016,2983,465.3571428571429,466.35714667184016,3089,465.3571428571429,466.35714667184016,3194,465.3571428571429,466.35714667184016,3304,465.3571428571429,466.35714667184016,3404,440.3571428571429,481.35714667184016,3509,390.3571428571429,532.6071466718402,3611,371.6071428571429,558.8571466718402,3720,232.85714285714286,680.1071466718402,3825,82.85714285714286,820.1071466718402,3933,75.35714285714286,838.8571466718402,4043,70.35714285714286,850.1071466718402,4147,70.35714285714286,850.1071466718402,4257,70.35714285714286,850.1071466718402,4358,70.35714285714286,850.1071466718402,4465,70.35714285714286,850.1071466718402,4573,70.35714285714286,850.1071466718402,4683,70.35714285714286,850.1071466718402,4783,70.35714285714286,850.1071466718402,4893,70.35714285714286,850.1071466718402,4995]","[2282,2282,1000,0,1282,""smooth"",""down"",""down"",""good_move"",9139,6857,3134.1,5306,698.9,""smooth"",""left"",""left"",""good_move"",12648,3509,1987.4,9139,1521.6,""smooth"",""left"",""left"",""good_move"",15579,2931,2406.3,12648,524.7,""oops"",""down"",""up"",""bad_move"",18889,3310,2841.5,15579,468.5,""oops"",""down"",""down"",""good_move"",24909,6020,2212.2,22141,555.8,""smooth"",""down"",""down"",""good_move""]"
"5523","","<div style=""width:500px;"">
  <p>What determined the result of this run?</p>
  </div>","67","html-slider-response","64","972139","0.0-7.0-1.10","162","1","2025-08-06 09:18:39","36c45c0696341be0efffe67d72a12abb","102.33.153.170","Mozilla/5.0 (Windows NT 10.0; Win64; x64; rv:142.0) Gecko/20100101 Firefox/142.0","","Firefox","142.0","Windows","10.0","https://app.prolific.com/","en-US,en;q=0.5","64d23e803ee1da9a01e52faa","687a1a965b9f5b85a264363e","68931d91c86fc5d36b7e85e5","1","64d23e803ee1da9a01e52faa","1","2025-08-06T09:34:55.208Z","","","","AttribQ","","","","","","","","","","","50","","","","","","","","","","","","","","","","","","","","","","","","","","",""
"6236","","<div style=""width:500px;"">
  <p>How much control did you have over the ball?</p>
  </div>","59","html-slider-response","65","978376","0.0-7.0-2.10","162","1","2025-08-06 09:18:39","36c45c0696341be0efffe67d72a12abb","102.33.153.170","Mozilla/5.0 (Windows NT 10.0; Win64; x64; rv:142.0) Gecko/20100101 Firefox/142.0","","Firefox","142.0","Windows","10.0","https://app.prolific.com/","en-US,en;q=0.5","64d23e803ee1da9a01e52faa","687a1a965b9f5b85a264363e","68931d91c86fc5d36b7e85e5","1","64d23e803ee1da9a01e52faa","1","2025-08-06T09:35:01.445Z","","","","ControlQ","","","","","","","","","","","50","","","","","","","","","","","","","","","","","","","","","","","","","","",""
"2961","","<div style=""width:500px;"">
  <p>How would you describe your current emotional state?</p>
  </div>","64","html-slider-response","66","981340","0.0-7.0-3.10","162","1","2025-08-06 09:18:39","36c45c0696341be0efffe67d72a12abb","102.33.153.170","Mozilla/5.0 (Windows NT 10.0; Win64; x64; rv:142.0) Gecko/20100101 Firefox/142.0","","Firefox","142.0","Windows","10.0","https://app.prolific.com/","en-US,en;q=0.5","64d23e803ee1da9a01e52faa","687a1a965b9f5b85a264363e","68931d91c86fc5d36b7e85e5","1","64d23e803ee1da9a01e52faa","1","2025-08-06T09:35:04.409Z","","","","StressQ","","","","","","","","","","","50","","","","","","","","","","","","","","","","","","","","","","","","","","",""
"2496","","<div style=""width:500px;"">
  <p>What best describes how you currently feel?</p>
  </div>","70","html-slider-response","67","983837","0.0-7.0-4.10","162","1","2025-08-06 09:18:39","36c45c0696341be0efffe67d72a12abb","102.33.153.170","Mozilla/5.0 (Windows NT 10.0; Win64; x64; rv:142.0) Gecko/20100101 Firefox/142.0","","Firefox","142.0","Windows","10.0","https://app.prolific.com/","en-US,en;q=0.5","64d23e803ee1da9a01e52faa","687a1a965b9f5b85a264363e","68931d91c86fc5d36b7e85e5","1","64d23e803ee1da9a01e52faa","1","2025-08-06T09:35:06.906Z","","","","MotivationQ","","","","","","","","","","","50","","","","","","","","","","","","","","","","","","","","","","","","","","",""
"","","","","ctl-task-cpt","68","1017671","0.0-7.0-0.11","162","1","2025-08-06 09:18:39","36c45c0696341be0efffe67d72a12abb","102.33.153.170","Mozilla/5.0 (Windows NT 10.0; Win64; x64; rv:142.0) Gecko/20100101 Firefox/142.0","","Firefox","142.0","Windows","10.0","https://app.prolific.com/","en-US,en;q=0.5","64d23e803ee1da9a01e52faa","687a1a965b9f5b85a264363e","68931d91c86fc5d36b7e85e5","1","64d23e803ee1da9a01e52faa","1","2025-08-06T09:35:40.740Z","","","","","","","","","","","","","","","","win-only","0","g1:NW,g2:SE","0.7","12","0","989579","1347","6351","30827","1","4","4","6","2","-4","-4","14","18","0.10606060606060606","2882","3000","-1190","[""down"",""right""]","{""num_key_presses"":6,""num_perfect"":4,""num_errors"":0,""num_randdir"":2,""num_randdir_good_moves"":1,""num_whilered"":0,""num_whileblue"":0,""num_blue"":0,""num_good_moves"":5}","[460.3571428571429,462.60714667184016,0,460.3571428571429,462.60714667184016,108,460.3571428571429,462.60714667184016,210,460.3571428571429,462.60714667184016,314,460.3571428571429,462.60714667184016,423,460.3571428571429,462.60714667184016,535,460.3571428571429,462.60714667184016,638,460.3571428571429,462.60714667184016,750,460.3571428571429,462.60714667184016,852,460.3571428571429,462.60714667184016,957,460.3571428571429,462.60714667184016,1065,460.3571428571429,462.60714667184016,1168,444.1071428571429,450.10714667184016,1271,400.3571428571429,405.10714667184016,1377,392.8571428571429,392.60714667184016,1486,392.8571428571429,392.60714667184016,1593,392.8571428571429,392.60714667184016,1703,392.8571428571429,392.60714667184016,1808,392.8571428571429,392.60714667184016,1921,392.8571428571429,392.60714667184016,2024,851.6071428571429,850.1071466718402,2130,871.6071428571429,920.1071466718402,2235,867.8571428571429,926.3571466718402,2336,865.3571428571429,933.8571466718402,2448,850.3571428571429,915.1071466718402,2557,850.3571428571429,880.1071466718402,2658,850.3571428571429,880.1071466718402,2759,850.3571428571429,880.1071466718402,2859,850.3571428571429,880.1071466718402,2966,850.3571428571429,880.1071466718402,3068,850.3571428571429,880.1071466718402,3172,850.3571428571429,880.1071466718402,3273,850.3571428571429,880.1071466718402,3376,850.3571428571429,880.1071466718402,3488,850.3571428571429,880.1071466718402,3589,850.3571428571429,880.1071466718402,3689,850.3571428571429,880.1071466718402,3803,850.3571428571429,880.1071466718402,3905,850.3571428571429,880.1071466718402,4008,850.3571428571429,880.1071466718402,4113,850.3571428571429,880.1071466718402,4215,850.3571428571429,880.1071466718402,4318,850.3571428571429,880.1071466718402,4429,850.3571428571429,880.1071466718402,4538,850.3571428571429,880.1071466718402,4638,850.3571428571429,880.1071466718402,4750,850.3571428571429,880.1071466718402,4851,850.3571428571429,880.1071466718402,4958]","[3056,3056,1000,0,2056,""smooth"",""down"",""down"",""good_move"",6216,3160,2120.4,3056,1039.6,""oops"",""right"",""left"",""bad_move"",10075,3859,2168.4,6216,1690.6,""oops"",""right"",""right"",""good_move"",13154,3079,2449,10075,630,""smooth"",""down"",""down"",""good_move"",17378,4224,2688,13154,1536,""smooth"",""right"",""right"",""good_move"",21293,3915,3481.2,17378,433.8,""smooth"",""right"",""right"",""good_move""]"
"2948","","<div style=""width:500px;"">
  <p>What determined the result of this run?</p>
  </div>","62","html-slider-response","69","1020622","0.0-7.0-1.11","162","1","2025-08-06 09:18:39","36c45c0696341be0efffe67d72a12abb","102.33.153.170","Mozilla/5.0 (Windows NT 10.0; Win64; x64; rv:142.0) Gecko/20100101 Firefox/142.0","","Firefox","142.0","Windows","10.0","https://app.prolific.com/","en-US,en;q=0.5","64d23e803ee1da9a01e52faa","687a1a965b9f5b85a264363e","68931d91c86fc5d36b7e85e5","1","64d23e803ee1da9a01e52faa","1","2025-08-06T09:35:43.691Z","","","","AttribQ","","","","","","","","","","","50","","","","","","","","","","","","","","","","","","","","","","","","","","",""
"2506","","<div style=""width:500px;"">
  <p>How much control did you have over the ball?</p>
  </div>","63","html-slider-response","70","1023130","0.0-7.0-2.11","162","1","2025-08-06 09:18:39","36c45c0696341be0efffe67d72a12abb","102.33.153.170","Mozilla/5.0 (Windows NT 10.0; Win64; x64; rv:142.0) Gecko/20100101 Firefox/142.0","","Firefox","142.0","Windows","10.0","https://app.prolific.com/","en-US,en;q=0.5","64d23e803ee1da9a01e52faa","687a1a965b9f5b85a264363e","68931d91c86fc5d36b7e85e5","1","64d23e803ee1da9a01e52faa","1","2025-08-06T09:35:46.199Z","","","","ControlQ","","","","","","","","","","","50","","","","","","","","","","","","","","","","","","","","","","","","","","",""
"5285","","<div style=""width:500px;"">
  <p>How would you describe your current emotional state?</p>
  </div>","38","html-slider-response","71","1028418","0.0-7.0-3.11","162","1","2025-08-06 09:18:39","36c45c0696341be0efffe67d72a12abb","102.33.153.170","Mozilla/5.0 (Windows NT 10.0; Win64; x64; rv:142.0) Gecko/20100101 Firefox/142.0","","Firefox","142.0","Windows","10.0","https://app.prolific.com/","en-US,en;q=0.5","64d23e803ee1da9a01e52faa","687a1a965b9f5b85a264363e","68931d91c86fc5d36b7e85e5","1","64d23e803ee1da9a01e52faa","1","2025-08-06T09:35:51.488Z","","","","StressQ","","","","","","","","","","","50","","","","","","","","","","","","","","","","","","","","","","","","","","",""
"2753","","<div style=""width:500px;"">
  <p>What best describes how you currently feel?</p>
  </div>","35","html-slider-response","72","1031173","0.0-7.0-4.11","162","1","2025-08-06 09:18:39","36c45c0696341be0efffe67d72a12abb","102.33.153.170","Mozilla/5.0 (Windows NT 10.0; Win64; x64; rv:142.0) Gecko/20100101 Firefox/142.0","","Firefox","142.0","Windows","10.0","https://app.prolific.com/","en-US,en;q=0.5","64d23e803ee1da9a01e52faa","687a1a965b9f5b85a264363e","68931d91c86fc5d36b7e85e5","1","64d23e803ee1da9a01e52faa","1","2025-08-06T09:35:54.242Z","","","","MotivationQ","","","","","","","","","","","50","","","","","","","","","","","","","","","","","","","","","","","","","","",""
"","","","","ctl-task-cpt","73","1068587","0.0-7.0-0.12","162","1","2025-08-06 09:18:39","36c45c0696341be0efffe67d72a12abb","102.33.153.170","Mozilla/5.0 (Windows NT 10.0; Win64; x64; rv:142.0) Gecko/20100101 Firefox/142.0","","Firefox","142.0","Windows","10.0","https://app.prolific.com/","en-US,en;q=0.5","64d23e803ee1da9a01e52faa","687a1a965b9f5b85a264363e","68931d91c86fc5d36b7e85e5","1","64d23e803ee1da9a01e52faa","1","2025-08-06T09:36:31.657Z","","","","","","","","","","","","","","","","win-only","1","g1:NE,g2:SW","0.8","13","0","1036914","1256","6259","34404","1","4","4","6","2","4","4","18","14","0.13636363636363635","1713","3000","910","[""down"",""left""]","{""num_key_presses"":8,""num_perfect"":6,""num_errors"":0,""num_randdir"":2,""num_randdir_good_moves"":1,""num_whilered"":0,""num_whileblue"":0,""num_blue"":1,""num_good_moves"":7}","[467.8571428571429,473.85714667184016,0,467.8571428571429,473.85714667184016,108,467.8571428571429,473.85714667184016,217,467.8571428571429,473.85714667184016,322,467.8571428571429,473.85714667184016,434,467.8571428571429,473.85714667184016,535,467.8571428571429,473.85714667184016,641,497.8571428571429,406.35714667184016,749,506.6071428571429,391.35714667184016,850,485.3571428571429,415.10714667184016,952,200.35714285714286,721.3571466718402,1060,155.35714285714286,781.3571466718402,1164,150.35714285714286,800.1071466718402,1269,86.60714285714286,877.6071466718402,1373,74.10714285714286,881.3571466718402,1473,74.10714285714286,881.3571466718402,1574,74.10714285714286,881.3571466718402,1676,74.10714285714286,881.3571466718402,1784,74.10714285714286,881.3571466718402,1892,74.10714285714286,881.3571466718402,1999,74.10714285714286,881.3571466718402,2104,74.10714285714286,881.3571466718402,2211,185.35714285714286,825.1071466718402,2322,405.3571428571429,807.6071466718402,2430,405.3571428571429,807.6071466718402,2533,405.3571428571429,807.6071466718402,2634,405.3571428571429,807.6071466718402,2739,405.3571428571429,807.6071466718402,2844,405.3571428571429,807.6071466718402,2946,405.3571428571429,807.6071466718402,3061,405.3571428571429,807.6071466718402,3162,405.3571428571429,807.6071466718402,3275,405.3571428571429,807.6071466718402,3378,405.3571428571429,807.6071466718402,3478,405.3571428571429,807.6071466718402,3579,405.3571428571429,807.6071466718402,3690,405.3571428571429,807.6071466718402,3796,405.3571428571429,807.6071466718402,3907,405.3571428571429,807.6071466718402,4012,405.3571428571429,807.6071466718402,4118,405.3571428571429,807.6071466718402,4221,405.3571428571429,807.6071466718402,4325,405.3571428571429,807.6071466718402,4429,405.3571428571429,807.6071466718402,4533,405.3571428571429,807.6071466718402,4642,405.3571428571429,807.6071466718402,4755,405.3571428571429,807.6071466718402,4861,405.3571428571429,807.6071466718402,4975]","[2120,2120,1000,0,1120,""oops"",""left"",""left"",""good_move"",5694,3574,3036.6,2120,537.4,""smooth"",""down"",""down"",""good_move"",8599,2905,2337.8,5694,567.2,""smooth"",""left"",""left"",""good_move"",15301,6702,2550.5,12154,596.5,""oops"",""down"",""up"",""bad_move"",18565,3265,2647,15301,618,""smooth"",""left"",""left"",""good_move"",21898,3332,2839,18566,493,""smooth"",""down"",""down"",""good_move"",24929,3032,2042.2,21898,989.8,""smooth"",""down"",""down"",""good_move"",27914,2984,2450.5,24930,533.5,""smooth"",""down"",""down"",""good_move""]"
"5087","","<div style=""width:500px;"">
  <p>What determined the result of this run?</p>
  </div>","68","html-slider-response","74","1073678","0.0-7.0-1.12","162","1","2025-08-06 09:18:39","36c45c0696341be0efffe67d72a12abb","102.33.153.170","Mozilla/5.0 (Windows NT 10.0; Win64; x64; rv:142.0) Gecko/20100101 Firefox/142.0","","Firefox","142.0","Windows","10.0","https://app.prolific.com/","en-US,en;q=0.5","64d23e803ee1da9a01e52faa","687a1a965b9f5b85a264363e","68931d91c86fc5d36b7e85e5","1","64d23e803ee1da9a01e52faa","1","2025-08-06T09:36:36.747Z","","","","AttribQ","","","","","","","","","","","50","","","","","","","","","","","","","","","","","","","","","","","","","","",""
"21473","","<div style=""width:500px;"">
  <p>How much control did you have over the ball?</p>
  </div>","76","html-slider-response","75","1095153","0.0-7.0-2.12","162","1","2025-08-06 09:18:39","36c45c0696341be0efffe67d72a12abb","102.33.153.170","Mozilla/5.0 (Windows NT 10.0; Win64; x64; rv:142.0) Gecko/20100101 Firefox/142.0","","Firefox","142.0","Windows","10.0","https://app.prolific.com/","en-US,en;q=0.5","64d23e803ee1da9a01e52faa","687a1a965b9f5b85a264363e","68931d91c86fc5d36b7e85e5","1","64d23e803ee1da9a01e52faa","1","2025-08-06T09:36:58.222Z","","","","ControlQ","","","","","","","","","","","50","","","","","","","","","","","","","","","","","","","","","","","","","","",""
"5073","","<div style=""width:500px;"">
  <p>How would you describe your current emotional state?</p>
  </div>","60","html-slider-response","76","1100227","0.0-7.0-3.12","162","1","2025-08-06 09:18:39","36c45c0696341be0efffe67d72a12abb","102.33.153.170","Mozilla/5.0 (Windows NT 10.0; Win64; x64; rv:142.0) Gecko/20100101 Firefox/142.0","","Firefox","142.0","Windows","10.0","https://app.prolific.com/","en-US,en;q=0.5","64d23e803ee1da9a01e52faa","687a1a965b9f5b85a264363e","68931d91c86fc5d36b7e85e5","1","64d23e803ee1da9a01e52faa","1","2025-08-06T09:37:03.296Z","","","","StressQ","","","","","","","","","","","50","","","","","","","","","","","","","","","","","","","","","","","","","","",""
"5659","","<div style=""width:500px;"">
  <p>What best describes how you currently feel?</p>
  </div>","61","html-slider-response","77","1105889","0.0-7.0-4.12","162","1","2025-08-06 09:18:39","36c45c0696341be0efffe67d72a12abb","102.33.153.170","Mozilla/5.0 (Windows NT 10.0; Win64; x64; rv:142.0) Gecko/20100101 Firefox/142.0","","Firefox","142.0","Windows","10.0","https://app.prolific.com/","en-US,en;q=0.5","64d23e803ee1da9a01e52faa","687a1a965b9f5b85a264363e","68931d91c86fc5d36b7e85e5","1","64d23e803ee1da9a01e52faa","1","2025-08-06T09:37:08.958Z","","","","MotivationQ","","","","","","","","","","","50","","","","","","","","","","","","","","","","","","","","","","","","","","",""
"","","","","ctl-task-cpt","78","1134833","0.0-7.0-0.13","162","1","2025-08-06 09:18:39","36c45c0696341be0efffe67d72a12abb","102.33.153.170","Mozilla/5.0 (Windows NT 10.0; Win64; x64; rv:142.0) Gecko/20100101 Firefox/142.0","","Firefox","142.0","Windows","10.0","https://app.prolific.com/","en-US,en;q=0.5","64d23e803ee1da9a01e52faa","687a1a965b9f5b85a264363e","68931d91c86fc5d36b7e85e5","1","64d23e803ee1da9a01e52faa","1","2025-08-06T09:37:37.903Z","","","","","","","","","","","","","","","","win-only","3","g1:SW,g2:NE","0.9","14","0","1111631","3285","8286","25938","1","4","8","6","1","-1","-1","17","18","0.12878787878787878","1806","3000","-1175","[""down"",""left""]","{""num_key_presses"":2,""num_perfect"":2,""num_errors"":0,""num_randdir"":0,""num_randdir_good_moves"":0,""num_whilered"":0,""num_whileblue"":0,""num_blue"":1,""num_good_moves"":2}","[457.8571428571429,470.10714667184016,0,457.8571428571429,470.10714667184016,104,457.8571428571429,470.10714667184016,211,457.8571428571429,470.10714667184016,318,457.8571428571429,470.10714667184016,428,457.8571428571429,470.10714667184016,537,610.3571428571429,290.10714667184016,648,709.1071428571429,181.35714667184013,759,710.3571428571429,181.35714667184013,868,524.1071428571429,257.60714667184016,976,197.85714285714286,607.6071466718402,1085,145.35714285714286,718.8571466718402,1194,134.10714285714286,751.3571466718402,1303,102.85714285714286,758.8571466718402,1413,75.35714285714286,787.6071466718402,1521,74.10714285714286,801.3571466718402,1629,74.10714285714286,801.3571466718402,1737,74.10714285714286,801.3571466718402,1845,74.10714285714286,801.3571466718402,1956,74.10714285714286,801.3571466718402,2068,74.10714285714286,801.3571466718402,2177,74.10714285714286,801.3571466718402,2287,74.10714285714286,801.3571466718402,2395,74.10714285714286,801.3571466718402,2503,74.10714285714286,801.3571466718402,2611,74.10714285714286,801.3571466718402,2719,135.35714285714286,715.1071466718402,2828,241.60714285714286,585.1071466718402,2937,254.10714285714286,582.6071466718402,3047,297.8571428571429,577.6071466718402,3158,327.8571428571429,587.6071466718402,3265,286.6071428571429,617.6071466718402,3375,280.3571428571429,620.1071466718402,3484,280.3571428571429,620.1071466718402,3597,281.6071428571429,620.1071466718402,3702,281.6071428571429,620.1071466718402,3811,281.6071428571429,620.1071466718402,3921,281.6071428571429,620.1071466718402,4031,281.6071428571429,620.1071466718402,4139,281.6071428571429,620.1071466718402,4248,281.6071428571429,620.1071466718402,4359,281.6071428571429,620.1071466718402,4469,281.6071428571429,620.1071466718402,4580,281.6071428571429,620.1071466718402,4689,281.6071428571429,620.1071466718402,4797,281.6071428571429,620.1071466718402,4907]","[7733,7733,1000,0,6733,""smooth"",""down"",""down"",""good_move"",14487,6754,2355.8,11484,647.2,""smooth"",""left"",""left"",""good_move""]"
"5684","","<div style=""width:500px;"">
  <p>What determined the result of this run?</p>
  </div>","73","html-slider-response","79","1140520","0.0-7.0-1.13","162","1","2025-08-06 09:18:39","36c45c0696341be0efffe67d72a12abb","102.33.153.170","Mozilla/5.0 (Windows NT 10.0; Win64; x64; rv:142.0) Gecko/20100101 Firefox/142.0","","Firefox","142.0","Windows","10.0","https://app.prolific.com/","en-US,en;q=0.5","64d23e803ee1da9a01e52faa","687a1a965b9f5b85a264363e","68931d91c86fc5d36b7e85e5","1","64d23e803ee1da9a01e52faa","1","2025-08-06T09:37:43.589Z","","","","AttribQ","","","","","","","","","","","50","","","","","","","","","","","","","","","","","","","","","","","","","","",""
"3549","","<div style=""width:500px;"">
  <p>How much control did you have over the ball?</p>
  </div>","65","html-slider-response","80","1144071","0.0-7.0-2.13","162","1","2025-08-06 09:18:39","36c45c0696341be0efffe67d72a12abb","102.33.153.170","Mozilla/5.0 (Windows NT 10.0; Win64; x64; rv:142.0) Gecko/20100101 Firefox/142.0","","Firefox","142.0","Windows","10.0","https://app.prolific.com/","en-US,en;q=0.5","64d23e803ee1da9a01e52faa","687a1a965b9f5b85a264363e","68931d91c86fc5d36b7e85e5","1","64d23e803ee1da9a01e52faa","1","2025-08-06T09:37:47.140Z","","","","ControlQ","","","","","","","","","","","50","","","","","","","","","","","","","","","","","","","","","","","","","","",""
"4006","","<div style=""width:500px;"">
  <p>How would you describe your current emotional state?</p>
  </div>","61","html-slider-response","81","1148078","0.0-7.0-3.13","162","1","2025-08-06 09:18:39","36c45c0696341be0efffe67d72a12abb","102.33.153.170","Mozilla/5.0 (Windows NT 10.0; Win64; x64; rv:142.0) Gecko/20100101 Firefox/142.0","","Firefox","142.0","Windows","10.0","https://app.prolific.com/","en-US,en;q=0.5","64d23e803ee1da9a01e52faa","687a1a965b9f5b85a264363e","68931d91c86fc5d36b7e85e5","1","64d23e803ee1da9a01e52faa","1","2025-08-06T09:37:51.147Z","","","","StressQ","","","","","","","","","","","50","","","","","","","","","","","","","","","","","","","","","","","","","","",""
"2989","","<div style=""width:500px;"">
  <p>What best describes how you currently feel?</p>
  </div>","63","html-slider-response","82","1151069","0.0-7.0-4.13","162","1","2025-08-06 09:18:39","36c45c0696341be0efffe67d72a12abb","102.33.153.170","Mozilla/5.0 (Windows NT 10.0; Win64; x64; rv:142.0) Gecko/20100101 Firefox/142.0","","Firefox","142.0","Windows","10.0","https://app.prolific.com/","en-US,en;q=0.5","64d23e803ee1da9a01e52faa","687a1a965b9f5b85a264363e","68931d91c86fc5d36b7e85e5","1","64d23e803ee1da9a01e52faa","1","2025-08-06T09:37:54.138Z","","","","MotivationQ","","","","","","","","","","","50","","","","","","","","","","","","","","","","","","","","","","","","","","",""
