"rt","response_timestamp","stimulus","response","trial_type","trial_index","time_elapsed","internal_node_id","run_id","condition","recorded_at","source_code_version","ip","user_agent","device","browser","browser_version","platform","platform_version","referer","accept_language","PROLIFIC_PID","STUDY_ID","SESSION_ID","BATCH","prolific_id","batch","realtime","success","question_order","question_id","eventType","responses","item_order","radio_event_ids","radio_event_times","key_event_times","mouse_event_times","straightlining","zigzagging","honeypot","view_history","slider_start","which_type","canvas_config","goals_layout","control_level","trial_number","tutorial_trial_number","trial_start_time","phase1_start_time","phase2_start_time","phase3_start_time","goal_1_value","goal_1_distance","goal_2_value","goal_2_distance","goal_selected","outcome","outcome_total","participant_final_score","participant_initial_score","participant_final_score_prop","goal_choice_rt","allocated_time","allocated_time_remaining","goal_direction","counts","mouse_movements","key_presses"
"5917","1754552846817","<p style='font-size:40px;line-height:1.25'><strong>Welcome to the experiment!</strong></p><p style='font-size:1.1em;line-height:1.25'>Thank you for participanting in our experiment again! You will be asked to play the Dysfunctional Ball Game again. We will briefly recap the rules before we start.</p><p style='font-size:1.1em;line-height:1.25'>Press <strong>Next</strong> to continue.</p>","0","custom-html-button-response","0","5921","0.0-0.0","226","1","2025-08-07 07:47:19","36c45c0696341be0efffe67d72a12abb","105.245.232.61","Mozilla/5.0 (Windows NT 10.0; Win64; x64) AppleWebKit/537.36 (KHTML, like Gecko) Chrome/138.0.0.0 Safari/537.36","WebKit","Chrome","138.0.0.0","Windows","10.0","https://app.prolific.com/","en-US,en;q=0.9","650ac282d9578d72800bf303","6877649eabb845cf142cd221","689459ef2b5773fa60f394f6","1","650ac282d9578d72800bf303","1","2025-08-07T07:47:26.820Z","","","","","","","","","","","","","","","","","","","","","","","","","","","","","","","","","","","","","","","","","",""
"1816","","","","fullscreen","1","8754","0.0-1.0","226","1","2025-08-07 07:47:19","36c45c0696341be0efffe67d72a12abb","105.245.232.61","Mozilla/5.0 (Windows NT 10.0; Win64; x64) AppleWebKit/537.36 (KHTML, like Gecko) Chrome/138.0.0.0 Safari/537.36","WebKit","Chrome","138.0.0.0","Windows","10.0","https://app.prolific.com/","en-US,en;q=0.9","650ac282d9578d72800bf303","6877649eabb845cf142cd221","689459ef2b5773fa60f394f6","1","650ac282d9578d72800bf303","1","","true","","","","","","","","","","","","","","","","","","","","","","","","","","","","","","","","","","","","","","","","",""
"16611","1754552866265"," <p style='font-size:1.1em;line-height:1.25'>Thank you for closing all other tabs.</p><p style='font-size:1.1em;line-height:1.25'>We will now invite you to fill in some questionnaires, before starting the game.<br>This will take about 5 minutes.<br></p><p style='font-size:1.1em;line-height:1.25'>Press the <strong>Next</strong> button to continue.</p>","0","custom-html-button-response","2","25368","0.0-2.0","226","1","2025-08-07 07:47:19","36c45c0696341be0efffe67d72a12abb","105.245.232.61","Mozilla/5.0 (Windows NT 10.0; Win64; x64) AppleWebKit/537.36 (KHTML, like Gecko) Chrome/138.0.0.0 Safari/537.36","WebKit","Chrome","138.0.0.0","Windows","10.0","https://app.prolific.com/","en-US,en;q=0.9","650ac282d9578d72800bf303","6877649eabb845cf142cd221","689459ef2b5773fa60f394f6","1","650ac282d9578d72800bf303","1","2025-08-07T07:47:46.266Z","","","","","","","","","","","","","","","","","","","","","","","","","","","","","","","","","","","","","","","","","",""
"3101","","","{""assigned_sex"":""female""}","survey-multi-choice","3","28472","0.0-3.0-0.0","226","1","2025-08-07 07:47:19","36c45c0696341be0efffe67d72a12abb","105.245.232.61","Mozilla/5.0 (Windows NT 10.0; Win64; x64) AppleWebKit/537.36 (KHTML, like Gecko) Chrome/138.0.0.0 Safari/537.36","WebKit","Chrome","138.0.0.0","Windows","10.0","https://app.prolific.com/","en-US,en;q=0.9","650ac282d9578d72800bf303","6877649eabb845cf142cd221","689459ef2b5773fa60f394f6","1","650ac282d9578d72800bf303","1","","","[0]","0","demographics","","","","","","","","","","","","","","","","","","","","","","","","","","","","","","","","","","","","","",""
"3364","1754552872735","<p style='font-size:1.1em;line-height:1.25'>In the following, we will perform a baseline assessment. This means that we will ask you a few questions relating to your experiences over the past month.<br></p><p style='font-size:1.1em;line-height:1.25'>Press the <strong>Next</strong> button to continue.</p>","0","custom-html-button-response","4","31837","0.0-4.0-0.0","226","1","2025-08-07 07:47:19","36c45c0696341be0efffe67d72a12abb","105.245.232.61","Mozilla/5.0 (Windows NT 10.0; Win64; x64) AppleWebKit/537.36 (KHTML, like Gecko) Chrome/138.0.0.0 Safari/537.36","WebKit","Chrome","138.0.0.0","Windows","10.0","https://app.prolific.com/","en-US,en;q=0.9","650ac282d9578d72800bf303","6877649eabb845cf142cd221","689459ef2b5773fa60f394f6","1","650ac282d9578d72800bf303","1","2025-08-07T07:47:52.735Z","","","","","","","","","","","","","","","","","","","","","","","","","","","","","","","","","","","","","","","","","",""
"122708.09999990463","","","","survey-template","5","154550","0.0-4.0-1.0","226","1","2025-08-07 07:47:19","36c45c0696341be0efffe67d72a12abb","105.245.232.61","Mozilla/5.0 (Windows NT 10.0; Win64; x64) AppleWebKit/537.36 (KHTML, like Gecko) Chrome/138.0.0.0 Safari/537.36","WebKit","Chrome","138.0.0.0","Windows","10.0","https://app.prolific.com/","en-US,en;q=0.9","650ac282d9578d72800bf303","6877649eabb845cf142cd221","689459ef2b5773fa60f394f6","1","650ac282d9578d72800bf303","1","2025-08-07T07:49:55.448Z","","","","pss","{""Q01"":""1"",""Q02"":""2"",""Q03"":""3"",""Q04"":""1"",""Q05"":""2"",""Q06"":""2"",""Q07"":""3"",""Q08"":""2"",""Q09"":""2"",""Q10"":""2""}","[0,1,2,3,4,5,6,7,8,9]","[""Q01"",""Q02"",""Q02"",""Q04"",""Q03"",""Q05"",""Q06"",""Q07"",""Q07"",""Q08"",""Q08"",""Q09"",""Q10""]","[6145.299999952316,15857.099999904633,18347.299999952316,26407.5,27424.5,58923.5,61907.09999990463,68013.29999995232,72264.20000004768,82546.79999995232,84980.29999995232,87396.20000004768,118089.90000009537]","[]","[0.09999990463256836,6145.299999952316,15857.099999904633,18347.299999952316,22085.099999904633,25416.5,26407.5,27424.5,55664,58923.5,61907.09999990463,68013.29999995232,72264.20000004768,82546.79999995232,84980.29999995232,87396.20000004768,118089.90000009537,122704.09999990463]","0.6","0.5555555555555556","0","","","","","","","","","","","","","","","","","","","","","","","","","","","","",""
"1952","1754552997402","<p style='font-size:1.1em;line-height:1.25'>Thank you for your answers! Now we will ask you a few more questions relating to your feelings in the last 24 hours.<br></p><p style='font-size:1.1em;line-height:1.25'>Press the <strong>Next</strong> button to continue.</p>","0","custom-html-button-response","6","156505","0.0-4.0-2.0","226","1","2025-08-07 07:47:19","36c45c0696341be0efffe67d72a12abb","105.245.232.61","Mozilla/5.0 (Windows NT 10.0; Win64; x64) AppleWebKit/537.36 (KHTML, like Gecko) Chrome/138.0.0.0 Safari/537.36","WebKit","Chrome","138.0.0.0","Windows","10.0","https://app.prolific.com/","en-US,en;q=0.9","650ac282d9578d72800bf303","6877649eabb845cf142cd221","689459ef2b5773fa60f394f6","1","650ac282d9578d72800bf303","1","2025-08-07T07:49:57.403Z","","","","","","","","","","","","","","","","","","","","","","","","","","","","","","","","","","","","","","","","","",""
"91296.90000009537","","","","survey-template","7","247809","0.0-4.0-3.0","226","1","2025-08-07 07:47:19","36c45c0696341be0efffe67d72a12abb","105.245.232.61","Mozilla/5.0 (Windows NT 10.0; Win64; x64) AppleWebKit/537.36 (KHTML, like Gecko) Chrome/138.0.0.0 Safari/537.36","WebKit","Chrome","138.0.0.0","Windows","10.0","https://app.prolific.com/","en-US,en;q=0.9","650ac282d9578d72800bf303","6877649eabb845cf142cd221","689459ef2b5773fa60f394f6","1","650ac282d9578d72800bf303","1","2025-08-07T07:51:28.707Z","","","","drsp","{""Q01"":""1"",""Q02"":""2"",""Q03"":""2"",""Q04"":""2"",""Q05"":""0"",""Q06"":""1"",""Q07"":""3"",""Q08"":""3"",""Q09"":""3"",""Q10"":""1"",""Q11"":""4"",""Q12"":""4"",""Q13"":""5"",""Q14"":""3"",""Q15"":""3"",""Q16"":""3"",""Q17"":""4"",""Q18"":""3"",""Q19"":""4"",""Q20"":""3"",""Q21"":""3"",""Q22"":""1""}","[0,1,2,3,4,5,6,7,8,9,10,11,12,13,14,15,16,17,18,19,20,21]","[""Q01"",""Q02"",""Q03"",""Q04"",""Q05"",""Q06"",""Q07"",""Q08"",""Q09"",""Q10"",""Q11"",""Q12"",""Q13"",""Q14"",""Q15"",""Q16"",""Q17"",""Q19"",""Q18"",""Q20"",""Q20"",""Q21"",""Q22""]","[2732.600000143051,4575.5,7700.200000047684,9162.100000143051,12211.100000143051,15532.700000047684,19486.400000095367,24024.5,26135.5,32340.60000014305,35865.200000047684,37656.5,39679.5,46212.10000014305,49743.10000014305,52388.10000014305,56618.700000047684,66386.20000004768,67576,75563.10000014305,79598.30000019073,81521.70000004768,89977.40000009537]","[]","[0,2732.600000143051,4575.5,7700.200000047684,9162.100000143051,12211.100000143051,14114.400000095367,15532.700000047684,19486.400000095367,24024.5,26135.5,32340.60000014305,35865.200000047684,37656.5,39679.5,43337.5,44896.10000014305,46212.10000014305,48363.60000014305,49743.10000014305,52388.10000014305,56618.700000047684,58696.5,61936.5,64403.200000047684,65296.5,66386.20000004768,67576,75563.10000014305,79598.30000019073,81521.70000004768,89977.40000009537,91288.60000014305]","0.4090909090909091","0.3333333333333333","0","","","","","","","","","","","","","","","","","","","","","","","","","","","","",""
"13594.700000047684","","","","survey-template","8","261406","0.0-4.0-4.0","226","1","2025-08-07 07:47:19","36c45c0696341be0efffe67d72a12abb","105.245.232.61","Mozilla/5.0 (Windows NT 10.0; Win64; x64) AppleWebKit/537.36 (KHTML, like Gecko) Chrome/138.0.0.0 Safari/537.36","WebKit","Chrome","138.0.0.0","Windows","10.0","https://app.prolific.com/","en-US,en;q=0.9","650ac282d9578d72800bf303","6877649eabb845cf142cd221","689459ef2b5773fa60f394f6","1","650ac282d9578d72800bf303","1","2025-08-07T07:51:42.304Z","","","","stress","{""Q01"":""3"",""Q02"":""2"",""Q03"":""3""}","[0,1,2]","[""Q01"",""Q02"",""Q02"",""Q03""]","[4668.799999952316,6543.400000095367,9168.099999904633,11368]","[]","[4668.799999952316,6543.400000095367,9168.099999904633,11368,13593.599999904633]","1","0","0","","","","","","","","","","","","","","","","","","","","","","","","","","","","",""
"3972","","","","instructions","9","265380","0.0-5.0-0.0","226","1","2025-08-07 07:47:19","36c45c0696341be0efffe67d72a12abb","105.245.232.61","Mozilla/5.0 (Windows NT 10.0; Win64; x64) AppleWebKit/537.36 (KHTML, like Gecko) Chrome/138.0.0.0 Safari/537.36","WebKit","Chrome","138.0.0.0","Windows","10.0","https://app.prolific.com/","en-US,en;q=0.9","650ac282d9578d72800bf303","6877649eabb845cf142cd221","689459ef2b5773fa60f394f6","1","650ac282d9578d72800bf303","1","","","","","","","","","","","","","","","[{""page_index"":0,""viewing_time"":3972}]","","","","","","","","","","","","","","","","","","","","","","","","","","","",""
"3390","","<p>Before you start with this game please answer the following three questions yourself. </p>
  <p>Through this game, we measure several aspects of your cognitive performance, such as reaction times, multi-tasking capabilities </p>
  <p>and the ability to assess the situation you are in.</p>
  <p></p>
  <p><b>How good do you usually are in such tasks?</b></p>","51","html-slider-response","10","268771","0.0-6.0-0.0","226","1","2025-08-07 07:47:19","36c45c0696341be0efffe67d72a12abb","105.245.232.61","Mozilla/5.0 (Windows NT 10.0; Win64; x64) AppleWebKit/537.36 (KHTML, like Gecko) Chrome/138.0.0.0 Safari/537.36","WebKit","Chrome","138.0.0.0","Windows","10.0","https://app.prolific.com/","en-US,en;q=0.9","650ac282d9578d72800bf303","6877649eabb845cf142cd221","689459ef2b5773fa60f394f6","1","650ac282d9578d72800bf303","1","2025-08-07T07:51:49.670Z","","","","PreSkillQ","","","","","","","","","","","50","","","","","","","","","","","","","","","","","","","","","","","","","","",""
"3998","","<div style=""width:500px;"">
  <p>How well do you think you will perform in this task compared to other participants?</p>
  </div>","53","html-slider-response","11","272771","0.0-6.0-1.0","226","1","2025-08-07 07:47:19","36c45c0696341be0efffe67d72a12abb","105.245.232.61","Mozilla/5.0 (Windows NT 10.0; Win64; x64) AppleWebKit/537.36 (KHTML, like Gecko) Chrome/138.0.0.0 Safari/537.36","WebKit","Chrome","138.0.0.0","Windows","10.0","https://app.prolific.com/","en-US,en;q=0.9","650ac282d9578d72800bf303","6877649eabb845cf142cd221","689459ef2b5773fa60f394f6","1","650ac282d9578d72800bf303","1","2025-08-07T07:51:53.669Z","","","","PrePerfQ","","","","","","","","","","","50","","","","","","","","","","","","","","","","","","","","","","","","","","",""
"3881","","<div style=""width:500px;"">
  <p>What best describes how you currently feel?</p>
  </div>","10","html-slider-response","12","276654","0.0-6.0-2.0","226","1","2025-08-07 07:47:19","36c45c0696341be0efffe67d72a12abb","105.245.232.61","Mozilla/5.0 (Windows NT 10.0; Win64; x64) AppleWebKit/537.36 (KHTML, like Gecko) Chrome/138.0.0.0 Safari/537.36","WebKit","Chrome","138.0.0.0","Windows","10.0","https://app.prolific.com/","en-US,en;q=0.9","650ac282d9578d72800bf303","6877649eabb845cf142cd221","689459ef2b5773fa60f394f6","1","650ac282d9578d72800bf303","1","2025-08-07T07:51:57.552Z","","","","PreMotivationQ","","","","","","","","","","","50","","","","","","","","","","","","","","","","","","","","","","","","","","",""
"","","","","ctl-task-cpt","13","308030","0.0-7.0-0.0","226","1","2025-08-07 07:47:19","36c45c0696341be0efffe67d72a12abb","105.245.232.61","Mozilla/5.0 (Windows NT 10.0; Win64; x64) AppleWebKit/537.36 (KHTML, like Gecko) Chrome/138.0.0.0 Safari/537.36","WebKit","Chrome","138.0.0.0","Windows","10.0","https://app.prolific.com/","en-US,en;q=0.9","650ac282d9578d72800bf303","6877649eabb845cf142cd221","689459ef2b5773fa60f394f6","1","650ac282d9578d72800bf303","1","2025-08-07T07:52:28.929Z","","","","","","","","","","","","","","","","win-only","0","g1:NW,g2:SE","1","1","0","280089.2","5082.9","10084.5","28369.1","1","4","4","6","1","1","0","0","0","0","2051","3000","1500","[""left"",""up""]","{""num_key_presses"":6,""num_perfect"":4,""num_errors"":1,""num_randdir"":0,""num_randdir_good_moves"":0,""num_whilered"":1,""num_whileblue"":0,""num_blue"":1,""num_good_moves"":4}","[295.22232142857143,301.12857142857143,0.2,295.22232142857143,301.12857142857143,104.6,295.22232142857143,301.12857142857143,208.8,295.22232142857143,301.12857142857143,309,295.22232142857143,301.12857142857143,413.5,295.22232142857143,301.12857142857143,513.8,295.22232142857143,301.12857142857143,618.8,295.22232142857143,301.12857142857143,718.9,295.22232142857143,301.12857142857143,818.9,295.22232142857143,301.12857142857143,919.1,295.22232142857143,301.12857142857143,1024.4,295.22232142857143,301.12857142857143,1128.2,295.22232142857143,301.12857142857143,1228.4,269.22232142857143,269.12857142857143,1332.6,151.22232142857143,-21.871428571428574,1432.6,134.22232142857143,-24.871428571428574,1535,121.22232142857143,-18.871428571428574,1639.7,78.22232142857143,81.12857142857143,1744.8,69.22232142857143,78.12857142857143,1851.6,69.22232142857143,78.12857142857143,1954.6,69.22232142857143,78.12857142857143,2058.5,69.22232142857143,78.12857142857143,2158.5,69.22232142857143,78.12857142857143,2263.2,69.22232142857143,78.12857142857143,2368.6,69.22232142857143,78.12857142857143,2473.5,69.22232142857143,78.12857142857143,2578.3,69.22232142857143,78.12857142857143,2683.4,69.22232142857143,78.12857142857143,2787.9,69.22232142857143,78.12857142857143,2889.3,69.22232142857143,78.12857142857143,2994.3,69.22232142857143,78.12857142857143,3099.7,69.22232142857143,78.12857142857143,3203.9,69.22232142857143,78.12857142857143,3308.7,69.22232142857143,78.12857142857143,3412.8,69.22232142857143,78.12857142857143,3513.2,69.22232142857143,78.12857142857143,3618.3,69.22232142857143,78.12857142857143,3722.9,69.22232142857143,78.12857142857143,3825,69.22232142857143,78.12857142857143,3927.8,69.22232142857143,78.12857142857143,4029.6,69.22232142857143,78.12857142857143,4135,69.22232142857143,78.12857142857143,4239.7,69.22232142857143,78.12857142857143,4339.9,69.22232142857143,78.12857142857143,4444.9,69.22232142857143,78.12857142857143,4545,69.22232142857143,78.12857142857143,4647.7,69.22232142857143,78.12857142857143,4750.1,69.22232142857143,78.12857142857143,4853.4,69.22232142857143,78.12857142857143,4954.4]","[6063.2,6063.2,2469,2004.2,1590,""smooth"",""up"",""up"",""good_move"",7171.3,1107.2,2498.8,6064.1,-1391.6,""error"",""-"",""-"",""no_move"",7172,0.3,2498.8,6064.1,-1390.9,""while_red"",""-"",""-"",""no_move"",11424.2,4252.5,2811.9,8176.8,435.5,""smooth"",""up"",""up"",""good_move"",14371.1,2946.5,2546.6,11424.6,399.9,""smooth"",""left"",""left"",""good_move"",18192.6,3820.9,2700.9,14371.7,1120,""smooth"",""left"",""left"",""good_move""]"
"7193","","<div style=""width:500px;"">
  <p>What determined the result of this run?</p>
  </div>","0","html-slider-response","14","315225","0.0-7.0-1.0","226","1","2025-08-07 07:47:19","36c45c0696341be0efffe67d72a12abb","105.245.232.61","Mozilla/5.0 (Windows NT 10.0; Win64; x64) AppleWebKit/537.36 (KHTML, like Gecko) Chrome/138.0.0.0 Safari/537.36","WebKit","Chrome","138.0.0.0","Windows","10.0","https://app.prolific.com/","en-US,en;q=0.9","650ac282d9578d72800bf303","6877649eabb845cf142cd221","689459ef2b5773fa60f394f6","1","650ac282d9578d72800bf303","1","2025-08-07T07:52:36.124Z","","","","AttribQ","","","","","","","","","","","50","","","","","","","","","","","","","","","","","","","","","","","","","","",""
"4186","","<div style=""width:500px;"">
  <p>How much control did you have over the ball?</p>
  </div>","0","html-slider-response","15","319413","0.0-7.0-2.0","226","1","2025-08-07 07:47:19","36c45c0696341be0efffe67d72a12abb","105.245.232.61","Mozilla/5.0 (Windows NT 10.0; Win64; x64) AppleWebKit/537.36 (KHTML, like Gecko) Chrome/138.0.0.0 Safari/537.36","WebKit","Chrome","138.0.0.0","Windows","10.0","https://app.prolific.com/","en-US,en;q=0.9","650ac282d9578d72800bf303","6877649eabb845cf142cd221","689459ef2b5773fa60f394f6","1","650ac282d9578d72800bf303","1","2025-08-07T07:52:40.311Z","","","","ControlQ","","","","","","","","","","","50","","","","","","","","","","","","","","","","","","","","","","","","","","",""
"7452","","<div style=""width:500px;"">
  <p>How would you describe your current emotional state?</p>
  </div>","53","html-slider-response","16","326866","0.0-7.0-3.0","226","1","2025-08-07 07:47:19","36c45c0696341be0efffe67d72a12abb","105.245.232.61","Mozilla/5.0 (Windows NT 10.0; Win64; x64) AppleWebKit/537.36 (KHTML, like Gecko) Chrome/138.0.0.0 Safari/537.36","WebKit","Chrome","138.0.0.0","Windows","10.0","https://app.prolific.com/","en-US,en;q=0.9","650ac282d9578d72800bf303","6877649eabb845cf142cd221","689459ef2b5773fa60f394f6","1","650ac282d9578d72800bf303","1","2025-08-07T07:52:47.764Z","","","","StressQ","","","","","","","","","","","50","","","","","","","","","","","","","","","","","","","","","","","","","","",""
"6577","","<div style=""width:500px;"">
  <p>What best describes how you currently feel?</p>
  </div>","14","html-slider-response","17","333445","0.0-7.0-4.0","226","1","2025-08-07 07:47:19","36c45c0696341be0efffe67d72a12abb","105.245.232.61","Mozilla/5.0 (Windows NT 10.0; Win64; x64) AppleWebKit/537.36 (KHTML, like Gecko) Chrome/138.0.0.0 Safari/537.36","WebKit","Chrome","138.0.0.0","Windows","10.0","https://app.prolific.com/","en-US,en;q=0.9","650ac282d9578d72800bf303","6877649eabb845cf142cd221","689459ef2b5773fa60f394f6","1","650ac282d9578d72800bf303","1","2025-08-07T07:52:54.343Z","","","","MotivationQ","","","","","","","","","","","50","","","","","","","","","","","","","","","","","","","","","","","","","","",""
"","","","","ctl-task-cpt","18","370664","0.0-7.0-0.1","226","1","2025-08-07 07:47:19","36c45c0696341be0efffe67d72a12abb","105.245.232.61","Mozilla/5.0 (Windows NT 10.0; Win64; x64) AppleWebKit/537.36 (KHTML, like Gecko) Chrome/138.0.0.0 Safari/537.36","WebKit","Chrome","138.0.0.0","Windows","10.0","https://app.prolific.com/","en-US,en;q=0.9","650ac282d9578d72800bf303","6877649eabb845cf142cd221","689459ef2b5773fa60f394f6","1","650ac282d9578d72800bf303","1","2025-08-07T07:53:31.562Z","","","","","","","","","","","","","","","","win-only","1","g1:NE,g2:SW","0.9","2","0","336877.4","1387.3","6393.3","34213.2","1","4","8","6","2","-8","-10","0","0","0","1275.6","3000","-2955","[""down"",""left""]","{""num_key_presses"":9,""num_perfect"":7,""num_errors"":2,""num_randdir"":0,""num_randdir_good_moves"":0,""num_whilered"":0,""num_whileblue"":2,""num_blue"":2,""num_good_moves"":7}","[287.22232142857143,298.12857142857143,0.2,287.22232142857143,298.12857142857143,103.8,287.22232142857143,298.12857142857143,209.8,287.22232142857143,298.12857142857143,314.8,394.22232142857143,428.12857142857143,420.2,322.22232142857143,522.1285714285714,525.1,121.22232142857143,583.1285714285714,626.6,93.22232142857143,585.1285714285714,726.6,73.22232142857143,553.1285714285714,830.1,66.22232142857143,546.1285714285714,934.9,63.222321428571426,539.1285714285714,1038.4,63.222321428571426,539.1285714285714,1139.4,63.222321428571426,539.1285714285714,1239.4,63.222321428571426,539.1285714285714,1344.6,63.222321428571426,539.1285714285714,1449.1,63.222321428571426,539.1285714285714,1550.5,63.222321428571426,539.1285714285714,1654.8,63.222321428571426,539.1285714285714,1760.3,63.222321428571426,539.1285714285714,1865.2,63.222321428571426,539.1285714285714,1970,63.222321428571426,539.1285714285714,2070.1,63.222321428571426,539.1285714285714,2175,63.222321428571426,539.1285714285714,2279.5,63.222321428571426,539.1285714285714,2379.5,63.222321428571426,539.1285714285714,2484.2,63.222321428571426,539.1285714285714,2589.7,63.222321428571426,539.1285714285714,2689.9,63.222321428571426,539.1285714285714,2793.8,63.222321428571426,539.1285714285714,2898.6,63.222321428571426,539.1285714285714,3003.7,63.222321428571426,539.1285714285714,3103.7,63.222321428571426,539.1285714285714,3205.7,63.222321428571426,539.1285714285714,3310.7,63.222321428571426,539.1285714285714,3415.3,63.222321428571426,539.1285714285714,3518.6,63.222321428571426,539.1285714285714,3624.5,63.222321428571426,539.1285714285714,3728.3,63.222321428571426,539.1285714285714,3830.5,63.222321428571426,539.1285714285714,3935.4,63.222321428571426,539.1285714285714,4039.5,63.222321428571426,539.1285714285714,4144,63.222321428571426,539.1285714285714,4244,63.222321428571426,539.1285714285714,4348.6,63.222321428571426,539.1285714285714,4449.8,63.222321428571426,539.1285714285714,4555.6,63.222321428571426,539.1285714285714,4659.7,63.222321428571426,539.1285714285714,4759.9,63.222321428571426,539.1285714285714,4864.8,63.222321428571426,539.1285714285714,4968.2]","[1470.6,1470.6,1000,0,470.6,""smooth"",""down"",""down"",""good_move"",4521,3049.9,2651.2,1471.1,398.7,""smooth"",""down"",""down"",""good_move"",7418.7,2897.4,2496.1,4521.4,401.2,""smooth"",""down"",""down"",""good_move"",10051.8,2632.8,2243.9,7419.1,388.9,""while_blue"",""left"",""right"",""bad_move"",13620.7,3568.4,2273.4,10052.3,1295,""smooth"",""left"",""left"",""good_move"",16980.1,3358.6,2984.3,13621.5,374.3,""smooth"",""left"",""left"",""good_move"",20000.4,3019.8,2636.5,16980.7,383.2,""smooth"",""left"",""left"",""good_move"",22394.5,2393.7,2036,20000.8,357.7,""while_blue"",""left"",""right"",""bad_move"",25182.7,2788.1,2410.4,22394.7,377.7,""smooth"",""left"",""left"",""good_move""]"
"4763","","<div style=""width:500px;"">
  <p>What determined the result of this run?</p>
  </div>","3","html-slider-response","19","375428","0.0-7.0-1.1","226","1","2025-08-07 07:47:19","36c45c0696341be0efffe67d72a12abb","105.245.232.61","Mozilla/5.0 (Windows NT 10.0; Win64; x64) AppleWebKit/537.36 (KHTML, like Gecko) Chrome/138.0.0.0 Safari/537.36","WebKit","Chrome","138.0.0.0","Windows","10.0","https://app.prolific.com/","en-US,en;q=0.9","650ac282d9578d72800bf303","6877649eabb845cf142cd221","689459ef2b5773fa60f394f6","1","650ac282d9578d72800bf303","1","2025-08-07T07:53:36.327Z","","","","AttribQ","","","","","","","","","","","50","","","","","","","","","","","","","","","","","","","","","","","","","","",""
"12025","","<div style=""width:500px;"">
  <p>How much control did you have over the ball?</p>
  </div>","31","html-slider-response","20","387454","0.0-7.0-2.1","226","1","2025-08-07 07:47:19","36c45c0696341be0efffe67d72a12abb","105.245.232.61","Mozilla/5.0 (Windows NT 10.0; Win64; x64) AppleWebKit/537.36 (KHTML, like Gecko) Chrome/138.0.0.0 Safari/537.36","WebKit","Chrome","138.0.0.0","Windows","10.0","https://app.prolific.com/","en-US,en;q=0.9","650ac282d9578d72800bf303","6877649eabb845cf142cd221","689459ef2b5773fa60f394f6","1","650ac282d9578d72800bf303","1","2025-08-07T07:53:48.353Z","","","","ControlQ","","","","","","","","","","","50","","","","","","","","","","","","","","","","","","","","","","","","","","",""
"6431","","<div style=""width:500px;"">
  <p>How would you describe your current emotional state?</p>
  </div>","27","html-slider-response","21","393887","0.0-7.0-3.1","226","1","2025-08-07 07:47:19","36c45c0696341be0efffe67d72a12abb","105.245.232.61","Mozilla/5.0 (Windows NT 10.0; Win64; x64) AppleWebKit/537.36 (KHTML, like Gecko) Chrome/138.0.0.0 Safari/537.36","WebKit","Chrome","138.0.0.0","Windows","10.0","https://app.prolific.com/","en-US,en;q=0.9","650ac282d9578d72800bf303","6877649eabb845cf142cd221","689459ef2b5773fa60f394f6","1","650ac282d9578d72800bf303","1","2025-08-07T07:53:54.785Z","","","","StressQ","","","","","","","","","","","50","","","","","","","","","","","","","","","","","","","","","","","","","","",""
"6228","","<div style=""width:500px;"">
  <p>What best describes how you currently feel?</p>
  </div>","24","html-slider-response","22","400116","0.0-7.0-4.1","226","1","2025-08-07 07:47:19","36c45c0696341be0efffe67d72a12abb","105.245.232.61","Mozilla/5.0 (Windows NT 10.0; Win64; x64) AppleWebKit/537.36 (KHTML, like Gecko) Chrome/138.0.0.0 Safari/537.36","WebKit","Chrome","138.0.0.0","Windows","10.0","https://app.prolific.com/","en-US,en;q=0.9","650ac282d9578d72800bf303","6877649eabb845cf142cd221","689459ef2b5773fa60f394f6","1","650ac282d9578d72800bf303","1","2025-08-07T07:54:01.015Z","","","","MotivationQ","","","","","","","","","","","50","","","","","","","","","","","","","","","","","","","","","","","","","","",""
"","","","","ctl-task-cpt","23","424158","0.0-7.0-0.2","226","1","2025-08-07 07:47:19","36c45c0696341be0efffe67d72a12abb","105.245.232.61","Mozilla/5.0 (Windows NT 10.0; Win64; x64) AppleWebKit/537.36 (KHTML, like Gecko) Chrome/138.0.0.0 Safari/537.36","WebKit","Chrome","138.0.0.0","Windows","10.0","https://app.prolific.com/","en-US,en;q=0.9","650ac282d9578d72800bf303","6877649eabb845cf142cd221","689459ef2b5773fa60f394f6","1","650ac282d9578d72800bf303","1","2025-08-07T07:54:25.056Z","","","","","","","","","","","","","","","","win-only","3","g1:SW,g2:NE","0.8","3","0","403550","1270.7","6274.7","21036.1","1","4","4","6","1","1","-1","0","0","0","1754.5","3000","1355","[""down"",""left""]","{""num_key_presses"":5,""num_perfect"":3,""num_errors"":2,""num_randdir"":0,""num_randdir_good_moves"":0,""num_whilered"":0,""num_whileblue"":1,""num_blue"":1,""num_good_moves"":4}","[290.22232142857143,299.12857142857143,0.3,290.22232142857143,299.12857142857143,104.1,290.22232142857143,299.12857142857143,205.7,290.22232142857143,299.12857142857143,310.8,290.22232142857143,299.12857142857143,416.1,285.22232142857143,312.12857142857143,517,277.22232142857143,312.12857142857143,620.7,436.22232142857143,171.12857142857143,725.3,489.22232142857143,132.12857142857143,830.2,492.22232142857143,128.12857142857143,930.9,435.22232142857143,231.12857142857143,1034.8,136.22232142857143,551.1285714285714,1135.1,87.22232142857143,581.1285714285714,1235.9,71.22232142857143,581.1285714285714,1336.7,56.222321428571426,563.1285714285714,1441.3,61.222321428571426,542.1285714285714,1545.7,61.222321428571426,542.1285714285714,1653.7,61.222321428571426,542.1285714285714,1756.2,61.222321428571426,542.1285714285714,1860.4,61.222321428571426,542.1285714285714,1960.5,61.222321428571426,542.1285714285714,2066.4,61.222321428571426,542.1285714285714,2170,61.222321428571426,542.1285714285714,2271.4,61.222321428571426,542.1285714285714,2375.4,61.222321428571426,542.1285714285714,2481.6,61.222321428571426,542.1285714285714,2584.7,61.222321428571426,542.1285714285714,2686.6,61.222321428571426,542.1285714285714,2791.1,61.222321428571426,542.1285714285714,2891.1,61.222321428571426,542.1285714285714,2995.9,61.222321428571426,542.1285714285714,3100.1,61.222321428571426,542.1285714285714,3201,61.222321428571426,542.1285714285714,3303.7,61.222321428571426,542.1285714285714,3405.5,61.222321428571426,542.1285714285714,3507.1,61.222321428571426,542.1285714285714,3609.6,61.222321428571426,542.1285714285714,3709.8,61.222321428571426,542.1285714285714,3809.9,61.222321428571426,542.1285714285714,3915.7,61.222321428571426,542.1285714285714,4017.7,61.222321428571426,542.1285714285714,4120.2,61.222321428571426,542.1285714285714,4224.7,61.222321428571426,542.1285714285714,4324.8,61.222321428571426,542.1285714285714,4429.6,61.222321428571426,542.1285714285714,4530.6,61.222321428571426,542.1285714285714,4639.9,61.222321428571426,542.1285714285714,4740.1,61.222321428571426,542.1285714285714,4841,61.222321428571426,542.1285714285714,4945.2]","[418.1,418.1,1000,0,-581.9,""error"",""-"",""-"",""no_move"",4688.4,4270.1,2837.9,1421.2,429.3,""smooth"",""left"",""left"",""good_move"",8781.8,4093,3285.6,4688.9,807.3,""smooth"",""left"",""left"",""good_move"",11731.5,2949.4,2534.1,8782.1,415.3,""while_blue"",""down"",""down"",""good_move"",14674.7,2942.7,2462.6,11732.1,480.1,""smooth"",""down"",""down"",""good_move""]"
"4184","","<div style=""width:500px;"">
  <p>What determined the result of this run?</p>
  </div>","26","html-slider-response","24","428344","0.0-7.0-1.2","226","1","2025-08-07 07:47:19","36c45c0696341be0efffe67d72a12abb","105.245.232.61","Mozilla/5.0 (Windows NT 10.0; Win64; x64) AppleWebKit/537.36 (KHTML, like Gecko) Chrome/138.0.0.0 Safari/537.36","WebKit","Chrome","138.0.0.0","Windows","10.0","https://app.prolific.com/","en-US,en;q=0.9","650ac282d9578d72800bf303","6877649eabb845cf142cd221","689459ef2b5773fa60f394f6","1","650ac282d9578d72800bf303","1","2025-08-07T07:54:29.242Z","","","","AttribQ","","","","","","","","","","","50","","","","","","","","","","","","","","","","","","","","","","","","","","",""
"3810","","<div style=""width:500px;"">
  <p>How much control did you have over the ball?</p>
  </div>","54","html-slider-response","25","432155","0.0-7.0-2.2","226","1","2025-08-07 07:47:19","36c45c0696341be0efffe67d72a12abb","105.245.232.61","Mozilla/5.0 (Windows NT 10.0; Win64; x64) AppleWebKit/537.36 (KHTML, like Gecko) Chrome/138.0.0.0 Safari/537.36","WebKit","Chrome","138.0.0.0","Windows","10.0","https://app.prolific.com/","en-US,en;q=0.9","650ac282d9578d72800bf303","6877649eabb845cf142cd221","689459ef2b5773fa60f394f6","1","650ac282d9578d72800bf303","1","2025-08-07T07:54:33.053Z","","","","ControlQ","","","","","","","","","","","50","","","","","","","","","","","","","","","","","","","","","","","","","","",""
"5675","","<div style=""width:500px;"">
  <p>How would you describe your current emotional state?</p>
  </div>","30","html-slider-response","26","437831","0.0-7.0-3.2","226","1","2025-08-07 07:47:19","36c45c0696341be0efffe67d72a12abb","105.245.232.61","Mozilla/5.0 (Windows NT 10.0; Win64; x64) AppleWebKit/537.36 (KHTML, like Gecko) Chrome/138.0.0.0 Safari/537.36","WebKit","Chrome","138.0.0.0","Windows","10.0","https://app.prolific.com/","en-US,en;q=0.9","650ac282d9578d72800bf303","6877649eabb845cf142cd221","689459ef2b5773fa60f394f6","1","650ac282d9578d72800bf303","1","2025-08-07T07:54:38.729Z","","","","StressQ","","","","","","","","","","","50","","","","","","","","","","","","","","","","","","","","","","","","","","",""
"2781","","<div style=""width:500px;"">
  <p>What best describes how you currently feel?</p>
  </div>","48","html-slider-response","27","440613","0.0-7.0-4.2","226","1","2025-08-07 07:47:19","36c45c0696341be0efffe67d72a12abb","105.245.232.61","Mozilla/5.0 (Windows NT 10.0; Win64; x64) AppleWebKit/537.36 (KHTML, like Gecko) Chrome/138.0.0.0 Safari/537.36","WebKit","Chrome","138.0.0.0","Windows","10.0","https://app.prolific.com/","en-US,en;q=0.9","650ac282d9578d72800bf303","6877649eabb845cf142cd221","689459ef2b5773fa60f394f6","1","650ac282d9578d72800bf303","1","2025-08-07T07:54:41.511Z","","","","MotivationQ","","","","","","","","","","","50","","","","","","","","","","","","","","","","","","","","","","","","","","",""
"","","","","ctl-task-cpt","28","473760","0.0-7.0-0.3","226","1","2025-08-07 07:47:19","36c45c0696341be0efffe67d72a12abb","105.245.232.61","Mozilla/5.0 (Windows NT 10.0; Win64; x64) AppleWebKit/537.36 (KHTML, like Gecko) Chrome/138.0.0.0 Safari/537.36","WebKit","Chrome","138.0.0.0","Windows","10.0","https://app.prolific.com/","en-US,en;q=0.9","650ac282d9578d72800bf303","6877649eabb845cf142cd221","689459ef2b5773fa60f394f6","1","650ac282d9578d72800bf303","1","2025-08-07T07:55:14.658Z","","","","","","","","","","","","","","","","win-only","3","g1:SW,g2:NE","0.7","4","0","444047.2","1394.8","6396.4","30128.5","1","4","8","6","1","-1","-2","0","0","0","1613.2","3000","-2945","[""down"",""left""]","{""num_key_presses"":5,""num_perfect"":3,""num_errors"":1,""num_randdir"":1,""num_randdir_good_moves"":0,""num_whilered"":0,""num_whileblue"":1,""num_blue"":3,""num_good_moves"":3}","[302.22232142857143,295.12857142857143,0.4,302.22232142857143,295.12857142857143,102.2,302.22232142857143,295.12857142857143,206.9,302.22232142857143,295.12857142857143,314.4,302.22232142857143,295.12857142857143,415.8,293.22232142857143,292.12857142857143,515.9,347.22232142857143,86.12857142857143,620.9,497.22232142857143,0.12857142857142634,722,498.22232142857143,37.128571428571426,822.1,238.22232142857143,303.12857142857143,922.1,134.22232142857143,432.12857142857143,1022.3,102.22232142857143,483.12857142857143,1127.1,83.22232142857143,501.12857142857143,1229.9,47.222321428571426,539.1285714285714,1331.1,39.222321428571426,556.1285714285714,1432.8,39.222321428571426,556.1285714285714,1535.5,39.222321428571426,556.1285714285714,1638,39.222321428571426,556.1285714285714,1746.2,39.222321428571426,556.1285714285714,1849.7,39.222321428571426,556.1285714285714,1950.6,39.222321428571426,556.1285714285714,2052.3,39.222321428571426,556.1285714285714,2157.2,39.222321428571426,556.1285714285714,2263.4,39.222321428571426,556.1285714285714,2365.7,39.222321428571426,556.1285714285714,2467.4,39.222321428571426,556.1285714285714,2572,39.222321428571426,556.1285714285714,2680,39.222321428571426,556.1285714285714,2782,39.222321428571426,556.1285714285714,2885.8,39.222321428571426,556.1285714285714,2990.7,39.222321428571426,556.1285714285714,3090.7,39.222321428571426,556.1285714285714,3192.9,39.222321428571426,556.1285714285714,3297.7,39.222321428571426,556.1285714285714,3402.4,39.222321428571426,556.1285714285714,3507.4,39.222321428571426,556.1285714285714,3607.6,39.222321428571426,556.1285714285714,3710.7,39.222321428571426,556.1285714285714,3810.7,39.222321428571426,556.1285714285714,3913.6,39.222321428571426,556.1285714285714,4018.1,39.222321428571426,556.1285714285714,4121.7,39.222321428571426,556.1285714285714,4221.9,39.222321428571426,556.1285714285714,4328.5,39.222321428571426,556.1285714285714,4431.9,39.222321428571426,556.1285714285714,4532,39.222321428571426,556.1285714285714,4636.7,39.222321428571426,556.1285714285714,4736.8,39.222321428571426,556.1285714285714,4837,39.222321428571426,556.1285714285714,4941.8]","[4748.1,4748.1,2315.2,2005.3,427.6,""oops"",""left"",""up"",""bad_move"",7979.7,3230.8,2831.6,4748.9,399.2,""while_blue"",""left"",""right"",""bad_move"",12276.4,4296.2,2758.7,7980.2,1537.5,""smooth"",""down"",""down"",""good_move"",14776.9,2500.1,2127,12276.8,373.1,""smooth"",""down"",""down"",""good_move"",20953.8,6176.4,2462.4,18066.1,425.3,""smooth"",""down"",""down"",""good_move""]"
"3685","","<div style=""width:500px;"">
  <p>What determined the result of this run?</p>
  </div>","0","html-slider-response","29","477447","0.0-7.0-1.3","226","1","2025-08-07 07:47:19","36c45c0696341be0efffe67d72a12abb","105.245.232.61","Mozilla/5.0 (Windows NT 10.0; Win64; x64) AppleWebKit/537.36 (KHTML, like Gecko) Chrome/138.0.0.0 Safari/537.36","WebKit","Chrome","138.0.0.0","Windows","10.0","https://app.prolific.com/","en-US,en;q=0.9","650ac282d9578d72800bf303","6877649eabb845cf142cd221","689459ef2b5773fa60f394f6","1","650ac282d9578d72800bf303","1","2025-08-07T07:55:18.345Z","","","","AttribQ","","","","","","","","","","","50","","","","","","","","","","","","","","","","","","","","","","","","","","",""
"2870","","<div style=""width:500px;"">
  <p>How much control did you have over the ball?</p>
  </div>","5","html-slider-response","30","480318","0.0-7.0-2.3","226","1","2025-08-07 07:47:19","36c45c0696341be0efffe67d72a12abb","105.245.232.61","Mozilla/5.0 (Windows NT 10.0; Win64; x64) AppleWebKit/537.36 (KHTML, like Gecko) Chrome/138.0.0.0 Safari/537.36","WebKit","Chrome","138.0.0.0","Windows","10.0","https://app.prolific.com/","en-US,en;q=0.9","650ac282d9578d72800bf303","6877649eabb845cf142cd221","689459ef2b5773fa60f394f6","1","650ac282d9578d72800bf303","1","2025-08-07T07:55:21.216Z","","","","ControlQ","","","","","","","","","","","50","","","","","","","","","","","","","","","","","","","","","","","","","","",""
"3852","","<div style=""width:500px;"">
  <p>How would you describe your current emotional state?</p>
  </div>","54","html-slider-response","31","484172","0.0-7.0-3.3","226","1","2025-08-07 07:47:19","36c45c0696341be0efffe67d72a12abb","105.245.232.61","Mozilla/5.0 (Windows NT 10.0; Win64; x64) AppleWebKit/537.36 (KHTML, like Gecko) Chrome/138.0.0.0 Safari/537.36","WebKit","Chrome","138.0.0.0","Windows","10.0","https://app.prolific.com/","en-US,en;q=0.9","650ac282d9578d72800bf303","6877649eabb845cf142cd221","689459ef2b5773fa60f394f6","1","650ac282d9578d72800bf303","1","2025-08-07T07:55:25.070Z","","","","StressQ","","","","","","","","","","","50","","","","","","","","","","","","","","","","","","","","","","","","","","",""
"2803","","<div style=""width:500px;"">
  <p>What best describes how you currently feel?</p>
  </div>","14","html-slider-response","32","486976","0.0-7.0-4.3","226","1","2025-08-07 07:47:19","36c45c0696341be0efffe67d72a12abb","105.245.232.61","Mozilla/5.0 (Windows NT 10.0; Win64; x64) AppleWebKit/537.36 (KHTML, like Gecko) Chrome/138.0.0.0 Safari/537.36","WebKit","Chrome","138.0.0.0","Windows","10.0","https://app.prolific.com/","en-US,en;q=0.9","650ac282d9578d72800bf303","6877649eabb845cf142cd221","689459ef2b5773fa60f394f6","1","650ac282d9578d72800bf303","1","2025-08-07T07:55:27.874Z","","","","MotivationQ","","","","","","","","","","","50","","","","","","","","","","","","","","","","","","","","","","","","","","",""
"","","","","ctl-task-cpt","33","514143","0.0-7.0-0.4","226","1","2025-08-07 07:47:19","36c45c0696341be0efffe67d72a12abb","105.245.232.61","Mozilla/5.0 (Windows NT 10.0; Win64; x64) AppleWebKit/537.36 (KHTML, like Gecko) Chrome/138.0.0.0 Safari/537.36","WebKit","Chrome","138.0.0.0","Windows","10.0","https://app.prolific.com/","en-US,en;q=0.9","650ac282d9578d72800bf303","6877649eabb845cf142cd221","689459ef2b5773fa60f394f6","1","650ac282d9578d72800bf303","1","2025-08-07T07:55:55.041Z","","","","","","","","","","","","","","","","win-only","0","g1:NW,g2:SE","0.6","5","0","490410","1654.9","6998.4","24148.1","1","4","8","6","1","1","1","1","0","0.007575757575757576","1611.5","3000","1275","[""left"",""up""]","{""num_key_presses"":4,""num_perfect"":3,""num_errors"":0,""num_randdir"":1,""num_randdir_good_moves"":1,""num_whilered"":0,""num_whileblue"":0,""num_blue"":2,""num_good_moves"":4}","[293.22232142857143,300.12857142857143,0.3,293.22232142857143,300.12857142857143,102.5,293.22232142857143,300.12857142857143,207.5,293.22232142857143,300.12857142857143,309,293.22232142857143,300.12857142857143,411,355.22232142857143,409.12857142857143,517,505.22232142857143,511.12857142857143,617.8,501.22232142857143,516.1285714285714,722.2,314.22232142857143,447.12857142857143,827.9,-132.77767857142857,109.12857142857143,932.7,-146.77767857142857,57.128571428571426,1037.9,-97.77767857142857,48.128571428571426,1145.1,-7.777678571428574,61.128571428571426,1247.1,15.222321428571426,66.12857142857143,1351.9,25.222321428571426,67.12857142857143,1452.1,25.222321428571426,67.12857142857143,1554.4,25.222321428571426,67.12857142857143,1661.4,25.222321428571426,67.12857142857143,1761.5,25.222321428571426,67.12857142857143,1866.7,25.222321428571426,67.12857142857143,1966.7,25.222321428571426,67.12857142857143,2073.5,25.222321428571426,67.12857142857143,2174.1,25.222321428571426,67.12857142857143,2276.4,25.222321428571426,67.12857142857143,2381.2,25.222321428571426,67.12857142857143,2485.9,25.222321428571426,67.12857142857143,2594.6,25.222321428571426,67.12857142857143,2696.6,25.222321428571426,67.12857142857143,2801.2,25.222321428571426,67.12857142857143,2909.1,25.222321428571426,67.12857142857143,3010.8,25.222321428571426,67.12857142857143,3110.8,25.222321428571426,67.12857142857143,3212.7,25.222321428571426,67.12857142857143,3317.4,25.222321428571426,67.12857142857143,3421.7,25.222321428571426,67.12857142857143,3521.7,25.222321428571426,67.12857142857143,3623.2,25.222321428571426,67.12857142857143,3727.4,25.222321428571426,67.12857142857143,3831.4,25.222321428571426,67.12857142857143,3936.2,25.222321428571426,67.12857142857143,4038.4,25.222321428571426,67.12857142857143,4140.1,25.222321428571426,67.12857142857143,4241,25.222321428571426,67.12857142857143,4345.7,25.222321428571426,67.12857142857143,4447.6,25.222321428571426,67.12857142857143,4552.2,25.222321428571426,67.12857142857143,4662.6]","[1534,1534,1000,0,534,""smooth"",""left"",""left"",""good_move"",10991.7,9457.3,2607.6,7952,432.1,""smooth"",""up"",""up"",""good_move"",13227.8,2235.5,1839,10992.3,396.5,""oops"",""up"",""left"",""good_move"",17062.3,3833.8,3397.3,13228.5,436.5,""smooth"",""up"",""up"",""good_move""]"
"6341","","<div style=""width:500px;"">
  <p>What determined the result of this run?</p>
  </div>","15","html-slider-response","34","520486","0.0-7.0-1.4","226","1","2025-08-07 07:47:19","36c45c0696341be0efffe67d72a12abb","105.245.232.61","Mozilla/5.0 (Windows NT 10.0; Win64; x64) AppleWebKit/537.36 (KHTML, like Gecko) Chrome/138.0.0.0 Safari/537.36","WebKit","Chrome","138.0.0.0","Windows","10.0","https://app.prolific.com/","en-US,en;q=0.9","650ac282d9578d72800bf303","6877649eabb845cf142cd221","689459ef2b5773fa60f394f6","1","650ac282d9578d72800bf303","1","2025-08-07T07:56:01.384Z","","","","AttribQ","","","","","","","","","","","50","","","","","","","","","","","","","","","","","","","","","","","","","","",""
"2992","","<div style=""width:500px;"">
  <p>How much control did you have over the ball?</p>
  </div>","56","html-slider-response","35","523480","0.0-7.0-2.4","226","1","2025-08-07 07:47:19","36c45c0696341be0efffe67d72a12abb","105.245.232.61","Mozilla/5.0 (Windows NT 10.0; Win64; x64) AppleWebKit/537.36 (KHTML, like Gecko) Chrome/138.0.0.0 Safari/537.36","WebKit","Chrome","138.0.0.0","Windows","10.0","https://app.prolific.com/","en-US,en;q=0.9","650ac282d9578d72800bf303","6877649eabb845cf142cd221","689459ef2b5773fa60f394f6","1","650ac282d9578d72800bf303","1","2025-08-07T07:56:04.378Z","","","","ControlQ","","","","","","","","","","","50","","","","","","","","","","","","","","","","","","","","","","","","","","",""
"2911","","<div style=""width:500px;"">
  <p>How would you describe your current emotional state?</p>
  </div>","33","html-slider-response","36","526393","0.0-7.0-3.4","226","1","2025-08-07 07:47:19","36c45c0696341be0efffe67d72a12abb","105.245.232.61","Mozilla/5.0 (Windows NT 10.0; Win64; x64) AppleWebKit/537.36 (KHTML, like Gecko) Chrome/138.0.0.0 Safari/537.36","WebKit","Chrome","138.0.0.0","Windows","10.0","https://app.prolific.com/","en-US,en;q=0.9","650ac282d9578d72800bf303","6877649eabb845cf142cd221","689459ef2b5773fa60f394f6","1","650ac282d9578d72800bf303","1","2025-08-07T07:56:07.291Z","","","","StressQ","","","","","","","","","","","50","","","","","","","","","","","","","","","","","","","","","","","","","","",""
"2314","","<div style=""width:500px;"">
  <p>What best describes how you currently feel?</p>
  </div>","47","html-slider-response","37","528709","0.0-7.0-4.4","226","1","2025-08-07 07:47:19","36c45c0696341be0efffe67d72a12abb","105.245.232.61","Mozilla/5.0 (Windows NT 10.0; Win64; x64) AppleWebKit/537.36 (KHTML, like Gecko) Chrome/138.0.0.0 Safari/537.36","WebKit","Chrome","138.0.0.0","Windows","10.0","https://app.prolific.com/","en-US,en;q=0.9","650ac282d9578d72800bf303","6877649eabb845cf142cd221","689459ef2b5773fa60f394f6","1","650ac282d9578d72800bf303","1","2025-08-07T07:56:09.608Z","","","","MotivationQ","","","","","","","","","","","50","","","","","","","","","","","","","","","","","","","","","","","","","","",""
"","","","","ctl-task-cpt","38","572980","0.0-7.0-0.5","226","1","2025-08-07 07:47:19","36c45c0696341be0efffe67d72a12abb","105.245.232.61","Mozilla/5.0 (Windows NT 10.0; Win64; x64) AppleWebKit/537.36 (KHTML, like Gecko) Chrome/138.0.0.0 Safari/537.36","WebKit","Chrome","138.0.0.0","Windows","10.0","https://app.prolific.com/","en-US,en;q=0.9","650ac282d9578d72800bf303","6877649eabb845cf142cd221","689459ef2b5773fa60f394f6","1","650ac282d9578d72800bf303","1","2025-08-07T07:56:53.878Z","","","","","","","","","","","","","","","","win-only","3","g1:SW,g2:NE","0.5","6","0","532145.8","1425.2","6425.8","41246.8","1","4","4","6","1","-1","-4","0","1","0","1228.7","3000","-2595","[""down"",""left""]","{""num_key_presses"":11,""num_perfect"":5,""num_errors"":3,""num_randdir"":3,""num_randdir_good_moves"":1,""num_whilered"":0,""num_whileblue"":2,""num_blue"":3,""num_good_moves"":6}","[292.22232142857143,299.12857142857143,0.3,292.22232142857143,299.12857142857143,100.9,292.22232142857143,299.12857142857143,205.8,292.22232142857143,299.12857142857143,311.1,292.22232142857143,299.12857142857143,422.4,292.22232142857143,299.12857142857143,525.2,220.22232142857143,375.12857142857143,626.8,147.22232142857143,419.12857142857143,736.4,105.22232142857143,499.12857142857143,840.1,90.22232142857143,522.1285714285714,942.3,71.22232142857143,536.1285714285714,1048.2,71.22232142857143,536.1285714285714,1149.8,71.22232142857143,536.1285714285714,1254.7,71.22232142857143,536.1285714285714,1357.3,71.22232142857143,536.1285714285714,1461.9,71.22232142857143,536.1285714285714,1566.7,71.22232142857143,536.1285714285714,1671.5,71.22232142857143,536.1285714285714,1775.9,71.22232142857143,536.1285714285714,1880.8,71.22232142857143,536.1285714285714,1981.9,71.22232142857143,536.1285714285714,2082,71.22232142857143,536.1285714285714,2192.1,71.22232142857143,536.1285714285714,2297.4,71.22232142857143,536.1285714285714,2400.2,71.22232142857143,536.1285714285714,2500.5,71.22232142857143,536.1285714285714,2600.7,71.22232142857143,536.1285714285714,2703.1,71.22232142857143,536.1285714285714,2808.7,71.22232142857143,536.1285714285714,2911.4,71.22232142857143,536.1285714285714,3020.3,71.22232142857143,536.1285714285714,3122,71.22232142857143,536.1285714285714,3225.7,71.22232142857143,536.1285714285714,3326.6,71.22232142857143,536.1285714285714,3434,71.22232142857143,536.1285714285714,3535.7,71.22232142857143,536.1285714285714,3640.8,71.22232142857143,536.1285714285714,3745.7,71.22232142857143,536.1285714285714,3846,71.22232142857143,536.1285714285714,3946.1,71.22232142857143,536.1285714285714,4046.6,71.22232142857143,536.1285714285714,4158.3,71.22232142857143,536.1285714285714,4260.5,71.22232142857143,536.1285714285714,4370.6,71.22232142857143,536.1285714285714,4471.6,71.22232142857143,536.1285714285714,4576.6,71.22232142857143,536.1285714285714,4677.2,71.22232142857143,536.1285714285714,4781.5,71.22232142857143,536.1285714285714,4886.4,71.22232142857143,536.1285714285714,4986.7]","[4741.6,4741.6,2258.9,2005.2,477.5,""smooth"",""left"",""left"",""good_move"",7459.4,2717.4,2241.7,4742,475.7,""oops"",""left"",""up"",""bad_move"",9998.8,2539,2102.7,7459.8,436.3,""smooth"",""left"",""left"",""good_move"",12423.4,2424.4,2054.5,9999,369.9,""oops"",""down"",""down"",""good_move"",15745.9,3322,2977.4,12423.9,344.6,""oops"",""down"",""up"",""bad_move"",18775.8,3029.5,2589.7,15746.3,439.8,""smooth"",""down"",""down"",""good_move"",21909.3,3133.2,2738.3,18776.1,394.9,""smooth"",""down"",""down"",""good_move"",24504.3,2594.6,2190.3,21909.7,404.3,""while_blue"",""down"",""right"",""bad_move"",27853.7,3348.9,2992.9,24504.9,355.9,""while_blue"",""down"",""up"",""bad_move"",30731.2,2876.9,2357.6,27854.3,519.3,""smooth"",""down"",""down"",""good_move"",31845.6,1114,2872.4,30731.6,-1758.4,""error"",""-"",""-"",""no_move""]"
"2891","","<div style=""width:500px;"">
  <p>What determined the result of this run?</p>
  </div>","0","html-slider-response","39","575872","0.0-7.0-1.5","226","1","2025-08-07 07:47:19","36c45c0696341be0efffe67d72a12abb","105.245.232.61","Mozilla/5.0 (Windows NT 10.0; Win64; x64) AppleWebKit/537.36 (KHTML, like Gecko) Chrome/138.0.0.0 Safari/537.36","WebKit","Chrome","138.0.0.0","Windows","10.0","https://app.prolific.com/","en-US,en;q=0.9","650ac282d9578d72800bf303","6877649eabb845cf142cd221","689459ef2b5773fa60f394f6","1","650ac282d9578d72800bf303","1","2025-08-07T07:56:56.770Z","","","","AttribQ","","","","","","","","","","","50","","","","","","","","","","","","","","","","","","","","","","","","","","",""
"5248","","<div style=""width:500px;"">
  <p>How much control did you have over the ball?</p>
  </div>","3","html-slider-response","40","581122","0.0-7.0-2.5","226","1","2025-08-07 07:47:19","36c45c0696341be0efffe67d72a12abb","105.245.232.61","Mozilla/5.0 (Windows NT 10.0; Win64; x64) AppleWebKit/537.36 (KHTML, like Gecko) Chrome/138.0.0.0 Safari/537.36","WebKit","Chrome","138.0.0.0","Windows","10.0","https://app.prolific.com/","en-US,en;q=0.9","650ac282d9578d72800bf303","6877649eabb845cf142cd221","689459ef2b5773fa60f394f6","1","650ac282d9578d72800bf303","1","2025-08-07T07:57:02.020Z","","","","ControlQ","","","","","","","","","","","50","","","","","","","","","","","","","","","","","","","","","","","","","","",""
"3524","","<div style=""width:500px;"">
  <p>How would you describe your current emotional state?</p>
  </div>","13","html-slider-response","41","584647","0.0-7.0-3.5","226","1","2025-08-07 07:47:19","36c45c0696341be0efffe67d72a12abb","105.245.232.61","Mozilla/5.0 (Windows NT 10.0; Win64; x64) AppleWebKit/537.36 (KHTML, like Gecko) Chrome/138.0.0.0 Safari/537.36","WebKit","Chrome","138.0.0.0","Windows","10.0","https://app.prolific.com/","en-US,en;q=0.9","650ac282d9578d72800bf303","6877649eabb845cf142cd221","689459ef2b5773fa60f394f6","1","650ac282d9578d72800bf303","1","2025-08-07T07:57:05.545Z","","","","StressQ","","","","","","","","","","","50","","","","","","","","","","","","","","","","","","","","","","","","","","",""
"4588","","<div style=""width:500px;"">
  <p>What best describes how you currently feel?</p>
  </div>","24","html-slider-response","42","589236","0.0-7.0-4.5","226","1","2025-08-07 07:47:19","36c45c0696341be0efffe67d72a12abb","105.245.232.61","Mozilla/5.0 (Windows NT 10.0; Win64; x64) AppleWebKit/537.36 (KHTML, like Gecko) Chrome/138.0.0.0 Safari/537.36","WebKit","Chrome","138.0.0.0","Windows","10.0","https://app.prolific.com/","en-US,en;q=0.9","650ac282d9578d72800bf303","6877649eabb845cf142cd221","689459ef2b5773fa60f394f6","1","650ac282d9578d72800bf303","1","2025-08-07T07:57:10.134Z","","","","MotivationQ","","","","","","","","","","","50","","","","","","","","","","","","","","","","","","","","","","","","","","",""
"","","","","ctl-task-cpt","43","628341","0.0-7.0-0.6","226","1","2025-08-07 07:47:19","36c45c0696341be0efffe67d72a12abb","105.245.232.61","Mozilla/5.0 (Windows NT 10.0; Win64; x64) AppleWebKit/537.36 (KHTML, like Gecko) Chrome/138.0.0.0 Safari/537.36","WebKit","Chrome","138.0.0.0","Windows","10.0","https://app.prolific.com/","en-US,en;q=0.9","650ac282d9578d72800bf303","6877649eabb845cf142cd221","689459ef2b5773fa60f394f6","1","650ac282d9578d72800bf303","1","2025-08-07T07:57:49.239Z","","","","","","","","","","","","","","","","win-only","3","g1:SW,g2:NE","0.4","7","0","592672.2","1933.6","6936.9","36077.8","1","4","8","6","2","-8","-9","0","0","0","989.3","3000","-2530","[""up"",""right""]","{""num_key_presses"":7,""num_perfect"":3,""num_errors"":1,""num_randdir"":3,""num_randdir_good_moves"":1,""num_whilered"":0,""num_whileblue"":0,""num_blue"":2,""num_good_moves"":4}","[296.22232142857143,302.12857142857143,0.3,296.22232142857143,302.12857142857143,102.9,296.22232142857143,302.12857142857143,207.7,296.22232142857143,302.12857142857143,308.2,334.22232142857143,251.12857142857143,417.4,499.22232142857143,83.12857142857143,523.3,506.22232142857143,83.12857142857143,627.7,512.2223214285714,80.12857142857143,732.3,518.2223214285714,67.12857142857143,832.6,518.2223214285714,67.12857142857143,933.9,518.2223214285714,67.12857142857143,1037.8,518.2223214285714,67.12857142857143,1142.3,518.2223214285714,67.12857142857143,1243.5,518.2223214285714,67.12857142857143,1349.9,518.2223214285714,67.12857142857143,1453.9,518.2223214285714,67.12857142857143,1557.2,518.2223214285714,67.12857142857143,1658.9,518.2223214285714,67.12857142857143,1768.9,518.2223214285714,67.12857142857143,1872.6,518.2223214285714,67.12857142857143,1977.2,518.2223214285714,67.12857142857143,2077.5,518.2223214285714,67.12857142857143,2183.1,518.2223214285714,67.12857142857143,2287.5,518.2223214285714,67.12857142857143,2392.2,518.2223214285714,67.12857142857143,2492.5,518.2223214285714,67.12857142857143,2602.2,518.2223214285714,67.12857142857143,2703.2,518.2223214285714,67.12857142857143,2808,518.2223214285714,67.12857142857143,2912.2,518.2223214285714,67.12857142857143,3012.6,518.2223214285714,67.12857142857143,3119.9,518.2223214285714,67.12857142857143,3224.2,518.2223214285714,67.12857142857143,3327.1,518.2223214285714,67.12857142857143,3434,518.2223214285714,67.12857142857143,3542.9,518.2223214285714,67.12857142857143,3653.6,518.2223214285714,67.12857142857143,3753.9,518.2223214285714,67.12857142857143,3854.7,518.2223214285714,67.12857142857143,3958,518.2223214285714,67.12857142857143,4059.1,518.2223214285714,67.12857142857143,4159.3,518.2223214285714,67.12857142857143,4264.8,518.2223214285714,67.12857142857143,4367.8,518.2223214285714,67.12857142857143,4473.2,518.2223214285714,67.12857142857143,4577.6,518.2223214285714,67.12857142857143,4683,518.2223214285714,67.12857142857143,4783.7,518.2223214285714,67.12857142857143,4883.8,518.2223214285714,67.12857142857143,4985]","[386.9,386.9,1000,0,-613.1,""error"",""-"",""-"",""no_move"",4347.8,3960.6,2491.2,1390.9,465.7,""smooth"",""right"",""right"",""good_move"",7189,2840.4,2404.9,4348.6,435.5,""oops"",""right"",""down"",""bad_move"",10021.9,2832.4,2404.1,7189.5,428.3,""oops"",""right"",""right"",""good_move"",17520,7497.9,3185.9,13801,533.1,""smooth"",""right"",""right"",""good_move"",20515.7,2995.3,2557.9,17520.4,437.4,""smooth"",""up"",""up"",""good_move"",25829.3,5313,2249.5,23139.4,440.4,""oops"",""up"",""down"",""bad_move""]"
"4359","","<div style=""width:500px;"">
  <p>What determined the result of this run?</p>
  </div>","0","html-slider-response","44","632702","0.0-7.0-1.6","226","1","2025-08-07 07:47:19","36c45c0696341be0efffe67d72a12abb","105.245.232.61","Mozilla/5.0 (Windows NT 10.0; Win64; x64) AppleWebKit/537.36 (KHTML, like Gecko) Chrome/138.0.0.0 Safari/537.36","WebKit","Chrome","138.0.0.0","Windows","10.0","https://app.prolific.com/","en-US,en;q=0.9","650ac282d9578d72800bf303","6877649eabb845cf142cd221","689459ef2b5773fa60f394f6","1","650ac282d9578d72800bf303","1","2025-08-07T07:57:53.600Z","","","","AttribQ","","","","","","","","","","","50","","","","","","","","","","","","","","","","","","","","","","","","","","",""
"3053","","<div style=""width:500px;"">
  <p>How much control did you have over the ball?</p>
  </div>","8","html-slider-response","45","635756","0.0-7.0-2.6","226","1","2025-08-07 07:47:19","36c45c0696341be0efffe67d72a12abb","105.245.232.61","Mozilla/5.0 (Windows NT 10.0; Win64; x64) AppleWebKit/537.36 (KHTML, like Gecko) Chrome/138.0.0.0 Safari/537.36","WebKit","Chrome","138.0.0.0","Windows","10.0","https://app.prolific.com/","en-US,en;q=0.9","650ac282d9578d72800bf303","6877649eabb845cf142cd221","689459ef2b5773fa60f394f6","1","650ac282d9578d72800bf303","1","2025-08-07T07:57:56.654Z","","","","ControlQ","","","","","","","","","","","50","","","","","","","","","","","","","","","","","","","","","","","","","","",""
"2472","","<div style=""width:500px;"">
  <p>How would you describe your current emotional state?</p>
  </div>","50","html-slider-response","46","638230","0.0-7.0-3.6","226","1","2025-08-07 07:47:19","36c45c0696341be0efffe67d72a12abb","105.245.232.61","Mozilla/5.0 (Windows NT 10.0; Win64; x64) AppleWebKit/537.36 (KHTML, like Gecko) Chrome/138.0.0.0 Safari/537.36","WebKit","Chrome","138.0.0.0","Windows","10.0","https://app.prolific.com/","en-US,en;q=0.9","650ac282d9578d72800bf303","6877649eabb845cf142cd221","689459ef2b5773fa60f394f6","1","650ac282d9578d72800bf303","1","2025-08-07T07:57:59.128Z","","","","StressQ","","","","","","","","","","","50","","","","","","","","","","","","","","","","","","","","","","","","","","",""
"5391","","<div style=""width:500px;"">
  <p>What best describes how you currently feel?</p>
  </div>","11","html-slider-response","47","643623","0.0-7.0-4.6","226","1","2025-08-07 07:47:19","36c45c0696341be0efffe67d72a12abb","105.245.232.61","Mozilla/5.0 (Windows NT 10.0; Win64; x64) AppleWebKit/537.36 (KHTML, like Gecko) Chrome/138.0.0.0 Safari/537.36","WebKit","Chrome","138.0.0.0","Windows","10.0","https://app.prolific.com/","en-US,en;q=0.9","650ac282d9578d72800bf303","6877649eabb845cf142cd221","689459ef2b5773fa60f394f6","1","650ac282d9578d72800bf303","1","2025-08-07T07:58:04.521Z","","","","MotivationQ","","","","","","","","","","","50","","","","","","","","","","","","","","","","","","","","","","","","","","",""
"","","","","ctl-task-cpt","48","675779","0.0-7.0-0.7","226","1","2025-08-07 07:47:19","36c45c0696341be0efffe67d72a12abb","105.245.232.61","Mozilla/5.0 (Windows NT 10.0; Win64; x64) AppleWebKit/537.36 (KHTML, like Gecko) Chrome/138.0.0.0 Safari/537.36","WebKit","Chrome","138.0.0.0","Windows","10.0","https://app.prolific.com/","en-US,en;q=0.9","650ac282d9578d72800bf303","6877649eabb845cf142cd221","689459ef2b5773fa60f394f6","1","650ac282d9578d72800bf303","1","2025-08-07T07:58:36.677Z","","","","","","","","","","","","","","","","win-only","2","g1:SE,g2:NW","0.3","8","0","647058.5","2537.7","7538.4","29146.4","1","4","4","6","2","-4","-4","0","0","0","1080.9","3000","-2545","[""left"",""up""]","{""num_key_presses"":7,""num_perfect"":2,""num_errors"":0,""num_randdir"":5,""num_randdir_good_moves"":2,""num_whilered"":0,""num_whileblue"":0,""num_blue"":0,""num_good_moves"":4}","[297.22232142857143,295.12857142857143,0.4,297.22232142857143,295.12857142857143,100.3,297.22232142857143,295.12857142857143,203.4,297.22232142857143,295.12857142857143,312.6,297.22232142857143,295.12857142857143,414.5,-15.777678571428574,9.128571428571426,516.5,-17.777678571428574,-1.8714285714285737,617.6,2.2223214285714263,-4.871428571428574,718,52.222321428571426,54.128571428571426,818.5,55.222321428571426,65.12857142857143,927,55.222321428571426,65.12857142857143,1032.2,55.222321428571426,65.12857142857143,1133.5,55.222321428571426,65.12857142857143,1238.5,55.222321428571426,65.12857142857143,1338.6,55.222321428571426,65.12857142857143,1442.9,55.222321428571426,65.12857142857143,1547.5,55.222321428571426,65.12857142857143,1649.2,55.222321428571426,65.12857142857143,1754.8,55.222321428571426,65.12857142857143,1863.1,55.222321428571426,65.12857142857143,1964.3,55.222321428571426,65.12857142857143,2066.3,55.222321428571426,65.12857142857143,2167.8,55.222321428571426,65.12857142857143,2268.1,55.222321428571426,65.12857142857143,2377.9,55.222321428571426,65.12857142857143,2481.3,55.222321428571426,65.12857142857143,2582.6,55.222321428571426,65.12857142857143,2684.1,55.222321428571426,65.12857142857143,2788.2,55.222321428571426,65.12857142857143,2894.6,55.222321428571426,65.12857142857143,2995.2,55.222321428571426,65.12857142857143,3101.2,55.222321428571426,65.12857142857143,3203.1,55.222321428571426,65.12857142857143,3308.1,55.222321428571426,65.12857142857143,3408.8,55.222321428571426,65.12857142857143,3514.3,55.222321428571426,65.12857142857143,3615.8,55.222321428571426,65.12857142857143,3718,55.222321428571426,65.12857142857143,3819.7,55.222321428571426,65.12857142857143,3923.7,55.222321428571426,65.12857142857143,4029.6,55.222321428571426,65.12857142857143,4133,55.222321428571426,65.12857142857143,4233.7,55.222321428571426,65.12857142857143,4334.5,55.222321428571426,65.12857142857143,4434.7,55.222321428571426,65.12857142857143,4535.1,55.222321428571426,65.12857142857143,4637.9,55.222321428571426,65.12857142857143,4742.4,55.222321428571426,65.12857142857143,4844.8,55.222321428571426,65.12857142857143,4949]","[1481.6,1481.6,1000,0,481.6,""smooth"",""up"",""up"",""good_move"",4280.4,2798.4,2259.2,1482,539.2,""smooth"",""up"",""up"",""good_move"",7101.3,2820.6,2261.2,4280.7,559.4,""oops"",""up"",""left"",""good_move"",9625.6,2523.8,2004.6,7101.8,519.2,""oops"",""up"",""down"",""bad_move"",12527.5,2901.3,2410.8,9626.3,490.4,""oops"",""up"",""up"",""good_move"",15854.9,3326.8,2909,12528.1,417.8,""oops"",""up"",""right"",""bad_move"",18598.9,2743.3,2331.6,15855.6,411.7,""oops"",""up"",""right"",""bad_move""]"
"3221","","<div style=""width:500px;"">
  <p>What determined the result of this run?</p>
  </div>","0","html-slider-response","49","679002","0.0-7.0-1.7","226","1","2025-08-07 07:47:19","36c45c0696341be0efffe67d72a12abb","105.245.232.61","Mozilla/5.0 (Windows NT 10.0; Win64; x64) AppleWebKit/537.36 (KHTML, like Gecko) Chrome/138.0.0.0 Safari/537.36","WebKit","Chrome","138.0.0.0","Windows","10.0","https://app.prolific.com/","en-US,en;q=0.9","650ac282d9578d72800bf303","6877649eabb845cf142cd221","689459ef2b5773fa60f394f6","1","650ac282d9578d72800bf303","1","2025-08-07T07:58:39.900Z","","","","AttribQ","","","","","","","","","","","50","","","","","","","","","","","","","","","","","","","","","","","","","","",""
"2564","","<div style=""width:500px;"">
  <p>How much control did you have over the ball?</p>
  </div>","0","html-slider-response","50","681568","0.0-7.0-2.7","226","1","2025-08-07 07:47:19","36c45c0696341be0efffe67d72a12abb","105.245.232.61","Mozilla/5.0 (Windows NT 10.0; Win64; x64) AppleWebKit/537.36 (KHTML, like Gecko) Chrome/138.0.0.0 Safari/537.36","WebKit","Chrome","138.0.0.0","Windows","10.0","https://app.prolific.com/","en-US,en;q=0.9","650ac282d9578d72800bf303","6877649eabb845cf142cd221","689459ef2b5773fa60f394f6","1","650ac282d9578d72800bf303","1","2025-08-07T07:58:42.466Z","","","","ControlQ","","","","","","","","","","","50","","","","","","","","","","","","","","","","","","","","","","","","","","",""
"2472","","<div style=""width:500px;"">
  <p>How would you describe your current emotional state?</p>
  </div>","0","html-slider-response","51","684041","0.0-7.0-3.7","226","1","2025-08-07 07:47:19","36c45c0696341be0efffe67d72a12abb","105.245.232.61","Mozilla/5.0 (Windows NT 10.0; Win64; x64) AppleWebKit/537.36 (KHTML, like Gecko) Chrome/138.0.0.0 Safari/537.36","WebKit","Chrome","138.0.0.0","Windows","10.0","https://app.prolific.com/","en-US,en;q=0.9","650ac282d9578d72800bf303","6877649eabb845cf142cd221","689459ef2b5773fa60f394f6","1","650ac282d9578d72800bf303","1","2025-08-07T07:58:44.939Z","","","","StressQ","","","","","","","","","","","50","","","","","","","","","","","","","","","","","","","","","","","","","","",""
"2814","","<div style=""width:500px;"">
  <p>What best describes how you currently feel?</p>
  </div>","2","html-slider-response","52","686857","0.0-7.0-4.7","226","1","2025-08-07 07:47:19","36c45c0696341be0efffe67d72a12abb","105.245.232.61","Mozilla/5.0 (Windows NT 10.0; Win64; x64) AppleWebKit/537.36 (KHTML, like Gecko) Chrome/138.0.0.0 Safari/537.36","WebKit","Chrome","138.0.0.0","Windows","10.0","https://app.prolific.com/","en-US,en;q=0.9","650ac282d9578d72800bf303","6877649eabb845cf142cd221","689459ef2b5773fa60f394f6","1","650ac282d9578d72800bf303","1","2025-08-07T07:58:47.755Z","","","","MotivationQ","","","","","","","","","","","50","","","","","","","","","","","","","","","","","","","","","","","","","","",""
"","","","","ctl-task-cpt","53","705484","0.0-7.0-0.8","226","1","2025-08-07 07:47:19","36c45c0696341be0efffe67d72a12abb","105.245.232.61","Mozilla/5.0 (Windows NT 10.0; Win64; x64) AppleWebKit/537.36 (KHTML, like Gecko) Chrome/138.0.0.0 Safari/537.36","WebKit","Chrome","138.0.0.0","Windows","10.0","https://app.prolific.com/","en-US,en;q=0.9","650ac282d9578d72800bf303","6877649eabb845cf142cd221","689459ef2b5773fa60f394f6","1","650ac282d9578d72800bf303","1","2025-08-07T07:59:06.382Z","","","","","","","","","","","","","","","","win-only","0","g1:NW,g2:SE","0.4","9","0","690291.8","1202.8","6203.8","15605.7","1","4","8","6","2","-8","-8","0","0","0","5000.9","3000","-2560","[""down"",""right""]","{""num_key_presses"":2,""num_perfect"":0,""num_errors"":0,""num_randdir"":2,""num_randdir_good_moves"":1,""num_whilered"":0,""num_whileblue"":0,""num_blue"":0,""num_good_moves"":1}","[295.22232142857143,288.12857142857143,0.3,295.22232142857143,288.12857142857143,102.8,295.22232142857143,288.12857142857143,208.2,295.22232142857143,288.12857142857143,308.3,295.22232142857143,288.12857142857143,413.7,295.22232142857143,288.12857142857143,517.8,295.22232142857143,288.12857142857143,618.6,295.22232142857143,288.12857142857143,722.8,295.22232142857143,288.12857142857143,830,295.22232142857143,288.12857142857143,933.1,295.22232142857143,288.12857142857143,1038.1,295.22232142857143,288.12857142857143,1138.4,295.22232142857143,288.12857142857143,1247.4,295.22232142857143,288.12857142857143,1348.7,295.22232142857143,288.12857142857143,1454.2,295.22232142857143,288.12857142857143,1558.3,295.22232142857143,288.12857142857143,1659.4,295.22232142857143,288.12857142857143,1770.4,295.22232142857143,288.12857142857143,1874.2,295.22232142857143,288.12857142857143,1979.7,295.22232142857143,288.12857142857143,2084.3,295.22232142857143,288.12857142857143,2184.6,295.22232142857143,288.12857142857143,2287.9,295.22232142857143,288.12857142857143,2388.3,295.22232142857143,288.12857142857143,2489,295.22232142857143,288.12857142857143,2589,295.22232142857143,288.12857142857143,2700.6,295.22232142857143,288.12857142857143,2804.1,295.22232142857143,288.12857142857143,2914.7,295.22232142857143,288.12857142857143,3018.7,295.22232142857143,288.12857142857143,3123.2,295.22232142857143,288.12857142857143,3229.3,295.22232142857143,288.12857142857143,3336.5,295.22232142857143,288.12857142857143,3436.5,295.22232142857143,288.12857142857143,3538.4,295.22232142857143,288.12857142857143,3639.6,295.22232142857143,288.12857142857143,3743,295.22232142857143,288.12857142857143,3844.3,295.22232142857143,288.12857142857143,3952.4,295.22232142857143,288.12857142857143,4054.3,295.22232142857143,288.12857142857143,4154.5,295.22232142857143,288.12857142857143,4259.5,295.22232142857143,288.12857142857143,4363.2,295.22232142857143,288.12857142857143,4465.9,295.22232142857143,288.12857142857143,4569,295.22232142857143,288.12857142857143,4672.6,295.22232142857143,288.12857142857143,4782.7,295.22232142857143,288.12857142857143,4884.8,295.22232142857143,288.12857142857143,4987.8]","[1813.5,1813.5,1000,0,813.5,""oops"",""up"",""right"",""good_move"",5017.1,3202.9,2785.8,1814.2,417.1,""oops"",""up"",""left"",""bad_move""]"
"7787","","<div style=""width:500px;"">
  <p>What determined the result of this run?</p>
  </div>","0","html-slider-response","54","713273","0.0-7.0-1.8","226","1","2025-08-07 07:47:19","36c45c0696341be0efffe67d72a12abb","105.245.232.61","Mozilla/5.0 (Windows NT 10.0; Win64; x64) AppleWebKit/537.36 (KHTML, like Gecko) Chrome/138.0.0.0 Safari/537.36","WebKit","Chrome","138.0.0.0","Windows","10.0","https://app.prolific.com/","en-US,en;q=0.9","650ac282d9578d72800bf303","6877649eabb845cf142cd221","689459ef2b5773fa60f394f6","1","650ac282d9578d72800bf303","1","2025-08-07T07:59:14.171Z","","","","AttribQ","","","","","","","","","","","50","","","","","","","","","","","","","","","","","","","","","","","","","","",""
"2760","","<div style=""width:500px;"">
  <p>How much control did you have over the ball?</p>
  </div>","0","html-slider-response","55","716034","0.0-7.0-2.8","226","1","2025-08-07 07:47:19","36c45c0696341be0efffe67d72a12abb","105.245.232.61","Mozilla/5.0 (Windows NT 10.0; Win64; x64) AppleWebKit/537.36 (KHTML, like Gecko) Chrome/138.0.0.0 Safari/537.36","WebKit","Chrome","138.0.0.0","Windows","10.0","https://app.prolific.com/","en-US,en;q=0.9","650ac282d9578d72800bf303","6877649eabb845cf142cd221","689459ef2b5773fa60f394f6","1","650ac282d9578d72800bf303","1","2025-08-07T07:59:16.932Z","","","","ControlQ","","","","","","","","","","","50","","","","","","","","","","","","","","","","","","","","","","","","","","",""
"2653","","<div style=""width:500px;"">
  <p>How would you describe your current emotional state?</p>
  </div>","1","html-slider-response","56","718689","0.0-7.0-3.8","226","1","2025-08-07 07:47:19","36c45c0696341be0efffe67d72a12abb","105.245.232.61","Mozilla/5.0 (Windows NT 10.0; Win64; x64) AppleWebKit/537.36 (KHTML, like Gecko) Chrome/138.0.0.0 Safari/537.36","WebKit","Chrome","138.0.0.0","Windows","10.0","https://app.prolific.com/","en-US,en;q=0.9","650ac282d9578d72800bf303","6877649eabb845cf142cd221","689459ef2b5773fa60f394f6","1","650ac282d9578d72800bf303","1","2025-08-07T07:59:19.587Z","","","","StressQ","","","","","","","","","","","50","","","","","","","","","","","","","","","","","","","","","","","","","","",""
"4158","","<div style=""width:500px;"">
  <p>What best describes how you currently feel?</p>
  </div>","0","html-slider-response","57","722848","0.0-7.0-4.8","226","1","2025-08-07 07:47:19","36c45c0696341be0efffe67d72a12abb","105.245.232.61","Mozilla/5.0 (Windows NT 10.0; Win64; x64) AppleWebKit/537.36 (KHTML, like Gecko) Chrome/138.0.0.0 Safari/537.36","WebKit","Chrome","138.0.0.0","Windows","10.0","https://app.prolific.com/","en-US,en;q=0.9","650ac282d9578d72800bf303","6877649eabb845cf142cd221","689459ef2b5773fa60f394f6","1","650ac282d9578d72800bf303","1","2025-08-07T07:59:23.746Z","","","","MotivationQ","","","","","","","","","","","50","","","","","","","","","","","","","","","","","","","","","","","","","","",""
"","","","","ctl-task-cpt","58","747117","0.0-7.0-0.9","226","1","2025-08-07 07:47:19","36c45c0696341be0efffe67d72a12abb","105.245.232.61","Mozilla/5.0 (Windows NT 10.0; Win64; x64) AppleWebKit/537.36 (KHTML, like Gecko) Chrome/138.0.0.0 Safari/537.36","WebKit","Chrome","138.0.0.0","Windows","10.0","https://app.prolific.com/","en-US,en;q=0.9","650ac282d9578d72800bf303","6877649eabb845cf142cd221","689459ef2b5773fa60f394f6","1","650ac282d9578d72800bf303","1","2025-08-07T07:59:48.015Z","","","","","","","","","","","","","","","","win-only","1","g1:NE,g2:SW","0.5","10","0","726281.2","3434.5","8437.7","21248.7","1","4","4","6","2","-4","-4","0","0","0","1950.5","3000","-2440","[""down"",""left""]","{""num_key_presses"":2,""num_perfect"":1,""num_errors"":0,""num_randdir"":1,""num_randdir_good_moves"":0,""num_whilered"":0,""num_whileblue"":0,""num_blue"":1,""num_good_moves"":1}","[296.22232142857143,301.12857142857143,0.2,296.22232142857143,301.12857142857143,107.6,296.22232142857143,301.12857142857143,208.6,296.22232142857143,301.12857142857143,316.1,296.22232142857143,301.12857142857143,417,296.22232142857143,301.12857142857143,519.7,296.22232142857143,301.12857142857143,622.6,296.22232142857143,301.12857142857143,727.1,296.22232142857143,301.12857142857143,831.5,296.22232142857143,301.12857142857143,932.8,296.22232142857143,301.12857142857143,1044.7,296.22232142857143,301.12857142857143,1148.5,263.22232142857143,378.12857142857143,1262.3,187.22232142857143,476.12857142857143,1366.6,148.22232142857143,488.12857142857143,1467.1,119.22232142857143,490.12857142857143,1569.1,67.22232142857143,518.1285714285714,1674.4,65.22232142857143,519.1285714285714,1790.6,65.22232142857143,519.1285714285714,1893.8,65.22232142857143,519.1285714285714,1997.6,65.22232142857143,519.1285714285714,2101.3,65.22232142857143,519.1285714285714,2209.9,65.22232142857143,519.1285714285714,2311.8,65.22232142857143,519.1285714285714,2412.1,65.22232142857143,519.1285714285714,2512.6,65.22232142857143,519.1285714285714,2616.4,65.22232142857143,519.1285714285714,2716.7,65.22232142857143,519.1285714285714,2817,65.22232142857143,519.1285714285714,2917,65.22232142857143,519.1285714285714,3030,65.22232142857143,519.1285714285714,3131.5,65.22232142857143,519.1285714285714,3232.1,65.22232142857143,519.1285714285714,3337,65.22232142857143,519.1285714285714,3451,65.22232142857143,519.1285714285714,3551.6,65.22232142857143,519.1285714285714,3658.5,65.22232142857143,519.1285714285714,3761.4,65.22232142857143,519.1285714285714,3862.2,65.22232142857143,519.1285714285714,3962.2,65.22232142857143,519.1285714285714,4062.3,65.22232142857143,519.1285714285714,4166.6,65.22232142857143,519.1285714285714,4266.8,65.22232142857143,519.1285714285714,4374.7,65.22232142857143,519.1285714285714,4481.4,65.22232142857143,519.1285714285714,4586,65.22232142857143,519.1285714285714,4696.4,65.22232142857143,519.1285714285714,4796.8,65.22232142857143,519.1285714285714,4902.4]","[1548.3,1548.4,1000,0,548.4,""smooth"",""down"",""down"",""good_move"",8409.7,6860.8,2859.6,5090.9,459.2,""oops"",""down"",""right"",""bad_move""]"
"15991","","<div style=""width:500px;"">
  <p>What determined the result of this run?</p>
  </div>","3","html-slider-response","59","763110","0.0-7.0-1.9","226","1","2025-08-07 07:47:19","36c45c0696341be0efffe67d72a12abb","105.245.232.61","Mozilla/5.0 (Windows NT 10.0; Win64; x64) AppleWebKit/537.36 (KHTML, like Gecko) Chrome/138.0.0.0 Safari/537.36","WebKit","Chrome","138.0.0.0","Windows","10.0","https://app.prolific.com/","en-US,en;q=0.9","650ac282d9578d72800bf303","6877649eabb845cf142cd221","689459ef2b5773fa60f394f6","1","650ac282d9578d72800bf303","1","2025-08-07T08:00:04.008Z","","","","AttribQ","","","","","","","","","","","50","","","","","","","","","","","","","","","","","","","","","","","","","","",""
"6789","","<div style=""width:500px;"">
  <p>How much control did you have over the ball?</p>
  </div>","4","html-slider-response","60","769901","0.0-7.0-2.9","226","1","2025-08-07 07:47:19","36c45c0696341be0efffe67d72a12abb","105.245.232.61","Mozilla/5.0 (Windows NT 10.0; Win64; x64) AppleWebKit/537.36 (KHTML, like Gecko) Chrome/138.0.0.0 Safari/537.36","WebKit","Chrome","138.0.0.0","Windows","10.0","https://app.prolific.com/","en-US,en;q=0.9","650ac282d9578d72800bf303","6877649eabb845cf142cd221","689459ef2b5773fa60f394f6","1","650ac282d9578d72800bf303","1","2025-08-07T08:00:10.799Z","","","","ControlQ","","","","","","","","","","","50","","","","","","","","","","","","","","","","","","","","","","","","","","",""
"30388","","<div style=""width:500px;"">
  <p>How would you describe your current emotional state?</p>
  </div>","11","html-slider-response","61","800291","0.0-7.0-3.9","226","1","2025-08-07 07:47:19","36c45c0696341be0efffe67d72a12abb","105.245.232.61","Mozilla/5.0 (Windows NT 10.0; Win64; x64) AppleWebKit/537.36 (KHTML, like Gecko) Chrome/138.0.0.0 Safari/537.36","WebKit","Chrome","138.0.0.0","Windows","10.0","https://app.prolific.com/","en-US,en;q=0.9","650ac282d9578d72800bf303","6877649eabb845cf142cd221","689459ef2b5773fa60f394f6","1","650ac282d9578d72800bf303","1","2025-08-07T08:00:41.189Z","","","","StressQ","","","","","","","","","","","50","","","","","","","","","","","","","","","","","","","","","","","","","","",""
"3155","","<div style=""width:500px;"">
  <p>What best describes how you currently feel?</p>
  </div>","0","html-slider-response","62","803448","0.0-7.0-4.9","226","1","2025-08-07 07:47:19","36c45c0696341be0efffe67d72a12abb","105.245.232.61","Mozilla/5.0 (Windows NT 10.0; Win64; x64) AppleWebKit/537.36 (KHTML, like Gecko) Chrome/138.0.0.0 Safari/537.36","WebKit","Chrome","138.0.0.0","Windows","10.0","https://app.prolific.com/","en-US,en;q=0.9","650ac282d9578d72800bf303","6877649eabb845cf142cd221","689459ef2b5773fa60f394f6","1","650ac282d9578d72800bf303","1","2025-08-07T08:00:44.346Z","","","","MotivationQ","","","","","","","","","","","50","","","","","","","","","","","","","","","","","","","","","","","","","","",""
"","","","","ctl-task-cpt","63","849878","0.0-7.0-0.10","226","1","2025-08-07 07:47:19","36c45c0696341be0efffe67d72a12abb","105.245.232.61","Mozilla/5.0 (Windows NT 10.0; Win64; x64) AppleWebKit/537.36 (KHTML, like Gecko) Chrome/138.0.0.0 Safari/537.36","WebKit","Chrome","138.0.0.0","Windows","10.0","https://app.prolific.com/","en-US,en;q=0.9","650ac282d9578d72800bf303","6877649eabb845cf142cd221","689459ef2b5773fa60f394f6","1","650ac282d9578d72800bf303","1","2025-08-07T08:01:30.777Z","","","","","","","","","","","","","","","","win-only","3","g1:SW,g2:NE","0.6","11","0","806883.4","5571.7","10573.4","43407.2","1","4","8","6","1","-1","-1","0","0","0","1477.1","3000","-2275","[""down"",""left""]","{""num_key_presses"":8,""num_perfect"":5,""num_errors"":0,""num_randdir"":3,""num_randdir_good_moves"":0,""num_whilered"":0,""num_whileblue"":0,""num_blue"":2,""num_good_moves"":5}","[300.22232142857143,297.12857142857143,0.4,300.22232142857143,297.12857142857143,106.3,300.22232142857143,297.12857142857143,210.4,300.22232142857143,297.12857142857143,314.6,300.22232142857143,297.12857142857143,420.9,300.22232142857143,297.12857142857143,525,300.22232142857143,297.12857142857143,628.7,300.22232142857143,297.12857142857143,732.9,300.22232142857143,297.12857142857143,839.5,131.22232142857143,465.12857142857143,942.4,96.22232142857143,503.12857142857143,1043.9,65.22232142857143,531.1285714285714,1145.7,53.222321428571426,527.1285714285714,1261.4,49.222321428571426,519.1285714285714,1365,49.222321428571426,519.1285714285714,1467.2,49.222321428571426,519.1285714285714,1567.5,49.222321428571426,519.1285714285714,1677.9,49.222321428571426,519.1285714285714,1782.3,49.222321428571426,530.1285714285714,1885.2,44.222321428571426,577.1285714285714,2001.9,43.222321428571426,579.1285714285714,2111.5,45.222321428571426,570.1285714285714,2214.6,63.222321428571426,548.1285714285714,2322.2,63.222321428571426,548.1285714285714,2425,63.222321428571426,548.1285714285714,2525.5,63.222321428571426,548.1285714285714,2627.5,63.222321428571426,548.1285714285714,2730.2,63.222321428571426,548.1285714285714,2831.4,63.222321428571426,548.1285714285714,2935.5,63.222321428571426,548.1285714285714,3038.1,63.222321428571426,548.1285714285714,3143.2,63.222321428571426,548.1285714285714,3247.8,63.222321428571426,548.1285714285714,3359.4,63.222321428571426,548.1285714285714,3459.4,63.222321428571426,548.1285714285714,3559.8,63.222321428571426,548.1285714285714,3660,63.222321428571426,548.1285714285714,3766.5,63.222321428571426,548.1285714285714,3873.1,63.222321428571426,548.1285714285714,3977.8,63.222321428571426,548.1285714285714,4078.8,63.222321428571426,548.1285714285714,4182.3,63.222321428571426,548.1285714285714,4287.1,63.222321428571426,548.1285714285714,4389,63.222321428571426,548.1285714285714,4491.2,63.222321428571426,548.1285714285714,4595,63.222321428571426,548.1285714285714,4700.2,63.222321428571426,548.1285714285714,4801.3,63.222321428571426,548.1285714285714,4901.3]","[1525.1,1525.1,1000,0,525.1,""smooth"",""left"",""left"",""good_move"",7938.9,6413.2,2001,5506.6,431.3,""oops"",""left"",""right"",""bad_move"",10298.2,2358.9,1913.7,7939.4,445.1,""smooth"",""left"",""left"",""good_move"",13452.9,3154,2760.1,10299,393.9,""smooth"",""down"",""down"",""good_move"",16574.9,3121.4,2744.8,13453.5,376.6,""smooth"",""down"",""down"",""good_move"",18992.6,2417.3,1961.9,16575.3,455.4,""oops"",""left"",""right"",""bad_move"",25792.2,6799,2743.6,22697,351.6,""smooth"",""left"",""left"",""good_move"",29036.1,3243.3,2840.8,25792.8,402.5,""oops"",""left"",""right"",""bad_move""]"
"4868","","<div style=""width:500px;"">
  <p>What determined the result of this run?</p>
  </div>","0","html-slider-response","64","854749","0.0-7.0-1.10","226","1","2025-08-07 07:47:19","36c45c0696341be0efffe67d72a12abb","105.245.232.61","Mozilla/5.0 (Windows NT 10.0; Win64; x64) AppleWebKit/537.36 (KHTML, like Gecko) Chrome/138.0.0.0 Safari/537.36","WebKit","Chrome","138.0.0.0","Windows","10.0","https://app.prolific.com/","en-US,en;q=0.9","650ac282d9578d72800bf303","6877649eabb845cf142cd221","689459ef2b5773fa60f394f6","1","650ac282d9578d72800bf303","1","2025-08-07T08:01:35.647Z","","","","AttribQ","","","","","","","","","","","50","","","","","","","","","","","","","","","","","","","","","","","","","","",""
"2584","","<div style=""width:500px;"">
  <p>How much control did you have over the ball?</p>
  </div>","1","html-slider-response","65","857334","0.0-7.0-2.10","226","1","2025-08-07 07:47:19","36c45c0696341be0efffe67d72a12abb","105.245.232.61","Mozilla/5.0 (Windows NT 10.0; Win64; x64) AppleWebKit/537.36 (KHTML, like Gecko) Chrome/138.0.0.0 Safari/537.36","WebKit","Chrome","138.0.0.0","Windows","10.0","https://app.prolific.com/","en-US,en;q=0.9","650ac282d9578d72800bf303","6877649eabb845cf142cd221","689459ef2b5773fa60f394f6","1","650ac282d9578d72800bf303","1","2025-08-07T08:01:38.232Z","","","","ControlQ","","","","","","","","","","","50","","","","","","","","","","","","","","","","","","","","","","","","","","",""
"2571","","<div style=""width:500px;"">
  <p>How would you describe your current emotional state?</p>
  </div>","3","html-slider-response","66","859907","0.0-7.0-3.10","226","1","2025-08-07 07:47:19","36c45c0696341be0efffe67d72a12abb","105.245.232.61","Mozilla/5.0 (Windows NT 10.0; Win64; x64) AppleWebKit/537.36 (KHTML, like Gecko) Chrome/138.0.0.0 Safari/537.36","WebKit","Chrome","138.0.0.0","Windows","10.0","https://app.prolific.com/","en-US,en;q=0.9","650ac282d9578d72800bf303","6877649eabb845cf142cd221","689459ef2b5773fa60f394f6","1","650ac282d9578d72800bf303","1","2025-08-07T08:01:40.805Z","","","","StressQ","","","","","","","","","","","50","","","","","","","","","","","","","","","","","","","","","","","","","","",""
"3631","","<div style=""width:500px;"">
  <p>What best describes how you currently feel?</p>
  </div>","0","html-slider-response","67","863540","0.0-7.0-4.10","226","1","2025-08-07 07:47:19","36c45c0696341be0efffe67d72a12abb","105.245.232.61","Mozilla/5.0 (Windows NT 10.0; Win64; x64) AppleWebKit/537.36 (KHTML, like Gecko) Chrome/138.0.0.0 Safari/537.36","WebKit","Chrome","138.0.0.0","Windows","10.0","https://app.prolific.com/","en-US,en;q=0.9","650ac282d9578d72800bf303","6877649eabb845cf142cd221","689459ef2b5773fa60f394f6","1","650ac282d9578d72800bf303","1","2025-08-07T08:01:44.439Z","","","","MotivationQ","","","","","","","","","","","50","","","","","","","","","","","","","","","","","","","","","","","","","","",""
"","","","","ctl-task-cpt","68","889952","0.0-7.0-0.11","226","1","2025-08-07 07:47:19","36c45c0696341be0efffe67d72a12abb","105.245.232.61","Mozilla/5.0 (Windows NT 10.0; Win64; x64) AppleWebKit/537.36 (KHTML, like Gecko) Chrome/138.0.0.0 Safari/537.36","WebKit","Chrome","138.0.0.0","Windows","10.0","https://app.prolific.com/","en-US,en;q=0.9","650ac282d9578d72800bf303","6877649eabb845cf142cd221","689459ef2b5773fa60f394f6","1","650ac282d9578d72800bf303","1","2025-08-07T08:02:10.850Z","","","","","","","","","","","","","","","","win-only","3","g1:SW,g2:NE","0.7","12","0","866974.6","2168.2","7172.7","23399.1","1","4","4","6","1","1","1","1","0","0.007575757575757576","1057.9","3000","655","[""down"",""left""]","{""num_key_presses"":6,""num_perfect"":4,""num_errors"":0,""num_randdir"":2,""num_randdir_good_moves"":1,""num_whilered"":0,""num_whileblue"":0,""num_blue"":0,""num_good_moves"":5}","[296.22232142857143,295.12857142857143,0.4,296.22232142857143,295.12857142857143,103.8,296.22232142857143,295.12857142857143,207.1,296.22232142857143,295.12857142857143,307.9,281.22232142857143,365.12857142857143,408.9,89.22232142857143,568.1285714285714,515.5,66.22232142857143,583.1285714285714,626.1,60.222321428571426,584.1285714285714,734.3,50.222321428571426,557.1285714285714,838.5,50.222321428571426,557.1285714285714,939.7,50.222321428571426,557.1285714285714,1041.8,50.222321428571426,557.1285714285714,1142.9,50.222321428571426,557.1285714285714,1246.1,50.222321428571426,557.1285714285714,1348.1,50.222321428571426,557.1285714285714,1451.9,50.222321428571426,557.1285714285714,1556.6,50.222321428571426,557.1285714285714,1660.5,50.222321428571426,557.1285714285714,1760.7,50.222321428571426,557.1285714285714,1861.4,50.222321428571426,557.1285714285714,1965.1,50.222321428571426,557.1285714285714,2068.8,50.222321428571426,557.1285714285714,2170.5,50.222321428571426,557.1285714285714,2275.6,50.222321428571426,557.1285714285714,2381,50.222321428571426,557.1285714285714,2481.2,50.222321428571426,557.1285714285714,2581.6,50.222321428571426,557.1285714285714,2688.3,50.222321428571426,557.1285714285714,2795.2,50.222321428571426,557.1285714285714,2897.2,50.222321428571426,557.1285714285714,3007.6,50.222321428571426,557.1285714285714,3115,50.222321428571426,557.1285714285714,3220,50.222321428571426,557.1285714285714,3320.1,50.222321428571426,557.1285714285714,3421.7,50.222321428571426,557.1285714285714,3529.1,50.222321428571426,557.1285714285714,3638.7,50.222321428571426,557.1285714285714,3746.4,50.222321428571426,557.1285714285714,3852.3,50.222321428571426,557.1285714285714,3963,50.222321428571426,557.1285714285714,4073.2,50.222321428571426,557.1285714285714,4180.5,50.222321428571426,557.1285714285714,4281.4,50.222321428571426,557.1285714285714,4386.7,50.222321428571426,557.1285714285714,4491.1,50.222321428571426,557.1285714285714,4591.1,50.222321428571426,557.1285714285714,4691.4,50.222321428571426,557.1285714285714,4796.1,50.222321428571426,557.1285714285714,4904.4]","[1797.4,1797.4,1000,0,797.4,""oops"",""left"",""up"",""bad_move"",4108.3,2310.3,1506.1,1798,804.2,""smooth"",""left"",""left"",""good_move"",7546,3437.2,2918,4108.8,519.2,""smooth"",""left"",""left"",""good_move"",10249.3,2703,2296.9,7546.3,406.2,""oops"",""down"",""down"",""good_move"",13545.1,3295.1,2853.7,10250,441.4,""smooth"",""down"",""down"",""good_move"",16097.7,2552.2,2160.6,13545.6,391.5,""smooth"",""down"",""down"",""good_move""]"
"9328","","<div style=""width:500px;"">
  <p>What determined the result of this run?</p>
  </div>","0","html-slider-response","69","899282","0.0-7.0-1.11","226","1","2025-08-07 07:47:19","36c45c0696341be0efffe67d72a12abb","105.245.232.61","Mozilla/5.0 (Windows NT 10.0; Win64; x64) AppleWebKit/537.36 (KHTML, like Gecko) Chrome/138.0.0.0 Safari/537.36","WebKit","Chrome","138.0.0.0","Windows","10.0","https://app.prolific.com/","en-US,en;q=0.9","650ac282d9578d72800bf303","6877649eabb845cf142cd221","689459ef2b5773fa60f394f6","1","650ac282d9578d72800bf303","1","2025-08-07T08:02:20.180Z","","","","AttribQ","","","","","","","","","","","50","","","","","","","","","","","","","","","","","","","","","","","","","","",""
"3757","","<div style=""width:500px;"">
  <p>How much control did you have over the ball?</p>
  </div>","0","html-slider-response","70","903041","0.0-7.0-2.11","226","1","2025-08-07 07:47:19","36c45c0696341be0efffe67d72a12abb","105.245.232.61","Mozilla/5.0 (Windows NT 10.0; Win64; x64) AppleWebKit/537.36 (KHTML, like Gecko) Chrome/138.0.0.0 Safari/537.36","WebKit","Chrome","138.0.0.0","Windows","10.0","https://app.prolific.com/","en-US,en;q=0.9","650ac282d9578d72800bf303","6877649eabb845cf142cd221","689459ef2b5773fa60f394f6","1","650ac282d9578d72800bf303","1","2025-08-07T08:02:23.939Z","","","","ControlQ","","","","","","","","","","","50","","","","","","","","","","","","","","","","","","","","","","","","","","",""
"2282","","<div style=""width:500px;"">
  <p>How would you describe your current emotional state?</p>
  </div>","47","html-slider-response","71","905324","0.0-7.0-3.11","226","1","2025-08-07 07:47:19","36c45c0696341be0efffe67d72a12abb","105.245.232.61","Mozilla/5.0 (Windows NT 10.0; Win64; x64) AppleWebKit/537.36 (KHTML, like Gecko) Chrome/138.0.0.0 Safari/537.36","WebKit","Chrome","138.0.0.0","Windows","10.0","https://app.prolific.com/","en-US,en;q=0.9","650ac282d9578d72800bf303","6877649eabb845cf142cd221","689459ef2b5773fa60f394f6","1","650ac282d9578d72800bf303","1","2025-08-07T08:02:26.222Z","","","","StressQ","","","","","","","","","","","50","","","","","","","","","","","","","","","","","","","","","","","","","","",""
"7314","","<div style=""width:500px;"">
  <p>What best describes how you currently feel?</p>
  </div>","3","html-slider-response","72","912640","0.0-7.0-4.11","226","1","2025-08-07 07:47:19","36c45c0696341be0efffe67d72a12abb","105.245.232.61","Mozilla/5.0 (Windows NT 10.0; Win64; x64) AppleWebKit/537.36 (KHTML, like Gecko) Chrome/138.0.0.0 Safari/537.36","WebKit","Chrome","138.0.0.0","Windows","10.0","https://app.prolific.com/","en-US,en;q=0.9","650ac282d9578d72800bf303","6877649eabb845cf142cd221","689459ef2b5773fa60f394f6","1","650ac282d9578d72800bf303","1","2025-08-07T08:02:33.539Z","","","","MotivationQ","","","","","","","","","","","50","","","","","","","","","","","","","","","","","","","","","","","","","","",""
"","","","","ctl-task-cpt","73","946402","0.0-7.0-0.12","226","1","2025-08-07 07:47:19","36c45c0696341be0efffe67d72a12abb","105.245.232.61","Mozilla/5.0 (Windows NT 10.0; Win64; x64) AppleWebKit/537.36 (KHTML, like Gecko) Chrome/138.0.0.0 Safari/537.36","WebKit","Chrome","138.0.0.0","Windows","10.0","https://app.prolific.com/","en-US,en;q=0.9","650ac282d9578d72800bf303","6877649eabb845cf142cd221","689459ef2b5773fa60f394f6","1","650ac282d9578d72800bf303","1","2025-08-07T08:03:07.300Z","","","","","","","","","","","","","","","","win-only","0","g1:NW,g2:SE","0.8","13","0","916074.9","4905.1","9909.7","30737.8","1","4","4","6","1","1","0","1","1","0.007575757575757576","1140.5","3000","2125","[""left"",""up""]","{""num_key_presses"":5,""num_perfect"":3,""num_errors"":1,""num_randdir"":1,""num_randdir_good_moves"":1,""num_whilered"":0,""num_whileblue"":0,""num_blue"":2,""num_good_moves"":4}","[296.22232142857143,300.12857142857143,0.5,296.22232142857143,300.12857142857143,111.4,296.22232142857143,300.12857142857143,228.1,296.22232142857143,300.12857142857143,332.7,296.22232142857143,300.12857142857143,438,287.22232142857143,306.12857142857143,552.2,11.222321428571426,162.12857142857143,661.9,27.222321428571426,103.12857142857143,765,33.222321428571426,95.12857142857143,885.3,37.222321428571426,89.12857142857143,994.9,37.222321428571426,89.12857142857143,1103.5,37.222321428571426,89.12857142857143,1204.3,37.222321428571426,89.12857142857143,1322.4,37.222321428571426,89.12857142857143,1435,37.222321428571426,89.12857142857143,1539.1,37.222321428571426,89.12857142857143,1656,37.222321428571426,89.12857142857143,1766.2,37.222321428571426,89.12857142857143,1873.4,37.222321428571426,89.12857142857143,1985.1,37.222321428571426,89.12857142857143,2085.1,37.222321428571426,89.12857142857143,2185.2,37.222321428571426,89.12857142857143,2300.4,37.222321428571426,89.12857142857143,2413.1,37.222321428571426,89.12857142857143,2518,37.222321428571426,89.12857142857143,2629.1,37.222321428571426,89.12857142857143,2732.9,37.222321428571426,89.12857142857143,2844.5,37.222321428571426,89.12857142857143,2961.5,37.222321428571426,89.12857142857143,3072.4,37.222321428571426,89.12857142857143,3178.4,37.222321428571426,89.12857142857143,3288.2,37.222321428571426,89.12857142857143,3394.5,37.222321428571426,89.12857142857143,3503.1,37.222321428571426,89.12857142857143,3615.7,37.222321428571426,89.12857142857143,3722.5,37.222321428571426,89.12857142857143,3825.2,37.222321428571426,89.12857142857143,3936.3,37.222321428571426,89.12857142857143,4043.4,37.222321428571426,89.12857142857143,4144.7,37.222321428571426,89.12857142857143,4248,37.222321428571426,89.12857142857143,4351.9,37.222321428571426,89.12857142857143,4455.1,37.222321428571426,89.12857142857143,4567.4,37.222321428571426,89.12857142857143,4668.6,37.222321428571426,89.12857142857143,4774.6,37.222321428571426,89.12857142857143,4877.6,37.222321428571426,89.12857142857143,4983.8]","[383.4,383.4,1000,0,-616.6,""error"",""-"",""-"",""no_move"",6975.5,6591.9,1535.3,4910.2,530,""smooth"",""up"",""up"",""good_move"",10226.3,3250.3,2106.4,6976.1,1143.9,""smooth"",""up"",""up"",""good_move"",17416.2,7189.4,2830.9,14098.6,486.7,""oops"",""left"",""left"",""good_move"",20659.4,3242.6,2408.7,17416.8,833.9,""smooth"",""left"",""left"",""good_move""]"
"4255","","<div style=""width:500px;"">
  <p>What determined the result of this run?</p>
  </div>","9","html-slider-response","74","950659","0.0-7.0-1.12","226","1","2025-08-07 07:47:19","36c45c0696341be0efffe67d72a12abb","105.245.232.61","Mozilla/5.0 (Windows NT 10.0; Win64; x64) AppleWebKit/537.36 (KHTML, like Gecko) Chrome/138.0.0.0 Safari/537.36","WebKit","Chrome","138.0.0.0","Windows","10.0","https://app.prolific.com/","en-US,en;q=0.9","650ac282d9578d72800bf303","6877649eabb845cf142cd221","689459ef2b5773fa60f394f6","1","650ac282d9578d72800bf303","1","2025-08-07T08:03:11.557Z","","","","AttribQ","","","","","","","","","","","50","","","","","","","","","","","","","","","","","","","","","","","","","","",""
"2731","","<div style=""width:500px;"">
  <p>How much control did you have over the ball?</p>
  </div>","0","html-slider-response","75","953393","0.0-7.0-2.12","226","1","2025-08-07 07:47:19","36c45c0696341be0efffe67d72a12abb","105.245.232.61","Mozilla/5.0 (Windows NT 10.0; Win64; x64) AppleWebKit/537.36 (KHTML, like Gecko) Chrome/138.0.0.0 Safari/537.36","WebKit","Chrome","138.0.0.0","Windows","10.0","https://app.prolific.com/","en-US,en;q=0.9","650ac282d9578d72800bf303","6877649eabb845cf142cd221","689459ef2b5773fa60f394f6","1","650ac282d9578d72800bf303","1","2025-08-07T08:03:14.291Z","","","","ControlQ","","","","","","","","","","","50","","","","","","","","","","","","","","","","","","","","","","","","","","",""
"2420","","<div style=""width:500px;"">
  <p>How would you describe your current emotional state?</p>
  </div>","0","html-slider-response","76","955815","0.0-7.0-3.12","226","1","2025-08-07 07:47:19","36c45c0696341be0efffe67d72a12abb","105.245.232.61","Mozilla/5.0 (Windows NT 10.0; Win64; x64) AppleWebKit/537.36 (KHTML, like Gecko) Chrome/138.0.0.0 Safari/537.36","WebKit","Chrome","138.0.0.0","Windows","10.0","https://app.prolific.com/","en-US,en;q=0.9","650ac282d9578d72800bf303","6877649eabb845cf142cd221","689459ef2b5773fa60f394f6","1","650ac282d9578d72800bf303","1","2025-08-07T08:03:16.713Z","","","","StressQ","","","","","","","","","","","50","","","","","","","","","","","","","","","","","","","","","","","","","","",""
"2297","","<div style=""width:500px;"">
  <p>What best describes how you currently feel?</p>
  </div>","2","html-slider-response","77","958114","0.0-7.0-4.12","226","1","2025-08-07 07:47:19","36c45c0696341be0efffe67d72a12abb","105.245.232.61","Mozilla/5.0 (Windows NT 10.0; Win64; x64) AppleWebKit/537.36 (KHTML, like Gecko) Chrome/138.0.0.0 Safari/537.36","WebKit","Chrome","138.0.0.0","Windows","10.0","https://app.prolific.com/","en-US,en;q=0.9","650ac282d9578d72800bf303","6877649eabb845cf142cd221","689459ef2b5773fa60f394f6","1","650ac282d9578d72800bf303","1","2025-08-07T08:03:19.012Z","","","","MotivationQ","","","","","","","","","","","50","","","","","","","","","","","","","","","","","","","","","","","","","","",""
"","","","","ctl-task-cpt","78","988248","0.0-7.0-0.13","226","1","2025-08-07 07:47:19","36c45c0696341be0efffe67d72a12abb","105.245.232.61","Mozilla/5.0 (Windows NT 10.0; Win64; x64) AppleWebKit/537.36 (KHTML, like Gecko) Chrome/138.0.0.0 Safari/537.36","WebKit","Chrome","138.0.0.0","Windows","10.0","https://app.prolific.com/","en-US,en;q=0.9","650ac282d9578d72800bf303","6877649eabb845cf142cd221","689459ef2b5773fa60f394f6","1","650ac282d9578d72800bf303","1","2025-08-07T08:03:49.146Z","","","","","","","","","","","","","","","","win-only","0","g1:NW,g2:SE","0.9","14","0","961549.1","1603.2","6609.7","27110.4","1","4","8","6","1","-1","-1","0","1","0","997.9","3000","-2050","[""left"",""up""]","{""num_key_presses"":2,""num_perfect"":2,""num_errors"":0,""num_randdir"":0,""num_randdir_good_moves"":0,""num_whilered"":0,""num_whileblue"":0,""num_blue"":3,""num_good_moves"":2}","[296.22232142857143,301.12857142857143,0.2,296.22232142857143,301.12857142857143,100.2,296.22232142857143,301.12857142857143,200.5,296.22232142857143,301.12857142857143,314.2,296.22232142857143,301.12857142857143,424.8,79.22232142857143,99.12857142857143,540.5,74.22232142857143,75.12857142857143,654.8,72.22232142857143,67.12857142857143,758.6,72.22232142857143,66.12857142857143,864.9,72.22232142857143,66.12857142857143,967.1,72.22232142857143,66.12857142857143,1071.2,72.22232142857143,66.12857142857143,1172,72.22232142857143,66.12857142857143,1287.3,72.22232142857143,66.12857142857143,1398.4,72.22232142857143,66.12857142857143,1502.3,72.22232142857143,66.12857142857143,1613.1,72.22232142857143,66.12857142857143,1716.3,72.22232142857143,66.12857142857143,1821.7,72.22232142857143,66.12857142857143,1932.4,72.22232142857143,66.12857142857143,2041.8,72.22232142857143,66.12857142857143,2157.8,72.22232142857143,66.12857142857143,2260.7,72.22232142857143,66.12857142857143,2362.8,72.22232142857143,66.12857142857143,2463.5,72.22232142857143,66.12857142857143,2563.9,72.22232142857143,66.12857142857143,2668.8,72.22232142857143,66.12857142857143,2772.1,72.22232142857143,66.12857142857143,2884,72.22232142857143,66.12857142857143,2986.2,72.22232142857143,66.12857142857143,3093.3,72.22232142857143,66.12857142857143,3211.2,72.22232142857143,66.12857142857143,3315,72.22232142857143,66.12857142857143,3419.3,72.22232142857143,66.12857142857143,3523.9,72.22232142857143,66.12857142857143,3633.1,72.22232142857143,66.12857142857143,3737.5,72.22232142857143,66.12857142857143,3850,72.22232142857143,66.12857142857143,3959.4,72.22232142857143,66.12857142857143,4065.9,72.22232142857143,66.12857142857143,4182.2,72.22232142857143,66.12857142857143,4289.7,72.22232142857143,66.12857142857143,4403.4,72.22232142857143,66.12857142857143,4516.5,72.22232142857143,66.12857142857143,4625.2,72.22232142857143,66.12857142857143,4729,72.22232142857143,66.12857142857143,4833.6,72.22232142857143,66.12857142857143,4938.4]","[5152.3,5152.4,2737.1,2007,408.3,""smooth"",""up"",""up"",""good_move"",14587.3,9434.2,2191.1,11925.9,470.3,""smooth"",""up"",""up"",""good_move""]"
"80242","","<div style=""width:500px;"">
  <p>What determined the result of this run?</p>
