"rt","response_timestamp","stimulus","response","trial_type","trial_index","time_elapsed","internal_node_id","run_id","condition","recorded_at","source_code_version","ip","user_agent","device","browser","browser_version","platform","platform_version","referer","accept_language","PROLIFIC_PID","STUDY_ID","SESSION_ID","BATCH","prolific_id","batch","realtime","success","question_order","question_id","eventType","responses","item_order","radio_event_ids","radio_event_times","key_event_times","mouse_event_times","straightlining","zigzagging","honeypot","view_history","slider_start","which_type","canvas_config","goals_layout","control_level","trial_number","tutorial_trial_number","trial_start_time","phase1_start_time","phase2_start_time","phase3_start_time","goal_1_value","goal_1_distance","goal_2_value","goal_2_distance","goal_selected","outcome","outcome_total","participant_final_score","participant_initial_score","participant_final_score_prop","goal_choice_rt","allocated_time","allocated_time_remaining","goal_direction","counts","mouse_movements","key_presses"
"6097","1753864819948","<p style='font-size:40px;line-height:1.25'><strong>Welcome to the experiment!</strong></p><p style='font-size:1.1em;line-height:1.25'>Thank you for participanting in our experiment again! You will be asked to play the Dysfunctional Ball Game again. We will briefly recap the rules before we start.</p><p style='font-size:1.1em;line-height:1.25'>Press <strong>Next</strong> to continue.</p>","0","custom-html-button-response","0","6098","0.0-0.0","23","1","2025-07-30 08:40:12","36c45c0696341be0efffe67d72a12abb","83.240.176.93","Mozilla/5.0 (Windows NT 10.0; Win64; x64) AppleWebKit/537.36 (KHTML, like Gecko) Chrome/138.0.0.0 Safari/537.36 Edg/138.0.0.0","WebKit","Edge","138.0.0.0","Windows","10.0","https://app.prolific.com/","pt-PT,pt;q=0.9,en-US;q=0.8,en;q=0.7","6523351ec0163b9e739d13ab","687a19d2168e237449fb8af4","6889d9ddef8c89a298a64b98","0","6523351ec0163b9e739d13ab","0","2025-07-30T08:40:19.949Z","","","","","","","","","","","","","","","","","","","","","","","","","","","","","","","","","","","","","","","","","",""
"9791","","","","fullscreen","1","16895","0.0-1.0","23","1","2025-07-30 08:40:12","36c45c0696341be0efffe67d72a12abb","83.240.176.93","Mozilla/5.0 (Windows NT 10.0; Win64; x64) AppleWebKit/537.36 (KHTML, like Gecko) Chrome/138.0.0.0 Safari/537.36 Edg/138.0.0.0","WebKit","Edge","138.0.0.0","Windows","10.0","https://app.prolific.com/","pt-PT,pt;q=0.9,en-US;q=0.8,en;q=0.7","6523351ec0163b9e739d13ab","687a19d2168e237449fb8af4","6889d9ddef8c89a298a64b98","0","6523351ec0163b9e739d13ab","0","","true","","","","","","","","","","","","","","","","","","","","","","","","","","","","","","","","","","","","","","","","",""
"7834","1753864838580"," <p style='font-size:1.1em;line-height:1.25'>Thank you for closing all other tabs.</p><p style='font-size:1.1em;line-height:1.25'>We will now invite you to fill in some questionnaires, before starting the game.<br>This will take about 5 minutes.<br></p><p style='font-size:1.1em;line-height:1.25'>Press the <strong>Next</strong> button to continue.</p>","0","custom-html-button-response","2","24729","0.0-2.0","23","1","2025-07-30 08:40:12","36c45c0696341be0efffe67d72a12abb","83.240.176.93","Mozilla/5.0 (Windows NT 10.0; Win64; x64) AppleWebKit/537.36 (KHTML, like Gecko) Chrome/138.0.0.0 Safari/537.36 Edg/138.0.0.0","WebKit","Edge","138.0.0.0","Windows","10.0","https://app.prolific.com/","pt-PT,pt;q=0.9,en-US;q=0.8,en;q=0.7","6523351ec0163b9e739d13ab","687a19d2168e237449fb8af4","6889d9ddef8c89a298a64b98","0","6523351ec0163b9e739d13ab","0","2025-07-30T08:40:38.580Z","","","","","","","","","","","","","","","","","","","","","","","","","","","","","","","","","","","","","","","","","",""
"4199","","","{""assigned_sex"":""male""}","survey-multi-choice","3","28930","0.0-3.0-0.0","23","1","2025-07-30 08:40:12","36c45c0696341be0efffe67d72a12abb","83.240.176.93","Mozilla/5.0 (Windows NT 10.0; Win64; x64) AppleWebKit/537.36 (KHTML, like Gecko) Chrome/138.0.0.0 Safari/537.36 Edg/138.0.0.0","WebKit","Edge","138.0.0.0","Windows","10.0","https://app.prolific.com/","pt-PT,pt;q=0.9,en-US;q=0.8,en;q=0.7","6523351ec0163b9e739d13ab","687a19d2168e237449fb8af4","6889d9ddef8c89a298a64b98","0","6523351ec0163b9e739d13ab","0","","","[0]","0","demographics","","","","","","","","","","","","","","","","","","","","","","","","","","","","","","","","","","","","","",""
"12687","1753864855468","<p style='font-size:1.1em;line-height:1.25'>In the following, we will perform a baseline assessment. This means that we will ask you a few questions relating to your experiences over the past month.<br></p><p style='font-size:1.1em;line-height:1.25'>Press the <strong>Next</strong> button to continue.</p>","0","custom-html-button-response","4","41617","0.0-4.0-0.0","23","1","2025-07-30 08:40:12","36c45c0696341be0efffe67d72a12abb","83.240.176.93","Mozilla/5.0 (Windows NT 10.0; Win64; x64) AppleWebKit/537.36 (KHTML, like Gecko) Chrome/138.0.0.0 Safari/537.36 Edg/138.0.0.0","WebKit","Edge","138.0.0.0","Windows","10.0","https://app.prolific.com/","pt-PT,pt;q=0.9,en-US;q=0.8,en;q=0.7","6523351ec0163b9e739d13ab","687a19d2168e237449fb8af4","6889d9ddef8c89a298a64b98","0","6523351ec0163b9e739d13ab","0","2025-07-30T08:40:55.469Z","","","","","","","","","","","","","","","","","","","","","","","","","","","","","","","","","","","","","","","","","",""
"154223.39999997616","","","","survey-template","5","195843","0.0-4.0-1.0","23","1","2025-07-30 08:40:12","36c45c0696341be0efffe67d72a12abb","83.240.176.93","Mozilla/5.0 (Windows NT 10.0; Win64; x64) AppleWebKit/537.36 (KHTML, like Gecko) Chrome/138.0.0.0 Safari/537.36 Edg/138.0.0.0","WebKit","Edge","138.0.0.0","Windows","10.0","https://app.prolific.com/","pt-PT,pt;q=0.9,en-US;q=0.8,en;q=0.7","6523351ec0163b9e739d13ab","687a19d2168e237449fb8af4","6889d9ddef8c89a298a64b98","0","6523351ec0163b9e739d13ab","0","2025-07-30T08:43:29.694Z","","","","pss","{""Q01"":""2"",""Q02"":""2"",""Q03"":""2"",""Q04"":""1"",""Q05"":""2"",""Q06"":""1"",""Q07"":""1"",""Q08"":""2"",""Q09"":""1"",""Q10"":""1""}","[0,1,2,3,4,5,6,7,8,9]","[""Q01"",""Q01"",""Q02"",""Q03"",""Q04"",""Q05"",""Q06"",""Q06"",""Q07"",""Q07"",""Q08"",""Q08"",""Q09"",""Q10""]","[10230.5,11270.5,36942.299999952316,61134.5,104374.5,118270.39999997616,121470.5,121678.39999997616,140886.39999997616,141102.5,144055.19999998808,144270.5,148118.39999997616,153654.39999997616]","[]","[0.09999996423721313,10230.5,11270.5,36942.299999952316,49710.69999998808,60326.5,60758.39999997616,61134.5,62006.5,73006.5,74430.5,75326.5,78646.39999997616,80710.39999997616,80966.39999997616,82614.39999997616,99318.39999997616,103470.29999995232,103846.5,104374.5,114422.59999996424,116558.39999997616,117062.59999996424,117310.5,118270.39999997616,120574.39999997616,120814.39999997616,121286.39999997616,121470.5,121678.39999997616,140630.39999997616,140886.39999997616,141102.5,143790.59999996424,144055.19999998808,144270.5,148118.39999997616,152398.39999997616,152607.09999996424,153302.39999997616,153654.39999997616,154222.5]","0.5","0.5555555555555556","0","","","","","","","","","","","","","","","","","","","","","","","","","","","","",""
"2782","1753865012476","<p style='font-size:1.1em;line-height:1.25'>Thank you for your answers! Now we will ask you a few more questions relating to your feelings in the last 24 hours.<br></p><p style='font-size:1.1em;line-height:1.25'>Press the <strong>Next</strong> button to continue.</p>","0","custom-html-button-response","6","198625","0.0-4.0-2.0","23","1","2025-07-30 08:40:12","36c45c0696341be0efffe67d72a12abb","83.240.176.93","Mozilla/5.0 (Windows NT 10.0; Win64; x64) AppleWebKit/537.36 (KHTML, like Gecko) Chrome/138.0.0.0 Safari/537.36 Edg/138.0.0.0","WebKit","Edge","138.0.0.0","Windows","10.0","https://app.prolific.com/","pt-PT,pt;q=0.9,en-US;q=0.8,en;q=0.7","6523351ec0163b9e739d13ab","687a19d2168e237449fb8af4","6889d9ddef8c89a298a64b98","0","6523351ec0163b9e739d13ab","0","2025-07-30T08:43:32.476Z","","","","","","","","","","","","","","","","","","","","","","","","","","","","","","","","","","","","","","","","","",""
"75608.80000001192","","","","survey-template","7","274235","0.0-4.0-3.0","23","1","2025-07-30 08:40:12","36c45c0696341be0efffe67d72a12abb","83.240.176.93","Mozilla/5.0 (Windows NT 10.0; Win64; x64) AppleWebKit/537.36 (KHTML, like Gecko) Chrome/138.0.0.0 Safari/537.36 Edg/138.0.0.0","WebKit","Edge","138.0.0.0","Windows","10.0","https://app.prolific.com/","pt-PT,pt;q=0.9,en-US;q=0.8,en;q=0.7","6523351ec0163b9e739d13ab","687a19d2168e237449fb8af4","6889d9ddef8c89a298a64b98","0","6523351ec0163b9e739d13ab","0","2025-07-30T08:44:48.086Z","","","","drsp","{""Q01"":""2"",""Q02"":""1"",""Q03"":""1"",""Q04"":""2"",""Q05"":""0"",""Q06"":""0"",""Q07"":""1"",""Q08"":""2"",""Q09"":""2"",""Q10"":""3"",""Q11"":""2"",""Q12"":""1"",""Q13"":""5"",""Q14"":""0"",""Q15"":""0"",""Q16"":""1"",""Q17"":""1"",""Q18"":""0"",""Q19"":""2"",""Q20"":""0"",""Q21"":""1"",""Q22"":""1""}","[0,1,2,3,4,5,6,7,8,9,10,11,12,13,14,15,16,17,18,19,20,21]","[""Q01"",""Q02"",""Q01"",""Q03"",""Q05"",""Q05"",""Q05"",""Q06"",""Q06"",""Q07"",""Q08"",""Q08"",""Q09"",""Q09"",""Q09"",""Q10"",""Q11"",""Q12"",""Q13"",""Q14"",""Q14"",""Q15"",""Q16"",""Q17"",""Q18"",""Q18"",""Q19"",""Q19"",""Q20"",""Q21"",""Q22"",""Q04""]","[4054.5,5246.600000023842,5838.5,8102.600000023842,12670.5,14126.5,14310.5,15686.600000023842,17006.5,17782.600000023842,19606.5,19798.600000023842,21246.600000023842,21942.399999976158,22214.5,23710.5,26278.5,27758.5,29310.600000023842,32758.5,32942.5,36318.5,38390.39999997616,41222.60000002384,42598.60000002384,42910.5,48422.60000002384,49550.5,54502.5,57374.5,61094.5,74294.5]","[]","[0,4054.5,5246.600000023842,5838.5,7767.199999988079,8102.600000023842,10046.600000023842,11647.199999988079,12670.5,13910.600000023842,14126.5,14310.5,15686.600000023842,16630.5,17006.5,17406.5,17782.600000023842,19606.5,19798.600000023842,21246.600000023842,21678.5,21942.399999976158,22214.5,23710.5,25510.600000023842,25790.5,26278.5,26518.5,27758.5,29310.600000023842,31430.600000023842,32230.899999976158,32550.30000001192,32758.5,32942.5,36318.5,38390.39999997616,40527.10000002384,40782.39999997616,41222.60000002384,42022.5,42366.80000001192,42598.60000002384,42910.5,48422.60000002384,49110.5,49550.5,54502.5,57374.5,61094.5,61838.5,73670.69999998808,74294.5,75606.60000002384]","0.36363636363636365","0.5238095238095238","0","","","","","","","","","","","","","","","","","","","","","","","","","","","","",""
"11940.600000023842","","","","survey-template","8","286177","0.0-4.0-4.0","23","1","2025-07-30 08:40:12","36c45c0696341be0efffe67d72a12abb","83.240.176.93","Mozilla/5.0 (Windows NT 10.0; Win64; x64) AppleWebKit/537.36 (KHTML, like Gecko) Chrome/138.0.0.0 Safari/537.36 Edg/138.0.0.0","WebKit","Edge","138.0.0.0","Windows","10.0","https://app.prolific.com/","pt-PT,pt;q=0.9,en-US;q=0.8,en;q=0.7","6523351ec0163b9e739d13ab","687a19d2168e237449fb8af4","6889d9ddef8c89a298a64b98","0","6523351ec0163b9e739d13ab","0","2025-07-30T08:45:00.028Z","","","","stress","{""Q01"":""3"",""Q02"":""2"",""Q03"":""1""}","[0,1,2]","[""Q01"",""Q02"",""Q03""]","[4108,7780.100000023842,11196.100000023842]","[]","[2508,2988,3940.100000023842,4108,5900,7508.100000023842,7780.100000023842,10628,11196.100000023842,11940.200000047684]","0.6666666666666666","0","0","","","","","","","","","","","","","","","","","","","","","","","","","","","","",""
"36727","","","","instructions","9","322894","0.0-5.0-0.0","23","1","2025-07-30 08:40:12","36c45c0696341be0efffe67d72a12abb","83.240.176.93","Mozilla/5.0 (Windows NT 10.0; Win64; x64) AppleWebKit/537.36 (KHTML, like Gecko) Chrome/138.0.0.0 Safari/537.36 Edg/138.0.0.0","WebKit","Edge","138.0.0.0","Windows","10.0","https://app.prolific.com/","pt-PT,pt;q=0.9,en-US;q=0.8,en;q=0.7","6523351ec0163b9e739d13ab","687a19d2168e237449fb8af4","6889d9ddef8c89a298a64b98","0","6523351ec0163b9e739d13ab","0","","","","","","","","","","","","","","","[{""page_index"":0,""viewing_time"":36727}]","","","","","","","","","","","","","","","","","","","","","","","","","","","",""
"6023","","<p>Before you start with this game please answer the following three questions yourself. </p>
  <p>Through this game, we measure several aspects of your cognitive performance, such as reaction times, multi-tasking capabilities </p>
  <p>and the ability to assess the situation you are in.</p>
  <p></p>
  <p><b>How good do you usually are in such tasks?</b></p>","73","html-slider-response","10","328918","0.0-6.0-0.0","23","1","2025-07-30 08:40:12","36c45c0696341be0efffe67d72a12abb","83.240.176.93","Mozilla/5.0 (Windows NT 10.0; Win64; x64) AppleWebKit/537.36 (KHTML, like Gecko) Chrome/138.0.0.0 Safari/537.36 Edg/138.0.0.0","WebKit","Edge","138.0.0.0","Windows","10.0","https://app.prolific.com/","pt-PT,pt;q=0.9,en-US;q=0.8,en;q=0.7","6523351ec0163b9e739d13ab","687a19d2168e237449fb8af4","6889d9ddef8c89a298a64b98","0","6523351ec0163b9e739d13ab","0","2025-07-30T08:45:42.769Z","","","","PreSkillQ","","","","","","","","","","","50","","","","","","","","","","","","","","","","","","","","","","","","","","",""
"8247","","<div style=""width:500px;"">
  <p>How well do you think you will perform in this task compared to other participants?</p>
  </div>","57","html-slider-response","11","337165","0.0-6.0-1.0","23","1","2025-07-30 08:40:12","36c45c0696341be0efffe67d72a12abb","83.240.176.93","Mozilla/5.0 (Windows NT 10.0; Win64; x64) AppleWebKit/537.36 (KHTML, like Gecko) Chrome/138.0.0.0 Safari/537.36 Edg/138.0.0.0","WebKit","Edge","138.0.0.0","Windows","10.0","https://app.prolific.com/","pt-PT,pt;q=0.9,en-US;q=0.8,en;q=0.7","6523351ec0163b9e739d13ab","687a19d2168e237449fb8af4","6889d9ddef8c89a298a64b98","0","6523351ec0163b9e739d13ab","0","2025-07-30T08:45:51.016Z","","","","PrePerfQ","","","","","","","","","","","50","","","","","","","","","","","","","","","","","","","","","","","","","","",""
"2992","","<div style=""width:500px;"">
  <p>What best describes how you currently feel?</p>
  </div>","80","html-slider-response","12","340158","0.0-6.0-2.0","23","1","2025-07-30 08:40:12","36c45c0696341be0efffe67d72a12abb","83.240.176.93","Mozilla/5.0 (Windows NT 10.0; Win64; x64) AppleWebKit/537.36 (KHTML, like Gecko) Chrome/138.0.0.0 Safari/537.36 Edg/138.0.0.0","WebKit","Edge","138.0.0.0","Windows","10.0","https://app.prolific.com/","pt-PT,pt;q=0.9,en-US;q=0.8,en;q=0.7","6523351ec0163b9e739d13ab","687a19d2168e237449fb8af4","6889d9ddef8c89a298a64b98","0","6523351ec0163b9e739d13ab","0","2025-07-30T08:45:54.009Z","","","","PreMotivationQ","","","","","","","","","","","50","","","","","","","","","","","","","","","","","","","","","","","","","","",""
"","","","","ctl-task-cpt","13","374531","0.0-7.0-0.0","23","1","2025-07-30 08:40:12","36c45c0696341be0efffe67d72a12abb","83.240.176.93","Mozilla/5.0 (Windows NT 10.0; Win64; x64) AppleWebKit/537.36 (KHTML, like Gecko) Chrome/138.0.0.0 Safari/537.36 Edg/138.0.0.0","WebKit","Edge","138.0.0.0","Windows","10.0","https://app.prolific.com/","pt-PT,pt;q=0.9,en-US;q=0.8,en;q=0.7","6523351ec0163b9e739d13ab","687a19d2168e237449fb8af4","6889d9ddef8c89a298a64b98","0","6523351ec0163b9e739d13ab","0","2025-07-30T08:46:28.382Z","","","","","","","","","","","","","","","","win-only","3","g1:SW,g2:NE","1","1","0","341551.3","3174.9","8176.2","31367.1","1","4","4","6","2","4","4","4","0","0.030303030303030304","2511.9","3000","400","[""up"",""right""]","{""num_key_presses"":6,""num_perfect"":6,""num_errors"":0,""num_randdir"":0,""num_randdir_good_moves"":0,""num_whilered"":0,""num_whileblue"":0,""num_blue"":2,""num_good_moves"":6}","[355.93660714285716,359.84285714285716,0.2,355.93660714285716,359.84285714285716,101,355.93660714285716,359.84285714285716,201,355.93660714285716,359.84285714285716,305.6,355.93660714285716,359.84285714285716,405.6,355.93660714285716,359.84285714285716,505.6,355.93660714285716,359.84285714285716,605.7,355.93660714285716,359.84285714285716,711.3,355.93660714285716,359.84285714285716,811.4,355.93660714285716,359.84285714285716,915.6,355.93660714285716,359.84285714285716,1015.8,355.93660714285716,359.84285714285716,1115.8,355.93660714285716,359.84285714285716,1215.8,355.93660714285716,359.84285714285716,1320.8,355.93660714285716,359.84285714285716,1421,355.93660714285716,359.84285714285716,1526,511.93660714285716,228.84285714285716,1627.1,642.9366071428572,100.84285714285714,1731.5,653.9366071428572,74.84285714285714,1836.1,655.9366071428572,72.84285714285714,1940.3,655.9366071428572,72.84285714285714,2040.5,655.9366071428572,72.84285714285714,2145.7,655.9366071428572,72.84285714285714,2245.7,655.9366071428572,72.84285714285714,2345.7,655.9366071428572,72.84285714285714,2445.8,655.9366071428572,72.84285714285714,2545.9,655.9366071428572,72.84285714285714,2651.1,655.9366071428572,72.84285714285714,2751.2,628.9366071428572,149.84285714285716,2851.3,549.9366071428572,255.84285714285716,2955.5,515.9366071428572,293.84285714285716,3056.6,515.9366071428572,293.84285714285716,3160.6,515.9366071428572,293.84285714285716,3260.7,515.9366071428572,293.84285714285716,3366,515.9366071428572,293.84285714285716,3471,515.9366071428572,293.84285714285716,3571.1,515.9366071428572,293.84285714285716,3675.9,515.9366071428572,293.84285714285716,3776.2,515.9366071428572,293.84285714285716,3880.4,515.9366071428572,293.84285714285716,3981.4,515.9366071428572,293.84285714285716,4085.9,515.9366071428572,294.84285714285716,4190.5,515.9366071428572,294.84285714285716,4295.7,515.9366071428572,294.84285714285716,4395.9,515.9366071428572,294.84285714285716,4501,515.9366071428572,294.84285714285716,4605.8,515.9366071428572,294.84285714285716,4705.8,515.9366071428572,294.84285714285716,4810.5,515.9366071428572,294.84285714285716,4915.8]","[5086.2,5086.2,2701.6,2009.1,375.5,""smooth"",""up"",""up"",""good_move"",7990.4,2904,2512.1,5086.4,391.9,""smooth"",""right"",""right"",""good_move"",14733.4,6742.8,2693.1,11314.6,725.7,""smooth"",""right"",""right"",""good_move"",17421.4,2687.8,2312,14733.6,375.8,""smooth"",""up"",""up"",""good_move"",20429.2,3007.7,2561.8,17421.5,445.9,""smooth"",""right"",""right"",""good_move"",23101.4,2672.1,2357.2,20429.3,314.9,""smooth"",""up"",""up"",""good_move""]"
"3554","","<div style=""width:500px;"">
  <p>What determined the result of this run?</p>
  </div>","100","html-slider-response","14","378077","0.0-7.0-1.0","23","1","2025-07-30 08:40:12","36c45c0696341be0efffe67d72a12abb","83.240.176.93","Mozilla/5.0 (Windows NT 10.0; Win64; x64) AppleWebKit/537.36 (KHTML, like Gecko) Chrome/138.0.0.0 Safari/537.36 Edg/138.0.0.0","WebKit","Edge","138.0.0.0","Windows","10.0","https://app.prolific.com/","pt-PT,pt;q=0.9,en-US;q=0.8,en;q=0.7","6523351ec0163b9e739d13ab","687a19d2168e237449fb8af4","6889d9ddef8c89a298a64b98","0","6523351ec0163b9e739d13ab","0","2025-07-30T08:46:31.928Z","","","","AttribQ","","","","","","","","","","","50","","","","","","","","","","","","","","","","","","","","","","","","","","",""
"2831","","<div style=""width:500px;"">
  <p>How much control did you have over the ball?</p>
  </div>","100","html-slider-response","15","380909","0.0-7.0-2.0","23","1","2025-07-30 08:40:12","36c45c0696341be0efffe67d72a12abb","83.240.176.93","Mozilla/5.0 (Windows NT 10.0; Win64; x64) AppleWebKit/537.36 (KHTML, like Gecko) Chrome/138.0.0.0 Safari/537.36 Edg/138.0.0.0","WebKit","Edge","138.0.0.0","Windows","10.0","https://app.prolific.com/","pt-PT,pt;q=0.9,en-US;q=0.8,en;q=0.7","6523351ec0163b9e739d13ab","687a19d2168e237449fb8af4","6889d9ddef8c89a298a64b98","0","6523351ec0163b9e739d13ab","0","2025-07-30T08:46:34.760Z","","","","ControlQ","","","","","","","","","","","50","","","","","","","","","","","","","","","","","","","","","","","","","","",""
"3231","","<div style=""width:500px;"">
  <p>How would you describe your current emotional state?</p>
  </div>","33","html-slider-response","16","384141","0.0-7.0-3.0","23","1","2025-07-30 08:40:12","36c45c0696341be0efffe67d72a12abb","83.240.176.93","Mozilla/5.0 (Windows NT 10.0; Win64; x64) AppleWebKit/537.36 (KHTML, like Gecko) Chrome/138.0.0.0 Safari/537.36 Edg/138.0.0.0","WebKit","Edge","138.0.0.0","Windows","10.0","https://app.prolific.com/","pt-PT,pt;q=0.9,en-US;q=0.8,en;q=0.7","6523351ec0163b9e739d13ab","687a19d2168e237449fb8af4","6889d9ddef8c89a298a64b98","0","6523351ec0163b9e739d13ab","0","2025-07-30T08:46:37.992Z","","","","StressQ","","","","","","","","","","","50","","","","","","","","","","","","","","","","","","","","","","","","","","",""
"2719","","<div style=""width:500px;"">
  <p>What best describes how you currently feel?</p>
  </div>","75","html-slider-response","17","386861","0.0-7.0-4.0","23","1","2025-07-30 08:40:12","36c45c0696341be0efffe67d72a12abb","83.240.176.93","Mozilla/5.0 (Windows NT 10.0; Win64; x64) AppleWebKit/537.36 (KHTML, like Gecko) Chrome/138.0.0.0 Safari/537.36 Edg/138.0.0.0","WebKit","Edge","138.0.0.0","Windows","10.0","https://app.prolific.com/","pt-PT,pt;q=0.9,en-US;q=0.8,en;q=0.7","6523351ec0163b9e739d13ab","687a19d2168e237449fb8af4","6889d9ddef8c89a298a64b98","0","6523351ec0163b9e739d13ab","0","2025-07-30T08:46:40.712Z","","","","MotivationQ","","","","","","","","","","","50","","","","","","","","","","","","","","","","","","","","","","","","","","",""
"","","","","ctl-task-cpt","18","425527","0.0-7.0-0.1","23","1","2025-07-30 08:40:12","36c45c0696341be0efffe67d72a12abb","83.240.176.93","Mozilla/5.0 (Windows NT 10.0; Win64; x64) AppleWebKit/537.36 (KHTML, like Gecko) Chrome/138.0.0.0 Safari/537.36 Edg/138.0.0.0","WebKit","Edge","138.0.0.0","Windows","10.0","https://app.prolific.com/","pt-PT,pt;q=0.9,en-US;q=0.8,en;q=0.7","6523351ec0163b9e739d13ab","687a19d2168e237449fb8af4","6889d9ddef8c89a298a64b98","0","6523351ec0163b9e739d13ab","0","2025-07-30T08:47:19.378Z","","","","","","","","","","","","","","","","win-only","1","g1:NE,g2:SW","0.9","2","0","388261.5","1176.9","6180.4","35660.9","1","4","8","6","2","8","8","12","4","0.09090909090909091","1367.7","3000","90","[""down"",""left""]","{""num_key_presses"":8,""num_perfect"":7,""num_errors"":0,""num_randdir"":1,""num_randdir_good_moves"":0,""num_whilered"":0,""num_whileblue"":0,""num_blue"":2,""num_good_moves"":7}","[349.93660714285716,355.84285714285716,0.1,349.93660714285716,355.84285714285716,112.9,349.93660714285716,355.84285714285716,214.3,349.93660714285716,355.84285714285716,318.8,349.93660714285716,355.84285714285716,424.1,349.93660714285716,355.84285714285716,524.2,349.93660714285716,355.84285714285716,624.3,316.93660714285716,399.84285714285716,728.7,183.93660714285716,555.8428571428572,833.7,163.93660714285716,582.8428571428572,933.7,121.93660714285714,621.8428571428572,1039.1,121.93660714285714,621.8428571428572,1144.2,110.93660714285714,623.8428571428572,1249.3,75.93660714285714,633.8428571428572,1354.3,75.93660714285714,633.8428571428572,1454.3,75.93660714285714,633.8428571428572,1554.5,75.93660714285714,631.8428571428572,1658.8,75.93660714285714,631.8428571428572,1759.1,75.93660714285714,631.8428571428572,1859.1,75.93660714285714,631.8428571428572,1963.4,75.93660714285714,631.8428571428572,2063.4,75.93660714285714,631.8428571428572,2165.2,75.93660714285714,631.8428571428572,2269,75.93660714285714,631.8428571428572,2374.4,75.93660714285714,631.8428571428572,2479.1,75.93660714285714,631.8428571428572,2579.2,75.93660714285714,631.8428571428572,2684.1,75.93660714285714,631.8428571428572,2789,77.93660714285714,629.8428571428572,2894,77.93660714285714,629.8428571428572,2999.5,77.93660714285714,628.8428571428572,3104.1,77.93660714285714,628.8428571428572,3208.5,77.93660714285714,628.8428571428572,3308.9,77.93660714285714,628.8428571428572,3408.9,77.93660714285714,627.8428571428572,3513.3,77.93660714285714,627.8428571428572,3614.4,77.93660714285714,627.8428571428572,3715.4,77.93660714285714,627.8428571428572,3819.1,77.93660714285714,627.8428571428572,3923.4,77.93660714285714,627.8428571428572,4024.3,77.93660714285714,627.8428571428572,4128.5,77.93660714285714,627.8428571428572,4229.2,77.93660714285714,627.8428571428572,4329.2,77.93660714285714,627.8428571428572,4429.3,77.93660714285714,627.8428571428572,4534.1,77.93660714285714,627.8428571428572,4639.1,77.93660714285714,627.8428571428572,4743.4,77.93660714285714,627.8428571428572,4844,77.93660714285714,627.8428571428572,4944.2]","[1410.7,1410.7,1000,0,410.7,""smooth"",""down"",""down"",""good_move"",5107,3696,3338.1,1411,357.9,""smooth"",""left"",""left"",""good_move"",11762.9,6655.8,2306.4,9059.8,396.7,""smooth"",""left"",""left"",""good_move"",14667.1,2904.1,2498.4,11763,405.7,""oops"",""down"",""up"",""bad_move"",20914.9,6247.7,2487.3,18025.3,402.3,""smooth"",""down"",""down"",""good_move"",24298.9,3383.9,3036.7,20915,347.2,""smooth"",""left"",""left"",""good_move"",27114.8,2815.8,2439,24299,376.8,""smooth"",""down"",""down"",""good_move"",29379.1,2264.1,2003.8,27115,260.3,""smooth"",""down"",""down"",""good_move""]"
"2748","","<div style=""width:500px;"">
  <p>What determined the result of this run?</p>
  </div>","100","html-slider-response","19","428277","0.0-7.0-1.1","23","1","2025-07-30 08:40:12","36c45c0696341be0efffe67d72a12abb","83.240.176.93","Mozilla/5.0 (Windows NT 10.0; Win64; x64) AppleWebKit/537.36 (KHTML, like Gecko) Chrome/138.0.0.0 Safari/537.36 Edg/138.0.0.0","WebKit","Edge","138.0.0.0","Windows","10.0","https://app.prolific.com/","pt-PT,pt;q=0.9,en-US;q=0.8,en;q=0.7","6523351ec0163b9e739d13ab","687a19d2168e237449fb8af4","6889d9ddef8c89a298a64b98","0","6523351ec0163b9e739d13ab","0","2025-07-30T08:47:22.128Z","","","","AttribQ","","","","","","","","","","","50","","","","","","","","","","","","","","","","","","","","","","","","","","",""
"3079","","<div style=""width:500px;"">
  <p>How much control did you have over the ball?</p>
  </div>","66","html-slider-response","20","431357","0.0-7.0-2.1","23","1","2025-07-30 08:40:12","36c45c0696341be0efffe67d72a12abb","83.240.176.93","Mozilla/5.0 (Windows NT 10.0; Win64; x64) AppleWebKit/537.36 (KHTML, like Gecko) Chrome/138.0.0.0 Safari/537.36 Edg/138.0.0.0","WebKit","Edge","138.0.0.0","Windows","10.0","https://app.prolific.com/","pt-PT,pt;q=0.9,en-US;q=0.8,en;q=0.7","6523351ec0163b9e739d13ab","687a19d2168e237449fb8af4","6889d9ddef8c89a298a64b98","0","6523351ec0163b9e739d13ab","0","2025-07-30T08:47:25.208Z","","","","ControlQ","","","","","","","","","","","50","","","","","","","","","","","","","","","","","","","","","","","","","","",""
"2023","","<div style=""width:500px;"">
  <p>How would you describe your current emotional state?</p>
  </div>","58","html-slider-response","21","433381","0.0-7.0-3.1","23","1","2025-07-30 08:40:12","36c45c0696341be0efffe67d72a12abb","83.240.176.93","Mozilla/5.0 (Windows NT 10.0; Win64; x64) AppleWebKit/537.36 (KHTML, like Gecko) Chrome/138.0.0.0 Safari/537.36 Edg/138.0.0.0","WebKit","Edge","138.0.0.0","Windows","10.0","https://app.prolific.com/","pt-PT,pt;q=0.9,en-US;q=0.8,en;q=0.7","6523351ec0163b9e739d13ab","687a19d2168e237449fb8af4","6889d9ddef8c89a298a64b98","0","6523351ec0163b9e739d13ab","0","2025-07-30T08:47:27.232Z","","","","StressQ","","","","","","","","","","","50","","","","","","","","","","","","","","","","","","","","","","","","","","",""
"2231","","<div style=""width:500px;"">
  <p>What best describes how you currently feel?</p>
  </div>","69","html-slider-response","22","435604","0.0-7.0-4.1","23","1","2025-07-30 08:40:12","36c45c0696341be0efffe67d72a12abb","83.240.176.93","Mozilla/5.0 (Windows NT 10.0; Win64; x64) AppleWebKit/537.36 (KHTML, like Gecko) Chrome/138.0.0.0 Safari/537.36 Edg/138.0.0.0","WebKit","Edge","138.0.0.0","Windows","10.0","https://app.prolific.com/","pt-PT,pt;q=0.9,en-US;q=0.8,en;q=0.7","6523351ec0163b9e739d13ab","687a19d2168e237449fb8af4","6889d9ddef8c89a298a64b98","0","6523351ec0163b9e739d13ab","0","2025-07-30T08:47:29.455Z","","","","MotivationQ","","","","","","","","","","","50","","","","","","","","","","","","","","","","","","","","","","","","","","",""
"","","","","ctl-task-cpt","23","459565","0.0-7.0-0.2","23","1","2025-07-30 08:40:12","36c45c0696341be0efffe67d72a12abb","83.240.176.93","Mozilla/5.0 (Windows NT 10.0; Win64; x64) AppleWebKit/537.36 (KHTML, like Gecko) Chrome/138.0.0.0 Safari/537.36 Edg/138.0.0.0","WebKit","Edge","138.0.0.0","Windows","10.0","https://app.prolific.com/","pt-PT,pt;q=0.9,en-US;q=0.8,en;q=0.7","6523351ec0163b9e739d13ab","687a19d2168e237449fb8af4","6889d9ddef8c89a298a64b98","0","6523351ec0163b9e739d13ab","0","2025-07-30T08:47:53.416Z","","","","","","","","","","","","","","","","win-only","1","g1:NE,g2:SW","0.8","3","0","437014.2","2216.1","7220.6","20941.7","1","4","8","6","1","1","1","13","12","0.09848484848484848","2727.7","3000","1535","[""up"",""right""]","{""num_key_presses"":4,""num_perfect"":4,""num_errors"":0,""num_randdir"":0,""num_randdir_good_moves"":0,""num_whilered"":0,""num_whileblue"":0,""num_blue"":1,""num_good_moves"":4}","[355.93660714285716,365.84285714285716,0.3,355.93660714285716,365.84285714285716,100.8,355.93660714285716,365.84285714285716,204.2,355.93660714285716,365.84285714285716,304.4,355.93660714285716,365.84285714285716,405.2,355.93660714285716,365.84285714285716,509.6,355.93660714285716,365.84285714285716,610.8,355.93660714285716,365.84285714285716,714.4,355.93660714285716,365.84285714285716,815.2,297.93660714285716,421.84285714285716,919.6,199.93660714285716,511.84285714285716,1025,125.93660714285714,611.8428571428572,1129.5,112.93660714285714,633.8428571428572,1235.2,107.93660714285714,637.8428571428572,1339.4,107.93660714285714,637.8428571428572,1445.1,107.93660714285714,637.8428571428572,1549.8,317.93660714285716,458.84285714285716,1655.5,571.9366071428572,107.84285714285714,1760.7,620.9366071428572,26.84285714285714,1865,635.9366071428572,12.842857142857142,1969.3,649.9366071428572,27.84285714285714,2069.5,650.9366071428572,32.84285714285714,2170.7,650.9366071428572,37.84285714285714,2274.7,650.9366071428572,44.84285714285714,2375.1,650.9366071428572,48.84285714285714,2480.7,650.9366071428572,49.84285714285714,2584.5,650.9366071428572,49.84285714285714,2684.5,650.9366071428572,49.84285714285714,2785,650.9366071428572,49.84285714285714,2889.4,650.9366071428572,49.84285714285714,2994.2,650.9366071428572,49.84285714285714,3094.8,656.9366071428572,69.84285714285714,3194.8,657.9366071428572,72.84285714285714,3295.1,657.9366071428572,72.84285714285714,3399.6,657.9366071428572,72.84285714285714,3500,657.9366071428572,72.84285714285714,3604.5,657.9366071428572,72.84285714285714,3709.7,657.9366071428572,72.84285714285714,3814.3,657.9366071428572,72.84285714285714,3914.5,657.9366071428572,72.84285714285714,4014.5,657.9366071428572,72.84285714285714,4114.5,657.9366071428572,72.84285714285714,4220.7,657.9366071428572,72.84285714285714,4324.8,657.9366071428572,72.84285714285714,4424.9,657.9366071428572,72.84285714285714,4530.7,657.9366071428572,72.84285714285714,4634.5,657.9366071428572,72.84285714285714,4739.3,657.9366071428572,72.84285714285714,4845.1,657.9366071428572,72.84285714285714,4949.7]","[1378.3,1378.3,1000,0,378.3,""smooth"",""up"",""up"",""good_move"",3762.1,2383.6,2015.7,1378.5,367.9,""smooth"",""right"",""right"",""good_move"",6898.4,3136.1,2753,3762.3,383.1,""smooth"",""up"",""up"",""good_move"",13633.9,6735.3,2937.9,10334.6,361.4,""smooth"",""right"",""right"",""good_move""]"
"2182","","<div style=""width:500px;"">
  <p>What determined the result of this run?</p>
  </div>","100","html-slider-response","24","461748","0.0-7.0-1.2","23","1","2025-07-30 08:40:12","36c45c0696341be0efffe67d72a12abb","83.240.176.93","Mozilla/5.0 (Windows NT 10.0; Win64; x64) AppleWebKit/537.36 (KHTML, like Gecko) Chrome/138.0.0.0 Safari/537.36 Edg/138.0.0.0","WebKit","Edge","138.0.0.0","Windows","10.0","https://app.prolific.com/","pt-PT,pt;q=0.9,en-US;q=0.8,en;q=0.7","6523351ec0163b9e739d13ab","687a19d2168e237449fb8af4","6889d9ddef8c89a298a64b98","0","6523351ec0163b9e739d13ab","0","2025-07-30T08:47:55.599Z","","","","AttribQ","","","","","","","","","","","50","","","","","","","","","","","","","","","","","","","","","","","","","","",""
"1655","","<div style=""width:500px;"">
  <p>How much control did you have over the ball?</p>
  </div>","100","html-slider-response","25","463404","0.0-7.0-2.2","23","1","2025-07-30 08:40:12","36c45c0696341be0efffe67d72a12abb","83.240.176.93","Mozilla/5.0 (Windows NT 10.0; Win64; x64) AppleWebKit/537.36 (KHTML, like Gecko) Chrome/138.0.0.0 Safari/537.36 Edg/138.0.0.0","WebKit","Edge","138.0.0.0","Windows","10.0","https://app.prolific.com/","pt-PT,pt;q=0.9,en-US;q=0.8,en;q=0.7","6523351ec0163b9e739d13ab","687a19d2168e237449fb8af4","6889d9ddef8c89a298a64b98","0","6523351ec0163b9e739d13ab","0","2025-07-30T08:47:57.255Z","","","","ControlQ","","","","","","","","","","","50","","","","","","","","","","","","","","","","","","","","","","","","","","",""
"2240","","<div style=""width:500px;"">
  <p>How would you describe your current emotional state?</p>
  </div>","39","html-slider-response","26","465645","0.0-7.0-3.2","23","1","2025-07-30 08:40:12","36c45c0696341be0efffe67d72a12abb","83.240.176.93","Mozilla/5.0 (Windows NT 10.0; Win64; x64) AppleWebKit/537.36 (KHTML, like Gecko) Chrome/138.0.0.0 Safari/537.36 Edg/138.0.0.0","WebKit","Edge","138.0.0.0","Windows","10.0","https://app.prolific.com/","pt-PT,pt;q=0.9,en-US;q=0.8,en;q=0.7","6523351ec0163b9e739d13ab","687a19d2168e237449fb8af4","6889d9ddef8c89a298a64b98","0","6523351ec0163b9e739d13ab","0","2025-07-30T08:47:59.496Z","","","","StressQ","","","","","","","","","","","50","","","","","","","","","","","","","","","","","","","","","","","","","","",""
"2039","","<div style=""width:500px;"">
  <p>What best describes how you currently feel?</p>
  </div>","73","html-slider-response","27","467684","0.0-7.0-4.2","23","1","2025-07-30 08:40:12","36c45c0696341be0efffe67d72a12abb","83.240.176.93","Mozilla/5.0 (Windows NT 10.0; Win64; x64) AppleWebKit/537.36 (KHTML, like Gecko) Chrome/138.0.0.0 Safari/537.36 Edg/138.0.0.0","WebKit","Edge","138.0.0.0","Windows","10.0","https://app.prolific.com/","pt-PT,pt;q=0.9,en-US;q=0.8,en;q=0.7","6523351ec0163b9e739d13ab","687a19d2168e237449fb8af4","6889d9ddef8c89a298a64b98","0","6523351ec0163b9e739d13ab","0","2025-07-30T08:48:01.535Z","","","","MotivationQ","","","","","","","","","","","50","","","","","","","","","","","","","","","","","","","","","","","","","","",""
"","","","","ctl-task-cpt","28","507727","0.0-7.0-0.3","23","1","2025-07-30 08:40:12","36c45c0696341be0efffe67d72a12abb","83.240.176.93","Mozilla/5.0 (Windows NT 10.0; Win64; x64) AppleWebKit/537.36 (KHTML, like Gecko) Chrome/138.0.0.0 Safari/537.36 Edg/138.0.0.0","WebKit","Edge","138.0.0.0","Windows","10.0","https://app.prolific.com/","pt-PT,pt;q=0.9,en-US;q=0.8,en;q=0.7","6523351ec0163b9e739d13ab","687a19d2168e237449fb8af4","6889d9ddef8c89a298a64b98","0","6523351ec0163b9e739d13ab","0","2025-07-30T08:48:41.578Z","","","","","","","","","","","","","","","","win-only","1","g1:NE,g2:SW","0.7","4","0","469094.2","904.2","5906.9","37031.7","1","4","4","6","2","4","3","16","13","0.12121212121212122","3528.3","3000","135","[""down"",""left""]","{""num_key_presses"":8,""num_perfect"":5,""num_errors"":1,""num_randdir"":2,""num_randdir_good_moves"":1,""num_whilered"":0,""num_whileblue"":1,""num_blue"":3,""num_good_moves"":7}","[359.93660714285716,358.84285714285716,0.1,359.93660714285716,358.84285714285716,101.4,359.93660714285716,358.84285714285716,207.4,359.93660714285716,358.84285714285716,307.6,311.93660714285716,419.84285714285716,408.3,213.93660714285716,537.8428571428572,511.7,151.93660714285716,611.8428571428572,617.7,119.93660714285714,644.8428571428572,721.5,114.93660714285714,649.8428571428572,826.7,112.93660714285714,649.8428571428572,931.8,109.93660714285714,649.8428571428572,1031.8,109.93660714285714,649.8428571428572,1136.9,109.93660714285714,649.8428571428572,1241.9,97.93660714285714,649.8428571428572,1346.6,97.93660714285714,649.8428571428572,1447.7,97.93660714285714,649.8428571428572,1547.8,97.93660714285714,649.8428571428572,1651.7,97.93660714285714,649.8428571428572,1756.5,97.93660714285714,649.8428571428572,1857.6,97.93660714285714,649.8428571428572,1958.3,97.93660714285714,649.8428571428572,2061.7,97.93660714285714,649.8428571428572,2166.5,97.93660714285714,649.8428571428572,2266.5,97.93660714285714,649.8428571428572,2366.6,97.93660714285714,649.8428571428572,2467.6,97.93660714285714,649.8428571428572,2571.3,97.93660714285714,649.8428571428572,2671.4,97.93660714285714,649.8428571428572,2771.4,97.93660714285714,649.8428571428572,2871.4,97.93660714285714,649.8428571428572,2977.8,97.93660714285714,649.8428571428572,3081.3,97.93660714285714,649.8428571428572,3187.1,97.93660714285714,649.8428571428572,3291.2,97.93660714285714,649.8428571428572,3393.3,97.93660714285714,649.8428571428572,3496.6,97.93660714285714,649.8428571428572,3596.6,97.93660714285714,649.8428571428572,3697.7,97.93660714285714,649.8428571428572,3797.8,97.93660714285714,649.8428571428572,3897.8,97.93660714285714,649.8428571428572,3997.8,97.93660714285714,649.8428571428572,4097.8,97.93660714285714,649.8428571428572,4201.2,97.93660714285714,649.8428571428572,4301.4,97.93660714285714,649.8428571428572,4407.3,97.93660714285714,649.8428571428572,4511.8,97.93660714285714,649.8428571428572,4616.6,97.93660714285714,649.8428571428572,4721.1,97.93660714285714,649.8428571428572,4821.4,97.93660714285714,649.8428571428572,4921.4]","[1443.7,1443.7,1000,0,443.7,""smooth"",""left"",""left"",""good_move"",8291.5,6847.5,2436.2,5428.4,426.9,""smooth"",""down"",""down"",""good_move"",11539.7,3248,2864.4,8291.7,383.6,""oops"",""left"",""up"",""bad_move"",15251.5,3711.6,3365.1,11539.9,346.5,""smooth"",""down"",""down"",""good_move"",22419.8,7168.3,2816.2,19103.4,500.2,""smooth"",""left"",""left"",""good_move"",25995.7,3575.8,3263.6,22420,312.1,""while_blue"",""left"",""left"",""good_move"",28259.5,2263.5,1763,25996,500.5,""oops"",""down"",""down"",""good_move"",31036.2,2776.6,2470.3,28259.6,306.3,""smooth"",""down"",""down"",""good_move""]"
"2506","","<div style=""width:500px;"">
  <p>What determined the result of this run?</p>
  </div>","44","html-slider-response","29","510236","0.0-7.0-1.3","23","1","2025-07-30 08:40:12","36c45c0696341be0efffe67d72a12abb","83.240.176.93","Mozilla/5.0 (Windows NT 10.0; Win64; x64) AppleWebKit/537.36 (KHTML, like Gecko) Chrome/138.0.0.0 Safari/537.36 Edg/138.0.0.0","WebKit","Edge","138.0.0.0","Windows","10.0","https://app.prolific.com/","pt-PT,pt;q=0.9,en-US;q=0.8,en;q=0.7","6523351ec0163b9e739d13ab","687a19d2168e237449fb8af4","6889d9ddef8c89a298a64b98","0","6523351ec0163b9e739d13ab","0","2025-07-30T08:48:44.087Z","","","","AttribQ","","","","","","","","","","","50","","","","","","","","","","","","","","","","","","","","","","","","","","",""
"1671","","<div style=""width:500px;"">
  <p>How much control did you have over the ball?</p>
  </div>","65","html-slider-response","30","511907","0.0-7.0-2.3","23","1","2025-07-30 08:40:12","36c45c0696341be0efffe67d72a12abb","83.240.176.93","Mozilla/5.0 (Windows NT 10.0; Win64; x64) AppleWebKit/537.36 (KHTML, like Gecko) Chrome/138.0.0.0 Safari/537.36 Edg/138.0.0.0","WebKit","Edge","138.0.0.0","Windows","10.0","https://app.prolific.com/","pt-PT,pt;q=0.9,en-US;q=0.8,en;q=0.7","6523351ec0163b9e739d13ab","687a19d2168e237449fb8af4","6889d9ddef8c89a298a64b98","0","6523351ec0163b9e739d13ab","0","2025-07-30T08:48:45.759Z","","","","ControlQ","","","","","","","","","","","50","","","","","","","","","","","","","","","","","","","","","","","","","","",""
"1823","","<div style=""width:500px;"">
  <p>How would you describe your current emotional state?</p>
  </div>","55","html-slider-response","31","513732","0.0-7.0-3.3","23","1","2025-07-30 08:40:12","36c45c0696341be0efffe67d72a12abb","83.240.176.93","Mozilla/5.0 (Windows NT 10.0; Win64; x64) AppleWebKit/537.36 (KHTML, like Gecko) Chrome/138.0.0.0 Safari/537.36 Edg/138.0.0.0","WebKit","Edge","138.0.0.0","Windows","10.0","https://app.prolific.com/","pt-PT,pt;q=0.9,en-US;q=0.8,en;q=0.7","6523351ec0163b9e739d13ab","687a19d2168e237449fb8af4","6889d9ddef8c89a298a64b98","0","6523351ec0163b9e739d13ab","0","2025-07-30T08:48:47.583Z","","","","StressQ","","","","","","","","","","","50","","","","","","","","","","","","","","","","","","","","","","","","","","",""
"3799","","<div style=""width:500px;"">
  <p>What best describes how you currently feel?</p>
  </div>","68","html-slider-response","32","517532","0.0-7.0-4.3","23","1","2025-07-30 08:40:12","36c45c0696341be0efffe67d72a12abb","83.240.176.93","Mozilla/5.0 (Windows NT 10.0; Win64; x64) AppleWebKit/537.36 (KHTML, like Gecko) Chrome/138.0.0.0 Safari/537.36 Edg/138.0.0.0","WebKit","Edge","138.0.0.0","Windows","10.0","https://app.prolific.com/","pt-PT,pt;q=0.9,en-US;q=0.8,en;q=0.7","6523351ec0163b9e739d13ab","687a19d2168e237449fb8af4","6889d9ddef8c89a298a64b98","0","6523351ec0163b9e739d13ab","0","2025-07-30T08:48:51.383Z","","","","MotivationQ","","","","","","","","","","","50","","","","","","","","","","","","","","","","","","","","","","","","","","",""
"","","","","ctl-task-cpt","33","551767","0.0-7.0-0.4","23","1","2025-07-30 08:40:12","36c45c0696341be0efffe67d72a12abb","83.240.176.93","Mozilla/5.0 (Windows NT 10.0; Win64; x64) AppleWebKit/537.36 (KHTML, like Gecko) Chrome/138.0.0.0 Safari/537.36 Edg/138.0.0.0","WebKit","Edge","138.0.0.0","Windows","10.0","https://app.prolific.com/","pt-PT,pt;q=0.9,en-US;q=0.8,en;q=0.7","6523351ec0163b9e739d13ab","687a19d2168e237449fb8af4","6889d9ddef8c89a298a64b98","0","6523351ec0163b9e739d13ab","0","2025-07-30T08:49:25.618Z","","","","","","","","","","","","","","","","win-only","2","g1:SE,g2:NW","0.6","5","0","518950.3","919.9","5921.5","31215.3","1","4","4","6","1","-1","-1","15","16","0.11363636363636363","3344.2","3000","-3015","[""down"",""right""]","{""num_key_presses"":7,""num_perfect"":4,""num_errors"":0,""num_randdir"":3,""num_randdir_good_moves"":1,""num_whilered"":0,""num_whileblue"":0,""num_blue"":1,""num_good_moves"":5}","[350.93660714285716,359.84285714285716,0.1,350.93660714285716,359.84285714285716,100.4,350.93660714285716,359.84285714285716,201.1,347.93660714285716,366.84285714285716,306.2,347.93660714285716,379.84285714285716,410.5,347.93660714285716,392.84285714285716,511.2,309.93660714285716,401.84285714285716,616.1,282.93660714285716,360.84285714285716,720.5,234.93660714285716,295.84285714285716,822.9,150.93660714285716,207.84285714285716,925.6,99.93660714285714,155.84285714285716,1026.1,61.93660714285714,97.84285714285714,1130.9,50.93660714285714,77.84285714285714,1236,50.93660714285714,74.84285714285714,1337.3,50.93660714285714,74.84285714285714,1441.3,50.93660714285714,74.84285714285714,1545.4,50.93660714285714,74.84285714285714,1645.7,50.93660714285714,74.84285714285714,1747.2,50.93660714285714,74.84285714285714,1850.6,50.93660714285714,74.84285714285714,1950.8,156.93660714285716,234.84285714285716,2057.4,633.9366071428572,597.8428571428572,2161.4,685.9366071428572,628.8428571428572,2266.3,688.9366071428572,653.8428571428572,2367.6,689.9366071428572,667.8428571428572,2471.1,689.9366071428572,668.8428571428572,2571.3,687.9366071428572,667.8428571428572,2672.9,687.9366071428572,667.8428571428572,2775.4,687.9366071428572,667.8428571428572,2876.1,687.9366071428572,667.8428571428572,2976.5,687.9366071428572,667.8428571428572,3080.5,687.9366071428572,667.8428571428572,3181,687.9366071428572,667.8428571428572,3285.4,687.9366071428572,667.8428571428572,3387.3,687.9366071428572,667.8428571428572,3491,687.9366071428572,667.8428571428572,3596.9,687.9366071428572,667.8428571428572,3701,689.9366071428572,676.8428571428572,3806.5,689.9366071428572,676.8428571428572,3910.5,704.9366071428572,679.8428571428572,4010.7,709.9366071428572,679.8428571428572,4115.5,709.9366071428572,679.8428571428572,4216.1,717.9366071428572,679.8428571428572,4316.2,755.9366071428572,674.8428571428572,4416.4,755.9366071428572,674.8428571428572,4516.4,755.9366071428572,674.8428571428572,4621.6,755.9366071428572,674.8428571428572,4726.3,755.9366071428572,674.8428571428572,4826.3,755.9366071428572,674.8428571428572,4930.5]","[1373,1373,1000,0.1,372.9,""oops"",""down"",""left"",""bad_move"",3637.2,2264.1,1900.4,1373.2,363.6,""oops"",""right"",""up"",""bad_move"",6708.8,3071.5,2682.5,3637.3,389,""smooth"",""down"",""down"",""good_move"",13341,6632.1,2783.1,10198.6,359.3,""smooth"",""right"",""right"",""good_move"",16704.9,3363.8,2965.8,13341.1,398,""oops"",""down"",""right"",""good_move"",19356.8,2651.9,2055.1,16704.9,596.8,""smooth"",""right"",""right"",""good_move"",22300.9,2944,2631.7,19356.9,312.3,""smooth"",""down"",""down"",""good_move""]"
"2506","","<div style=""width:500px;"">
  <p>What determined the result of this run?</p>
  </div>","0","html-slider-response","34","554276","0.0-7.0-1.4","23","1","2025-07-30 08:40:12","36c45c0696341be0efffe67d72a12abb","83.240.176.93","Mozilla/5.0 (Windows NT 10.0; Win64; x64) AppleWebKit/537.36 (KHTML, like Gecko) Chrome/138.0.0.0 Safari/537.36 Edg/138.0.0.0","WebKit","Edge","138.0.0.0","Windows","10.0","https://app.prolific.com/","pt-PT,pt;q=0.9,en-US;q=0.8,en;q=0.7","6523351ec0163b9e739d13ab","687a19d2168e237449fb8af4","6889d9ddef8c89a298a64b98","0","6523351ec0163b9e739d13ab","0","2025-07-30T08:49:28.127Z","","","","AttribQ","","","","","","","","","","","50","","","","","","","","","","","","","","","","","","","","","","","","","","",""
"3359","","<div style=""width:500px;"">
  <p>How much control did you have over the ball?</p>
  </div>","11","html-slider-response","35","557630","0.0-7.0-2.4","23","1","2025-07-30 08:40:12","36c45c0696341be0efffe67d72a12abb","83.240.176.93","Mozilla/5.0 (Windows NT 10.0; Win64; x64) AppleWebKit/537.36 (KHTML, like Gecko) Chrome/138.0.0.0 Safari/537.36 Edg/138.0.0.0","WebKit","Edge","138.0.0.0","Windows","10.0","https://app.prolific.com/","pt-PT,pt;q=0.9,en-US;q=0.8,en;q=0.7","6523351ec0163b9e739d13ab","687a19d2168e237449fb8af4","6889d9ddef8c89a298a64b98","0","6523351ec0163b9e739d13ab","0","2025-07-30T08:49:31.481Z","","","","ControlQ","","","","","","","","","","","50","","","","","","","","","","","","","","","","","","","","","","","","","","",""
"1431","","<div style=""width:500px;"">
  <p>How would you describe your current emotional state?</p>
  </div>","50","html-slider-response","36","559062","0.0-7.0-3.4","23","1","2025-07-30 08:40:12","36c45c0696341be0efffe67d72a12abb","83.240.176.93","Mozilla/5.0 (Windows NT 10.0; Win64; x64) AppleWebKit/537.36 (KHTML, like Gecko) Chrome/138.0.0.0 Safari/537.36 Edg/138.0.0.0","WebKit","Edge","138.0.0.0","Windows","10.0","https://app.prolific.com/","pt-PT,pt;q=0.9,en-US;q=0.8,en;q=0.7","6523351ec0163b9e739d13ab","687a19d2168e237449fb8af4","6889d9ddef8c89a298a64b98","0","6523351ec0163b9e739d13ab","0","2025-07-30T08:49:32.913Z","","","","StressQ","","","","","","","","","","","50","","","","","","","","","","","","","","","","","","","","","","","","","","",""
"1480","","<div style=""width:500px;"">
  <p>What best describes how you currently feel?</p>
  </div>","50","html-slider-response","37","560542","0.0-7.0-4.4","23","1","2025-07-30 08:40:12","36c45c0696341be0efffe67d72a12abb","83.240.176.93","Mozilla/5.0 (Windows NT 10.0; Win64; x64) AppleWebKit/537.36 (KHTML, like Gecko) Chrome/138.0.0.0 Safari/537.36 Edg/138.0.0.0","WebKit","Edge","138.0.0.0","Windows","10.0","https://app.prolific.com/","pt-PT,pt;q=0.9,en-US;q=0.8,en;q=0.7","6523351ec0163b9e739d13ab","687a19d2168e237449fb8af4","6889d9ddef8c89a298a64b98","0","6523351ec0163b9e739d13ab","0","2025-07-30T08:49:34.393Z","","","","MotivationQ","","","","","","","","","","","50","","","","","","","","","","","","","","","","","","","","","","","","","","",""
"","","","","ctl-task-cpt","38","605341","0.0-7.0-0.5","23","1","2025-07-30 08:40:12","36c45c0696341be0efffe67d72a12abb","83.240.176.93","Mozilla/5.0 (Windows NT 10.0; Win64; x64) AppleWebKit/537.36 (KHTML, like Gecko) Chrome/138.0.0.0 Safari/537.36 Edg/138.0.0.0","WebKit","Edge","138.0.0.0","Windows","10.0","https://app.prolific.com/","pt-PT,pt;q=0.9,en-US;q=0.8,en;q=0.7","6523351ec0163b9e739d13ab","687a19d2168e237449fb8af4","6889d9ddef8c89a298a64b98","0","6523351ec0163b9e739d13ab","0","2025-07-30T08:50:19.192Z","","","","","","","","","","","","","","","","win-only","3","g1:SW,g2:NE","0.5","6","0","561966.5","21080.4","26081.2","41776.1","1","4","8","6","1","1","1","16","15","0.12121212121212122","3615","3000","660","[""down"",""left""]","{""num_key_presses"":6,""num_perfect"":4,""num_errors"":0,""num_randdir"":2,""num_randdir_good_moves"":1,""num_whilered"":0,""num_whileblue"":0,""num_blue"":0,""num_good_moves"":5}","[355.93660714285716,355.84285714285716,0.1,355.93660714285716,355.84285714285716,100.8,355.93660714285716,355.84285714285716,205.2,355.93660714285716,355.84285714285716,309.9,355.93660714285716,355.84285714285716,410.3,355.93660714285716,355.84285714285716,526.9,355.93660714285716,355.84285714285716,629.8,355.93660714285716,355.84285714285716,730.8,379.93660714285716,344.84285714285716,832,379.93660714285716,344.84285714285716,934.7,377.93660714285716,345.84285714285716,1034.8,349.93660714285716,384.84285714285716,1135.6,342.93660714285716,388.84285714285716,1235.7,342.93660714285716,388.84285714285716,1340.2,342.93660714285716,388.84285714285716,1446,256.93660714285716,441.84285714285716,1550.2,20.93660714285714,613.8428571428572,1654.7,-6.063392857142858,669.8428571428572,1755.8,-6.063392857142858,669.8428571428572,1860.8,-6.063392857142858,669.8428571428572,1965.5,-0.06339285714285836,674.8428571428572,2066.3,11.936607142857142,674.8428571428572,2169.9,11.936607142857142,674.8428571428572,2269.9,13.936607142857142,674.8428571428572,2370.7,22.93660714285714,668.8428571428572,2476.3,22.93660714285714,668.8428571428572,2579.9,22.93660714285714,668.8428571428572,2680.2,22.93660714285714,668.8428571428572,2780.2,22.93660714285714,668.8428571428572,2886.1,22.93660714285714,668.8428571428572,2990.7,22.93660714285714,668.8428571428572,3095.3,22.93660714285714,668.8428571428572,3200.4,22.93660714285714,668.8428571428572,3301.3,22.93660714285714,668.8428571428572,3405.4,22.93660714285714,668.8428571428572,3510,22.93660714285714,668.8428571428572,3627.1,22.93660714285714,668.8428571428572,3732.4,22.93660714285714,668.8428571428572,3835,22.93660714285714,668.8428571428572,3935.5,22.93660714285714,668.8428571428572,4040.3,22.93660714285714,668.8428571428572,4140.5,22.93660714285714,668.8428571428572,4246.7,22.93660714285714,668.8428571428572,4350.8,22.93660714285714,668.8428571428572,4455.5,22.93660714285714,668.8428571428572,4560.4,22.93660714285714,668.8428571428572,4665.1,22.93660714285714,668.8428571428572,4765.1,22.93660714285714,668.8428571428572,4865.5,22.93660714285714,668.8428571428572,4966.5]","[1469,1469,1000,0,469,""smooth"",""down"",""down"",""good_move"",4812.9,3343.6,2931.2,1469.3,412.4,""smooth"",""down"",""down"",""good_move"",7285.3,2472.3,2132.9,4813,339.4,""oops"",""left"",""left"",""good_move"",9597.1,2311.7,1957.2,7285.4,354.5,""oops"",""left"",""up"",""bad_move"",12900.8,3303.6,2824.9,9597.2,478.7,""smooth"",""left"",""left"",""good_move"",15597.1,2696.1,2371.7,12901,324.4,""smooth"",""down"",""down"",""good_move""]"
"2982","","<div style=""width:500px;"">
  <p>What determined the result of this run?</p>
  </div>","90","html-slider-response","39","608326","0.0-7.0-1.5","23","1","2025-07-30 08:40:12","36c45c0696341be0efffe67d72a12abb","83.240.176.93","Mozilla/5.0 (Windows NT 10.0; Win64; x64) AppleWebKit/537.36 (KHTML, like Gecko) Chrome/138.0.0.0 Safari/537.36 Edg/138.0.0.0","WebKit","Edge","138.0.0.0","Windows","10.0","https://app.prolific.com/","pt-PT,pt;q=0.9,en-US;q=0.8,en;q=0.7","6523351ec0163b9e739d13ab","687a19d2168e237449fb8af4","6889d9ddef8c89a298a64b98","0","6523351ec0163b9e739d13ab","0","2025-07-30T08:50:22.177Z","","","","AttribQ","","","","","","","","","","","50","","","","","","","","","","","","","","","","","","","","","","","","","","",""
"1631","","<div style=""width:500px;"">
  <p>How much control did you have over the ball?</p>
  </div>","92","html-slider-response","40","609958","0.0-7.0-2.5","23","1","2025-07-30 08:40:12","36c45c0696341be0efffe67d72a12abb","83.240.176.93","Mozilla/5.0 (Windows NT 10.0; Win64; x64) AppleWebKit/537.36 (KHTML, like Gecko) Chrome/138.0.0.0 Safari/537.36 Edg/138.0.0.0","WebKit","Edge","138.0.0.0","Windows","10.0","https://app.prolific.com/","pt-PT,pt;q=0.9,en-US;q=0.8,en;q=0.7","6523351ec0163b9e739d13ab","687a19d2168e237449fb8af4","6889d9ddef8c89a298a64b98","0","6523351ec0163b9e739d13ab","0","2025-07-30T08:50:23.809Z","","","","ControlQ","","","","","","","","","","","50","","","","","","","","","","","","","","","","","","","","","","","","","","",""
"3895","","<div style=""width:500px;"">
  <p>How would you describe your current emotional state?</p>
  </div>","41","html-slider-response","41","613854","0.0-7.0-3.5","23","1","2025-07-30 08:40:12","36c45c0696341be0efffe67d72a12abb","83.240.176.93","Mozilla/5.0 (Windows NT 10.0; Win64; x64) AppleWebKit/537.36 (KHTML, like Gecko) Chrome/138.0.0.0 Safari/537.36 Edg/138.0.0.0","WebKit","Edge","138.0.0.0","Windows","10.0","https://app.prolific.com/","pt-PT,pt;q=0.9,en-US;q=0.8,en;q=0.7","6523351ec0163b9e739d13ab","687a19d2168e237449fb8af4","6889d9ddef8c89a298a64b98","0","6523351ec0163b9e739d13ab","0","2025-07-30T08:50:27.705Z","","","","StressQ","","","","","","","","","","","50","","","","","","","","","","","","","","","","","","","","","","","","","","",""
"2168","","<div style=""width:500px;"">
  <p>What best describes how you currently feel?</p>
  </div>","50","html-slider-response","42","616022","0.0-7.0-4.5","23","1","2025-07-30 08:40:12","36c45c0696341be0efffe67d72a12abb","83.240.176.93","Mozilla/5.0 (Windows NT 10.0; Win64; x64) AppleWebKit/537.36 (KHTML, like Gecko) Chrome/138.0.0.0 Safari/537.36 Edg/138.0.0.0","WebKit","Edge","138.0.0.0","Windows","10.0","https://app.prolific.com/","pt-PT,pt;q=0.9,en-US;q=0.8,en;q=0.7","6523351ec0163b9e739d13ab","687a19d2168e237449fb8af4","6889d9ddef8c89a298a64b98","0","6523351ec0163b9e739d13ab","0","2025-07-30T08:50:29.873Z","","","","MotivationQ","","","","","","","","","","","50","","","","","","","","","","","","","","","","","","","","","","","","","","",""
"","","","","ctl-task-cpt","43","653856","0.0-7.0-0.6","23","1","2025-07-30 08:40:12","36c45c0696341be0efffe67d72a12abb","83.240.176.93","Mozilla/5.0 (Windows NT 10.0; Win64; x64) AppleWebKit/537.36 (KHTML, like Gecko) Chrome/138.0.0.0 Safari/537.36 Edg/138.0.0.0","WebKit","Edge","138.0.0.0","Windows","10.0","https://app.prolific.com/","pt-PT,pt;q=0.9,en-US;q=0.8,en;q=0.7","6523351ec0163b9e739d13ab","687a19d2168e237449fb8af4","6889d9ddef8c89a298a64b98","0","6523351ec0163b9e739d13ab","0","2025-07-30T08:51:07.707Z","","","","","","","","","","","","","","","","win-only","3","g1:SW,g2:NE","0.4","7","0","617446.2","952","5956.7","34815.5","1","4","8","6","1","-1","-1","15","16","0.11363636363636363","2777.5","3000","-2965","[""down"",""left""]","{""num_key_presses"":7,""num_perfect"":4,""num_errors"":0,""num_randdir"":3,""num_randdir_good_moves"":0,""num_whilered"":0,""num_whileblue"":0,""num_blue"":2,""num_good_moves"":4}","[355.93660714285716,353.84285714285716,0.2,355.93660714285716,353.84285714285716,103.4,355.93660714285716,353.84285714285716,204.3,355.93660714285716,353.84285714285716,304.5,355.93660714285716,353.84285714285716,409.7,355.93660714285716,353.84285714285716,516.9,355.93660714285716,353.84285714285716,618.9,355.93660714285716,353.84285714285716,723.8,348.93660714285716,380.84285714285716,824.3,319.93660714285716,429.84285714285716,924.3,256.93660714285716,488.84285714285716,1029,143.93660714285716,557.8428571428572,1129.5,87.93660714285714,604.8428571428572,1233.8,65.93660714285714,637.8428571428572,1339.7,52.93660714285714,666.8428571428572,1443.3,52.93660714285714,666.8428571428572,1543.4,52.93660714285714,666.8428571428572,1643.4,52.93660714285714,666.8428571428572,1743.7,52.93660714285714,666.8428571428572,1843.7,52.93660714285714,666.8428571428572,1946.7,52.93660714285714,666.8428571428572,2048.9,52.93660714285714,666.8428571428572,2153.9,52.93660714285714,666.8428571428572,2254.4,52.93660714285714,666.8428571428572,2359.6,52.93660714285714,666.8428571428572,2463.7,52.93660714285714,666.8428571428572,2564.4,52.93660714285714,666.8428571428572,2664.5,52.93660714285714,666.8428571428572,2768.7,52.93660714285714,666.8428571428572,2869.7,52.93660714285714,666.8428571428572,2974.4,52.93660714285714,666.8428571428572,3080.8,52.93660714285714,666.8428571428572,3184.4,52.93660714285714,666.8428571428572,3289.5,52.93660714285714,666.8428571428572,3393.9,52.93660714285714,666.8428571428572,3498.6,52.93660714285714,666.8428571428572,3598.7,52.93660714285714,666.8428571428572,3698.7,52.93660714285714,666.8428571428572,3799.5,52.93660714285714,666.8428571428572,3904.8,52.93660714285714,666.8428571428572,4008.8,52.93660714285714,666.8428571428572,4109.6,52.93660714285714,666.8428571428572,4215.2,52.93660714285714,666.8428571428572,4318.7,52.93660714285714,666.8428571428572,4423.5,52.93660714285714,666.8428571428572,4523.8,52.93660714285714,666.8428571428572,4628.7,52.93660714285714,666.8428571428572,4728.8,52.93660714285714,666.8428571428572,4829.5,52.93660714285714,666.8428571428572,4929.5]","[4514,4514,2094.3,2011.3,408.4,""smooth"",""left"",""left"",""good_move"",7771.5,3257.3,2683.5,4514.2,573.8,""smooth"",""down"",""down"",""good_move"",11238.4,3466.8,3088.6,7771.6,378.2,""smooth"",""left"",""left"",""good_move"",18106.6,6868.1,2698.3,15049.7,358.6,""oops"",""down"",""up"",""bad_move"",21113.7,3006.9,2650.2,18106.8,356.7,""oops"",""down"",""right"",""bad_move"",23929.7,2815.9,2316.9,21113.8,499,""oops"",""down"",""right"",""bad_move"",26601.7,2672,2302.5,23929.7,369.5,""smooth"",""down"",""down"",""good_move""]"
"2299","","<div style=""width:500px;"">
  <p>What determined the result of this run?</p>
  </div>","0","html-slider-response","44","656158","0.0-7.0-1.6","23","1","2025-07-30 08:40:12","36c45c0696341be0efffe67d72a12abb","83.240.176.93","Mozilla/5.0 (Windows NT 10.0; Win64; x64) AppleWebKit/537.36 (KHTML, like Gecko) Chrome/138.0.0.0 Safari/537.36 Edg/138.0.0.0","WebKit","Edge","138.0.0.0","Windows","10.0","https://app.prolific.com/","pt-PT,pt;q=0.9,en-US;q=0.8,en;q=0.7","6523351ec0163b9e739d13ab","687a19d2168e237449fb8af4","6889d9ddef8c89a298a64b98","0","6523351ec0163b9e739d13ab","0","2025-07-30T08:51:10.009Z","","","","AttribQ","","","","","","","","","","","50","","","","","","","","","","","","","","","","","","","","","","","","","","",""
"1583","","<div style=""width:500px;"">
  <p>How much control did you have over the ball?</p>
  </div>","0","html-slider-response","45","657742","0.0-7.0-2.6","23","1","2025-07-30 08:40:12","36c45c0696341be0efffe67d72a12abb","83.240.176.93","Mozilla/5.0 (Windows NT 10.0; Win64; x64) AppleWebKit/537.36 (KHTML, like Gecko) Chrome/138.0.0.0 Safari/537.36 Edg/138.0.0.0","WebKit","Edge","138.0.0.0","Windows","10.0","https://app.prolific.com/","pt-PT,pt;q=0.9,en-US;q=0.8,en;q=0.7","6523351ec0163b9e739d13ab","687a19d2168e237449fb8af4","6889d9ddef8c89a298a64b98","0","6523351ec0163b9e739d13ab","0","2025-07-30T08:51:11.593Z","","","","ControlQ","","","","","","","","","","","50","","","","","","","","","","","","","","","","","","","","","","","","","","",""
"3255","","<div style=""width:500px;"">
  <p>How would you describe your current emotional state?</p>
  </div>","34","html-slider-response","46","660998","0.0-7.0-3.6","23","1","2025-07-30 08:40:12","36c45c0696341be0efffe67d72a12abb","83.240.176.93","Mozilla/5.0 (Windows NT 10.0; Win64; x64) AppleWebKit/537.36 (KHTML, like Gecko) Chrome/138.0.0.0 Safari/537.36 Edg/138.0.0.0","WebKit","Edge","138.0.0.0","Windows","10.0","https://app.prolific.com/","pt-PT,pt;q=0.9,en-US;q=0.8,en;q=0.7","6523351ec0163b9e739d13ab","687a19d2168e237449fb8af4","6889d9ddef8c89a298a64b98","0","6523351ec0163b9e739d13ab","0","2025-07-30T08:51:14.849Z","","","","StressQ","","","","","","","","","","","50","","","","","","","","","","","","","","","","","","","","","","","","","","",""
"1895","","<div style=""width:500px;"">
  <p>What best describes how you currently feel?</p>
  </div>","45","html-slider-response","47","662894","0.0-7.0-4.6","23","1","2025-07-30 08:40:12","36c45c0696341be0efffe67d72a12abb","83.240.176.93","Mozilla/5.0 (Windows NT 10.0; Win64; x64) AppleWebKit/537.36 (KHTML, like Gecko) Chrome/138.0.0.0 Safari/537.36 Edg/138.0.0.0","WebKit","Edge","138.0.0.0","Windows","10.0","https://app.prolific.com/","pt-PT,pt;q=0.9,en-US;q=0.8,en;q=0.7","6523351ec0163b9e739d13ab","687a19d2168e237449fb8af4","6889d9ddef8c89a298a64b98","0","6523351ec0163b9e739d13ab","0","2025-07-30T08:51:16.745Z","","","","MotivationQ","","","","","","","","","","","50","","","","","","","","","","","","","","","","","","","","","","","","","","",""
"","","","","ctl-task-cpt","48","692664","0.0-7.0-0.7","23","1","2025-07-30 08:40:12","36c45c0696341be0efffe67d72a12abb","83.240.176.93","Mozilla/5.0 (Windows NT 10.0; Win64; x64) AppleWebKit/537.36 (KHTML, like Gecko) Chrome/138.0.0.0 Safari/537.36 Edg/138.0.0.0","WebKit","Edge","138.0.0.0","Windows","10.0","https://app.prolific.com/","pt-PT,pt;q=0.9,en-US;q=0.8,en;q=0.7","6523351ec0163b9e739d13ab","687a19d2168e237449fb8af4","6889d9ddef8c89a298a64b98","0","6523351ec0163b9e739d13ab","0","2025-07-30T08:51:46.516Z","","","","","","","","","","","","","","","","win-only","3","g1:SW,g2:NE","0.3","8","0","664318.3","831.7","5836.4","26752","1","4","4","6","1","-1","-1","14","15","0.10606060606060606","1560.3","3000","-3015","[""down"",""left""]","{""num_key_presses"":5,""num_perfect"":1,""num_errors"":0,""num_randdir"":4,""num_randdir_good_moves"":2,""num_whilered"":0,""num_whileblue"":0,""num_blue"":1,""num_good_moves"":3}","[365.93660714285716,354.84285714285716,0.2,365.93660714285716,354.84285714285716,104.2,365.93660714285716,354.84285714285716,204.4,365.93660714285716,354.84285714285716,304.7,365.93660714285716,354.84285714285716,408.7,356.93660714285716,370.84285714285716,508.7,351.93660714285716,384.84285714285716,609,348.93660714285716,392.84285714285716,709.1,339.93660714285716,404.84285714285716,814.1,317.93660714285716,421.84285714285716,915.1,275.93660714285716,458.84285714285716,1019.6,163.93660714285716,552.8428571428572,1124.5,113.93660714285714,619.8428571428572,1229.3,104.93660714285714,639.8428571428572,1334.9,95.93660714285714,653.8428571428572,1439.3,93.93660714285714,654.8428571428572,1543.7,93.93660714285714,654.8428571428572,1645,93.93660714285714,654.8428571428572,1746.7,93.93660714285714,654.8428571428572,1849.3,160.93660714285716,656.8428571428572,1949.5,179.93660714285716,647.8428571428572,2050,179.93660714285716,647.8428571428572,2154.2,179.93660714285716,647.8428571428572,2254.6,179.93660714285716,647.8428571428572,2358.7,179.93660714285716,647.8428571428572,2458.9,179.93660714285716,647.8428571428572,2558.9,179.93660714285716,647.8428571428572,2658.9,179.93660714285716,647.8428571428572,2759,179.93660714285716,647.8428571428572,2863.9,179.93660714285716,647.8428571428572,2966,179.93660714285716,647.8428571428572,3070.4,179.93660714285716,647.8428571428572,3174.5,179.93660714285716,647.8428571428572,3278.6,179.93660714285716,647.8428571428572,3381.4,179.93660714285716,647.8428571428572,3482.3,179.93660714285716,647.8428571428572,3583.7,179.93660714285716,647.8428571428572,3688.8,179.93660714285716,647.8428571428572,3789.5,179.93660714285716,647.8428571428572,3894.2,179.93660714285716,647.8428571428572,3999.1,179.93660714285716,647.8428571428572,4099.2,179.93660714285716,647.8428571428572,4199.2,179.93660714285716,647.8428571428572,4299.5,179.93660714285716,647.8428571428572,4400,179.93660714285716,647.8428571428572,4505.3,179.93660714285716,647.8428571428572,4609,179.93660714285716,647.8428571428572,4716.4,179.93660714285716,647.8428571428572,4818.6,179.93660714285716,647.8428571428572,4918.6]","[1642.1,1642.1,1000,0,642.1,""oops"",""down"",""left"",""good_move"",4753.9,3111.6,2530.3,1642.3,581.3,""oops"",""down"",""left"",""good_move"",7618.3,2864.1,2327.2,4754.2,536.9,""oops"",""down"",""right"",""bad_move"",14122.2,6503.7,3117.9,10619.5,384.8,""oops"",""down"",""right"",""bad_move"",17642.2,3519.8,2776.4,14122.4,743.4,""smooth"",""left"",""left"",""good_move""]"
"2267","","<div style=""width:500px;"">
  <p>What determined the result of this run?</p>
  </div>","0","html-slider-response","49","694933","0.0-7.0-1.7","23","1","2025-07-30 08:40:12","36c45c0696341be0efffe67d72a12abb","83.240.176.93","Mozilla/5.0 (Windows NT 10.0; Win64; x64) AppleWebKit/537.36 (KHTML, like Gecko) Chrome/138.0.0.0 Safari/537.36 Edg/138.0.0.0","WebKit","Edge","138.0.0.0","Windows","10.0","https://app.prolific.com/","pt-PT,pt;q=0.9,en-US;q=0.8,en;q=0.7","6523351ec0163b9e739d13ab","687a19d2168e237449fb8af4","6889d9ddef8c89a298a64b98","0","6523351ec0163b9e739d13ab","0","2025-07-30T08:51:48.784Z","","","","AttribQ","","","","","","","","","","","50","","","","","","","","","","","","","","","","","","","","","","","","","","",""
"1674","","<div style=""width:500px;"">
  <p>How much control did you have over the ball?</p>
  </div>","0","html-slider-response","50","696608","0.0-7.0-2.7","23","1","2025-07-30 08:40:12","36c45c0696341be0efffe67d72a12abb","83.240.176.93","Mozilla/5.0 (Windows NT 10.0; Win64; x64) AppleWebKit/537.36 (KHTML, like Gecko) Chrome/138.0.0.0 Safari/537.36 Edg/138.0.0.0","WebKit","Edge","138.0.0.0","Windows","10.0","https://app.prolific.com/","pt-PT,pt;q=0.9,en-US;q=0.8,en;q=0.7","6523351ec0163b9e739d13ab","687a19d2168e237449fb8af4","6889d9ddef8c89a298a64b98","0","6523351ec0163b9e739d13ab","0","2025-07-30T08:51:50.459Z","","","","ControlQ","","","","","","","","","","","50","","","","","","","","","","","","","","","","","","","","","","","","","","",""
"2013","","<div style=""width:500px;"">
  <p>How would you describe your current emotional state?</p>
  </div>","0","html-slider-response","51","698621","0.0-7.0-3.7","23","1","2025-07-30 08:40:12","36c45c0696341be0efffe67d72a12abb","83.240.176.93","Mozilla/5.0 (Windows NT 10.0; Win64; x64) AppleWebKit/537.36 (KHTML, like Gecko) Chrome/138.0.0.0 Safari/537.36 Edg/138.0.0.0","WebKit","Edge","138.0.0.0","Windows","10.0","https://app.prolific.com/","pt-PT,pt;q=0.9,en-US;q=0.8,en;q=0.7","6523351ec0163b9e739d13ab","687a19d2168e237449fb8af4","6889d9ddef8c89a298a64b98","0","6523351ec0163b9e739d13ab","0","2025-07-30T08:51:52.473Z","","","","StressQ","","","","","","","","","","","50","","","","","","","","","","","","","","","","","","","","","","","","","","",""
"2687","","<div style=""width:500px;"">
  <p>What best describes how you currently feel?</p>
  </div>","33","html-slider-response","52","701310","0.0-7.0-4.7","23","1","2025-07-30 08:40:12","36c45c0696341be0efffe67d72a12abb","83.240.176.93","Mozilla/5.0 (Windows NT 10.0; Win64; x64) AppleWebKit/537.36 (KHTML, like Gecko) Chrome/138.0.0.0 Safari/537.36 Edg/138.0.0.0","WebKit","Edge","138.0.0.0","Windows","10.0","https://app.prolific.com/","pt-PT,pt;q=0.9,en-US;q=0.8,en;q=0.7","6523351ec0163b9e739d13ab","687a19d2168e237449fb8af4","6889d9ddef8c89a298a64b98","0","6523351ec0163b9e739d13ab","0","2025-07-30T08:51:55.161Z","","","","MotivationQ","","","","","","","","","","","50","","","","","","","","","","","","","","","","","","","","","","","","","","",""
"","","","","ctl-task-cpt","53","739289","0.0-7.0-0.8","23","1","2025-07-30 08:40:12","36c45c0696341be0efffe67d72a12abb","83.240.176.93","Mozilla/5.0 (Windows NT 10.0; Win64; x64) AppleWebKit/537.36 (KHTML, like Gecko) Chrome/138.0.0.0 Safari/537.36 Edg/138.0.0.0","WebKit","Edge","138.0.0.0","Windows","10.0","https://app.prolific.com/","pt-PT,pt;q=0.9,en-US;q=0.8,en;q=0.7","6523351ec0163b9e739d13ab","687a19d2168e237449fb8af4","6889d9ddef8c89a298a64b98","0","6523351ec0163b9e739d13ab","0","2025-07-30T08:52:33.140Z","","","","","","","","","","","","","","","","win-only","1","g1:NE,g2:SW","0.4","9","0","702734.3","903.8","5906.2","34962.2","1","4","8","6","1","1","1","15","14","0.11363636363636363","1920","3000","395","[""up"",""right""]","{""num_key_presses"":6,""num_perfect"":2,""num_errors"":0,""num_randdir"":4,""num_randdir_good_moves"":3,""num_whilered"":0,""num_whileblue"":0,""num_blue"":4,""num_good_moves"":5}","[347.93660714285716,355.84285714285716,0.1,347.93660714285716,355.84285714285716,106.6,347.93660714285716,355.84285714285716,206.7,347.93660714285716,355.84285714285716,309.8,347.93660714285716,376.84285714285716,410.5,347.93660714285716,387.84285714285716,512,346.93660714285716,391.84285714285716,612.6,346.93660714285716,391.84285714285716,713,346.93660714285716,391.84285714285716,816.9,361.93660714285716,384.84285714285716,922.6,396.93660714285716,366.84285714285716,1028.3,396.93660714285716,366.84285714285716,1132.2,396.93660714285716,366.84285714285716,1237.4,396.93660714285716,366.84285714285716,1337.4,396.93660714285716,366.84285714285716,1437.4,488.93660714285716,294.84285714285716,1543.3,562.9366071428572,183.84285714285716,1647,589.9366071428572,140.84285714285716,1747.3,622.9366071428572,103.84285714285714,1852.1,628.9366071428572,94.84285714285714,1958.4,628.9366071428572,94.84285714285714,2062.3,628.9366071428572,94.84285714285714,2166.7,628.9366071428572,99.84285714285714,2267.5,628.9366071428572,99.84285714285714,2371.8,628.9366071428572,99.84285714285714,2472.3,628.9366071428572,99.84285714285714,2572.3,628.9366071428572,99.84285714285714,2672.3,628.9366071428572,99.84285714285714,2773.7,628.9366071428572,99.84285714285714,2878.5,628.9366071428572,99.84285714285714,2979.6,628.9366071428572,99.84285714285714,3082.4,628.9366071428572,99.84285714285714,3186.5,628.9366071428572,99.84285714285714,3286.8,628.9366071428572,99.84285714285714,3387.5,628.9366071428572,99.84285714285714,3492.7,628.9366071428572,99.84285714285714,3597.1,628.9366071428572,99.84285714285714,3701.9,628.9366071428572,99.84285714285714,3802.5,628.9366071428572,99.84285714285714,3907.6,628.9366071428572,99.84285714285714,4010,628.9366071428572,99.84285714285714,4111.7,628.9366071428572,99.84285714285714,4212.1,628.9366071428572,99.84285714285714,4313.2,628.9366071428572,99.84285714285714,4417.4,628.9366071428572,99.84285714285714,4517.8,628.9366071428572,99.84285714285714,4622.2,628.9366071428572,99.84285714285714,4722.2,628.9366071428572,99.84285714285714,4829.1,628.9366071428572,99.84285714285714,4932.3]","[1516.8,1516.8,1000,0,516.8,""smooth"",""up"",""up"",""good_move"",10300.2,8783.2,1789.6,8129.2,381.4,""oops"",""right"",""left"",""bad_move"",13624.9,3324.5,2760.5,10300.4,564,""oops"",""right"",""up"",""good_move"",23084.5,9459.3,2438.5,20250.1,395.9,""oops"",""right"",""right"",""good_move"",25757.3,2672.5,2231,23084.8,441.5,""smooth"",""right"",""right"",""good_move"",28964.3,3207,2829.2,25757.4,377.7,""oops"",""right"",""right"",""good_move""]"
"2658","","<div style=""width:500px;"">
  <p>What determined the result of this run?</p>
  </div>","59","html-slider-response","54","741950","0.0-7.0-1.8","23","1","2025-07-30 08:40:12","36c45c0696341be0efffe67d72a12abb","83.240.176.93","Mozilla/5.0 (Windows NT 10.0; Win64; x64) AppleWebKit/537.36 (KHTML, like Gecko) Chrome/138.0.0.0 Safari/537.36 Edg/138.0.0.0","WebKit","Edge","138.0.0.0","Windows","10.0","https://app.prolific.com/","pt-PT,pt;q=0.9,en-US;q=0.8,en;q=0.7","6523351ec0163b9e739d13ab","687a19d2168e237449fb8af4","6889d9ddef8c89a298a64b98","0","6523351ec0163b9e739d13ab","0","2025-07-30T08:52:35.801Z","","","","AttribQ","","","","","","","","","","","50","","","","","","","","","","","","","","","","","","","","","","","","","","",""
"1335","","<div style=""width:500px;"">
  <p>How much control did you have over the ball?</p>
  </div>","48","html-slider-response","55","743285","0.0-7.0-2.8","23","1","2025-07-30 08:40:12","36c45c0696341be0efffe67d72a12abb","83.240.176.93","Mozilla/5.0 (Windows NT 10.0; Win64; x64) AppleWebKit/537.36 (KHTML, like Gecko) Chrome/138.0.0.0 Safari/537.36 Edg/138.0.0.0","WebKit","Edge","138.0.0.0","Windows","10.0","https://app.prolific.com/","pt-PT,pt;q=0.9,en-US;q=0.8,en;q=0.7","6523351ec0163b9e739d13ab","687a19d2168e237449fb8af4","6889d9ddef8c89a298a64b98","0","6523351ec0163b9e739d13ab","0","2025-07-30T08:52:37.137Z","","","","ControlQ","","","","","","","","","","","50","","","","","","","","","","","","","","","","","","","","","","","","","","",""
"1751","","<div style=""width:500px;"">
  <p>How would you describe your current emotional state?</p>
  </div>","0","html-slider-response","56","745037","0.0-7.0-3.8","23","1","2025-07-30 08:40:12","36c45c0696341be0efffe67d72a12abb","83.240.176.93","Mozilla/5.0 (Windows NT 10.0; Win64; x64) AppleWebKit/537.36 (KHTML, like Gecko) Chrome/138.0.0.0 Safari/537.36 Edg/138.0.0.0","WebKit","Edge","138.0.0.0","Windows","10.0","https://app.prolific.com/","pt-PT,pt;q=0.9,en-US;q=0.8,en;q=0.7","6523351ec0163b9e739d13ab","687a19d2168e237449fb8af4","6889d9ddef8c89a298a64b98","0","6523351ec0163b9e739d13ab","0","2025-07-30T08:52:38.889Z","","","","StressQ","","","","","","","","","","","50","","","","","","","","","","","","","","","","","","","","","","","","","","",""
"1103","","<div style=""width:500px;"">
  <p>What best describes how you currently feel?</p>
  </div>","29","html-slider-response","57","746141","0.0-7.0-4.8","23","1","2025-07-30 08:40:12","36c45c0696341be0efffe67d72a12abb","83.240.176.93","Mozilla/5.0 (Windows NT 10.0; Win64; x64) AppleWebKit/537.36 (KHTML, like Gecko) Chrome/138.0.0.0 Safari/537.36 Edg/138.0.0.0","WebKit","Edge","138.0.0.0","Windows","10.0","https://app.prolific.com/","pt-PT,pt;q=0.9,en-US;q=0.8,en;q=0.7","6523351ec0163b9e739d13ab","687a19d2168e237449fb8af4","6889d9ddef8c89a298a64b98","0","6523351ec0163b9e739d13ab","0","2025-07-30T08:52:39.992Z","","","","MotivationQ","","","","","","","","","","","50","","","","","","","","","","","","","","","","","","","","","","","","","","",""
"","","","","ctl-task-cpt","58","787785","0.0-7.0-0.9","23","1","2025-07-30 08:40:12","36c45c0696341be0efffe67d72a12abb","83.240.176.93","Mozilla/5.0 (Windows NT 10.0; Win64; x64) AppleWebKit/537.36 (KHTML, like Gecko) Chrome/138.0.0.0 Safari/537.36 Edg/138.0.0.0","WebKit","Edge","138.0.0.0","Windows","10.0","https://app.prolific.com/","pt-PT,pt;q=0.9,en-US;q=0.8,en;q=0.7","6523351ec0163b9e739d13ab","687a19d2168e237449fb8af4","6889d9ddef8c89a298a64b98","0","6523351ec0163b9e739d13ab","0","2025-07-30T08:53:21.637Z","","","","","","","","","","","","","","","","win-only","2","g1:SE,g2:NW","0.5","10","0","747566.1","751.8","5757.1","38626.1","1","4","4","6","1","-1","-2","13","15","0.09848484848484848","2296.2","3000","-3010","[""down"",""right""]","{""num_key_presses"":9,""num_perfect"":3,""num_errors"":1,""num_randdir"":5,""num_randdir_good_moves"":1,""num_whilered"":0,""num_whileblue"":0,""num_blue"":2,""num_good_moves"":4}","[357.93660714285716,362.84285714285716,0.1,357.93660714285716,362.84285714285716,104.4,357.93660714285716,362.84285714285716,209.4,357.93660714285716,362.84285714285716,310.1,357.93660714285716,362.84285714285716,416.4,357.93660714285716,362.84285714285716,517.3,357.93660714285716,362.84285714285716,619.5,357.93660714285716,362.84285714285716,719.6,357.93660714285716,362.84285714285716,824.5,357.93660714285716,362.84285714285716,928.9,357.93660714285716,362.84285714285716,1034.3,357.93660714285716,362.84285714285716,1138.5,357.93660714285716,362.84285714285716,1238.7,357.93660714285716,362.84285714285716,1344.1,357.93660714285716,362.84285714285716,1450.3,357.93660714285716,362.84285714285716,1553.7,392.93660714285716,449.84285714285716,1654,539.9366071428572,566.8428571428572,1754.2,592.9366071428572,594.8428571428572,1854.2,592.9366071428572,594.8428571428572,1958.4,607.9366071428572,609.8428571428572,2059.3,634.9366071428572,629.8428571428572,2159.5,639.9366071428572,630.8428571428572,2263.8,640.9366071428572,630.8428571428572,2364.1,640.9366071428572,630.8428571428572,2465.2,640.9366071428572,630.8428571428572,2569.2,640.9366071428572,630.8428571428572,2674.6,641.9366071428572,627.8428571428572,2782.3,640.9366071428572,625.8428571428572,2884.1,638.9366071428572,623.8428571428572,2990.3,638.9366071428572,623.8428571428572,3093.7,638.9366071428572,623.8428571428572,3198.7,638.9366071428572,623.8428571428572,3299.3,638.9366071428572,623.8428571428572,3404.2,638.9366071428572,623.8428571428572,3504.2,638.9366071428572,623.8428571428572,3609,638.9366071428572,623.8428571428572,3713.7,638.9366071428572,623.8428571428572,3814.5,638.9366071428572,623.8428571428572,3919.2,638.9366071428572,623.8428571428572,4024.1,638.9366071428572,623.8428571428572,4124.8,638.9366071428572,623.8428571428572,4231.7,638.9366071428572,623.8428571428572,4334.1,638.9366071428572,623.8428571428572,4434.2,638.9366071428572,623.8428571428572,4535.3,638.9366071428572,623.8428571428572,4638.7,638.9366071428572,623.8428571428572,4739.6,638.9366071428572,623.8428571428572,4843.7,638.9366071428572,623.8428571428572,4945.1]","[5393.8,5393.8,2820.4,2008.6,564.8,""oops"",""down"",""up"",""bad_move"",8265.2,2871.1,2539.9,5394.1,331.2,""smooth"",""right"",""right"",""good_move"",10651.6,2386.3,2018.8,8265.4,367.5,""oops"",""down"",""down"",""good_move"",13909.4,3257.6,2909.5,10651.8,348.1,""oops"",""right"",""up"",""bad_move"",15937.6,2028,1620.3,13909.6,407.7,""smooth"",""down"",""down"",""good_move"",19153.5,3215.8,2940.7,15937.7,275.1,""oops"",""down"",""up"",""bad_move"",21833.5,2679.9,2285.2,19153.6,394.7,""smooth"",""down"",""down"",""good_move"",24049.2,2215.7,3197.2,21833.6,-981.5,""error"",""-"",""-"",""no_move"",31402.5,7353.1,2501,28568.4,333.1,""oops"",""down"",""left"",""bad_move""]"
"1945","","<div style=""width:500px;"">
  <p>What determined the result of this run?</p>
  </div>","0","html-slider-response","59","789733","0.0-7.0-1.9","23","1","2025-07-30 08:40:12","36c45c0696341be0efffe67d72a12abb","83.240.176.93","Mozilla/5.0 (Windows NT 10.0; Win64; x64) AppleWebKit/537.36 (KHTML, like Gecko) Chrome/138.0.0.0 Safari/537.36 Edg/138.0.0.0","WebKit","Edge","138.0.0.0","Windows","10.0","https://app.prolific.com/","pt-PT,pt;q=0.9,en-US;q=0.8,en;q=0.7","6523351ec0163b9e739d13ab","687a19d2168e237449fb8af4","6889d9ddef8c89a298a64b98","0","6523351ec0163b9e739d13ab","0","2025-07-30T08:53:23.584Z","","","","AttribQ","","","","","","","","","","","50","","","","","","","","","","","","","","","","","","","","","","","","","","",""
"2351","","<div style=""width:500px;"">
  <p>How much control did you have over the ball?</p>
  </div>","0","html-slider-response","60","792085","0.0-7.0-2.9","23","1","2025-07-30 08:40:12","36c45c0696341be0efffe67d72a12abb","83.240.176.93","Mozilla/5.0 (Windows NT 10.0; Win64; x64) AppleWebKit/537.36 (KHTML, like Gecko) Chrome/138.0.0.0 Safari/537.36 Edg/138.0.0.0","WebKit","Edge","138.0.0.0","Windows","10.0","https://app.prolific.com/","pt-PT,pt;q=0.9,en-US;q=0.8,en;q=0.7","6523351ec0163b9e739d13ab","687a19d2168e237449fb8af4","6889d9ddef8c89a298a64b98","0","6523351ec0163b9e739d13ab","0","2025-07-30T08:53:25.937Z","","","","ControlQ","","","","","","","","","","","50","","","","","","","","","","","","","","","","","","","","","","","","","","",""
"2071","","<div style=""width:500px;"">
  <p>How would you describe your current emotional state?</p>
  </div>","0","html-slider-response","61","794157","0.0-7.0-3.9","23","1","2025-07-30 08:40:12","36c45c0696341be0efffe67d72a12abb","83.240.176.93","Mozilla/5.0 (Windows NT 10.0; Win64; x64) AppleWebKit/537.36 (KHTML, like Gecko) Chrome/138.0.0.0 Safari/537.36 Edg/138.0.0.0","WebKit","Edge","138.0.0.0","Windows","10.0","https://app.prolific.com/","pt-PT,pt;q=0.9,en-US;q=0.8,en;q=0.7","6523351ec0163b9e739d13ab","687a19d2168e237449fb8af4","6889d9ddef8c89a298a64b98","0","6523351ec0163b9e739d13ab","0","2025-07-30T08:53:28.008Z","","","","StressQ","","","","","","","","","","","50","","","","","","","","","","","","","","","","","","","","","","","","","","",""
"1847","","<div style=""width:500px;"">
  <p>What best describes how you currently feel?</p>
  </div>","33","html-slider-response","62","796005","0.0-7.0-4.9","23","1","2025-07-30 08:40:12","36c45c0696341be0efffe67d72a12abb","83.240.176.93","Mozilla/5.0 (Windows NT 10.0; Win64; x64) AppleWebKit/537.36 (KHTML, like Gecko) Chrome/138.0.0.0 Safari/537.36 Edg/138.0.0.0","WebKit","Edge","138.0.0.0","Windows","10.0","https://app.prolific.com/","pt-PT,pt;q=0.9,en-US;q=0.8,en;q=0.7","6523351ec0163b9e739d13ab","687a19d2168e237449fb8af4","6889d9ddef8c89a298a64b98","0","6523351ec0163b9e739d13ab","0","2025-07-30T08:53:29.856Z","","","","MotivationQ","","","","","","","","","","","50","","","","","","","","","","","","","","","","","","","","","","","","","","",""
"","","","","ctl-task-cpt","63","815859","0.0-7.0-0.10","23","1","2025-07-30 08:40:12","36c45c0696341be0efffe67d72a12abb","83.240.176.93","Mozilla/5.0 (Windows NT 10.0; Win64; x64) AppleWebKit/537.36 (KHTML, like Gecko) Chrome/138.0.0.0 Safari/537.36 Edg/138.0.0.0","WebKit","Edge","138.0.0.0","Windows","10.0","https://app.prolific.com/","pt-PT,pt;q=0.9,en-US;q=0.8,en;q=0.7","6523351ec0163b9e739d13ab","687a19d2168e237449fb8af4","6889d9ddef8c89a298a64b98","0","6523351ec0163b9e739d13ab","0","2025-07-30T08:53:49.710Z","","","","","","","","","","","","","","","","win-only","0","g1:NW,g2:SE","0.6","11","0","797430.2","831.8","5835.4","16835.1","1","4","8","6","1","1","1","14","13","0.10606060606060606","1344.2","3000","1425","[""left"",""up""]","{""num_key_presses"":4,""num_perfect"":3,""num_errors"":0,""num_randdir"":1,""num_randdir_good_moves"":1,""num_whilered"":0,""num_whileblue"":0,""num_blue"":0,""num_good_moves"":4}","[350.93660714285716,358.84285714285716,0.1,352.93660714285716,358.84285714285716,104.5,360.93660714285716,364.84285714285716,206.8,362.93660714285716,400.84285714285716,310.1,362.93660714285716,400.84285714285716,413.6,362.93660714285716,400.84285714285716,514.3,362.93660714285716,400.84285714285716,618.3,361.93660714285716,401.84285714285716,718.4,348.93660714285716,396.84285714285716,818.9,247.93660714285716,309.84285714285716,924,169.93660714285716,219.84285714285716,1024.2,135.93660714285716,153.84285714285716,1125,107.93660714285714,102.84285714285714,1229.9,99.93660714285714,81.84285714285714,1334.1,99.93660714285714,81.84285714285714,1440.8,99.93660714285714,88.84285714285714,1541,98.93660714285714,115.84285714285714,1644.9,98.93660714285714,132.84285714285716,1748.4,88.93660714285714,154.84285714285716,1853.8,74.93660714285714,170.84285714285716,1955,74.93660714285714,170.84285714285716,2059.3,74.93660714285714,170.84285714285716,2159.3,74.93660714285714,170.84285714285716,2259.4,74.93660714285714,170.84285714285716,2363.3,74.93660714285714,170.84285714285716,2464.6,74.93660714285714,170.84285714285716,2568.3,74.93660714285714,170.84285714285716,2670.2,74.93660714285714,170.84285714285716,2770.3,74.93660714285714,170.84285714285716,2870.3,74.93660714285714,170.84285714285716,2974,74.93660714285714,170.84285714285716,3079,74.93660714285714,170.84285714285716,3179.5,74.93660714285714,170.84285714285716,3283.7,74.93660714285714,170.84285714285716,3384.2,74.93660714285714,170.84285714285716,3488.9,74.93660714285714,170.84285714285716,3589.2,74.93660714285714,170.84285714285716,3694.4,74.93660714285714,170.84285714285716,3799.3,73.93660714285714,170.84285714285716,3899.3,73.93660714285714,170.84285714285716,4003.6,73.93660714285714,170.84285714285716,4103.8,73.93660714285714,170.84285714285716,4205.1,73.93660714285714,170.84285714285716,4308.3,73.93660714285714,170.84285714285716,4409,73.93660714285714,170.84285714285716,4509.3,73.93660714285714,170.84285714285716,4614.1,73.93660714285714,170.84285714285716,4718.6,73.93660714285714,170.84285714285716,4823.3,73.93660714285714,170.84285714285716,4923.8]","[1475.4,1475.4,1000,0,475.4,""smooth"",""left"",""left"",""good_move"",4715.6,3240,2869.2,1475.7,370.7,""smooth"",""up"",""up"",""good_move"",7738.9,3023.1,2673.9,4715.8,349.2,""oops"",""left"",""up"",""good_move"",10914.9,3175.7,2774.1,7739.2,401.6,""smooth"",""left"",""left"",""good_move""]"
"1927","","<div style=""width:500px;"">
  <p>What determined the result of this run?</p>
  </div>","77","html-slider-response","64","817789","0.0-7.0-1.10","23","1","2025-07-30 08:40:12","36c45c0696341be0efffe67d72a12abb","83.240.176.93","Mozilla/5.0 (Windows NT 10.0; Win64; x64) AppleWebKit/537.36 (KHTML, like Gecko) Chrome/138.0.0.0 Safari/537.36 Edg/138.0.0.0","WebKit","Edge","138.0.0.0","Windows","10.0","https://app.prolific.com/","pt-PT,pt;q=0.9,en-US;q=0.8,en;q=0.7","6523351ec0163b9e739d13ab","687a19d2168e237449fb8af4","6889d9ddef8c89a298a64b98","0","6523351ec0163b9e739d13ab","0","2025-07-30T08:53:51.641Z","","","","AttribQ","","","","","","","","","","","50","","","","","","","","","","","","","","","","","","","","","","","","","","",""
"1599","","<div style=""width:500px;"">
  <p>How much control did you have over the ball?</p>
  </div>","70","html-slider-response","65","819389","0.0-7.0-2.10","23","1","2025-07-30 08:40:12","36c45c0696341be0efffe67d72a12abb","83.240.176.93","Mozilla/5.0 (Windows NT 10.0; Win64; x64) AppleWebKit/537.36 (KHTML, like Gecko) Chrome/138.0.0.0 Safari/537.36 Edg/138.0.0.0","WebKit","Edge","138.0.0.0","Windows","10.0","https://app.prolific.com/","pt-PT,pt;q=0.9,en-US;q=0.8,en;q=0.7","6523351ec0163b9e739d13ab","687a19d2168e237449fb8af4","6889d9ddef8c89a298a64b98","0","6523351ec0163b9e739d13ab","0","2025-07-30T08:53:53.240Z","","","","ControlQ","","","","","","","","","","","50","","","","","","","","","","","","","","","","","","","","","","","","","","",""
"1375","","<div style=""width:500px;"">
  <p>How would you describe your current emotional state?</p>
  </div>","0","html-slider-response","66","820765","0.0-7.0-3.10","23","1","2025-07-30 08:40:12","36c45c0696341be0efffe67d72a12abb","83.240.176.93","Mozilla/5.0 (Windows NT 10.0; Win64; x64) AppleWebKit/537.36 (KHTML, like Gecko) Chrome/138.0.0.0 Safari/537.36 Edg/138.0.0.0","WebKit","Edge","138.0.0.0","Windows","10.0","https://app.prolific.com/","pt-PT,pt;q=0.9,en-US;q=0.8,en;q=0.7","6523351ec0163b9e739d13ab","687a19d2168e237449fb8af4","6889d9ddef8c89a298a64b98","0","6523351ec0163b9e739d13ab","0","2025-07-30T08:53:54.616Z","","","","StressQ","","","","","","","","","","","50","","","","","","","","","","","","","","","","","","","","","","","","","","",""
"1703","","<div style=""width:500px;"">
  <p>What best describes how you currently feel?</p>
  </div>","31","html-slider-response","67","822469","0.0-7.0-4.10","23","1","2025-07-30 08:40:12","36c45c0696341be0efffe67d72a12abb","83.240.176.93","Mozilla/5.0 (Windows NT 10.0; Win64; x64) AppleWebKit/537.36 (KHTML, like Gecko) Chrome/138.0.0.0 Safari/537.36 Edg/138.0.0.0","WebKit","Edge","138.0.0.0","Windows","10.0","https://app.prolific.com/","pt-PT,pt;q=0.9,en-US;q=0.8,en;q=0.7","6523351ec0163b9e739d13ab","687a19d2168e237449fb8af4","6889d9ddef8c89a298a64b98","0","6523351ec0163b9e739d13ab","0","2025-07-30T08:53:56.320Z","","","","MotivationQ","","","","","","","","","","","50","","","","","","","","","","","","","","","","","","","","","","","","","","",""
"","","","","ctl-task-cpt","68","855949","0.0-7.0-0.11","23","1","2025-07-30 08:40:12","36c45c0696341be0efffe67d72a12abb","83.240.176.93","Mozilla/5.0 (Windows NT 10.0; Win64; x64) AppleWebKit/537.36 (KHTML, like Gecko) Chrome/138.0.0.0 Safari/537.36 Edg/138.0.0.0","WebKit","Edge","138.0.0.0","Windows","10.0","https://app.prolific.com/","pt-PT,pt;q=0.9,en-US;q=0.8,en;q=0.7","6523351ec0163b9e739d13ab","687a19d2168e237449fb8af4","6889d9ddef8c89a298a64b98","0","6523351ec0163b9e739d13ab","0","2025-07-30T08:54:29.801Z","","","","","","","","","","","","","","","","win-only","0","g1:NW,g2:SE","0.7","12","0","823894.2","1328.1","6331.2","30461.8","1","4","4","6","2","4","4","18","14","0.13636363636363635","1415.8","3000","320","[""down"",""right""]","{""num_key_presses"":6,""num_perfect"":4,""num_errors"":0,""num_randdir"":2,""num_randdir_good_moves"":2,""num_whilered"":0,""num_whileblue"":0,""num_blue"":2,""num_good_moves"":6}","[353.93660714285716,349.84285714285716,0.2,353.93660714285716,349.84285714285716,102.3,353.93660714285716,349.84285714285716,203.4,353.93660714285716,349.84285714285716,308.5,353.93660714285716,349.84285714285716,412.9,353.93660714285716,349.84285714285716,517.4,353.93660714285716,349.84285714285716,618,407.93660714285716,419.84285714285716,723,447.93660714285716,452.84285714285716,828.5,448.93660714285716,455.84285714285716,929.2,464.93660714285716,488.84285714285716,1032.8,549.9366071428572,564.8428571428572,1133.1,604.9366071428572,606.8428571428572,1233.4,620.9366071428572,618.8428571428572,1333.4,639.9366071428572,637.8428571428572,1439.6,639.9366071428572,637.8428571428572,1544.6,639.9366071428572,637.8428571428572,1647.5,639.9366071428572,637.8428571428572,1747.5,647.9366071428572,644.8428571428572,1852.6,647.9366071428572,644.8428571428572,1953.1,647.9366071428572,644.8428571428572,2053.2,647.9366071428572,644.8428571428572,2154.1,653.9366071428572,648.8428571428572,2257.4,654.9366071428572,648.8428571428572,2358.3,654.9366071428572,648.8428571428572,2464.5,654.9366071428572,648.8428571428572,2568.9,654.9366071428572,648.8428571428572,2673.5,654.9366071428572,648.8428571428572,2781,654.9366071428572,648.8428571428572,2882.7,654.9366071428572,648.8428571428572,2988.4,654.9366071428572,648.8428571428572,3088.7,654.9366071428572,648.8428571428572,3192.5,654.9366071428572,648.8428571428572,3293.2,654.9366071428572,648.8428571428572,3397.3,654.9366071428572,648.8428571428572,3498.8,654.9366071428572,648.8428571428572,3602.6,654.9366071428572,648.8428571428572,3704.3,654.9366071428572,648.8428571428572,3807.7,654.9366071428572,648.8428571428572,3908.6,654.9366071428572,648.8428571428572,4012.5,654.9366071428572,648.8428571428572,4117.5,654.9366071428572,648.8428571428572,4217.5,654.9366071428572,648.8428571428572,4318.4,654.9366071428572,648.8428571428572,4418.4,654.9366071428572,648.8428571428572,4523.3,654.9366071428572,648.8428571428572,4627.5,654.9366071428572,648.8428571428572,4727.8,654.9366071428572,648.8428571428572,4828.3,654.9366071428572,648.8428571428572,4929.8]","[1675.5,1675.5,1000,0,675.5,""oops"",""down"",""down"",""good_move"",8643.3,6967.6,3125.9,5181.1,336.3,""smooth"",""right"",""right"",""good_move"",15011.5,6368.1,2687.9,11905.8,417.8,""smooth"",""right"",""right"",""good_move"",18219.2,3207.5,2513.7,15011.7,693.8,""smooth"",""down"",""down"",""good_move"",21267.1,3047.8,2724.6,18219.3,323.2,""smooth"",""right"",""right"",""good_move"",24035.1,2767.8,2460.2,21267.3,307.6,""oops"",""down"",""down"",""good_move""]"
"4565","","<div style=""width:500px;"">
  <p>What determined the result of this run?</p>
  </div>","97","html-slider-response","69","860517","0.0-7.0-1.11","23","1","2025-07-30 08:40:12","36c45c0696341be0efffe67d72a12abb","83.240.176.93","Mozilla/5.0 (Windows NT 10.0; Win64; x64) AppleWebKit/537.36 (KHTML, like Gecko) Chrome/138.0.0.0 Safari/537.36 Edg/138.0.0.0","WebKit","Edge","138.0.0.0","Windows","10.0","https://app.prolific.com/","pt-PT,pt;q=0.9,en-US;q=0.8,en;q=0.7","6523351ec0163b9e739d13ab","687a19d2168e237449fb8af4","6889d9ddef8c89a298a64b98","0","6523351ec0163b9e739d13ab","0","2025-07-30T08:54:34.369Z","","","","AttribQ","","","","","","","","","","","50","","","","","","","","","","","","","","","","","","","","","","","","","","",""
"1182","","<div style=""width:500px;"">
  <p>How much control did you have over the ball?</p>
  </div>","87","html-slider-response","70","861701","0.0-7.0-2.11","23","1","2025-07-30 08:40:12","36c45c0696341be0efffe67d72a12abb","83.240.176.93","Mozilla/5.0 (Windows NT 10.0; Win64; x64) AppleWebKit/537.36 (KHTML, like Gecko) Chrome/138.0.0.0 Safari/537.36 Edg/138.0.0.0","WebKit","Edge","138.0.0.0","Windows","10.0","https://app.prolific.com/","pt-PT,pt;q=0.9,en-US;q=0.8,en;q=0.7","6523351ec0163b9e739d13ab","687a19d2168e237449fb8af4","6889d9ddef8c89a298a64b98","0","6523351ec0163b9e739d13ab","0","2025-07-30T08:54:35.552Z","","","","ControlQ","","","","","","","","","","","50","","","","","","","","","","","","","","","","","","","","","","","","","","",""
"1791","","<div style=""width:500px;"">
  <p>How would you describe your current emotional state?</p>
  </div>","5","html-slider-response","71","863493","0.0-7.0-3.11","23","1","2025-07-30 08:40:12","36c45c0696341be0efffe67d72a12abb","83.240.176.93","Mozilla/5.0 (Windows NT 10.0; Win64; x64) AppleWebKit/537.36 (KHTML, like Gecko) Chrome/138.0.0.0 Safari/537.36 Edg/138.0.0.0","WebKit","Edge","138.0.0.0","Windows","10.0","https://app.prolific.com/","pt-PT,pt;q=0.9,en-US;q=0.8,en;q=0.7","6523351ec0163b9e739d13ab","687a19d2168e237449fb8af4","6889d9ddef8c89a298a64b98","0","6523351ec0163b9e739d13ab","0","2025-07-30T08:54:37.344Z","","","","StressQ","","","","","","","","","","","50","","","","","","","","","","","","","","","","","","","","","","","","","","",""
"1543","","<div style=""width:500px;"">
  <p>What best describes how you currently feel?</p>
  </div>","23","html-slider-response","72","865037","0.0-7.0-4.11","23","1","2025-07-30 08:40:12","36c45c0696341be0efffe67d72a12abb","83.240.176.93","Mozilla/5.0 (Windows NT 10.0; Win64; x64) AppleWebKit/537.36 (KHTML, like Gecko) Chrome/138.0.0.0 Safari/537.36 Edg/138.0.0.0","WebKit","Edge","138.0.0.0","Windows","10.0","https://app.prolific.com/","pt-PT,pt;q=0.9,en-US;q=0.8,en;q=0.7","6523351ec0163b9e739d13ab","687a19d2168e237449fb8af4","6889d9ddef8c89a298a64b98","0","6523351ec0163b9e739d13ab","0","2025-07-30T08:54:38.888Z","","","","MotivationQ","","","","","","","","","","","50","","","","","","","","","","","","","","","","","","","","","","","","","","",""
"","","","","ctl-task-cpt","73","889283","0.0-7.0-0.12","23","1","2025-07-30 08:40:12","36c45c0696341be0efffe67d72a12abb","83.240.176.93","Mozilla/5.0 (Windows NT 10.0; Win64; x64) AppleWebKit/537.36 (KHTML, like Gecko) Chrome/138.0.0.0 Safari/537.36 Edg/138.0.0.0","WebKit","Edge","138.0.0.0","Windows","10.0","https://app.prolific.com/","pt-PT,pt;q=0.9,en-US;q=0.8,en;q=0.7","6523351ec0163b9e739d13ab","687a19d2168e237449fb8af4","6889d9ddef8c89a298a64b98","0","6523351ec0163b9e739d13ab","0","2025-07-30T08:55:03.134Z","","","","","","","","","","","","","","","","win-only","3","g1:SW,g2:NE","0.8","13","0","866462.1","808.2","5809.3","21225.2","1","4","8","6","1","1","1","19","18","0.14393939393939395","1360","3000","905","[""down"",""left""]","{""num_key_presses"":6,""num_perfect"":4,""num_errors"":0,""num_randdir"":2,""num_randdir_good_moves"":1,""num_whilered"":0,""num_whileblue"":0,""num_blue"":0,""num_good_moves"":5}","[358.93660714285716,356.84285714285716,0.1,358.93660714285716,356.84285714285716,102,358.93660714285716,356.84285714285716,202.1,358.93660714285716,356.84285714285716,302.5,358.93660714285716,356.84285714285716,402.6,354.93660714285716,363.84285714285716,502.8,350.93660714285716,375.84285714285716,604,350.93660714285716,381.84285714285716,708,350.93660714285716,384.84285714285716,807.9,337.93660714285716,402.84285714285716,908.2,186.93660714285716,508.84285714285716,1015.6,119.93660714285714,589.8428571428572,1117.5,98.93660714285714,616.8428571428572,1222.5,73.93660714285714,648.8428571428572,1322.8,73.93660714285714,648.8428571428572,1428.8,73.93660714285714,648.8428571428572,1532.3,62.93660714285714,658.8428571428572,1634.2,-91.06339285714286,682.8428571428572,1738,-92.06339285714286,681.8428571428572,1843,-92.06339285714286,681.8428571428572,1944.6,-92.06339285714286,681.8428571428572,2048.2,-116.06339285714286,671.8428571428572,2152.6,-119.06339285714286,670.8428571428572,2253.1,-119.06339285714286,670.8428571428572,2358,-119.06339285714286,670.8428571428572,2458,-119.06339285714286,670.8428571428572,2558.2,-119.06339285714286,670.8428571428572,2662.1,-119.06339285714286,670.8428571428572,2763.2,-119.06339285714286,670.8428571428572,2867.3,-119.06339285714286,670.8428571428572,2967.6,-119.06339285714286,670.8428571428572,3072.3,-119.06339285714286,670.8428571428572,3177.3,-119.06339285714286,670.8428571428572,3278.1,-119.06339285714286,670.8428571428572,3383,-119.06339285714286,670.8428571428572,3484,-119.06339285714286,670.8428571428572,3587.1,-119.06339285714286,670.8428571428572,3688.3,-119.06339285714286,670.8428571428572,3793,-119.06339285714286,670.8428571428572,3898,-119.06339285714286,670.8428571428572,4001.2,-119.06339285714286,670.8428571428572,4103.3,-119.06339285714286,670.8428571428572,4203.8,-119.06339285714286,670.8428571428572,4306.9,-119.06339285714286,670.8428571428572,4408,-119.06339285714286,670.8428571428572,4512,-119.06339285714286,670.8428571428572,4612.5,-119.06339285714286,670.8428571428572,4712.9,-119.06339285714286,670.8428571428572,4812.9,-119.06339285714286,670.8428571428572,4918.1]","[1405.3,1405.3,1000,0,405.3,""smooth"",""down"",""down"",""good_move"",4700.6,3295.1,2867.3,1405.6,427.7,""smooth"",""down"",""down"",""good_move"",7389.4,2688.7,2349.2,4700.7,339.5,""smooth"",""left"",""left"",""good_move"",9685.5,2296,1960.9,7389.5,335.1,""oops"",""left"",""up"",""bad_move"",12605.1,2919.5,2588.7,9685.6,330.8,""smooth"",""left"",""left"",""good_move"",15317.3,2712.1,2388.5,12605.2,323.6,""oops"",""down"",""down"",""good_move""]"
"1512","","<div style=""width:500px;"">
  <p>What determined the result of this run?</p>
  </div>","57","html-slider-response","74","890797","0.0-7.0-1.12","23","1","2025-07-30 08:40:12","36c45c0696341be0efffe67d72a12abb","83.240.176.93","Mozilla/5.0 (Windows NT 10.0; Win64; x64) AppleWebKit/537.36 (KHTML, like Gecko) Chrome/138.0.0.0 Safari/537.36 Edg/138.0.0.0","WebKit","Edge","138.0.0.0","Windows","10.0","https://app.prolific.com/","pt-PT,pt;q=0.9,en-US;q=0.8,en;q=0.7","6523351ec0163b9e739d13ab","687a19d2168e237449fb8af4","6889d9ddef8c89a298a64b98","0","6523351ec0163b9e739d13ab","0","2025-07-30T08:55:04.648Z","","","","AttribQ","","","","","","","","","","","50","","","","","","","","","","","","","","","","","","","","","","","","","","",""
"1847","","<div style=""width:500px;"">
  <p>How much control did you have over the ball?</p>
  </div>","61","html-slider-response","75","892645","0.0-7.0-2.12","23","1","2025-07-30 08:40:12","36c45c0696341be0efffe67d72a12abb","83.240.176.93","Mozilla/5.0 (Windows NT 10.0; Win64; x64) AppleWebKit/537.36 (KHTML, like Gecko) Chrome/138.0.0.0 Safari/537.36 Edg/138.0.0.0","WebKit","Edge","138.0.0.0","Windows","10.0","https://app.prolific.com/","pt-PT,pt;q=0.9,en-US;q=0.8,en;q=0.7","6523351ec0163b9e739d13ab","687a19d2168e237449fb8af4","6889d9ddef8c89a298a64b98","0","6523351ec0163b9e739d13ab","0","2025-07-30T08:55:06.496Z","","","","ControlQ","","","","","","","","","","","50","","","","","","","","","","","","","","","","","","","","","","","","","","",""
"1456","","<div style=""width:500px;"">
  <p>How would you describe your current emotional state?</p>
  </div>","0","html-slider-response","76","894101","0.0-7.0-3.12","23","1","2025-07-30 08:40:12","36c45c0696341be0efffe67d72a12abb","83.240.176.93","Mozilla/5.0 (Windows NT 10.0; Win64; x64) AppleWebKit/537.36 (KHTML, like Gecko) Chrome/138.0.0.0 Safari/537.36 Edg/138.0.0.0","WebKit","Edge","138.0.0.0","Windows","10.0","https://app.prolific.com/","pt-PT,pt;q=0.9,en-US;q=0.8,en;q=0.7","6523351ec0163b9e739d13ab","687a19d2168e237449fb8af4","6889d9ddef8c89a298a64b98","0","6523351ec0163b9e739d13ab","0","2025-07-30T08:55:07.952Z","","","","StressQ","","","","","","","","","","","50","","","","","","","","","","","","","","","","","","","","","","","","","","",""
"1087","","<div style=""width:500px;"">
  <p>What best describes how you currently feel?</p>
