"rt","response_timestamp","stimulus","response","trial_type","trial_index","time_elapsed","internal_node_id","run_id","condition","recorded_at","source_code_version","ip","user_agent","device","browser","browser_version","platform","platform_version","referer","accept_language","PROLIFIC_PID","STUDY_ID","SESSION_ID","BATCH","prolific_id","batch","realtime","success","question_order","question_id","eventType","responses","item_order","radio_event_ids","radio_event_times","key_event_times","mouse_event_times","straightlining","zigzagging","honeypot","view_history","slider_start","which_type","canvas_config","goals_layout","control_level","trial_number","tutorial_trial_number","trial_start_time","phase1_start_time","phase2_start_time","phase3_start_time","goal_1_value","goal_1_distance","goal_2_value","goal_2_distance","goal_selected","outcome","outcome_total","participant_final_score","participant_initial_score","participant_final_score_prop","goal_choice_rt","allocated_time","allocated_time_remaining","goal_direction","counts","mouse_movements","key_presses"
"4128","1753871677050","<p style='font-size:40px;line-height:1.25'><strong>Welcome to the experiment!</strong></p><p style='font-size:1.1em;line-height:1.25'>Thank you for participanting in our experiment again! You will be asked to play the Dysfunctional Ball Game again. We will briefly recap the rules before we start.</p><p style='font-size:1.1em;line-height:1.25'>Press <strong>Next</strong> to continue.</p>","0","custom-html-button-response","0","4133","0.0-0.0","89","1","2025-07-30 10:34:29","36c45c0696341be0efffe67d72a12abb","105.216.70.10","Mozilla/5.0 (Windows NT 10.0; Win64; x64) AppleWebKit/537.36 (KHTML, like Gecko) Chrome/138.0.0.0 Safari/537.36","WebKit","Chrome","138.0.0.0","Windows","10.0","https://app.prolific.com/","en-ZA,en-GB;q=0.9,en-US;q=0.8,en;q=0.7","653a6a7224e6c0bfb644ff9b","683dba9a53627eb9ab41b36a","6889f519be1181071e8385dc","0","653a6a7224e6c0bfb644ff9b","0","2025-07-30T10:34:37.052Z","","","","","","","","","","","","","","","","","","","","","","","","","","","","","","","","","","","","","","","","","",""
"17316","","","","fullscreen","1","22469","0.0-1.0","89","1","2025-07-30 10:34:29","36c45c0696341be0efffe67d72a12abb","105.216.70.10","Mozilla/5.0 (Windows NT 10.0; Win64; x64) AppleWebKit/537.36 (KHTML, like Gecko) Chrome/138.0.0.0 Safari/537.36","WebKit","Chrome","138.0.0.0","Windows","10.0","https://app.prolific.com/","en-ZA,en-GB;q=0.9,en-US;q=0.8,en;q=0.7","653a6a7224e6c0bfb644ff9b","683dba9a53627eb9ab41b36a","6889f519be1181071e8385dc","0","653a6a7224e6c0bfb644ff9b","0","","true","","","","","","","","","","","","","","","","","","","","","","","","","","","","","","","","","","","","","","","","",""
"2360","1753871697749"," <p style='font-size:1.1em;line-height:1.25'>Thank you for closing all other tabs.</p><p style='font-size:1.1em;line-height:1.25'>We will now invite you to fill in some questionnaires, before starting the game.<br>This will take about 5 minutes.<br></p><p style='font-size:1.1em;line-height:1.25'>Press the <strong>Next</strong> button to continue.</p>","0","custom-html-button-response","2","24832","0.0-2.0","89","1","2025-07-30 10:34:29","36c45c0696341be0efffe67d72a12abb","105.216.70.10","Mozilla/5.0 (Windows NT 10.0; Win64; x64) AppleWebKit/537.36 (KHTML, like Gecko) Chrome/138.0.0.0 Safari/537.36","WebKit","Chrome","138.0.0.0","Windows","10.0","https://app.prolific.com/","en-ZA,en-GB;q=0.9,en-US;q=0.8,en;q=0.7","653a6a7224e6c0bfb644ff9b","683dba9a53627eb9ab41b36a","6889f519be1181071e8385dc","0","653a6a7224e6c0bfb644ff9b","0","2025-07-30T10:34:57.750Z","","","","","","","","","","","","","","","","","","","","","","","","","","","","","","","","","","","","","","","","","",""
"4743","","","{""assigned_sex"":""female""}","survey-multi-choice","3","29578","0.0-3.0-0.0","89","1","2025-07-30 10:34:29","36c45c0696341be0efffe67d72a12abb","105.216.70.10","Mozilla/5.0 (Windows NT 10.0; Win64; x64) AppleWebKit/537.36 (KHTML, like Gecko) Chrome/138.0.0.0 Safari/537.36","WebKit","Chrome","138.0.0.0","Windows","10.0","https://app.prolific.com/","en-ZA,en-GB;q=0.9,en-US;q=0.8,en;q=0.7","653a6a7224e6c0bfb644ff9b","683dba9a53627eb9ab41b36a","6889f519be1181071e8385dc","0","653a6a7224e6c0bfb644ff9b","0","","","[0]","0","demographics","","","","","","","","","","","","","","","","","","","","","","","","","","","","","","","","","","","","","",""
"4275","1753871706772","<p style='font-size:1.1em;line-height:1.25'>In the following, we will perform a baseline assessment. This means that we will ask you a few questions relating to your experiences over the past month.<br></p><p style='font-size:1.1em;line-height:1.25'>Press the <strong>Next</strong> button to continue.</p>","0","custom-html-button-response","4","33855","0.0-4.0-0.0","89","1","2025-07-30 10:34:29","36c45c0696341be0efffe67d72a12abb","105.216.70.10","Mozilla/5.0 (Windows NT 10.0; Win64; x64) AppleWebKit/537.36 (KHTML, like Gecko) Chrome/138.0.0.0 Safari/537.36","WebKit","Chrome","138.0.0.0","Windows","10.0","https://app.prolific.com/","en-ZA,en-GB;q=0.9,en-US;q=0.8,en;q=0.7","653a6a7224e6c0bfb644ff9b","683dba9a53627eb9ab41b36a","6889f519be1181071e8385dc","0","653a6a7224e6c0bfb644ff9b","0","2025-07-30T10:35:06.773Z","","","","","","","","","","","","","","","","","","","","","","","","","","","","","","","","","","","","","","","","","",""
"67484.40000003576","","","","survey-template","5","101348","0.0-4.0-1.0","89","1","2025-07-30 10:34:29","36c45c0696341be0efffe67d72a12abb","105.216.70.10","Mozilla/5.0 (Windows NT 10.0; Win64; x64) AppleWebKit/537.36 (KHTML, like Gecko) Chrome/138.0.0.0 Safari/537.36","WebKit","Chrome","138.0.0.0","Windows","10.0","https://app.prolific.com/","en-ZA,en-GB;q=0.9,en-US;q=0.8,en;q=0.7","653a6a7224e6c0bfb644ff9b","683dba9a53627eb9ab41b36a","6889f519be1181071e8385dc","0","653a6a7224e6c0bfb644ff9b","0","2025-07-30T10:36:14.267Z","","","","pss","{""Q01"":""4"",""Q02"":""4"",""Q03"":""4"",""Q04"":""3"",""Q05"":""3"",""Q06"":""4"",""Q07"":""3"",""Q08"":""4"",""Q09"":""4"",""Q10"":""4""}","[0,1,2,3,4,5,6,7,8,9]","[""Q01"",""Q02"",""Q03"",""Q04"",""Q05"",""Q06"",""Q07"",""Q08"",""Q09"",""Q10""]","[4697.100000023842,9984.300000011921,14484.400000035763,20995,31599.30000001192,39174.80000001192,46742.80000001192,53522.19999998808,60775.19999998808,65844.19999998808]","[]","[0.10000002384185791,4697.100000023842,9984.300000011921,14484.400000035763,20995,30717.600000023842,31599.30000001192,39174.80000001192,46742.80000001192,52637,53522.19999998808,60257.19999998808,60775.19999998808,65177,65844.19999998808,67479.5]","0.6","0.2222222222222222","0","","","","","","","","","","","","","","","","","","","","","","","","","","","","",""
"4029","1753871778299","<p style='font-size:1.1em;line-height:1.25'>Thank you for your answers! Now we will ask you a few more questions relating to your feelings in the last 24 hours.<br></p><p style='font-size:1.1em;line-height:1.25'>Press the <strong>Next</strong> button to continue.</p>","0","custom-html-button-response","6","105383","0.0-4.0-2.0","89","1","2025-07-30 10:34:29","36c45c0696341be0efffe67d72a12abb","105.216.70.10","Mozilla/5.0 (Windows NT 10.0; Win64; x64) AppleWebKit/537.36 (KHTML, like Gecko) Chrome/138.0.0.0 Safari/537.36","WebKit","Chrome","138.0.0.0","Windows","10.0","https://app.prolific.com/","en-ZA,en-GB;q=0.9,en-US;q=0.8,en;q=0.7","653a6a7224e6c0bfb644ff9b","683dba9a53627eb9ab41b36a","6889f519be1181071e8385dc","0","653a6a7224e6c0bfb644ff9b","0","2025-07-30T10:36:18.301Z","","","","","","","","","","","","","","","","","","","","","","","","","","","","","","","","","","","","","","","","","",""
"62057.19999998808","","","","survey-template","7","167448","0.0-4.0-3.0","89","1","2025-07-30 10:34:29","36c45c0696341be0efffe67d72a12abb","105.216.70.10","Mozilla/5.0 (Windows NT 10.0; Win64; x64) AppleWebKit/537.36 (KHTML, like Gecko) Chrome/138.0.0.0 Safari/537.36","WebKit","Chrome","138.0.0.0","Windows","10.0","https://app.prolific.com/","en-ZA,en-GB;q=0.9,en-US;q=0.8,en;q=0.7","653a6a7224e6c0bfb644ff9b","683dba9a53627eb9ab41b36a","6889f519be1181071e8385dc","0","653a6a7224e6c0bfb644ff9b","0","2025-07-30T10:37:20.366Z","","","","drsp","{""Q01"":""4"",""Q02"":""4"",""Q03"":""4"",""Q04"":""5"",""Q05"":""5"",""Q06"":""5"",""Q07"":""4"",""Q08"":""3"",""Q09"":""3"",""Q10"":""4"",""Q11"":""4"",""Q12"":""4"",""Q13"":""5"",""Q14"":""3"",""Q15"":""3"",""Q16"":""3"",""Q17"":""4"",""Q18"":""2"",""Q19"":""5"",""Q20"":""4"",""Q21"":""4"",""Q22"":""4""}","[0,1,2,3,4,5,6,7,8,9,10,11,12,13,14,15,16,17,18,19,20,21]","[""Q01"",""Q02"",""Q03"",""Q04"",""Q05"",""Q06"",""Q07"",""Q08"",""Q09"",""Q10"",""Q11"",""Q12"",""Q13"",""Q14"",""Q15"",""Q15"",""Q16"",""Q17"",""Q18"",""Q19"",""Q20"",""Q21"",""Q22""]","[3384.800000011921,4427.199999988079,5889.399999976158,10119.300000011921,11463.199999988079,12828.599999964237,14267,16584.80000001192,22472.19999998808,25292.599999964237,27751.80000001192,30032.099999964237,32559.80000001192,36761,38807.30000001192,41844.59999996424,43862.09999996424,47746.69999998808,49546.69999998808,52486.89999997616,56042,58396.59999996424,60601.5]","[]","[0.09999996423721313,3384.800000011921,4427.199999988079,5889.399999976158,10119.300000011921,11463.199999988079,12828.599999964237,14267,16584.80000001192,21668.30000001192,22472.19999998808,25292.599999964237,27751.80000001192,30032.099999964237,32559.80000001192,36761,38807.30000001192,41844.59999996424,43862.09999996424,46495.39999997616,47746.69999998808,49546.69999998808,52486.89999997616,56042,57451.69999998808,58396.59999996424,60601.5,62049.5]","0.5","0.3333333333333333","0","","","","","","","","","","","","","","","","","","","","","","","","","","","","",""
"13660.300000011921","","","","survey-template","8","181113","0.0-4.0-4.0","89","1","2025-07-30 10:34:29","36c45c0696341be0efffe67d72a12abb","105.216.70.10","Mozilla/5.0 (Windows NT 10.0; Win64; x64) AppleWebKit/537.36 (KHTML, like Gecko) Chrome/138.0.0.0 Safari/537.36","WebKit","Chrome","138.0.0.0","Windows","10.0","https://app.prolific.com/","en-ZA,en-GB;q=0.9,en-US;q=0.8,en;q=0.7","653a6a7224e6c0bfb644ff9b","683dba9a53627eb9ab41b36a","6889f519be1181071e8385dc","0","653a6a7224e6c0bfb644ff9b","0","2025-07-30T10:37:34.031Z","","","","stress","{""Q01"":""4"",""Q02"":""4"",""Q03"":""5""}","[0,1,2]","[""Q01"",""Q02"",""Q03""]","[7088.300000011921,8280.699999988079,12225.800000011921]","[]","[2446,4493.399999976158,7088.300000011921,8280.699999988079,11558.899999976158,12225.800000011921,13658.5]","0.3333333333333333","0","0","","","","","","","","","","","","","","","","","","","","","","","","","","","","",""
"4344","","","","instructions","9","185459","0.0-5.0-0.0","89","1","2025-07-30 10:34:29","36c45c0696341be0efffe67d72a12abb","105.216.70.10","Mozilla/5.0 (Windows NT 10.0; Win64; x64) AppleWebKit/537.36 (KHTML, like Gecko) Chrome/138.0.0.0 Safari/537.36","WebKit","Chrome","138.0.0.0","Windows","10.0","https://app.prolific.com/","en-ZA,en-GB;q=0.9,en-US;q=0.8,en;q=0.7","653a6a7224e6c0bfb644ff9b","683dba9a53627eb9ab41b36a","6889f519be1181071e8385dc","0","653a6a7224e6c0bfb644ff9b","0","","","","","","","","","","","","","","","[{""page_index"":0,""viewing_time"":4344}]","","","","","","","","","","","","","","","","","","","","","","","","","","","",""
"4519","","<p>Before you start with this game please answer the following three questions yourself. </p>
  <p>Through this game, we measure several aspects of your cognitive performance, such as reaction times, multi-tasking capabilities </p>
  <p>and the ability to assess the situation you are in.</p>
  <p></p>
  <p><b>How good do you usually are in such tasks?</b></p>","62","html-slider-response","10","189998","0.0-6.0-0.0","89","1","2025-07-30 10:34:29","36c45c0696341be0efffe67d72a12abb","105.216.70.10","Mozilla/5.0 (Windows NT 10.0; Win64; x64) AppleWebKit/537.36 (KHTML, like Gecko) Chrome/138.0.0.0 Safari/537.36","WebKit","Chrome","138.0.0.0","Windows","10.0","https://app.prolific.com/","en-ZA,en-GB;q=0.9,en-US;q=0.8,en;q=0.7","653a6a7224e6c0bfb644ff9b","683dba9a53627eb9ab41b36a","6889f519be1181071e8385dc","0","653a6a7224e6c0bfb644ff9b","0","2025-07-30T10:37:42.916Z","","","","PreSkillQ","","","","","","","","","","","50","","","","","","","","","","","","","","","","","","","","","","","","","","",""
"2666","","<div style=""width:500px;"">
  <p>How well do you think you will perform in this task compared to other participants?</p>
  </div>","63","html-slider-response","11","192666","0.0-6.0-1.0","89","1","2025-07-30 10:34:29","36c45c0696341be0efffe67d72a12abb","105.216.70.10","Mozilla/5.0 (Windows NT 10.0; Win64; x64) AppleWebKit/537.36 (KHTML, like Gecko) Chrome/138.0.0.0 Safari/537.36","WebKit","Chrome","138.0.0.0","Windows","10.0","https://app.prolific.com/","en-ZA,en-GB;q=0.9,en-US;q=0.8,en;q=0.7","653a6a7224e6c0bfb644ff9b","683dba9a53627eb9ab41b36a","6889f519be1181071e8385dc","0","653a6a7224e6c0bfb644ff9b","0","2025-07-30T10:37:45.584Z","","","","PrePerfQ","","","","","","","","","","","50","","","","","","","","","","","","","","","","","","","","","","","","","","",""
"3756","","<div style=""width:500px;"">
  <p>What best describes how you currently feel?</p>
  </div>","0","html-slider-response","12","196424","0.0-6.0-2.0","89","1","2025-07-30 10:34:29","36c45c0696341be0efffe67d72a12abb","105.216.70.10","Mozilla/5.0 (Windows NT 10.0; Win64; x64) AppleWebKit/537.36 (KHTML, like Gecko) Chrome/138.0.0.0 Safari/537.36","WebKit","Chrome","138.0.0.0","Windows","10.0","https://app.prolific.com/","en-ZA,en-GB;q=0.9,en-US;q=0.8,en;q=0.7","653a6a7224e6c0bfb644ff9b","683dba9a53627eb9ab41b36a","6889f519be1181071e8385dc","0","653a6a7224e6c0bfb644ff9b","0","2025-07-30T10:37:49.342Z","","","","PreMotivationQ","","","","","","","","","","","50","","","","","","","","","","","","","","","","","","","","","","","","","","",""
"","","","","ctl-task-cpt","13","221224","0.0-7.0-0.0","89","1","2025-07-30 10:34:29","36c45c0696341be0efffe67d72a12abb","105.216.70.10","Mozilla/5.0 (Windows NT 10.0; Win64; x64) AppleWebKit/537.36 (KHTML, like Gecko) Chrome/138.0.0.0 Safari/537.36","WebKit","Chrome","138.0.0.0","Windows","10.0","https://app.prolific.com/","en-ZA,en-GB;q=0.9,en-US;q=0.8,en;q=0.7","653a6a7224e6c0bfb644ff9b","683dba9a53627eb9ab41b36a","6889f519be1181071e8385dc","0","653a6a7224e6c0bfb644ff9b","0","2025-07-30T10:38:14.142Z","","","","","","","","","","","","","","","","win-only","3","g1:SW,g2:NE","1","1","0","199715.7","2170.6","7172.6","21765.8","1","4","4","6","2","4","4","4","0","0.030303030303030304","4279.8","3000","330","[""up"",""right""]","{""num_key_presses"":6,""num_perfect"":6,""num_errors"":0,""num_randdir"":0,""num_randdir_good_moves"":0,""num_whilered"":0,""num_whileblue"":0,""num_blue"":0,""num_good_moves"":6}","[299.22232142857143,296.12857142857143,1.8,299.22232142857143,296.12857142857143,100.5,299.22232142857143,296.12857142857143,200.7,299.22232142857143,296.12857142857143,301.4,299.22232142857143,296.12857142857143,405.2,299.22232142857143,296.12857142857143,505.2,299.22232142857143,296.12857142857143,613,299.22232142857143,296.12857142857143,716.5,299.22232142857143,296.12857142857143,821.2,299.22232142857143,296.12857142857143,929.5,299.22232142857143,296.12857142857143,1030.1,299.22232142857143,296.12857142857143,1130.1,299.22232142857143,296.12857142857143,1230.2,299.22232142857143,296.12857142857143,1337.2,299.22232142857143,296.12857142857143,1446.1,299.22232142857143,296.12857142857143,1546.4,299.22232142857143,296.12857142857143,1646.4,299.22232142857143,296.12857142857143,1750.5,299.22232142857143,296.12857142857143,1850.9,299.22232142857143,296.12857142857143,1954.9,299.22232142857143,296.12857142857143,2055.3,299.22232142857143,296.12857142857143,2162.9,299.22232142857143,296.12857142857143,2263.1,299.22232142857143,296.12857142857143,2365.2,299.22232142857143,296.12857142857143,2465.3,299.22232142857143,296.12857142857143,2579,299.22232142857143,296.12857142857143,2679.5,299.22232142857143,296.12857142857143,2779.5,299.22232142857143,296.12857142857143,2879.9,299.22232142857143,296.12857142857143,2980.1,299.22232142857143,296.12857142857143,3086.5,299.22232142857143,296.12857142857143,3196.1,299.22232142857143,296.12857142857143,3296.2,299.22232142857143,296.12857142857143,3400.5,299.22232142857143,296.12857142857143,3506.3,299.22232142857143,296.12857142857143,3612.8,299.22232142857143,296.12857142857143,3715.4,299.22232142857143,296.12857142857143,3821.1,299.22232142857143,296.12857142857143,3930.2,511.22232142857143,142.12857142857143,4036.2,554.2223214285714,93.12857142857143,4136.2,566.2223214285714,43.128571428571426,4241.4,566.2223214285714,43.128571428571426,4346.4,566.2223214285714,43.128571428571426,4446.5,565.2223214285714,44.128571428571426,4550.6,484.22232142857143,166.12857142857143,4651.3,385.22232142857143,335.12857142857143,4751.3,382.22232142857143,342.12857142857143,4863.1,382.22232142857143,342.12857142857143,4963.8]","[1516.8,1516.8,1000,0,516.9,""smooth"",""up"",""up"",""good_move"",4675.9,3158.5,2507.5,1517.4,651,""smooth"",""up"",""up"",""good_move"",7198.9,2521.9,2036.9,4677.1,485,""smooth"",""up"",""up"",""good_move"",9661.6,2461.8,2044.2,7199.9,417.5,""smooth"",""right"",""right"",""good_move"",11949.5,2287.1,1862.1,9662.4,425,""smooth"",""right"",""right"",""good_move"",14496.6,2546.9,2139.3,11949.7,407.6,""smooth"",""right"",""right"",""good_move""]"
"2939","","<div style=""width:500px;"">
  <p>What determined the result of this run?</p>
  </div>","83","html-slider-response","14","224167","0.0-7.0-1.0","89","1","2025-07-30 10:34:29","36c45c0696341be0efffe67d72a12abb","105.216.70.10","Mozilla/5.0 (Windows NT 10.0; Win64; x64) AppleWebKit/537.36 (KHTML, like Gecko) Chrome/138.0.0.0 Safari/537.36","WebKit","Chrome","138.0.0.0","Windows","10.0","https://app.prolific.com/","en-ZA,en-GB;q=0.9,en-US;q=0.8,en;q=0.7","653a6a7224e6c0bfb644ff9b","683dba9a53627eb9ab41b36a","6889f519be1181071e8385dc","0","653a6a7224e6c0bfb644ff9b","0","2025-07-30T10:38:17.086Z","","","","AttribQ","","","","","","","","","","","50","","","","","","","","","","","","","","","","","","","","","","","","","","",""
"2781","","<div style=""width:500px;"">
  <p>How much control did you have over the ball?</p>
  </div>","74","html-slider-response","15","226950","0.0-7.0-2.0","89","1","2025-07-30 10:34:29","36c45c0696341be0efffe67d72a12abb","105.216.70.10","Mozilla/5.0 (Windows NT 10.0; Win64; x64) AppleWebKit/537.36 (KHTML, like Gecko) Chrome/138.0.0.0 Safari/537.36","WebKit","Chrome","138.0.0.0","Windows","10.0","https://app.prolific.com/","en-ZA,en-GB;q=0.9,en-US;q=0.8,en;q=0.7","653a6a7224e6c0bfb644ff9b","683dba9a53627eb9ab41b36a","6889f519be1181071e8385dc","0","653a6a7224e6c0bfb644ff9b","0","2025-07-30T10:38:19.868Z","","","","ControlQ","","","","","","","","","","","50","","","","","","","","","","","","","","","","","","","","","","","","","","",""
"3162","","<div style=""width:500px;"">
  <p>How would you describe your current emotional state?</p>
  </div>","98","html-slider-response","16","230114","0.0-7.0-3.0","89","1","2025-07-30 10:34:29","36c45c0696341be0efffe67d72a12abb","105.216.70.10","Mozilla/5.0 (Windows NT 10.0; Win64; x64) AppleWebKit/537.36 (KHTML, like Gecko) Chrome/138.0.0.0 Safari/537.36","WebKit","Chrome","138.0.0.0","Windows","10.0","https://app.prolific.com/","en-ZA,en-GB;q=0.9,en-US;q=0.8,en;q=0.7","653a6a7224e6c0bfb644ff9b","683dba9a53627eb9ab41b36a","6889f519be1181071e8385dc","0","653a6a7224e6c0bfb644ff9b","0","2025-07-30T10:38:23.032Z","","","","StressQ","","","","","","","","","","","50","","","","","","","","","","","","","","","","","","","","","","","","","","",""
"6035","","<div style=""width:500px;"">
  <p>What best describes how you currently feel?</p>
  </div>","21","html-slider-response","17","236151","0.0-7.0-4.0","89","1","2025-07-30 10:34:29","36c45c0696341be0efffe67d72a12abb","105.216.70.10","Mozilla/5.0 (Windows NT 10.0; Win64; x64) AppleWebKit/537.36 (KHTML, like Gecko) Chrome/138.0.0.0 Safari/537.36","WebKit","Chrome","138.0.0.0","Windows","10.0","https://app.prolific.com/","en-ZA,en-GB;q=0.9,en-US;q=0.8,en;q=0.7","653a6a7224e6c0bfb644ff9b","683dba9a53627eb9ab41b36a","6889f519be1181071e8385dc","0","653a6a7224e6c0bfb644ff9b","0","2025-07-30T10:38:29.069Z","","","","MotivationQ","","","","","","","","","","","50","","","","","","","","","","","","","","","","","","","","","","","","","","",""
"","","","","ctl-task-cpt","18","277478","0.0-7.0-0.1","89","1","2025-07-30 10:34:29","36c45c0696341be0efffe67d72a12abb","105.216.70.10","Mozilla/5.0 (Windows NT 10.0; Win64; x64) AppleWebKit/537.36 (KHTML, like Gecko) Chrome/138.0.0.0 Safari/537.36","WebKit","Chrome","138.0.0.0","Windows","10.0","https://app.prolific.com/","en-ZA,en-GB;q=0.9,en-US;q=0.8,en;q=0.7","653a6a7224e6c0bfb644ff9b","683dba9a53627eb9ab41b36a","6889f519be1181071e8385dc","0","653a6a7224e6c0bfb644ff9b","0","2025-07-30T10:39:10.396Z","","","","","","","","","","","","","","","","win-only","0","g1:NW,g2:SE","0.9","2","0","239419.9","1633.4","6636.4","38316.3","1","4","8","6","2","8","8","12","4","0.09090909090909091","937.4","3000","900","[""down"",""right""]","{""num_key_presses"":6,""num_perfect"":6,""num_errors"":0,""num_randdir"":0,""num_randdir_good_moves"":0,""num_whilered"":0,""num_whileblue"":0,""num_blue"":4,""num_good_moves"":6}","[293.22232142857143,291.12857142857143,0.4,293.22232142857143,291.12857142857143,103.6,293.22232142857143,291.12857142857143,213,293.22232142857143,291.12857142857143,317.2,293.22232142857143,291.12857142857143,418.1,443.22232142857143,447.12857142857143,524.3,554.2223214285714,596.1285714285714,624.5,571.2223214285714,608.1285714285714,724.8,573.2223214285714,552.1285714285714,833.8,570.2223214285714,545.1285714285714,945.4,570.2223214285714,545.1285714285714,1046.7,570.2223214285714,545.1285714285714,1147.8,559.2223214285714,544.1285714285714,1248.6,407.22232142857143,435.12857142857143,1352.8,286.22232142857143,356.12857142857143,1452.9,283.22232142857143,354.12857142857143,1552.9,283.22232142857143,354.12857142857143,1657.8,283.22232142857143,354.12857142857143,1763.3,283.22232142857143,352.12857142857143,1868,275.22232142857143,322.12857142857143,1972.8,245.22232142857143,273.12857142857143,2080,242.22232142857143,270.12857142857143,2184.1,242.22232142857143,270.12857142857143,2295.8,242.22232142857143,270.12857142857143,2395.9,242.22232142857143,270.12857142857143,2496.1,242.22232142857143,270.12857142857143,2597.2,242.22232142857143,270.12857142857143,2698.5,242.22232142857143,270.12857142857143,2802.8,242.22232142857143,270.12857142857143,2913.1,242.22232142857143,270.12857142857143,3018.2,242.22232142857143,270.12857142857143,3125.1,242.22232142857143,270.12857142857143,3228.4,242.22232142857143,270.12857142857143,3333,242.22232142857143,270.12857142857143,3433.1,242.22232142857143,270.12857142857143,3537.6,242.22232142857143,270.12857142857143,3637.7,242.22232142857143,270.12857142857143,3745.8,242.22232142857143,270.12857142857143,3848.1,242.22232142857143,270.12857142857143,3948.2,242.22232142857143,270.12857142857143,4048.8,242.22232142857143,270.12857142857143,4152.4,242.22232142857143,270.12857142857143,4252.8,242.22232142857143,270.12857142857143,4362,242.22232142857143,270.12857142857143,4467.6,242.22232142857143,270.12857142857143,4567.6,242.22232142857143,270.12857142857143,4667.8,242.22232142857143,270.12857142857143,4773.3,242.22232142857143,270.12857142857143,4873.3,242.22232142857143,270.12857142857143,4979.2]","[1466.6,1466.6,1000,0,466.6,""smooth"",""down"",""down"",""good_move"",5241.7,3774.6,3358.3,1467.2,416.2,""smooth"",""down"",""down"",""good_move"",8465.9,3223.6,2843.3,5242.3,380.3,""smooth"",""right"",""right"",""good_move"",18523.7,10057.7,2616.2,15494.5,413.1,""smooth"",""right"",""right"",""good_move"",21609.8,3085.5,2619,18524.3,466.5,""smooth"",""down"",""down"",""good_move"",31559.3,9948.7,2053.5,29045,460.9,""smooth"",""right"",""right"",""good_move""]"
"3019","","<div style=""width:500px;"">
  <p>What determined the result of this run?</p>
  </div>","76","html-slider-response","19","280500","0.0-7.0-1.1","89","1","2025-07-30 10:34:29","36c45c0696341be0efffe67d72a12abb","105.216.70.10","Mozilla/5.0 (Windows NT 10.0; Win64; x64) AppleWebKit/537.36 (KHTML, like Gecko) Chrome/138.0.0.0 Safari/537.36","WebKit","Chrome","138.0.0.0","Windows","10.0","https://app.prolific.com/","en-ZA,en-GB;q=0.9,en-US;q=0.8,en;q=0.7","653a6a7224e6c0bfb644ff9b","683dba9a53627eb9ab41b36a","6889f519be1181071e8385dc","0","653a6a7224e6c0bfb644ff9b","0","2025-07-30T10:39:13.418Z","","","","AttribQ","","","","","","","","","","","50","","","","","","","","","","","","","","","","","","","","","","","","","","",""
"2375","","<div style=""width:500px;"">
  <p>How much control did you have over the ball?</p>
  </div>","75","html-slider-response","20","282877","0.0-7.0-2.1","89","1","2025-07-30 10:34:29","36c45c0696341be0efffe67d72a12abb","105.216.70.10","Mozilla/5.0 (Windows NT 10.0; Win64; x64) AppleWebKit/537.36 (KHTML, like Gecko) Chrome/138.0.0.0 Safari/537.36","WebKit","Chrome","138.0.0.0","Windows","10.0","https://app.prolific.com/","en-ZA,en-GB;q=0.9,en-US;q=0.8,en;q=0.7","653a6a7224e6c0bfb644ff9b","683dba9a53627eb9ab41b36a","6889f519be1181071e8385dc","0","653a6a7224e6c0bfb644ff9b","0","2025-07-30T10:39:15.795Z","","","","ControlQ","","","","","","","","","","","50","","","","","","","","","","","","","","","","","","","","","","","","","","",""
"2728","","<div style=""width:500px;"">
  <p>How would you describe your current emotional state?</p>
  </div>","93","html-slider-response","21","285607","0.0-7.0-3.1","89","1","2025-07-30 10:34:29","36c45c0696341be0efffe67d72a12abb","105.216.70.10","Mozilla/5.0 (Windows NT 10.0; Win64; x64) AppleWebKit/537.36 (KHTML, like Gecko) Chrome/138.0.0.0 Safari/537.36","WebKit","Chrome","138.0.0.0","Windows","10.0","https://app.prolific.com/","en-ZA,en-GB;q=0.9,en-US;q=0.8,en;q=0.7","653a6a7224e6c0bfb644ff9b","683dba9a53627eb9ab41b36a","6889f519be1181071e8385dc","0","653a6a7224e6c0bfb644ff9b","0","2025-07-30T10:39:18.525Z","","","","StressQ","","","","","","","","","","","50","","","","","","","","","","","","","","","","","","","","","","","","","","",""
"2099","","<div style=""width:500px;"">
  <p>What best describes how you currently feel?</p>
  </div>","16","html-slider-response","22","287709","0.0-7.0-4.1","89","1","2025-07-30 10:34:29","36c45c0696341be0efffe67d72a12abb","105.216.70.10","Mozilla/5.0 (Windows NT 10.0; Win64; x64) AppleWebKit/537.36 (KHTML, like Gecko) Chrome/138.0.0.0 Safari/537.36","WebKit","Chrome","138.0.0.0","Windows","10.0","https://app.prolific.com/","en-ZA,en-GB;q=0.9,en-US;q=0.8,en;q=0.7","653a6a7224e6c0bfb644ff9b","683dba9a53627eb9ab41b36a","6889f519be1181071e8385dc","0","653a6a7224e6c0bfb644ff9b","0","2025-07-30T10:39:20.627Z","","","","MotivationQ","","","","","","","","","","","50","","","","","","","","","","","","","","","","","","","","","","","","","","",""
"","","","","ctl-task-cpt","23","332882","0.0-7.0-0.2","89","1","2025-07-30 10:34:29","36c45c0696341be0efffe67d72a12abb","105.216.70.10","Mozilla/5.0 (Windows NT 10.0; Win64; x64) AppleWebKit/537.36 (KHTML, like Gecko) Chrome/138.0.0.0 Safari/537.36","WebKit","Chrome","138.0.0.0","Windows","10.0","https://app.prolific.com/","en-ZA,en-GB;q=0.9,en-US;q=0.8,en;q=0.7","653a6a7224e6c0bfb644ff9b","683dba9a53627eb9ab41b36a","6889f519be1181071e8385dc","0","653a6a7224e6c0bfb644ff9b","0","2025-07-30T10:40:05.800Z","","","","","","","","","","","","","","","","win-only","2","g1:SE,g2:NW","0.8","3","0","290981.3","1117.7","6120.9","42151.5","1","4","4","6","2","4","4","16","12","0.12121212121212122","883.1","3000","970","[""left"",""up""]","{""num_key_presses"":6,""num_perfect"":6,""num_errors"":0,""num_randdir"":0,""num_randdir_good_moves"":0,""num_whilered"":0,""num_whileblue"":0,""num_blue"":5,""num_good_moves"":6}","[298.22232142857143,295.12857142857143,14.2,298.22232142857143,295.12857142857143,103.1,298.22232142857143,295.12857142857143,210,298.22232142857143,295.12857142857143,318.7,298.22232142857143,295.12857142857143,422.7,206.22232142857143,217.12857142857143,524.6,108.22232142857143,126.12857142857143,636.8,80.22232142857143,84.12857142857143,738.9,63.222321428571426,65.12857142857143,839.2,62.222321428571426,65.12857142857143,946.3,62.222321428571426,65.12857142857143,1052,83.22232142857143,89.12857142857143,1152.2,238.22232142857143,243.12857142857143,1254.1,330.22232142857143,346.12857142857143,1354.4,334.22232142857143,350.12857142857143,1461.7,334.22232142857143,350.12857142857143,1565.5,334.22232142857143,350.12857142857143,1668.4,334.22232142857143,350.12857142857143,1783.3,334.22232142857143,350.12857142857143,1883.8,334.22232142857143,350.12857142857143,1984.6,334.22232142857143,350.12857142857143,2084.7,334.22232142857143,350.12857142857143,2188.5,334.22232142857143,350.12857142857143,2298.6,334.22232142857143,350.12857142857143,2402.8,334.22232142857143,350.12857142857143,2503.9,334.22232142857143,350.12857142857143,2610.1,334.22232142857143,350.12857142857143,2718.7,334.22232142857143,350.12857142857143,2824.7,334.22232142857143,350.12857142857143,2925.6,334.22232142857143,350.12857142857143,3028,334.22232142857143,350.12857142857143,3132.6,334.22232142857143,350.12857142857143,3233.9,334.22232142857143,350.12857142857143,3338.3,334.22232142857143,350.12857142857143,3450.7,334.22232142857143,350.12857142857143,3551.3,334.22232142857143,350.12857142857143,3653.3,334.22232142857143,350.12857142857143,3753.6,334.22232142857143,350.12857142857143,3859.4,334.22232142857143,350.12857142857143,3967.4,334.22232142857143,350.12857142857143,4069,334.22232142857143,350.12857142857143,4183.3,334.22232142857143,350.12857142857143,4283.4,334.22232142857143,350.12857142857143,4385.4,334.22232142857143,350.12857142857143,4488.1,334.22232142857143,350.12857142857143,4588.3,334.22232142857143,350.12857142857143,4688.5,334.22232142857143,350.12857142857143,4799.6,334.22232142857143,350.12857142857143,4901.2]","[17429.2,17429.2,2597.4,14346.4,485.4,""smooth"",""left"",""left"",""good_move"",20461.8,3031.7,2623.1,17430.1,408.6,""smooth"",""left"",""left"",""good_move"",23893.6,3431.3,3008.7,20462.3,422.6,""smooth"",""left"",""left"",""good_move"",30416.2,6522.2,2927.5,27045.8,443,""smooth"",""up"",""up"",""good_move"",33062.3,2645.5,2158.2,30416.8,487.3,""smooth"",""up"",""up"",""good_move"",35926.5,2863.5,2380.6,33063,482.9,""smooth"",""up"",""up"",""good_move""]"
"6177","","<div style=""width:500px;"">
  <p>What determined the result of this run?</p>
  </div>","90","html-slider-response","24","339061","0.0-7.0-1.2","89","1","2025-07-30 10:34:29","36c45c0696341be0efffe67d72a12abb","105.216.70.10","Mozilla/5.0 (Windows NT 10.0; Win64; x64) AppleWebKit/537.36 (KHTML, like Gecko) Chrome/138.0.0.0 Safari/537.36","WebKit","Chrome","138.0.0.0","Windows","10.0","https://app.prolific.com/","en-ZA,en-GB;q=0.9,en-US;q=0.8,en;q=0.7","653a6a7224e6c0bfb644ff9b","683dba9a53627eb9ab41b36a","6889f519be1181071e8385dc","0","653a6a7224e6c0bfb644ff9b","0","2025-07-30T10:40:11.979Z","","","","AttribQ","","","","","","","","","","","50","","","","","","","","","","","","","","","","","","","","","","","","","","",""
"2562","","<div style=""width:500px;"">
  <p>How much control did you have over the ball?</p>
  </div>","74","html-slider-response","25","341625","0.0-7.0-2.2","89","1","2025-07-30 10:34:29","36c45c0696341be0efffe67d72a12abb","105.216.70.10","Mozilla/5.0 (Windows NT 10.0; Win64; x64) AppleWebKit/537.36 (KHTML, like Gecko) Chrome/138.0.0.0 Safari/537.36","WebKit","Chrome","138.0.0.0","Windows","10.0","https://app.prolific.com/","en-ZA,en-GB;q=0.9,en-US;q=0.8,en;q=0.7","653a6a7224e6c0bfb644ff9b","683dba9a53627eb9ab41b36a","6889f519be1181071e8385dc","0","653a6a7224e6c0bfb644ff9b","0","2025-07-30T10:40:14.543Z","","","","ControlQ","","","","","","","","","","","50","","","","","","","","","","","","","","","","","","","","","","","","","","",""
"2292","","<div style=""width:500px;"">
  <p>How would you describe your current emotional state?</p>
  </div>","95","html-slider-response","26","343919","0.0-7.0-3.2","89","1","2025-07-30 10:34:29","36c45c0696341be0efffe67d72a12abb","105.216.70.10","Mozilla/5.0 (Windows NT 10.0; Win64; x64) AppleWebKit/537.36 (KHTML, like Gecko) Chrome/138.0.0.0 Safari/537.36","WebKit","Chrome","138.0.0.0","Windows","10.0","https://app.prolific.com/","en-ZA,en-GB;q=0.9,en-US;q=0.8,en;q=0.7","653a6a7224e6c0bfb644ff9b","683dba9a53627eb9ab41b36a","6889f519be1181071e8385dc","0","653a6a7224e6c0bfb644ff9b","0","2025-07-30T10:40:16.837Z","","","","StressQ","","","","","","","","","","","50","","","","","","","","","","","","","","","","","","","","","","","","","","",""
"2570","","<div style=""width:500px;"">
  <p>What best describes how you currently feel?</p>
  </div>","26","html-slider-response","27","346492","0.0-7.0-4.2","89","1","2025-07-30 10:34:29","36c45c0696341be0efffe67d72a12abb","105.216.70.10","Mozilla/5.0 (Windows NT 10.0; Win64; x64) AppleWebKit/537.36 (KHTML, like Gecko) Chrome/138.0.0.0 Safari/537.36","WebKit","Chrome","138.0.0.0","Windows","10.0","https://app.prolific.com/","en-ZA,en-GB;q=0.9,en-US;q=0.8,en;q=0.7","653a6a7224e6c0bfb644ff9b","683dba9a53627eb9ab41b36a","6889f519be1181071e8385dc","0","653a6a7224e6c0bfb644ff9b","0","2025-07-30T10:40:19.410Z","","","","MotivationQ","","","","","","","","","","","50","","","","","","","","","","","","","","","","","","","","","","","","","","",""
"","","","","ctl-task-cpt","28","400365","0.0-7.0-0.3","89","1","2025-07-30 10:34:29","36c45c0696341be0efffe67d72a12abb","105.216.70.10","Mozilla/5.0 (Windows NT 10.0; Win64; x64) AppleWebKit/537.36 (KHTML, like Gecko) Chrome/138.0.0.0 Safari/537.36","WebKit","Chrome","138.0.0.0","Windows","10.0","https://app.prolific.com/","en-ZA,en-GB;q=0.9,en-US;q=0.8,en;q=0.7","653a6a7224e6c0bfb644ff9b","683dba9a53627eb9ab41b36a","6889f519be1181071e8385dc","0","653a6a7224e6c0bfb644ff9b","0","2025-07-30T10:41:13.283Z","","","","","","","","","","","","","","","","win-only","3","g1:SW,g2:NE","0.7","4","0","349762.3","2090.2","7092.2","50844.8","1","4","8","6","2","-8","-8","8","16","0.06060606060606061","742.8","3000","-2150","[""up"",""right""]","{""num_key_presses"":10,""num_perfect"":7,""num_errors"":0,""num_randdir"":3,""num_randdir_good_moves"":0,""num_whilered"":0,""num_whileblue"":0,""num_blue"":4,""num_good_moves"":7}","[296.22232142857143,299.12857142857143,2.5,296.22232142857143,299.12857142857143,113.9,296.22232142857143,299.12857142857143,215.5,296.22232142857143,299.12857142857143,322,388.22232142857143,195.12857142857143,439.2,560.2223214285714,52.128571428571426,539.4,560.2223214285714,52.128571428571426,641.2,560.2223214285714,52.128571428571426,757.9,560.2223214285714,52.128571428571426,866.8,554.2223214285714,60.128571428571426,973.6,511.22232142857143,124.12857142857143,1077.5,473.22232142857143,186.12857142857143,1181.4,460.22232142857143,208.12857142857143,1299.5,458.22232142857143,211.12857142857143,1401.1,458.22232142857143,211.12857142857143,1503,455.22232142857143,214.12857142857143,1613.1,447.22232142857143,218.12857142857143,1714.4,446.22232142857143,219.12857142857143,1814.6,446.22232142857143,219.12857142857143,1915.7,446.22232142857143,219.12857142857143,2016.9,446.22232142857143,219.12857142857143,2122,446.22232142857143,219.12857142857143,2226.4,446.22232142857143,219.12857142857143,2327.4,446.22232142857143,219.12857142857143,2428,446.22232142857143,219.12857142857143,2530.8,446.22232142857143,219.12857142857143,2646.9,446.22232142857143,219.12857142857143,2749.3,446.22232142857143,219.12857142857143,2851.1,446.22232142857143,219.12857142857143,2963.7,446.22232142857143,219.12857142857143,3064.2,446.22232142857143,219.12857142857143,3165.9,446.22232142857143,219.12857142857143,3272,446.22232142857143,219.12857142857143,3378.1,446.22232142857143,219.12857142857143,3480.4,446.22232142857143,219.12857142857143,3592.3,446.22232142857143,219.12857142857143,3698,446.22232142857143,219.12857142857143,3802.1,446.22232142857143,219.12857142857143,3906.5,446.22232142857143,219.12857142857143,4011.4,446.22232142857143,219.12857142857143,4113,446.22232142857143,219.12857142857143,4216.7,446.22232142857143,219.12857142857143,4330.2,446.22232142857143,219.12857142857143,4430.5,446.22232142857143,219.12857142857143,4548.5,446.22232142857143,219.12857142857143,4651.3,446.22232142857143,219.12857142857143,4752.1,446.22232142857143,219.12857142857143,4864.2,446.22232142857143,219.12857142857143,4965.4]","[1464.6,1464.6,1000,0,464.6,""smooth"",""up"",""up"",""good_move"",4274.5,2806.3,2408.3,1468.2,398,""smooth"",""up"",""up"",""good_move"",11162.6,6887.8,1887.7,8776.6,498.3,""oops"",""up"",""left"",""bad_move"",14052.8,2889.4,2528.1,11163.5,361.3,""smooth"",""up"",""up"",""good_move"",20431.8,6376.5,2493,17520,418.8,""oops"",""right"",""left"",""bad_move"",26204.2,5771.5,2263.3,23543.4,397.5,""smooth"",""right"",""right"",""good_move"",32491.9,6285.6,2749.2,29361.5,381.2,""smooth"",""right"",""right"",""good_move"",35439.8,2947.6,2598.7,32492.2,348.9,""smooth"",""right"",""right"",""good_move"",38758.4,3318.2,2884.4,35440.2,433.8,""oops"",""right"",""left"",""bad_move"",40624.9,1866,1369.2,38758.9,496.8,""smooth"",""right"",""right"",""good_move""]"
"3779","","<div style=""width:500px;"">
  <p>What determined the result of this run?</p>
  </div>","16","html-slider-response","29","404146","0.0-7.0-1.3","89","1","2025-07-30 10:34:29","36c45c0696341be0efffe67d72a12abb","105.216.70.10","Mozilla/5.0 (Windows NT 10.0; Win64; x64) AppleWebKit/537.36 (KHTML, like Gecko) Chrome/138.0.0.0 Safari/537.36","WebKit","Chrome","138.0.0.0","Windows","10.0","https://app.prolific.com/","en-ZA,en-GB;q=0.9,en-US;q=0.8,en;q=0.7","653a6a7224e6c0bfb644ff9b","683dba9a53627eb9ab41b36a","6889f519be1181071e8385dc","0","653a6a7224e6c0bfb644ff9b","0","2025-07-30T10:41:17.065Z","","","","AttribQ","","","","","","","","","","","50","","","","","","","","","","","","","","","","","","","","","","","","","","",""
"2815","","<div style=""width:500px;"">
  <p>How much control did you have over the ball?</p>
  </div>","27","html-slider-response","30","406964","0.0-7.0-2.3","89","1","2025-07-30 10:34:29","36c45c0696341be0efffe67d72a12abb","105.216.70.10","Mozilla/5.0 (Windows NT 10.0; Win64; x64) AppleWebKit/537.36 (KHTML, like Gecko) Chrome/138.0.0.0 Safari/537.36","WebKit","Chrome","138.0.0.0","Windows","10.0","https://app.prolific.com/","en-ZA,en-GB;q=0.9,en-US;q=0.8,en;q=0.7","653a6a7224e6c0bfb644ff9b","683dba9a53627eb9ab41b36a","6889f519be1181071e8385dc","0","653a6a7224e6c0bfb644ff9b","0","2025-07-30T10:41:19.882Z","","","","ControlQ","","","","","","","","","","","50","","","","","","","","","","","","","","","","","","","","","","","","","","",""
"2346","","<div style=""width:500px;"">
  <p>How would you describe your current emotional state?</p>
  </div>","94","html-slider-response","31","409312","0.0-7.0-3.3","89","1","2025-07-30 10:34:29","36c45c0696341be0efffe67d72a12abb","105.216.70.10","Mozilla/5.0 (Windows NT 10.0; Win64; x64) AppleWebKit/537.36 (KHTML, like Gecko) Chrome/138.0.0.0 Safari/537.36","WebKit","Chrome","138.0.0.0","Windows","10.0","https://app.prolific.com/","en-ZA,en-GB;q=0.9,en-US;q=0.8,en;q=0.7","653a6a7224e6c0bfb644ff9b","683dba9a53627eb9ab41b36a","6889f519be1181071e8385dc","0","653a6a7224e6c0bfb644ff9b","0","2025-07-30T10:41:22.230Z","","","","StressQ","","","","","","","","","","","50","","","","","","","","","","","","","","","","","","","","","","","","","","",""
"4229","","<div style=""width:500px;"">
  <p>What best describes how you currently feel?</p>
  </div>","18","html-slider-response","32","413543","0.0-7.0-4.3","89","1","2025-07-30 10:34:29","36c45c0696341be0efffe67d72a12abb","105.216.70.10","Mozilla/5.0 (Windows NT 10.0; Win64; x64) AppleWebKit/537.36 (KHTML, like Gecko) Chrome/138.0.0.0 Safari/537.36","WebKit","Chrome","138.0.0.0","Windows","10.0","https://app.prolific.com/","en-ZA,en-GB;q=0.9,en-US;q=0.8,en;q=0.7","653a6a7224e6c0bfb644ff9b","683dba9a53627eb9ab41b36a","6889f519be1181071e8385dc","0","653a6a7224e6c0bfb644ff9b","0","2025-07-30T10:41:26.461Z","","","","MotivationQ","","","","","","","","","","","50","","","","","","","","","","","","","","","","","","","","","","","","","","",""
"","","","","ctl-task-cpt","33","450580","0.0-7.0-0.4","89","1","2025-07-30 10:34:29","36c45c0696341be0efffe67d72a12abb","105.216.70.10","Mozilla/5.0 (Windows NT 10.0; Win64; x64) AppleWebKit/537.36 (KHTML, like Gecko) Chrome/138.0.0.0 Safari/537.36","WebKit","Chrome","138.0.0.0","Windows","10.0","https://app.prolific.com/","en-ZA,en-GB;q=0.9,en-US;q=0.8,en;q=0.7","653a6a7224e6c0bfb644ff9b","683dba9a53627eb9ab41b36a","6889f519be1181071e8385dc","0","653a6a7224e6c0bfb644ff9b","0","2025-07-30T10:42:03.499Z","","","","","","","","","","","","","","","","win-only","3","g1:SW,g2:NE","0.6","5","0","416814.3","1189.9","6201.5","34001.5","1","4","8","6","2","8","8","16","8","0.12121212121212122","720.1","3000","1240","[""up"",""right""]","{""num_key_presses"":6,""num_perfect"":4,""num_errors"":0,""num_randdir"":2,""num_randdir_good_moves"":2,""num_whilered"":0,""num_whileblue"":0,""num_blue"":3,""num_good_moves"":6}","[292.22232142857143,300.12857142857143,1.7,292.22232142857143,300.12857142857143,103.5,292.22232142857143,300.12857142857143,216.9,292.22232142857143,300.12857142857143,318.2,423.22232142857143,211.12857142857143,419.9,563.2223214285714,23.128571428571426,537.1,565.2223214285714,12.128571428571426,637.2,565.2223214285714,12.128571428571426,739,565.2223214285714,12.128571428571426,840.2,565.2223214285714,12.128571428571426,941.2,544.2223214285714,46.128571428571426,1041.7,536.2223214285714,78.12857142857143,1142.6,534.2223214285714,92.12857142857143,1243.3,531.2223214285714,101.12857142857143,1348.6,531.2223214285714,101.12857142857143,1465.8,531.2223214285714,101.12857142857143,1576.1,531.2223214285714,101.12857142857143,1683.3,531.2223214285714,101.12857142857143,1787.9,531.2223214285714,101.12857142857143,1897.9,531.2223214285714,101.12857142857143,2012,531.2223214285714,101.12857142857143,2127.3,531.2223214285714,101.12857142857143,2227.9,531.2223214285714,101.12857142857143,2332.5,531.2223214285714,101.12857142857143,2434.1,531.2223214285714,101.12857142857143,2539.2,531.2223214285714,101.12857142857143,2641.5,531.2223214285714,101.12857142857143,2749.7,531.2223214285714,101.12857142857143,2864.2,531.2223214285714,101.12857142857143,2967.2,531.2223214285714,101.12857142857143,3080.2,531.2223214285714,101.12857142857143,3181,531.2223214285714,101.12857142857143,3284.4,531.2223214285714,101.12857142857143,3396.6,531.2223214285714,101.12857142857143,3507.5,531.2223214285714,101.12857142857143,3607.8,531.2223214285714,101.12857142857143,3711.2,531.2223214285714,101.12857142857143,3814.1,531.2223214285714,101.12857142857143,3929.6,531.2223214285714,101.12857142857143,4037.2,531.2223214285714,101.12857142857143,4139.8,531.2223214285714,101.12857142857143,4244.8,531.2223214285714,101.12857142857143,4346.4,531.2223214285714,101.12857142857143,4461.3,531.2223214285714,101.12857142857143,4568.3,531.2223214285714,101.12857142857143,4668.9,531.2223214285714,101.12857142857143,4769.1,531.2223214285714,101.12857142857143,4878,531.2223214285714,101.12857142857143,4983.5]","[1448.4,1448.5,1000,0,448.5,""oops"",""up"",""right"",""good_move"",14979.5,13530.1,2559.2,12014.3,406,""smooth"",""up"",""up"",""good_move"",18481,3501,3017.3,14980,483.7,""smooth"",""up"",""up"",""good_move"",21310.7,2829.4,2222.7,18481.3,606.7,""smooth"",""right"",""right"",""good_move"",24493.9,3182.7,2766.6,21311.2,416.1,""smooth"",""up"",""up"",""good_move"",27663,3168.8,2781.6,24494.3,387.1,""oops"",""right"",""right"",""good_move""]"
"2401","","<div style=""width:500px;"">
  <p>What determined the result of this run?</p>
  </div>","84","html-slider-response","34","452985","0.0-7.0-1.4","89","1","2025-07-30 10:34:29","36c45c0696341be0efffe67d72a12abb","105.216.70.10","Mozilla/5.0 (Windows NT 10.0; Win64; x64) AppleWebKit/537.36 (KHTML, like Gecko) Chrome/138.0.0.0 Safari/537.36","WebKit","Chrome","138.0.0.0","Windows","10.0","https://app.prolific.com/","en-ZA,en-GB;q=0.9,en-US;q=0.8,en;q=0.7","653a6a7224e6c0bfb644ff9b","683dba9a53627eb9ab41b36a","6889f519be1181071e8385dc","0","653a6a7224e6c0bfb644ff9b","0","2025-07-30T10:42:05.903Z","","","","AttribQ","","","","","","","","","","","50","","","","","","","","","","","","","","","","","","","","","","","","","","",""
"2736","","<div style=""width:500px;"">
  <p>How much control did you have over the ball?</p>
  </div>","69","html-slider-response","35","455724","0.0-7.0-2.4","89","1","2025-07-30 10:34:29","36c45c0696341be0efffe67d72a12abb","105.216.70.10","Mozilla/5.0 (Windows NT 10.0; Win64; x64) AppleWebKit/537.36 (KHTML, like Gecko) Chrome/138.0.0.0 Safari/537.36","WebKit","Chrome","138.0.0.0","Windows","10.0","https://app.prolific.com/","en-ZA,en-GB;q=0.9,en-US;q=0.8,en;q=0.7","653a6a7224e6c0bfb644ff9b","683dba9a53627eb9ab41b36a","6889f519be1181071e8385dc","0","653a6a7224e6c0bfb644ff9b","0","2025-07-30T10:42:08.642Z","","","","ControlQ","","","","","","","","","","","50","","","","","","","","","","","","","","","","","","","","","","","","","","",""
"3365","","<div style=""width:500px;"">
  <p>How would you describe your current emotional state?</p>
  </div>","98","html-slider-response","36","459092","0.0-7.0-3.4","89","1","2025-07-30 10:34:29","36c45c0696341be0efffe67d72a12abb","105.216.70.10","Mozilla/5.0 (Windows NT 10.0; Win64; x64) AppleWebKit/537.36 (KHTML, like Gecko) Chrome/138.0.0.0 Safari/537.36","WebKit","Chrome","138.0.0.0","Windows","10.0","https://app.prolific.com/","en-ZA,en-GB;q=0.9,en-US;q=0.8,en;q=0.7","653a6a7224e6c0bfb644ff9b","683dba9a53627eb9ab41b36a","6889f519be1181071e8385dc","0","653a6a7224e6c0bfb644ff9b","0","2025-07-30T10:42:12.010Z","","","","StressQ","","","","","","","","","","","50","","","","","","","","","","","","","","","","","","","","","","","","","","",""
"2774","","<div style=""width:500px;"">
  <p>What best describes how you currently feel?</p>
  </div>","12","html-slider-response","37","461869","0.0-7.0-4.4","89","1","2025-07-30 10:34:29","36c45c0696341be0efffe67d72a12abb","105.216.70.10","Mozilla/5.0 (Windows NT 10.0; Win64; x64) AppleWebKit/537.36 (KHTML, like Gecko) Chrome/138.0.0.0 Safari/537.36","WebKit","Chrome","138.0.0.0","Windows","10.0","https://app.prolific.com/","en-ZA,en-GB;q=0.9,en-US;q=0.8,en;q=0.7","653a6a7224e6c0bfb644ff9b","683dba9a53627eb9ab41b36a","6889f519be1181071e8385dc","0","653a6a7224e6c0bfb644ff9b","0","2025-07-30T10:42:14.787Z","","","","MotivationQ","","","","","","","","","","","50","","","","","","","","","","","","","","","","","","","","","","","","","","",""
"","","","","ctl-task-cpt","38","525034","0.0-7.0-0.5","89","1","2025-07-30 10:34:29","36c45c0696341be0efffe67d72a12abb","105.216.70.10","Mozilla/5.0 (Windows NT 10.0; Win64; x64) AppleWebKit/537.36 (KHTML, like Gecko) Chrome/138.0.0.0 Safari/537.36","WebKit","Chrome","138.0.0.0","Windows","10.0","https://app.prolific.com/","en-ZA,en-GB;q=0.9,en-US;q=0.8,en;q=0.7","653a6a7224e6c0bfb644ff9b","683dba9a53627eb9ab41b36a","6889f519be1181071e8385dc","0","653a6a7224e6c0bfb644ff9b","0","2025-07-30T10:43:17.952Z","","","","","","","","","","","","","","","","win-only","1","g1:NE,g2:SW","0.5","6","0","465140.5","1551.9","6556","60131.3","1","4","4","6","2","-4","-4","12","16","0.09090909090909091","3434.9","3000","-1770","[""down"",""left""]","{""num_key_presses"":9,""num_perfect"":5,""num_errors"":0,""num_randdir"":4,""num_randdir_good_moves"":1,""num_whilered"":0,""num_whileblue"":0,""num_blue"":7,""num_good_moves"":6}","[298.22232142857143,295.12857142857143,0.5,298.22232142857143,295.12857142857143,101.8,298.22232142857143,295.12857142857143,204.1,298.22232142857143,295.12857142857143,304.5,298.22232142857143,295.12857142857143,418.3,298.22232142857143,295.12857142857143,520.2,340.22232142857143,268.12857142857143,623.9,383.22232142857143,248.12857142857143,732,383.22232142857143,246.12857142857143,836.2,383.22232142857143,246.12857142857143,960.1,384.22232142857143,246.12857142857143,1061.8,384.22232142857143,246.12857142857143,1163.7,380.22232142857143,246.12857142857143,1264.1,373.22232142857143,246.12857142857143,1379.1,372.22232142857143,247.12857142857143,1487.6,372.22232142857143,247.12857142857143,1613,372.22232142857143,247.12857142857143,1714.6,372.22232142857143,247.12857142857143,1816.4,372.22232142857143,247.12857142857143,1928.5,372.22232142857143,247.12857142857143,2049.5,372.22232142857143,247.12857142857143,2152.5,372.22232142857143,247.12857142857143,2261.1,372.22232142857143,247.12857142857143,2381.7,372.22232142857143,247.12857142857143,2484.5,372.22232142857143,247.12857142857143,2584.6,372.22232142857143,247.12857142857143,2691.9,372.22232142857143,247.12857142857143,2796.3,372.22232142857143,247.12857142857143,2912.2,275.22232142857143,317.12857142857143,3028.9,42.222321428571426,480.12857142857143,3137.8,65.22232142857143,506.12857142857143,3246.2,69.22232142857143,536.1285714285714,3352.4,66.22232142857143,554.1285714285714,3454.2,66.22232142857143,554.1285714285714,3560.6,66.22232142857143,554.1285714285714,3673.8,66.22232142857143,554.1285714285714,3790.3,66.22232142857143,554.1285714285714,3895,66.22232142857143,553.1285714285714,4010.4,75.22232142857143,545.1285714285714,4132.7,83.22232142857143,542.1285714285714,4234.1,115.22232142857143,530.1285714285714,4334.9,220.22232142857143,471.12857142857143,4435.6,246.22232142857143,448.12857142857143,4536.1,276.22232142857143,420.12857142857143,4642.8,295.22232142857143,400.12857142857143,4743.6,318.22232142857143,382.12857142857143,4847.3,320.22232142857143,382.12857142857143,4949.5]","[1800,1800,1000,0,800,""smooth"",""down"",""down"",""good_move"",4375.8,2573.2,2155.5,1802.6,417.7,""oops"",""down"",""right"",""bad_move"",14929.8,10552.5,3426,10990.7,513.1,""oops"",""down"",""up"",""bad_move"",17868.5,2938.2,2509.9,14930.4,428.2,""oops"",""left"",""left"",""good_move"",21128.5,3258.9,2845.7,17869.6,413.2,""smooth"",""left"",""left"",""good_move"",38141.9,17012.9,2328.9,35227.1,585.9,""smooth"",""left"",""left"",""good_move"",41167,3024.4,2532.8,38142.6,491.6,""smooth"",""down"",""down"",""good_move"",43675.1,2507.1,1699.7,41168.1,807.4,""oops"",""down"",""right"",""bad_move"",47205.2,3529.3,2983,43675.9,546.4,""smooth"",""down"",""down"",""good_move""]"
"3540","","<div style=""width:500px;"">
  <p>What determined the result of this run?</p>
  </div>","12","html-slider-response","39","528577","0.0-7.0-1.5","89","1","2025-07-30 10:34:29","36c45c0696341be0efffe67d72a12abb","105.216.70.10","Mozilla/5.0 (Windows NT 10.0; Win64; x64) AppleWebKit/537.36 (KHTML, like Gecko) Chrome/138.0.0.0 Safari/537.36","WebKit","Chrome","138.0.0.0","Windows","10.0","https://app.prolific.com/","en-ZA,en-GB;q=0.9,en-US;q=0.8,en;q=0.7","653a6a7224e6c0bfb644ff9b","683dba9a53627eb9ab41b36a","6889f519be1181071e8385dc","0","653a6a7224e6c0bfb644ff9b","0","2025-07-30T10:43:21.495Z","","","","AttribQ","","","","","","","","","","","50","","","","","","","","","","","","","","","","","","","","","","","","","","",""
"3575","","<div style=""width:500px;"">
  <p>How much control did you have over the ball?</p>
  </div>","1","html-slider-response","40","532156","0.0-7.0-2.5","89","1","2025-07-30 10:34:29","36c45c0696341be0efffe67d72a12abb","105.216.70.10","Mozilla/5.0 (Windows NT 10.0; Win64; x64) AppleWebKit/537.36 (KHTML, like Gecko) Chrome/138.0.0.0 Safari/537.36","WebKit","Chrome","138.0.0.0","Windows","10.0","https://app.prolific.com/","en-ZA,en-GB;q=0.9,en-US;q=0.8,en;q=0.7","653a6a7224e6c0bfb644ff9b","683dba9a53627eb9ab41b36a","6889f519be1181071e8385dc","0","653a6a7224e6c0bfb644ff9b","0","2025-07-30T10:43:25.074Z","","","","ControlQ","","","","","","","","","","","50","","","","","","","","","","","","","","","","","","","","","","","","","","",""
"2696","","<div style=""width:500px;"">
  <p>How would you describe your current emotional state?</p>
  </div>","100","html-slider-response","41","534854","0.0-7.0-3.5","89","1","2025-07-30 10:34:29","36c45c0696341be0efffe67d72a12abb","105.216.70.10","Mozilla/5.0 (Windows NT 10.0; Win64; x64) AppleWebKit/537.36 (KHTML, like Gecko) Chrome/138.0.0.0 Safari/537.36","WebKit","Chrome","138.0.0.0","Windows","10.0","https://app.prolific.com/","en-ZA,en-GB;q=0.9,en-US;q=0.8,en;q=0.7","653a6a7224e6c0bfb644ff9b","683dba9a53627eb9ab41b36a","6889f519be1181071e8385dc","0","653a6a7224e6c0bfb644ff9b","0","2025-07-30T10:43:27.772Z","","","","StressQ","","","","","","","","","","","50","","","","","","","","","","","","","","","","","","","","","","","","","","",""
"2502","","<div style=""width:500px;"">
  <p>What best describes how you currently feel?</p>
  </div>","14","html-slider-response","42","537359","0.0-7.0-4.5","89","1","2025-07-30 10:34:29","36c45c0696341be0efffe67d72a12abb","105.216.70.10","Mozilla/5.0 (Windows NT 10.0; Win64; x64) AppleWebKit/537.36 (KHTML, like Gecko) Chrome/138.0.0.0 Safari/537.36","WebKit","Chrome","138.0.0.0","Windows","10.0","https://app.prolific.com/","en-ZA,en-GB;q=0.9,en-US;q=0.8,en;q=0.7","653a6a7224e6c0bfb644ff9b","683dba9a53627eb9ab41b36a","6889f519be1181071e8385dc","0","653a6a7224e6c0bfb644ff9b","0","2025-07-30T10:43:30.277Z","","","","MotivationQ","","","","","","","","","","","50","","","","","","","","","","","","","","","","","","","","","","","","","","",""
"","","","","ctl-task-cpt","43","603617","0.0-7.0-0.6","89","1","2025-07-30 10:34:29","36c45c0696341be0efffe67d72a12abb","105.216.70.10","Mozilla/5.0 (Windows NT 10.0; Win64; x64) AppleWebKit/537.36 (KHTML, like Gecko) Chrome/138.0.0.0 Safari/537.36","WebKit","Chrome","138.0.0.0","Windows","10.0","https://app.prolific.com/","en-ZA,en-GB;q=0.9,en-US;q=0.8,en;q=0.7","653a6a7224e6c0bfb644ff9b","683dba9a53627eb9ab41b36a","6889f519be1181071e8385dc","0","653a6a7224e6c0bfb644ff9b","0","2025-07-30T10:44:36.535Z","","","","","","","","","","","","","","","","win-only","2","g1:SE,g2:NW","0.4","7","0","540631.5","1185","6191.1","63217.9","1","4","8","6","2","8","7","19","12","0.14393939393939395","1050.5","3000","170","[""left"",""up""]","{""num_key_presses"":16,""num_perfect"":6,""num_errors"":1,""num_randdir"":9,""num_randdir_good_moves"":4,""num_whilered"":0,""num_whileblue"":1,""num_blue"":4,""num_good_moves"":11}","[295.22232142857143,297.12857142857143,0.7,295.22232142857143,297.12857142857143,105.8,295.22232142857143,297.12857142857143,216.9,295.22232142857143,297.12857142857143,344.6,310.22232142857143,306.12857142857143,455.9,320.22232142857143,292.12857142857143,571.7,194.22232142857143,169.12857142857143,679.2,40.222321428571426,30.128571428571426,809.5,52.222321428571426,46.128571428571426,917.1,75.22232142857143,67.12857142857143,1057.5,75.22232142857143,67.12857142857143,1161.7,75.22232142857143,67.12857142857143,1266.7,75.22232142857143,67.12857142857143,1390.3,75.22232142857143,67.12857142857143,1492,75.22232142857143,67.12857142857143,1593,75.22232142857143,67.12857142857143,1702.6,75.22232142857143,67.12857142857143,1808.1,75.22232142857143,67.12857142857143,1915.7,75.22232142857143,67.12857142857143,2019.3,75.22232142857143,67.12857142857143,2154.3,75.22232142857143,68.12857142857143,2254.4,75.22232142857143,68.12857142857143,2357.4,75.22232142857143,68.12857142857143,2463.4,75.22232142857143,68.12857142857143,2580.5,75.22232142857143,68.12857142857143,2686.5,75.22232142857143,72.12857142857143,2809.1,75.22232142857143,76.12857142857143,2912.8,75.22232142857143,76.12857142857143,3013.9,75.22232142857143,76.12857142857143,3114,75.22232142857143,76.12857142857143,3215.2,75.22232142857143,76.12857142857143,3325.9,75.22232142857143,76.12857142857143,3427.3,75.22232142857143,76.12857142857143,3539,75.22232142857143,76.12857142857143,3640.1,75.22232142857143,76.12857142857143,3751.2,75.22232142857143,76.12857142857143,3855.1,75.22232142857143,76.12857142857143,3955.2,75.22232142857143,92.12857142857143,4057.7,90.22232142857143,167.12857142857143,4162.6,142.22232142857143,305.12857142857143,4273.2,142.22232142857143,307.12857142857143,4375.6,142.22232142857143,307.12857142857143,4476.5,142.22232142857143,307.12857142857143,4580.7,142.22232142857143,307.12857142857143,4683.5,142.22232142857143,307.12857142857143,4809.5,142.22232142857143,307.12857142857143,4916.6]","[1429.7,1429.7,1000,0,429.7,""smooth"",""left"",""left"",""good_move"",4527,3096.6,2681.2,1430.4,415.4,""oops"",""left"",""down"",""bad_move"",7595.3,3067.1,2606.1,4528.2,461,""oops"",""left"",""up"",""good_move"",10375.2,2777.4,2387.1,7597.8,390.3,""oops"",""left"",""up"",""good_move"",16714.7,6338.1,2132.6,14116.5,465.6,""oops"",""left"",""down"",""bad_move"",19440.9,2725.6,2308.5,16715.3,417.1,""oops"",""left"",""right"",""bad_move"",22346.7,2904.7,2509.9,19442,394.8,""smooth"",""left"",""left"",""good_move"",25491.5,3143,2738.7,22348.5,404.3,""smooth"",""left"",""left"",""good_move"",28915,3421.9,3078.4,25493.2,343.4,""oops"",""left"",""down"",""bad_move"",34509.1,5592.6,2319.4,31713.7,476,""smooth"",""left"",""left"",""good_move"",41149.3,6639.6,2274.7,38432.6,442,""smooth"",""up"",""up"",""good_move"",43715,2565.1,2092.1,41149.9,473,""smooth"",""up"",""up"",""good_move"",46822.3,3106.4,2752.9,43715.9,353.5,""oops"",""up"",""down"",""bad_move"",50077.2,3253.1,2823.3,46824.1,429.8,""oops"",""up"",""up"",""good_move"",53090.8,3011.9,2636.6,50079,375.2,""while_blue"",""up"",""up"",""good_move"",56833.1,3741.4,3329.1,53091.7,412.3,""oops"",""up"",""up"",""good_move""]"
"2697","","<div style=""width:500px;"">
  <p>What determined the result of this run?</p>
  </div>","18","html-slider-response","44","606317","0.0-7.0-1.6","89","1","2025-07-30 10:34:29","36c45c0696341be0efffe67d72a12abb","105.216.70.10","Mozilla/5.0 (Windows NT 10.0; Win64; x64) AppleWebKit/537.36 (KHTML, like Gecko) Chrome/138.0.0.0 Safari/537.36","WebKit","Chrome","138.0.0.0","Windows","10.0","https://app.prolific.com/","en-ZA,en-GB;q=0.9,en-US;q=0.8,en;q=0.7","653a6a7224e6c0bfb644ff9b","683dba9a53627eb9ab41b36a","6889f519be1181071e8385dc","0","653a6a7224e6c0bfb644ff9b","0","2025-07-30T10:44:39.235Z","","","","AttribQ","","","","","","","","","","","50","","","","","","","","","","","","","","","","","","","","","","","","","","",""
"3799","","<div style=""width:500px;"">
  <p>How much control did you have over the ball?</p>
  </div>","34","html-slider-response","45","610118","0.0-7.0-2.6","89","1","2025-07-30 10:34:29","36c45c0696341be0efffe67d72a12abb","105.216.70.10","Mozilla/5.0 (Windows NT 10.0; Win64; x64) AppleWebKit/537.36 (KHTML, like Gecko) Chrome/138.0.0.0 Safari/537.36","WebKit","Chrome","138.0.0.0","Windows","10.0","https://app.prolific.com/","en-ZA,en-GB;q=0.9,en-US;q=0.8,en;q=0.7","653a6a7224e6c0bfb644ff9b","683dba9a53627eb9ab41b36a","6889f519be1181071e8385dc","0","653a6a7224e6c0bfb644ff9b","0","2025-07-30T10:44:43.036Z","","","","ControlQ","","","","","","","","","","","50","","","","","","","","","","","","","","","","","","","","","","","","","","",""
"4663","","<div style=""width:500px;"">
  <p>How would you describe your current emotional state?</p>
  </div>","97","html-slider-response","46","614784","0.0-7.0-3.6","89","1","2025-07-30 10:34:29","36c45c0696341be0efffe67d72a12abb","105.216.70.10","Mozilla/5.0 (Windows NT 10.0; Win64; x64) AppleWebKit/537.36 (KHTML, like Gecko) Chrome/138.0.0.0 Safari/537.36","WebKit","Chrome","138.0.0.0","Windows","10.0","https://app.prolific.com/","en-ZA,en-GB;q=0.9,en-US;q=0.8,en;q=0.7","653a6a7224e6c0bfb644ff9b","683dba9a53627eb9ab41b36a","6889f519be1181071e8385dc","0","653a6a7224e6c0bfb644ff9b","0","2025-07-30T10:44:47.702Z","","","","StressQ","","","","","","","","","","","50","","","","","","","","","","","","","","","","","","","","","","","","","","",""
"4135","","<div style=""width:500px;"">
  <p>What best describes how you currently feel?</p>
  </div>","26","html-slider-response","47","618922","0.0-7.0-4.6","89","1","2025-07-30 10:34:29","36c45c0696341be0efffe67d72a12abb","105.216.70.10","Mozilla/5.0 (Windows NT 10.0; Win64; x64) AppleWebKit/537.36 (KHTML, like Gecko) Chrome/138.0.0.0 Safari/537.36","WebKit","Chrome","138.0.0.0","Windows","10.0","https://app.prolific.com/","en-ZA,en-GB;q=0.9,en-US;q=0.8,en;q=0.7","653a6a7224e6c0bfb644ff9b","683dba9a53627eb9ab41b36a","6889f519be1181071e8385dc","0","653a6a7224e6c0bfb644ff9b","0","2025-07-30T10:44:51.840Z","","","","MotivationQ","","","","","","","","","","","50","","","","","","","","","","","","","","","","","","","","","","","","","","",""
"","","","","ctl-task-cpt","48","684825","0.0-7.0-0.7","89","1","2025-07-30 10:34:29","36c45c0696341be0efffe67d72a12abb","105.216.70.10","Mozilla/5.0 (Windows NT 10.0; Win64; x64) AppleWebKit/537.36 (KHTML, like Gecko) Chrome/138.0.0.0 Safari/537.36","WebKit","Chrome","138.0.0.0","Windows","10.0","https://app.prolific.com/","en-ZA,en-GB;q=0.9,en-US;q=0.8,en;q=0.7","653a6a7224e6c0bfb644ff9b","683dba9a53627eb9ab41b36a","6889f519be1181071e8385dc","0","653a6a7224e6c0bfb644ff9b","0","2025-07-30T10:45:57.743Z","","","","","","","","","","","","","","","","win-only","3","g1:SW,g2:NE","0.3","8","0","622196.5","4607.1","9613.8","62855","1","4","4","6","2","-4","-5","14","19","0.10606060606060606","1230.3","3000","-1415","[""up"",""right""]","{""num_key_presses"":17,""num_perfect"":6,""num_errors"":1,""num_randdir"":10,""num_randdir_good_moves"":3,""num_whilered"":0,""num_whileblue"":0,""num_blue"":0,""num_good_moves"":8}","[294.22232142857143,296.12857142857143,1.1,294.22232142857143,296.12857142857143,107.6,294.22232142857143,296.12857142857143,217,294.22232142857143,296.12857142857143,325.7,294.22232142857143,296.12857142857143,430.4,198.22232142857143,364.12857142857143,540.4,201.22232142857143,364.12857142857143,641.1,307.22232142857143,257.12857142857143,755.7,422.22232142857143,97.12857142857143,883.3,439.22232142857143,83.12857142857143,994.9,521.2223214285714,47.128571428571426,1102.4,543.2223214285714,40.128571428571426,1211.1,544.2223214285714,40.128571428571426,1316.3,544.2223214285714,40.128571428571426,1432.9,544.2223214285714,40.128571428571426,1596.8,544.2223214285714,40.128571428571426,1707.9,544.2223214285714,40.128571428571426,1817.6,544.2223214285714,40.128571428571426,1919.2,544.2223214285714,40.128571428571426,2029.7,544.2223214285714,40.128571428571426,2140.6,544.2223214285714,40.128571428571426,2249.2,544.2223214285714,40.128571428571426,2355.3,544.2223214285714,43.128571428571426,2462.1,544.2223214285714,43.128571428571426,2565,544.2223214285714,43.128571428571426,2673,544.2223214285714,43.128571428571426,2780.9,544.2223214285714,43.128571428571426,2885.9,544.2223214285714,43.128571428571426,2995.4,544.2223214285714,46.128571428571426,3112.1,544.2223214285714,48.128571428571426,3226.3,544.2223214285714,62.128571428571426,3332.2,544.2223214285714,185.12857142857143,3440.5,432.22232142857143,337.12857142857143,3541.1,337.22232142857143,363.12857142857143,3656.8,337.22232142857143,363.12857142857143,3764.1,337.22232142857143,363.12857142857143,3878.8,337.22232142857143,363.12857142857143,3986.9,337.22232142857143,363.12857142857143,4090.8,337.22232142857143,363.12857142857143,4191.7,337.22232142857143,363.12857142857143,4306.6,337.22232142857143,363.12857142857143,4413.1,337.22232142857143,363.12857142857143,4525.1,337.22232142857143,363.12857142857143,4637.9,337.22232142857143,363.12857142857143,4748.3,337.22232142857143,363.12857142857143,4861.5,337.22232142857143,363.12857142857143,4976.9]","[1472.6,1472.7,1000,0,472.7,""smooth"",""up"",""up"",""good_move"",5002.3,3528.1,1767.4,1474.2,1760.7,""oops"",""up"",""down"",""bad_move"",8150,3144.3,2706.5,5005.7,437.8,""smooth"",""up"",""up"",""good_move"",11994.3,3842.9,2472.2,8151.6,1370.5,""oops"",""right"",""left"",""bad_move"",15388.2,3393.3,2915.7,11995,477.5,""oops"",""left"",""right"",""good_move"",18316,2926.9,2427.1,15389.1,499.8,""oops"",""left"",""right"",""good_move"",22369.7,4051.5,3558.3,18318.2,493.2,""smooth"",""left"",""left"",""bad_move"",25682.8,3311.1,2856.6,22371.7,454.5,""oops"",""down"",""right"",""good_move"",29096.8,3413.3,2903.4,25683.5,509.9,""oops"",""down"",""down"",""bad_move"",31959.8,2862,2441.1,29097.8,420.9,""oops"",""up"",""left"",""bad_move"",33419.1,1458.9,1736.2,31960.2,-277.3,""error"",""-"",""-"",""no_move"",37418.1,3997.8,2550.5,34422.6,445.1,""oops"",""up"",""down"",""bad_move"",39864.6,2445.6,1960.7,37419.2,484.7,""smooth"",""up"",""up"",""good_move"",42121.8,2254,1522.8,39867.9,731.1,""oops"",""right"",""down"",""bad_move"",44904.4,2782.1,2335.1,42122.3,447,""oops"",""up"",""down"",""bad_move"",47829.2,2923.7,2501.6,44905.5,422.1,""smooth"",""up"",""up"",""good_move"",50347.5,2517.6,2085.9,47830,431.7,""smooth"",""up"",""up"",""good_move""]"
"3373","","<div style=""width:500px;"">
  <p>What determined the result of this run?</p>
  </div>","15","html-slider-response","49","688200","0.0-7.0-1.7","89","1","2025-07-30 10:34:29","36c45c0696341be0efffe67d72a12abb","105.216.70.10","Mozilla/5.0 (Windows NT 10.0; Win64; x64) AppleWebKit/537.36 (KHTML, like Gecko) Chrome/138.0.0.0 Safari/537.36","WebKit","Chrome","138.0.0.0","Windows","10.0","https://app.prolific.com/","en-ZA,en-GB;q=0.9,en-US;q=0.8,en;q=0.7","653a6a7224e6c0bfb644ff9b","683dba9a53627eb9ab41b36a","6889f519be1181071e8385dc","0","653a6a7224e6c0bfb644ff9b","0","2025-07-30T10:46:01.118Z","","","","AttribQ","","","","","","","","","","","50","","","","","","","","","","","","","","","","","","","","","","","","","","",""
"3838","","<div style=""width:500px;"">
  <p>How much control did you have over the ball?</p>
  </div>","6","html-slider-response","50","692041","0.0-7.0-2.7","89","1","2025-07-30 10:34:29","36c45c0696341be0efffe67d72a12abb","105.216.70.10","Mozilla/5.0 (Windows NT 10.0; Win64; x64) AppleWebKit/537.36 (KHTML, like Gecko) Chrome/138.0.0.0 Safari/537.36","WebKit","Chrome","138.0.0.0","Windows","10.0","https://app.prolific.com/","en-ZA,en-GB;q=0.9,en-US;q=0.8,en;q=0.7","653a6a7224e6c0bfb644ff9b","683dba9a53627eb9ab41b36a","6889f519be1181071e8385dc","0","653a6a7224e6c0bfb644ff9b","0","2025-07-30T10:46:04.960Z","","","","ControlQ","","","","","","","","","","","50","","","","","","","","","","","","","","","","","","","","","","","","","","",""
"3685","","<div style=""width:500px;"">
  <p>How would you describe your current emotional state?</p>
  </div>","91","html-slider-response","51","695729","0.0-7.0-3.7","89","1","2025-07-30 10:34:29","36c45c0696341be0efffe67d72a12abb","105.216.70.10","Mozilla/5.0 (Windows NT 10.0; Win64; x64) AppleWebKit/537.36 (KHTML, like Gecko) Chrome/138.0.0.0 Safari/537.36","WebKit","Chrome","138.0.0.0","Windows","10.0","https://app.prolific.com/","en-ZA,en-GB;q=0.9,en-US;q=0.8,en;q=0.7","653a6a7224e6c0bfb644ff9b","683dba9a53627eb9ab41b36a","6889f519be1181071e8385dc","0","653a6a7224e6c0bfb644ff9b","0","2025-07-30T10:46:08.648Z","","","","StressQ","","","","","","","","","","","50","","","","","","","","","","","","","","","","","","","","","","","","","","",""
"6552","","<div style=""width:500px;"">
  <p>What best describes how you currently feel?</p>
  </div>","12","html-slider-response","52","702284","0.0-7.0-4.7","89","1","2025-07-30 10:34:29","36c45c0696341be0efffe67d72a12abb","105.216.70.10","Mozilla/5.0 (Windows NT 10.0; Win64; x64) AppleWebKit/537.36 (KHTML, like Gecko) Chrome/138.0.0.0 Safari/537.36","WebKit","Chrome","138.0.0.0","Windows","10.0","https://app.prolific.com/","en-ZA,en-GB;q=0.9,en-US;q=0.8,en;q=0.7","653a6a7224e6c0bfb644ff9b","683dba9a53627eb9ab41b36a","6889f519be1181071e8385dc","0","653a6a7224e6c0bfb644ff9b","0","2025-07-30T10:46:15.203Z","","","","MotivationQ","","","","","","","","","","","50","","","","","","","","","","","","","","","","","","","","","","","","","","",""
"","","","","ctl-task-cpt","53","747672","0.0-7.0-0.8","89","1","2025-07-30 10:34:29","36c45c0696341be0efffe67d72a12abb","105.216.70.10","Mozilla/5.0 (Windows NT 10.0; Win64; x64) AppleWebKit/537.36 (KHTML, like Gecko) Chrome/138.0.0.0 Safari/537.36","WebKit","Chrome","138.0.0.0","Windows","10.0","https://app.prolific.com/","en-ZA,en-GB;q=0.9,en-US;q=0.8,en;q=0.7","653a6a7224e6c0bfb644ff9b","683dba9a53627eb9ab41b36a","6889f519be1181071e8385dc","0","653a6a7224e6c0bfb644ff9b","0","2025-07-30T10:47:00.590Z","","","","","","","","","","","","","","","","win-only","3","g1:SW,g2:NE","0.4","9","0","705559.9","19064.7","24079.5","42369.9","1","4","4","6","2","4","4","18","14","0.13636363636363635","902.5","3000","1920","[""up"",""right""]","{""num_key_presses"":6,""num_perfect"":3,""num_errors"":0,""num_randdir"":3,""num_randdir_good_moves"":3,""num_whilered"":0,""num_whileblue"":0,""num_blue"":0,""num_good_moves"":6}","[293.22232142857143,295.12857142857143,1.1,293.22232142857143,295.12857142857143,107.3,293.22232142857143,295.12857142857143,209.4,293.22232142857143,295.12857142857143,316.7,293.22232142857143,294.12857142857143,421.4,348.22232142857143,217.12857142857143,525.3,474.22232142857143,45.128571428571426,626.8,494.22232142857143,31.128571428571426,730.3,521.2223214285714,29.128571428571426,832.5,531.2223214285714,35.128571428571426,939,531.2223214285714,35.128571428571426,1062.4,531.2223214285714,35.128571428571426,1164.6,531.2223214285714,35.128571428571426,1271.1,527.2223214285714,46.128571428571426,1372.2,512.2223214285714,68.12857142857143,1474,498.22232142857143,91.12857142857143,1581.6,495.22232142857143,97.12857142857143,1708.6,495.22232142857143,97.12857142857143,1811.2,495.22232142857143,97.12857142857143,1916.8,495.22232142857143,131.12857142857143,2023.1,495.22232142857143,160.12857142857143,2130.4,492.22232142857143,173.12857142857143,2233.4,488.22232142857143,186.12857142857143,2335.3,488.22232142857143,186.12857142857143,2438.9,488.22232142857143,186.12857142857143,2539.8,488.22232142857143,186.12857142857143,2643.5,488.22232142857143,186.12857142857143,2743.5,488.22232142857143,186.12857142857143,2847.6,488.22232142857143,186.12857142857143,2950.6,488.22232142857143,186.12857142857143,3054.4,488.22232142857143,186.12857142857143,3165.1,483.22232142857143,191.12857142857143,3266.6,483.22232142857143,191.12857142857143,3369.5,483.22232142857143,191.12857142857143,3475.6,483.22232142857143,191.12857142857143,3581.6,483.22232142857143,191.12857142857143,3697.8,483.22232142857143,191.12857142857143,3809.7,483.22232142857143,191.12857142857143,3917.6,483.22232142857143,191.12857142857143,4022.7,483.22232142857143,191.12857142857143,4134.3,483.22232142857143,191.12857142857143,4240.7,483.22232142857143,191.12857142857143,4347.4,483.22232142857143,191.12857142857143,4457,483.22232142857143,191.12857142857143,4567.8,483.22232142857143,191.12857142857143,4668,483.22232142857143,191.12857142857143,4768.7,483.22232142857143,191.12857142857143,4875.6,483.22232142857143,191.12857142857143,4986.6]","[1507.9,1507.9,1000,0,508,""smooth"",""up"",""up"",""good_move"",4825.3,3316.1,2751.9,1509.2,564.2,""oops"",""up"",""up"",""good_move"",8436.4,3610.7,2251.1,4825.7,1359.6,""smooth"",""right"",""right"",""good_move"",12157.3,3718.9,3257.8,8438.5,461,""smooth"",""up"",""up"",""good_move"",15392.9,3235.3,2715.5,12157.7,519.7,""oops"",""right"",""right"",""good_move"",18086.4,2692,2212.7,15394.4,479.3,""oops"",""right"",""right"",""good_move""]"
"8371","","<div style=""width:500px;"">
  <p>What determined the result of this run?</p>
  </div>","82","html-slider-response","54","756046","0.0-7.0-1.8","89","1","2025-07-30 10:34:29","36c45c0696341be0efffe67d72a12abb","105.216.70.10","Mozilla/5.0 (Windows NT 10.0; Win64; x64) AppleWebKit/537.36 (KHTML, like Gecko) Chrome/138.0.0.0 Safari/537.36","WebKit","Chrome","138.0.0.0","Windows","10.0","https://app.prolific.com/","en-ZA,en-GB;q=0.9,en-US;q=0.8,en;q=0.7","653a6a7224e6c0bfb644ff9b","683dba9a53627eb9ab41b36a","6889f519be1181071e8385dc","0","653a6a7224e6c0bfb644ff9b","0","2025-07-30T10:47:08.964Z","","","","AttribQ","","","","","","","","","","","50","","","","","","","","","","","","","","","","","","","","","","","","","","",""
"4212","","<div style=""width:500px;"">
  <p>How much control did you have over the ball?</p>
  </div>","26","html-slider-response","55","760261","0.0-7.0-2.8","89","1","2025-07-30 10:34:29","36c45c0696341be0efffe67d72a12abb","105.216.70.10","Mozilla/5.0 (Windows NT 10.0; Win64; x64) AppleWebKit/537.36 (KHTML, like Gecko) Chrome/138.0.0.0 Safari/537.36","WebKit","Chrome","138.0.0.0","Windows","10.0","https://app.prolific.com/","en-ZA,en-GB;q=0.9,en-US;q=0.8,en;q=0.7","653a6a7224e6c0bfb644ff9b","683dba9a53627eb9ab41b36a","6889f519be1181071e8385dc","0","653a6a7224e6c0bfb644ff9b","0","2025-07-30T10:47:13.179Z","","","","ControlQ","","","","","","","","","","","50","","","","","","","","","","","","","","","","","","","","","","","","","","",""
"3776","","<div style=""width:500px;"">
  <p>How would you describe your current emotional state?</p>
  </div>","84","html-slider-response","56","764040","0.0-7.0-3.8","89","1","2025-07-30 10:34:29","36c45c0696341be0efffe67d72a12abb","105.216.70.10","Mozilla/5.0 (Windows NT 10.0; Win64; x64) AppleWebKit/537.36 (KHTML, like Gecko) Chrome/138.0.0.0 Safari/537.36","WebKit","Chrome","138.0.0.0","Windows","10.0","https://app.prolific.com/","en-ZA,en-GB;q=0.9,en-US;q=0.8,en;q=0.7","653a6a7224e6c0bfb644ff9b","683dba9a53627eb9ab41b36a","6889f519be1181071e8385dc","0","653a6a7224e6c0bfb644ff9b","0","2025-07-30T10:47:16.958Z","","","","StressQ","","","","","","","","","","","50","","","","","","","","","","","","","","","","","","","","","","","","","","",""
"3213","","<div style=""width:500px;"">
  <p>What best describes how you currently feel?</p>
  </div>","24","html-slider-response","57","767257","0.0-7.0-4.8","89","1","2025-07-30 10:34:29","36c45c0696341be0efffe67d72a12abb","105.216.70.10","Mozilla/5.0 (Windows NT 10.0; Win64; x64) AppleWebKit/537.36 (KHTML, like Gecko) Chrome/138.0.0.0 Safari/537.36","WebKit","Chrome","138.0.0.0","Windows","10.0","https://app.prolific.com/","en-ZA,en-GB;q=0.9,en-US;q=0.8,en;q=0.7","653a6a7224e6c0bfb644ff9b","683dba9a53627eb9ab41b36a","6889f519be1181071e8385dc","0","653a6a7224e6c0bfb644ff9b","0","2025-07-30T10:47:20.176Z","","","","MotivationQ","","","","","","","","","","","50","","","","","","","","","","","","","","","","","","","","","","","","","","",""
"","","","","ctl-task-cpt","58","828062","0.0-7.0-0.9","89","1","2025-07-30 10:34:29","36c45c0696341be0efffe67d72a12abb","105.216.70.10","Mozilla/5.0 (Windows NT 10.0; Win64; x64) AppleWebKit/537.36 (KHTML, like Gecko) Chrome/138.0.0.0 Safari/537.36","WebKit","Chrome","138.0.0.0","Windows","10.0","https://app.prolific.com/","en-ZA,en-GB;q=0.9,en-US;q=0.8,en;q=0.7","653a6a7224e6c0bfb644ff9b","683dba9a53627eb9ab41b36a","6889f519be1181071e8385dc","0","653a6a7224e6c0bfb644ff9b","0","2025-07-30T10:48:20.980Z","","","","","","","","","","","","","","","","win-only","0","g1:NW,g2:SE","0.5","10","0","770529.6","1165.7","6171.9","57766.9","1","4","8","6","2","8","6","24","18","0.18181818181818182","982.6","3000","1125","[""down"",""right""]","{""num_key_presses"":12,""num_perfect"":5,""num_errors"":2,""num_randdir"":5,""num_randdir_good_moves"":4,""num_whilered"":0,""num_whileblue"":0,""num_blue"":5,""num_good_moves"":8}","[300.22232142857143,300.12857142857143,1.2,300.22232142857143,300.12857142857143,124.3,300.22232142857143,300.12857142857143,232.2,299.22232142857143,302.12857142857143,338.5,297.22232142857143,300.12857142857143,441.5,263.22232142857143,322.12857142857143,543.2,424.22232142857143,459.12857142857143,648,509.22232142857143,511.12857142857143,757.4,523.2223214285714,523.1285714285714,859.8,532.2223214285714,531.1285714285714,966.2,532.2223214285714,531.1285714285714,1067.8,532.2223214285714,531.1285714285714,1179.8,532.2223214285714,531.1285714285714,1281.5,532.2223214285714,531.1285714285714,1382.2,532.2223214285714,531.1285714285714,1489.7,532.2223214285714,531.1285714285714,1602.9,532.2223214285714,531.1285714285714,1704.1,532.2223214285714,531.1285714285714,1817,532.2223214285714,531.1285714285714,1932.7,532.2223214285714,531.1285714285714,2034.7,532.2223214285714,531.1285714285714,2140.1,532.2223214285714,531.1285714285714,2249,532.2223214285714,531.1285714285714,2349.1,532.2223214285714,531.1285714285714,2461.1,532.2223214285714,531.1285714285714,2565.8,532.2223214285714,531.1285714285714,2666.7,532.2223214285714,531.1285714285714,2769.6,532.2223214285714,531.1285714285714,2882.9,532.2223214285714,531.1285714285714,2986.1,532.2223214285714,531.1285714285714,3093,532.2223214285714,531.1285714285714,3213.8,532.2223214285714,531.1285714285714,3317,532.2223214285714,531.1285714285714,3425,532.2223214285714,531.1285714285714,3533,532.2223214285714,531.1285714285714,3659.8,532.2223214285714,531.1285714285714,3763,516.2223214285714,390.12857142857143,3867.8,510.22232142857143,337.12857142857143,3968.5,507.22232142857143,305.12857142857143,4068.7,506.22232142857143,301.12857142857143,4173.5,506.22232142857143,301.12857142857143,4283.5,506.22232142857143,301.12857142857143,4394.9,506.22232142857143,301.12857142857143,4502.6,506.22232142857143,301.12857142857143,4603.6,506.22232142857143,301.12857142857143,4707.2,506.22232142857143,301.12857142857143,4808.1,506.22232142857143,301.12857142857143,4915.4]","[9170.6,9170.7,2924.1,5829.6,417,""oops"",""down"",""right"",""good_move"",19358.1,10185.7,2937.6,15827.7,592.8,""smooth"",""down"",""down"",""good_move"",22923.2,3564.1,2745.9,19359.1,818.2,""oops"",""down"",""down"",""good_move"",25960.6,3035.9,2486.2,22924.7,549.7,""smooth"",""down"",""down"",""good_move"",28472.9,2511.4,2085.7,25961.5,425.8,""oops"",""right"",""left"",""bad_move"",31559.6,3084.8,2111.7,28474.8,973.1,""smooth"",""left"",""left"",""bad_move"",32069.3,509.2,3179,31560.1,-2669.8,""error"",""-"",""-"",""no_move"",39759.9,7689.7,2473.3,36709.9,576.7,""oops"",""right"",""right"",""good_move"",43058.1,3297.8,2575.7,39760.3,722.1,""oops"",""right"",""right"",""good_move"",45596.9,2538.3,2050.9,43058.6,487.4,""smooth"",""right"",""right"",""good_move"",47342.9,1742.5,2655.7,45600.4,-913.2,""error"",""-"",""-"",""no_move"",51205,3861.7,2333.4,48347.7,523.9,""smooth"",""right"",""right"",""good_move""]"
"3570","","<div style=""width:500px;"">
  <p>What determined the result of this run?</p>
  </div>","91","html-slider-response","59","831637","0.0-7.0-1.9","89","1","2025-07-30 10:34:29","36c45c0696341be0efffe67d72a12abb","105.216.70.10","Mozilla/5.0 (Windows NT 10.0; Win64; x64) AppleWebKit/537.36 (KHTML, like Gecko) Chrome/138.0.0.0 Safari/537.36","WebKit","Chrome","138.0.0.0","Windows","10.0","https://app.prolific.com/","en-ZA,en-GB;q=0.9,en-US;q=0.8,en;q=0.7","653a6a7224e6c0bfb644ff9b","683dba9a53627eb9ab41b36a","6889f519be1181071e8385dc","0","653a6a7224e6c0bfb644ff9b","0","2025-07-30T10:48:24.555Z","","","","AttribQ","","","","","","","","","","","50","","","","","","","","","","","","","","","","","","","","","","","","","","",""
"10001","","<div style=""width:500px;"">
  <p>How much control did you have over the ball?</p>
  </div>","40","html-slider-response","60","841641","0.0-7.0-2.9","89","1","2025-07-30 10:34:29","36c45c0696341be0efffe67d72a12abb","105.216.70.10","Mozilla/5.0 (Windows NT 10.0; Win64; x64) AppleWebKit/537.36 (KHTML, like Gecko) Chrome/138.0.0.0 Safari/537.36","WebKit","Chrome","138.0.0.0","Windows","10.0","https://app.prolific.com/","en-ZA,en-GB;q=0.9,en-US;q=0.8,en;q=0.7","653a6a7224e6c0bfb644ff9b","683dba9a53627eb9ab41b36a","6889f519be1181071e8385dc","0","653a6a7224e6c0bfb644ff9b","0","2025-07-30T10:48:34.559Z","","","","ControlQ","","","","","","","","","","","50","","","","","","","","","","","","","","","","","","","","","","","","","","",""
"2165","","<div style=""width:500px;"">
  <p>How would you describe your current emotional state?</p>
  </div>","86","html-slider-response","61","843809","0.0-7.0-3.9","89","1","2025-07-30 10:34:29","36c45c0696341be0efffe67d72a12abb","105.216.70.10","Mozilla/5.0 (Windows NT 10.0; Win64; x64) AppleWebKit/537.36 (KHTML, like Gecko) Chrome/138.0.0.0 Safari/537.36","WebKit","Chrome","138.0.0.0","Windows","10.0","https://app.prolific.com/","en-ZA,en-GB;q=0.9,en-US;q=0.8,en;q=0.7","653a6a7224e6c0bfb644ff9b","683dba9a53627eb9ab41b36a","6889f519be1181071e8385dc","0","653a6a7224e6c0bfb644ff9b","0","2025-07-30T10:48:36.727Z","","","","StressQ","","","","","","","","","","","50","","","","","","","","","","","","","","","","","","","","","","","","","","",""
"5040","","<div style=""width:500px;"">
  <p>What best describes how you currently feel?</p>
  </div>","14","html-slider-response","62","848852","0.0-7.0-4.9","89","1","2025-07-30 10:34:29","36c45c0696341be0efffe67d72a12abb","105.216.70.10","Mozilla/5.0 (Windows NT 10.0; Win64; x64) AppleWebKit/537.36 (KHTML, like Gecko) Chrome/138.0.0.0 Safari/537.36","WebKit","Chrome","138.0.0.0","Windows","10.0","https://app.prolific.com/","en-ZA,en-GB;q=0.9,en-US;q=0.8,en;q=0.7","653a6a7224e6c0bfb644ff9b","683dba9a53627eb9ab41b36a","6889f519be1181071e8385dc","0","653a6a7224e6c0bfb644ff9b","0","2025-07-30T10:48:41.771Z","","","","MotivationQ","","","","","","","","","","","50","","","","","","","","","","","","","","","","","","","","","","","","","","",""
"","","","","ctl-task-cpt","63","921208","0.0-7.0-0.10","89","1","2025-07-30 10:34:29","36c45c0696341be0efffe67d72a12abb","105.216.70.10","Mozilla/5.0 (Windows NT 10.0; Win64; x64) AppleWebKit/537.36 (KHTML, like Gecko) Chrome/138.0.0.0 Safari/537.36","WebKit","Chrome","138.0.0.0","Windows","10.0","https://app.prolific.com/","en-ZA,en-GB;q=0.9,en-US;q=0.8,en;q=0.7","653a6a7224e6c0bfb644ff9b","683dba9a53627eb9ab41b36a","6889f519be1181071e8385dc","0","653a6a7224e6c0bfb644ff9b","0","2025-07-30T10:49:54.126Z","","","","","","","","","","","","","","","","win-only","2","g1:SE,g2:NW","0.6","11","0","852124.6","1397.5","6399.3","69334.1","1","4","4","6","2","4","4","28","24","0.21212121212121213","1121.5","3000","970","[""left"",""up""]","{""num_key_presses"":14,""num_perfect"":8,""num_errors"":0,""num_randdir"":6,""num_randdir_good_moves"":2,""num_whilered"":0,""num_whileblue"":0,""num_blue"":4,""num_good_moves"":10}","[290.22232142857143,294.12857142857143,1.3,290.22232142857143,294.12857142857143,106.1,290.22232142857143,294.12857142857143,289.7,290.22232142857143,294.12857142857143,393.9,290.22232142857143,294.12857142857143,494,294.22232142857143,292.12857142857143,612.9,145.22232142857143,111.12857142857143,726.1,104.22232142857143,84.12857142857143,826.4,100.22232142857143,81.12857142857143,943.4,66.22232142857143,56.128571428571426,1070.1,66.22232142857143,56.128571428571426,1184.9,66.22232142857143,56.128571428571426,1300.3,66.22232142857143,56.128571428571426,1404.9,66.22232142857143,56.128571428571426,1520.7,66.22232142857143,56.128571428571426,1625.6,66.22232142857143,56.128571428571426,1737.4,66.22232142857143,56.128571428571426,1852.1,66.22232142857143,56.128571428571426,1956.7,66.22232142857143,56.128571428571426,2080.2,66.22232142857143,56.128571428571426,2190,66.22232142857143,56.128571428571426,2298.2,66.22232142857143,56.128571428571426,2416.6,66.22232142857143,56.128571428571426,2517.4,66.22232142857143,56.128571428571426,2631,66.22232142857143,56.128571428571426,2744.1,66.22232142857143,56.128571428571426,2844.6,66.22232142857143,56.128571428571426,2947.6,66.22232142857143,56.128571428571426,3060.8,66.22232142857143,56.128571428571426,3163.5,66.22232142857143,56.128571428571426,3269.2,66.22232142857143,56.128571428571426,3376.3,66.22232142857143,56.128571428571426,3518.1,66.22232142857143,56.128571428571426,3621.9,66.22232142857143,56.128571428571426,3722.6,66.22232142857143,56.128571428571426,3825.6,66.22232142857143,56.128571428571426,3934.5,66.22232142857143,56.128571428571426,4041.8,66.22232142857143,56.128571428571426,4145,66.22232142857143,56.128571428571426,4254.1,66.22232142857143,56.128571428571426,4355.8,66.22232142857143,56.128571428571426,4524.9,66.22232142857143,56.128571428571426,4642,66.22232142857143,56.128571428571426,4750.1,66.22232142857143,56.128571428571426,4854.4,66.22232142857143,56.128571428571426,4959]","[1506.4,1506.4,1000,0.1,506.3,""oops"",""up"",""left"",""good_move"",4743.5,3236,2816.6,1507.5,419.4,""smooth"",""up"",""up"",""good_move"",11778.6,7034.2,2359.6,8834,585.1,""oops"",""up"",""down"",""bad_move"",14814.4,3034.2,2576.2,11780.2,458.1,""smooth"",""left"",""left"",""good_move"",18210.6,3394.4,2901.7,14816.3,492.6,""oops"",""up"",""down"",""bad_move"",21491.5,3279.8,2867.1,18211.7,412.7,""smooth"",""up"",""up"",""good_move"",26068.5,4576.2,2706.7,21492.3,1869.5,""smooth"",""left"",""left"",""good_move"",30391.2,4322.2,2085.8,26069,2236.4,""smooth"",""up"",""up"",""good_move"",40958.8,10566.7,2649.3,37730.2,579.3,""smooth"",""up"",""up"",""good_move"",45129.1,4169.8,1889.7,40959.4,2280,""oops"",""up"",""right"",""bad_move"",48245.5,3114.3,2531.1,45131.2,583.2,""smooth"",""up"",""up"",""good_move"",51580.1,3333.4,2809.2,48246.7,524.2,""oops"",""left"",""right"",""bad_move"",54870.9,3290.3,2775.2,51580.7,515,""smooth"",""left"",""left"",""good_move"",62665.4,7793.5,2432.2,59615.2,618,""oops"",""left"",""left"",""good_move""]"
"9750","","<div style=""width:500px;"">
  <p>What determined the result of this run?</p>
  </div>","75","html-slider-response","64","930963","0.0-7.0-1.10","89","1","2025-07-30 10:34:29","36c45c0696341be0efffe67d72a12abb","105.216.70.10","Mozilla/5.0 (Windows NT 10.0; Win64; x64) AppleWebKit/537.36 (KHTML, like Gecko) Chrome/138.0.0.0 Safari/537.36","WebKit","Chrome","138.0.0.0","Windows","10.0","https://app.prolific.com/","en-ZA,en-GB;q=0.9,en-US;q=0.8,en;q=0.7","653a6a7224e6c0bfb644ff9b","683dba9a53627eb9ab41b36a","6889f519be1181071e8385dc","0","653a6a7224e6c0bfb644ff9b","0","2025-07-30T10:50:03.881Z","","","","AttribQ","","","","","","","","","","","50","","","","","","","","","","","","","","","","","","","","","","","","","","",""
"12675","","<div style=""width:500px;"">
  <p>How much control did you have over the ball?</p>
  </div>","20","html-slider-response","65","943643","0.0-7.0-2.10","89","1","2025-07-30 10:34:29","36c45c0696341be0efffe67d72a12abb","105.216.70.10","Mozilla/5.0 (Windows NT 10.0; Win64; x64) AppleWebKit/537.36 (KHTML, like Gecko) Chrome/138.0.0.0 Safari/537.36","WebKit","Chrome","138.0.0.0","Windows","10.0","https://app.prolific.com/","en-ZA,en-GB;q=0.9,en-US;q=0.8,en;q=0.7","653a6a7224e6c0bfb644ff9b","683dba9a53627eb9ab41b36a","6889f519be1181071e8385dc","0","653a6a7224e6c0bfb644ff9b","0","2025-07-30T10:50:16.561Z","","","","ControlQ","","","","","","","","","","","50","","","","","","","","","","","","","","","","","","","","","","","","","","",""
"2449","","<div style=""width:500px;"">
  <p>How would you describe your current emotional state?</p>
  </div>","81","html-slider-response","66","946095","0.0-7.0-3.10","89","1","2025-07-30 10:34:29","36c45c0696341be0efffe67d72a12abb","105.216.70.10","Mozilla/5.0 (Windows NT 10.0; Win64; x64) AppleWebKit/537.36 (KHTML, like Gecko) Chrome/138.0.0.0 Safari/537.36","WebKit","Chrome","138.0.0.0","Windows","10.0","https://app.prolific.com/","en-ZA,en-GB;q=0.9,en-US;q=0.8,en;q=0.7","653a6a7224e6c0bfb644ff9b","683dba9a53627eb9ab41b36a","6889f519be1181071e8385dc","0","653a6a7224e6c0bfb644ff9b","0","2025-07-30T10:50:19.013Z","","","","StressQ","","","","","","","","","","","50","","","","","","","","","","","","","","","","","","","","","","","","","","",""
"1987","","<div style=""width:500px;"">
  <p>What best describes how you currently feel?</p>
  </div>","34","html-slider-response","67","948085","0.0-7.0-4.10","89","1","2025-07-30 10:34:29","36c45c0696341be0efffe67d72a12abb","105.216.70.10","Mozilla/5.0 (Windows NT 10.0; Win64; x64) AppleWebKit/537.36 (KHTML, like Gecko) Chrome/138.0.0.0 Safari/537.36","WebKit","Chrome","138.0.0.0","Windows","10.0","https://app.prolific.com/","en-ZA,en-GB;q=0.9,en-US;q=0.8,en;q=0.7","653a6a7224e6c0bfb644ff9b","683dba9a53627eb9ab41b36a","6889f519be1181071e8385dc","0","653a6a7224e6c0bfb644ff9b","0","2025-07-30T10:50:21.003Z","","","","MotivationQ","","","","","","","","","","","50","","","","","","","","","","","","","","","","","","","","","","","","","","",""
"","","","","ctl-task-cpt","68","974168","0.0-7.0-0.11","89","1","2025-07-30 10:34:29","36c45c0696341be0efffe67d72a12abb","105.216.70.10","Mozilla/5.0 (Windows NT 10.0; Win64; x64) AppleWebKit/537.36 (KHTML, like Gecko) Chrome/138.0.0.0 Safari/537.36","WebKit","Chrome","138.0.0.0","Windows","10.0","https://app.prolific.com/","en-ZA,en-GB;q=0.9,en-US;q=0.8,en;q=0.7","653a6a7224e6c0bfb644ff9b","683dba9a53627eb9ab41b36a","6889f519be1181071e8385dc","0","653a6a7224e6c0bfb644ff9b","0","2025-07-30T10:50:47.086Z","","","","","","","","","","","","","","","","win-only","0","g1:NW,g2:SE","0.7","12","0","951361.5","1308.8","6314.8","23034.4","1","4","8","6","2","8","8","36","28","0.2727272727272727","1230.9","3000","2235","[""down"",""right""]","{""num_key_presses"":6,""num_perfect"":5,""num_errors"":0,""num_randdir"":1,""num_randdir_good_moves"":1,""num_whilered"":0,""num_whileblue"":0,""num_blue"":0,""num_good_moves"":6}","[295.22232142857143,300.12857142857143,0.7,295.22232142857143,300.12857142857143,131,295.22232142857143,300.12857142857143,252.8,297.22232142857143,299.12857142857143,372.8,247.22232142857143,313.12857142857143,502.3,398.22232142857143,485.12857142857143,637,456.22232142857143,539.1285714285714,745.8,473.22232142857143,544.1285714285714,848,483.22232142857143,542.1285714285714,948.6,488.22232142857143,539.1285714285714,1074.4,522.2223214285714,539.1285714285714,1183.7,528.2223214285714,539.1285714285714,1290.5,528.2223214285714,539.1285714285714,1422.3,528.2223214285714,539.1285714285714,1542,528.2223214285714,539.1285714285714,1662.9,528.2223214285714,539.1285714285714,1763.5,528.2223214285714,539.1285714285714,1883.7,528.2223214285714,539.1285714285714,1984.1,528.2223214285714,539.1285714285714,2085.5,528.2223214285714,539.1285714285714,2193.8,528.2223214285714,539.1285714285714,2298.9,528.2223214285714,539.1285714285714,2423.1,528.2223214285714,539.1285714285714,2525.4,528.2223214285714,539.1285714285714,2625.8,528.2223214285714,539.1285714285714,2771.8,528.2223214285714,539.1285714285714,2876.3,528.2223214285714,539.1285714285714,2981.9,528.2223214285714,539.1285714285714,3086.7,528.2223214285714,539.1285714285714,3195.5,528.2223214285714,539.1285714285714,3298,528.2223214285714,539.1285714285714,3403.1,528.2223214285714,539.1285714285714,3532.6,528.2223214285714,539.1285714285714,3641.6,528.2223214285714,539.1285714285714,3753.1,528.2223214285714,539.1285714285714,3864.2,528.2223214285714,539.1285714285714,3966.1,528.2223214285714,539.1285714285714,4100.1,528.2223214285714,539.1285714285714,4213.6,528.2223214285714,539.1285714285714,4319,528.2223214285714,539.1285714285714,4423.1,528.2223214285714,539.1285714285714,4567.1,528.2223214285714,539.1285714285714,4668.5,528.2223214285714,539.1285714285714,4783,528.2223214285714,539.1285714285714,4894.2]","[1475.8,1475.9,1000,0,475.9,""smooth"",""right"",""right"",""good_move"",4591.9,3115.4,2500.4,1476.5,615,""smooth"",""right"",""right"",""good_move"",7323.6,2730.6,2280.3,4593.1,450.2,""smooth"",""right"",""right"",""good_move"",10103.1,2778.6,2324.5,7324.5,454.1,""smooth"",""down"",""down"",""good_move"",13374.1,3269.2,2621.6,10104.9,647.6,""oops"",""down"",""down"",""good_move"",16253.9,2878.6,2435.3,13375.3,443.3,""smooth"",""down"",""down"",""good_move""]"
"3212","","<div style=""width:500px;"">
  <p>What determined the result of this run?</p>
  </div>","82","html-slider-response","69","977383","0.0-7.0-1.11","89","1","2025-07-30 10:34:29","36c45c0696341be0efffe67d72a12abb","105.216.70.10","Mozilla/5.0 (Windows NT 10.0; Win64; x64) AppleWebKit/537.36 (KHTML, like Gecko) Chrome/138.0.0.0 Safari/537.36","WebKit","Chrome","138.0.0.0","Windows","10.0","https://app.prolific.com/","en-ZA,en-GB;q=0.9,en-US;q=0.8,en;q=0.7","653a6a7224e6c0bfb644ff9b","683dba9a53627eb9ab41b36a","6889f519be1181071e8385dc","0","653a6a7224e6c0bfb644ff9b","0","2025-07-30T10:50:50.301Z","","","","AttribQ","","","","","","","","","","","50","","","","","","","","","","","","","","","","","","","","","","","","","","",""
"3778","","<div style=""width:500px;"">
  <p>How much control did you have over the ball?</p>
  </div>","99","html-slider-response","70","981164","0.0-7.0-2.11","89","1","2025-07-30 10:34:29","36c45c0696341be0efffe67d72a12abb","105.216.70.10","Mozilla/5.0 (Windows NT 10.0; Win64; x64) AppleWebKit/537.36 (KHTML, like Gecko) Chrome/138.0.0.0 Safari/537.36","WebKit","Chrome","138.0.0.0","Windows","10.0","https://app.prolific.com/","en-ZA,en-GB;q=0.9,en-US;q=0.8,en;q=0.7","653a6a7224e6c0bfb644ff9b","683dba9a53627eb9ab41b36a","6889f519be1181071e8385dc","0","653a6a7224e6c0bfb644ff9b","0","2025-07-30T10:50:54.082Z","","","","ControlQ","","","","","","","","","","","50","","","","","","","","","","","","","","","","","","","","","","","","","","",""
"3033","","<div style=""width:500px;"">
  <p>How would you describe your current emotional state?</p>
  </div>","100","html-slider-response","71","984202","0.0-7.0-3.11","89","1","2025-07-30 10:34:29","36c45c0696341be0efffe67d72a12abb","105.216.70.10","Mozilla/5.0 (Windows NT 10.0; Win64; x64) AppleWebKit/537.36 (KHTML, like Gecko) Chrome/138.0.0.0 Safari/537.36","WebKit","Chrome","138.0.0.0","Windows","10.0","https://app.prolific.com/","en-ZA,en-GB;q=0.9,en-US;q=0.8,en;q=0.7","653a6a7224e6c0bfb644ff9b","683dba9a53627eb9ab41b36a","6889f519be1181071e8385dc","0","653a6a7224e6c0bfb644ff9b","0","2025-07-30T10:50:57.120Z","","","","StressQ","","","","","","","","","","","50","","","","","","","","","","","","","","","","","","","","","","","","","","",""
"3009","","<div style=""width:500px;"">
  <p>What best describes how you currently feel?</p>
  </div>","10","html-slider-response","72","987215","0.0-7.0-4.11","89","1","2025-07-30 10:34:29","36c45c0696341be0efffe67d72a12abb","105.216.70.10","Mozilla/5.0 (Windows NT 10.0; Win64; x64) AppleWebKit/537.36 (KHTML, like Gecko) Chrome/138.0.0.0 Safari/537.36","WebKit","Chrome","138.0.0.0","Windows","10.0","https://app.prolific.com/","en-ZA,en-GB;q=0.9,en-US;q=0.8,en;q=0.7","653a6a7224e6c0bfb644ff9b","683dba9a53627eb9ab41b36a","6889f519be1181071e8385dc","0","653a6a7224e6c0bfb644ff9b","0","2025-07-30T10:51:00.133Z","","","","MotivationQ","","","","","","","","","","","50","","","","","","","","","","","","","","","","","","","","","","","","","","",""
"","","","","ctl-task-cpt","73","1021689","0.0-7.0-0.12","89","1","2025-07-30 10:34:29","36c45c0696341be0efffe67d72a12abb","105.216.70.10","Mozilla/5.0 (Windows NT 10.0; Win64; x64) AppleWebKit/537.36 (KHTML, like Gecko) Chrome/138.0.0.0 Safari/537.36","WebKit","Chrome","138.0.0.0","Windows","10.0","https://app.prolific.com/","en-ZA,en-GB;q=0.9,en-US;q=0.8,en;q=0.7","653a6a7224e6c0bfb644ff9b","683dba9a53627eb9ab41b36a","6889f519be1181071e8385dc","0","653a6a7224e6c0bfb644ff9b","0","2025-07-30T10:51:34.607Z","","","","","","","","","","","","","","","","win-only","0","g1:NW,g2:SE","0.8","13","0","990487.8","1991.5","7002.2","31400.8","1","4","4","6","2","4","4","40","36","0.30303030303030304","856.3","3000","2695","[""down"",""right""]","{""num_key_presses"":6,""num_perfect"":6,""num_errors"":0,""num_randdir"":0,""num_randdir_good_moves"":0,""num_whilered"":0,""num_whileblue"":0,""num_blue"":1,""num_good_moves"":6}","[297.22232142857143,297.12857142857143,0.4,297.22232142857143,297.12857142857143,118.5,297.22232142857143,297.12857142857143,244.8,297.22232142857143,297.12857142857143,375.7,534.2223214285714,549.1285714285714,523.3,563.2223214285714,571.1285714285714,652.6,563.2223214285714,571.1285714285714,783,562.2223214285714,571.1285714285714,917.5,561.2223214285714,571.1285714285714,1049.1,561.2223214285714,571.1285714285714,1178.8,561.2223214285714,571.1285714285714,1302.7,561.2223214285714,571.1285714285714,1431.9,561.2223214285714,571.1285714285714,1557.9,561.2223214285714,571.1285714285714,1687.8,561.2223214285714,571.1285714285714,1813.1,561.2223214285714,571.1285714285714,1941,561.2223214285714,571.1285714285714,2072.2,561.2223214285714,571.1285714285714,2207.7,561.2223214285714,571.1285714285714,2343.2,561.2223214285714,571.1285714285714,2471.3,561.2223214285714,571.1285714285714,2599.1,561.2223214285714,571.1285714285714,2729.5,561.2223214285714,571.1285714285714,2855.8,561.2223214285714,571.1285714285714,2981,561.2223214285714,571.1285714285714,3115.1,561.2223214285714,571.1285714285714,3249,561.2223214285714,571.1285714285714,3385.3,561.2223214285714,571.1285714285714,3511.2,561.2223214285714,571.1285714285714,3638,561.2223214285714,571.1285714285714,3763.7,561.2223214285714,571.1285714285714,3889.1,561.2223214285714,571.1285714285714,4019.3,561.2223214285714,571.1285714285714,4150.4,561.2223214285714,571.1285714285714,4285.4,561.2223214285714,571.1285714285714,4412.7,561.2223214285714,571.1285714285714,4540.1,561.2223214285714,571.1285714285714,4668.1,561.2223214285714,571.1285714285714,4796.3,561.2223214285714,571.1285714285714,4925.5]","[1539.3,1539.2,1000,0.1,539.2,""smooth"",""down"",""down"",""good_move"",5332.5,3792.7,3116.7,1539.8,676,""smooth"",""down"",""down"",""good_move"",11941.2,6604.6,2464,8922.7,554.5,""smooth"",""right"",""right"",""good_move"",15637.4,3695.6,2957.2,11941.8,738.4,""smooth"",""down"",""down"",""good_move"",18929,3290.9,2640,15638.1,650.9,""smooth"",""right"",""right"",""good_move"",22058.1,3128.4,2473.6,18929.7,654.8,""smooth"",""right"",""right"",""good_move""]"
"5235","","<div style=""width:500px;"">
  <p>What determined the result of this run?</p>
  </div>","73","html-slider-response","74","1026930","0.0-7.0-1.12","89","1","2025-07-30 10:34:29","36c45c0696341be0efffe67d72a12abb","105.216.70.10","Mozilla/5.0 (Windows NT 10.0; Win64; x64) AppleWebKit/537.36 (KHTML, like Gecko) Chrome/138.0.0.0 Safari/537.36","WebKit","Chrome","138.0.0.0","Windows","10.0","https://app.prolific.com/","en-ZA,en-GB;q=0.9,en-US;q=0.8,en;q=0.7","653a6a7224e6c0bfb644ff9b","683dba9a53627eb9ab41b36a","6889f519be1181071e8385dc","0","653a6a7224e6c0bfb644ff9b","0","2025-07-30T10:51:39.848Z","","","","AttribQ","","","","","","","","","","","50","","","","","","","","","","","","","","","","","","","","","","","","","","",""
"2515","","<div style=""width:500px;"">
  <p>How much control did you have over the ball?</p>
  </div>","70","html-slider-response","75","1029450","0.0-7.0-2.12","89","1","2025-07-30 10:34:29","36c45c0696341be0efffe67d72a12abb","105.216.70.10","Mozilla/5.0 (Windows NT 10.0; Win64; x64) AppleWebKit/537.36 (KHTML, like Gecko) Chrome/138.0.0.0 Safari/537.36","WebKit","Chrome","138.0.0.0","Windows","10.0","https://app.prolific.com/","en-ZA,en-GB;q=0.9,en-US;q=0.8,en;q=0.7","653a6a7224e6c0bfb644ff9b","683dba9a53627eb9ab41b36a","6889f519be1181071e8385dc","0","653a6a7224e6c0bfb644ff9b","0","2025-07-30T10:51:42.368Z","","","","ControlQ","","","","","","","","","","","50","","","","","","","","","","","","","","","","","","","","","","","","","","",""
"2470","","<div style=""width:500px;"">
  <p>How would you describe your current emotional state?</p>
  </div>","100","html-slider-response","76","1031926","0.0-7.0-3.12","89","1","2025-07-30 10:34:29","36c45c0696341be0efffe67d72a12abb","105.216.70.10","Mozilla/5.0 (Windows NT 10.0; Win64; x64) AppleWebKit/537.36 (KHTML, like Gecko) Chrome/138.0.0.0 Safari/537.36","WebKit","Chrome","138.0.0.0","Windows","10.0","https://app.prolific.com/","en-ZA,en-GB;q=0.9,en-US;q=0.8,en;q=0.7","653a6a7224e6c0bfb644ff9b","683dba9a53627eb9ab41b36a","6889f519be1181071e8385dc","0","653a6a7224e6c0bfb644ff9b","0","2025-07-30T10:51:44.844Z","","","","StressQ","","","","","","","","","","","50","","","","","","","","","","","","","","","","","","","","","","","","","","",""
"2797","","<div style=""width:500px;"">
  <p>What best describes how you currently feel?</p>
