"rt","response_timestamp","stimulus","response","trial_type","trial_index","time_elapsed","internal_node_id","run_id","condition","recorded_at","source_code_version","ip","user_agent","device","browser","browser_version","platform","platform_version","referer","accept_language","PROLIFIC_PID","STUDY_ID","SESSION_ID","BATCH","prolific_id","batch","realtime","success","question_order","question_id","eventType","responses","item_order","radio_event_ids","radio_event_times","key_event_times","mouse_event_times","straightlining","zigzagging","honeypot","view_history","slider_start","which_type","canvas_config","goals_layout","control_level","trial_number","tutorial_trial_number","trial_start_time","phase1_start_time","phase2_start_time","phase3_start_time","goal_1_value","goal_1_distance","goal_2_value","goal_2_distance","goal_selected","outcome","outcome_total","participant_final_score","participant_initial_score","participant_final_score_prop","goal_choice_rt","allocated_time","allocated_time_remaining","goal_direction","counts","mouse_movements","key_presses"
"7875","1754477239028","<p style='font-size:40px;line-height:1.25'><strong>Welcome to the experiment!</strong></p><p style='font-size:1.1em;line-height:1.25'>Thank you for participanting in our experiment again! You will be asked to play the Dysfunctional Ball Game again. We will briefly recap the rules before we start.</p><p style='font-size:1.1em;line-height:1.25'>Press <strong>Next</strong> to continue.</p>","0","custom-html-button-response","0","7877","0.0-0.0","180","1","2025-08-06 10:47:10","36c45c0696341be0efffe67d72a12abb","89.245.26.244","Mozilla/5.0 (Windows NT 10.0; Win64; x64) AppleWebKit/537.36 (KHTML, like Gecko) Chrome/135.0.0.0 Safari/537.36 OPR/120.0.0.0","WebKit","Opera","120.0.0.0","Windows","10.0","https://app.prolific.com/","de-DE,de;q=0.9,en-US;q=0.8,en;q=0.7,zh-CN;q=0.6,zh;q=0.5,ja;q=0.4","6565f2ba13586fa869dd3b28","6877649eabb845cf142cd221","689332a51cb1824f5819535e","1","6565f2ba13586fa869dd3b28","1","2025-08-06T10:47:19.029Z","","","","","","","","","","","","","","","","","","","","","","","","","","","","","","","","","","","","","","","","","",""
"5729","","","","fullscreen","1","14614","0.0-1.0","180","1","2025-08-06 10:47:10","36c45c0696341be0efffe67d72a12abb","89.245.26.244","Mozilla/5.0 (Windows NT 10.0; Win64; x64) AppleWebKit/537.36 (KHTML, like Gecko) Chrome/135.0.0.0 Safari/537.36 OPR/120.0.0.0","WebKit","Opera","120.0.0.0","Windows","10.0","https://app.prolific.com/","de-DE,de;q=0.9,en-US;q=0.8,en;q=0.7,zh-CN;q=0.6,zh;q=0.5,ja;q=0.4","6565f2ba13586fa869dd3b28","6877649eabb845cf142cd221","689332a51cb1824f5819535e","1","6565f2ba13586fa869dd3b28","1","","true","","","","","","","","","","","","","","","","","","","","","","","","","","","","","","","","","","","","","","","","",""
"13340","1754477259106"," <p style='font-size:1.1em;line-height:1.25'>Thank you for closing all other tabs.</p><p style='font-size:1.1em;line-height:1.25'>We will now invite you to fill in some questionnaires, before starting the game.<br>This will take about 5 minutes.<br></p><p style='font-size:1.1em;line-height:1.25'>Press the <strong>Next</strong> button to continue.</p>","0","custom-html-button-response","2","27954","0.0-2.0","180","1","2025-08-06 10:47:10","36c45c0696341be0efffe67d72a12abb","89.245.26.244","Mozilla/5.0 (Windows NT 10.0; Win64; x64) AppleWebKit/537.36 (KHTML, like Gecko) Chrome/135.0.0.0 Safari/537.36 OPR/120.0.0.0","WebKit","Opera","120.0.0.0","Windows","10.0","https://app.prolific.com/","de-DE,de;q=0.9,en-US;q=0.8,en;q=0.7,zh-CN;q=0.6,zh;q=0.5,ja;q=0.4","6565f2ba13586fa869dd3b28","6877649eabb845cf142cd221","689332a51cb1824f5819535e","1","6565f2ba13586fa869dd3b28","1","2025-08-06T10:47:39.106Z","","","","","","","","","","","","","","","","","","","","","","","","","","","","","","","","","","","","","","","","","",""
"1884","","","{""assigned_sex"":""female""}","survey-multi-choice","3","29840","0.0-3.0-0.0","180","1","2025-08-06 10:47:10","36c45c0696341be0efffe67d72a12abb","89.245.26.244","Mozilla/5.0 (Windows NT 10.0; Win64; x64) AppleWebKit/537.36 (KHTML, like Gecko) Chrome/135.0.0.0 Safari/537.36 OPR/120.0.0.0","WebKit","Opera","120.0.0.0","Windows","10.0","https://app.prolific.com/","de-DE,de;q=0.9,en-US;q=0.8,en;q=0.7,zh-CN;q=0.6,zh;q=0.5,ja;q=0.4","6565f2ba13586fa869dd3b28","6877649eabb845cf142cd221","689332a51cb1824f5819535e","1","6565f2ba13586fa869dd3b28","1","","","[0]","0","demographics","","","","","","","","","","","","","","","","","","","","","","","","","","","","","","","","","","","","","",""
"1468","1754477262460","<p style='font-size:1.1em;line-height:1.25'>In the following, we will perform a baseline assessment. This means that we will ask you a few questions relating to your experiences over the past month.<br></p><p style='font-size:1.1em;line-height:1.25'>Press the <strong>Next</strong> button to continue.</p>","0","custom-html-button-response","4","31308","0.0-4.0-0.0","180","1","2025-08-06 10:47:10","36c45c0696341be0efffe67d72a12abb","89.245.26.244","Mozilla/5.0 (Windows NT 10.0; Win64; x64) AppleWebKit/537.36 (KHTML, like Gecko) Chrome/135.0.0.0 Safari/537.36 OPR/120.0.0.0","WebKit","Opera","120.0.0.0","Windows","10.0","https://app.prolific.com/","de-DE,de;q=0.9,en-US;q=0.8,en;q=0.7,zh-CN;q=0.6,zh;q=0.5,ja;q=0.4","6565f2ba13586fa869dd3b28","6877649eabb845cf142cd221","689332a51cb1824f5819535e","1","6565f2ba13586fa869dd3b28","1","2025-08-06T10:47:42.460Z","","","","","","","","","","","","","","","","","","","","","","","","","","","","","","","","","","","","","","","","","",""
"64428.30000001192","","","","survey-template","5","95739","0.0-4.0-1.0","180","1","2025-08-06 10:47:10","36c45c0696341be0efffe67d72a12abb","89.245.26.244","Mozilla/5.0 (Windows NT 10.0; Win64; x64) AppleWebKit/537.36 (KHTML, like Gecko) Chrome/135.0.0.0 Safari/537.36 OPR/120.0.0.0","WebKit","Opera","120.0.0.0","Windows","10.0","https://app.prolific.com/","de-DE,de;q=0.9,en-US;q=0.8,en;q=0.7,zh-CN;q=0.6,zh;q=0.5,ja;q=0.4","6565f2ba13586fa869dd3b28","6877649eabb845cf142cd221","689332a51cb1824f5819535e","1","6565f2ba13586fa869dd3b28","1","2025-08-06T10:48:46.891Z","","","","pss","{""Q01"":""2"",""Q02"":""2"",""Q03"":""2"",""Q04"":""1"",""Q05"":""1"",""Q06"":""1"",""Q07"":""1"",""Q08"":""1"",""Q09"":""1"",""Q10"":""1""}","[0,1,2,3,4,5,6,7,8,9]","[""Q01"",""Q02"",""Q03"",""Q04"",""Q05"",""Q06"",""Q07"",""Q08"",""Q09"",""Q10""]","[28211.19999998808,33110.19999998808,40772.19999998808,43801.30000001192,46097,50025.19999998808,53568.09999999404,56760.19999998808,60629.09999999404,63840]","[]","[0,28211.19999998808,33110.19999998808,40772.19999998808,43801.30000001192,46097,49486.09999999404,50025.19999998808,53074.19999998808,53568.09999999404,55993.19999998808,56437,56760.19999998808,60629.09999999404,63568.19999998808,63840,64427.30000001192]","0.4","0.1111111111111111","0","","","","","","","","","","","","","","","","","","","","","","","","","","","","",""
"1478","1754477328370","<p style='font-size:1.1em;line-height:1.25'>Thank you for your answers! Now we will ask you a few more questions relating to your feelings in the last 24 hours.<br></p><p style='font-size:1.1em;line-height:1.25'>Press the <strong>Next</strong> button to continue.</p>","0","custom-html-button-response","6","97218","0.0-4.0-2.0","180","1","2025-08-06 10:47:10","36c45c0696341be0efffe67d72a12abb","89.245.26.244","Mozilla/5.0 (Windows NT 10.0; Win64; x64) AppleWebKit/537.36 (KHTML, like Gecko) Chrome/135.0.0.0 Safari/537.36 OPR/120.0.0.0","WebKit","Opera","120.0.0.0","Windows","10.0","https://app.prolific.com/","de-DE,de;q=0.9,en-US;q=0.8,en;q=0.7,zh-CN;q=0.6,zh;q=0.5,ja;q=0.4","6565f2ba13586fa869dd3b28","6877649eabb845cf142cd221","689332a51cb1824f5819535e","1","6565f2ba13586fa869dd3b28","1","2025-08-06T10:48:48.370Z","","","","","","","","","","","","","","","","","","","","","","","","","","","","","","","","","","","","","","","","","",""
"40124.40000000596","","","","survey-template","7","137345","0.0-4.0-3.0","180","1","2025-08-06 10:47:10","36c45c0696341be0efffe67d72a12abb","89.245.26.244","Mozilla/5.0 (Windows NT 10.0; Win64; x64) AppleWebKit/537.36 (KHTML, like Gecko) Chrome/135.0.0.0 Safari/537.36 OPR/120.0.0.0","WebKit","Opera","120.0.0.0","Windows","10.0","https://app.prolific.com/","de-DE,de;q=0.9,en-US;q=0.8,en;q=0.7,zh-CN;q=0.6,zh;q=0.5,ja;q=0.4","6565f2ba13586fa869dd3b28","6877649eabb845cf142cd221","689332a51cb1824f5819535e","1","6565f2ba13586fa869dd3b28","1","2025-08-06T10:49:28.497Z","","","","drsp","{""Q01"":""0"",""Q02"":""0"",""Q03"":""0"",""Q04"":""0"",""Q05"":""0"",""Q06"":""0"",""Q07"":""0"",""Q08"":""0"",""Q09"":""0"",""Q10"":""0"",""Q11"":""0"",""Q12"":""2"",""Q13"":""5"",""Q14"":""1"",""Q15"":""0"",""Q16"":""0"",""Q17"":""1"",""Q18"":""1"",""Q19"":""0"",""Q20"":""0"",""Q21"":""0"",""Q22"":""0""}","[0,1,2,3,4,5,6,7,8,9,10,11,12,13,14,15,16,17,18,19,20,21]","[""Q01"",""Q02"",""Q03"",""Q04"",""Q05"",""Q06"",""Q07"",""Q08"",""Q09"",""Q10"",""Q11"",""Q12"",""Q12"",""Q13"",""Q14"",""Q15"",""Q16"",""Q16"",""Q17"",""Q18"",""Q19"",""Q21"",""Q20"",""Q22""]","[6602.4000000059605,7092.299999982119,7772.299999982119,8388.299999982119,9548.5,12872.40000000596,13453.299999982119,14298.40000000596,16020.199999988079,17539.40000000596,18480.40000000596,20575.5,21296.5,23229.19999998808,25430.19999998808,27699.29999998212,28185.29999998212,28416.09999999404,30752.19999998808,31573.19999998808,33201.19999998808,37405.09999999404,38117.19999998808,39233.19999998808]","[]","[0.09999999403953552,5412.199999988079,6195.0999999940395,6602.4000000059605,7092.299999982119,7772.299999982119,8388.299999982119,9037.5,9548.5,11227.5,11937.09999999404,12443.09999999404,12872.40000000596,13453.299999982119,14298.40000000596,16020.199999988079,17228.29999998212,17539.40000000596,18480.40000000596,19980.40000000596,20575.5,21296.5,23229.19999998808,24970.09999999404,25430.19999998808,26527.09999999404,26805,27392.09999999404,27699.29999998212,28185.29999998212,28416.09999999404,30752.19999998808,31573.19999998808,33201.19999998808,35576.40000000596,36817.29999998212,37405.09999999404,38117.19999998808,39233.19999998808,40122.40000000596]","0.7727272727272727","0.14285714285714285","0","","","","","","","","","","","","","","","","","","","","","","","","","","","","",""
"9050.600000023842","","","","survey-template","8","146397","0.0-4.0-4.0","180","1","2025-08-06 10:47:10","36c45c0696341be0efffe67d72a12abb","89.245.26.244","Mozilla/5.0 (Windows NT 10.0; Win64; x64) AppleWebKit/537.36 (KHTML, like Gecko) Chrome/135.0.0.0 Safari/537.36 OPR/120.0.0.0","WebKit","Opera","120.0.0.0","Windows","10.0","https://app.prolific.com/","de-DE,de;q=0.9,en-US;q=0.8,en;q=0.7,zh-CN;q=0.6,zh;q=0.5,ja;q=0.4","6565f2ba13586fa869dd3b28","6877649eabb845cf142cd221","689332a51cb1824f5819535e","1","6565f2ba13586fa869dd3b28","1","2025-08-06T10:49:37.549Z","","","","stress","{""Q01"":""1"",""Q02"":""1"",""Q03"":""0""}","[0,1,2]","[""Q01"",""Q02"",""Q03"",""Q03""]","[2756.9000000059605,4356.9000000059605,6663.800000011921,7867.9000000059605]","[]","[2148.800000011921,2756.9000000059605,3978,4356.9000000059605,5905.100000023842,6267.700000017881,6663.800000011921,7256,7546.700000017881,7867.9000000059605,9050.100000023842]","0.3333333333333333","0","0","","","","","","","","","","","","","","","","","","","","","","","","","","","","",""
"5095","","","","instructions","9","151492","0.0-5.0-0.0","180","1","2025-08-06 10:47:10","36c45c0696341be0efffe67d72a12abb","89.245.26.244","Mozilla/5.0 (Windows NT 10.0; Win64; x64) AppleWebKit/537.36 (KHTML, like Gecko) Chrome/135.0.0.0 Safari/537.36 OPR/120.0.0.0","WebKit","Opera","120.0.0.0","Windows","10.0","https://app.prolific.com/","de-DE,de;q=0.9,en-US;q=0.8,en;q=0.7,zh-CN;q=0.6,zh;q=0.5,ja;q=0.4","6565f2ba13586fa869dd3b28","6877649eabb845cf142cd221","689332a51cb1824f5819535e","1","6565f2ba13586fa869dd3b28","1","","","","","","","","","","","","","","","[{""page_index"":0,""viewing_time"":5095}]","","","","","","","","","","","","","","","","","","","","","","","","","","","",""
"1922","","<p>Before you start with this game please answer the following three questions yourself. </p>
  <p>Through this game, we measure several aspects of your cognitive performance, such as reaction times, multi-tasking capabilities </p>
  <p>and the ability to assess the situation you are in.</p>
  <p></p>
  <p><b>How good do you usually are in such tasks?</b></p>","24","html-slider-response","10","153415","0.0-6.0-0.0","180","1","2025-08-06 10:47:10","36c45c0696341be0efffe67d72a12abb","89.245.26.244","Mozilla/5.0 (Windows NT 10.0; Win64; x64) AppleWebKit/537.36 (KHTML, like Gecko) Chrome/135.0.0.0 Safari/537.36 OPR/120.0.0.0","WebKit","Opera","120.0.0.0","Windows","10.0","https://app.prolific.com/","de-DE,de;q=0.9,en-US;q=0.8,en;q=0.7,zh-CN;q=0.6,zh;q=0.5,ja;q=0.4","6565f2ba13586fa869dd3b28","6877649eabb845cf142cd221","689332a51cb1824f5819535e","1","6565f2ba13586fa869dd3b28","1","2025-08-06T10:49:44.567Z","","","","PreSkillQ","","","","","","","","","","","50","","","","","","","","","","","","","","","","","","","","","","","","","","",""
"1336","","<div style=""width:500px;"">
  <p>How well do you think you will perform in this task compared to other participants?</p>
  </div>","17","html-slider-response","11","154752","0.0-6.0-1.0","180","1","2025-08-06 10:47:10","36c45c0696341be0efffe67d72a12abb","89.245.26.244","Mozilla/5.0 (Windows NT 10.0; Win64; x64) AppleWebKit/537.36 (KHTML, like Gecko) Chrome/135.0.0.0 Safari/537.36 OPR/120.0.0.0","WebKit","Opera","120.0.0.0","Windows","10.0","https://app.prolific.com/","de-DE,de;q=0.9,en-US;q=0.8,en;q=0.7,zh-CN;q=0.6,zh;q=0.5,ja;q=0.4","6565f2ba13586fa869dd3b28","6877649eabb845cf142cd221","689332a51cb1824f5819535e","1","6565f2ba13586fa869dd3b28","1","2025-08-06T10:49:45.904Z","","","","PrePerfQ","","","","","","","","","","","50","","","","","","","","","","","","","","","","","","","","","","","","","","",""
"3233","","<div style=""width:500px;"">
  <p>What best describes how you currently feel?</p>
  </div>","71","html-slider-response","12","157986","0.0-6.0-2.0","180","1","2025-08-06 10:47:10","36c45c0696341be0efffe67d72a12abb","89.245.26.244","Mozilla/5.0 (Windows NT 10.0; Win64; x64) AppleWebKit/537.36 (KHTML, like Gecko) Chrome/135.0.0.0 Safari/537.36 OPR/120.0.0.0","WebKit","Opera","120.0.0.0","Windows","10.0","https://app.prolific.com/","de-DE,de;q=0.9,en-US;q=0.8,en;q=0.7,zh-CN;q=0.6,zh;q=0.5,ja;q=0.4","6565f2ba13586fa869dd3b28","6877649eabb845cf142cd221","689332a51cb1824f5819535e","1","6565f2ba13586fa869dd3b28","1","2025-08-06T10:49:49.138Z","","","","PreMotivationQ","","","","","","","","","","","50","","","","","","","","","","","","","","","","","","","","","","","","","","",""
"","","","","ctl-task-cpt","13","182714","0.0-7.0-0.0","180","1","2025-08-06 10:47:10","36c45c0696341be0efffe67d72a12abb","89.245.26.244","Mozilla/5.0 (Windows NT 10.0; Win64; x64) AppleWebKit/537.36 (KHTML, like Gecko) Chrome/135.0.0.0 Safari/537.36 OPR/120.0.0.0","WebKit","Opera","120.0.0.0","Windows","10.0","https://app.prolific.com/","de-DE,de;q=0.9,en-US;q=0.8,en;q=0.7,zh-CN;q=0.6,zh;q=0.5,ja;q=0.4","6565f2ba13586fa869dd3b28","6877649eabb845cf142cd221","689332a51cb1824f5819535e","1","6565f2ba13586fa869dd3b28","1","2025-08-06T10:50:13.866Z","","","","","","","","","","","","","","","","win-only","2","g1:SE,g2:NW","1","1","0","158943.8","806","5811.1","21722.1","1","4","4","6","2","4","4","4","0","0.030303030303030304","1928.7","3000","1180","[""left"",""up""]","{""num_key_presses"":6,""num_perfect"":6,""num_errors"":0,""num_randdir"":0,""num_randdir_good_moves"":0,""num_whilered"":0,""num_whileblue"":0,""num_blue"":0,""num_good_moves"":6}","[416.57142857142856,410.47767857142856,0.2,416.57142857142856,410.47767857142856,104.6,416.57142857142856,410.47767857142856,209.2,416.57142857142856,410.47767857142856,309.3,416.57142857142856,410.47767857142856,409.4,416.57142857142856,410.47767857142856,509.5,416.57142857142856,410.47767857142856,610.2,418.57142857142856,410.47767857142856,714.4,420.57142857142856,410.47767857142856,815.1,422.57142857142856,410.47767857142856,919.5,424.57142857142856,410.47767857142856,1019.7,432.57142857142856,412.47767857142856,1119.7,410.57142857142856,394.47767857142856,1224.3,30.57142857142857,166.47767857142856,1324.4,8.57142857142857,100.47767857142857,1425.1,44.57142857142857,82.47767857142857,1525.3,46.57142857142857,82.47767857142857,1629.7,46.57142857142857,82.47767857142857,1729.8,46.57142857142857,82.47767857142857,1829.9,46.57142857142857,82.47767857142857,1932.7,46.57142857142857,82.47767857142857,2034.8,-17.42857142857143,84.47767857142857,2134.9,-17.42857142857143,84.47767857142857,2235.9,-17.42857142857143,84.47767857142857,2339.4,-17.42857142857143,84.47767857142857,2439.5,-17.42857142857143,84.47767857142857,2539.6,-17.42857142857143,84.47767857142857,2639.6,-17.42857142857143,84.47767857142857,2739.7,-17.42857142857143,84.47767857142857,2840.2,-17.42857142857143,84.47767857142857,2944.2,-17.42857142857143,84.47767857142857,3044.4,-17.42857142857143,84.47767857142857,3144.5,-17.42857142857143,84.47767857142857,3244.6,-17.42857142857143,84.47767857142857,3344.6,-17.42857142857143,84.47767857142857,3449.2,-17.42857142857143,84.47767857142857,3549.4,-17.42857142857143,84.47767857142857,3649.5,-17.42857142857143,84.47767857142857,3749.6,-17.42857142857143,84.47767857142857,3849.7,-17.42857142857143,84.47767857142857,3949.7,-17.42857142857143,84.47767857142857,4049.8,-17.42857142857143,84.47767857142857,4149.9,-17.42857142857143,84.47767857142857,4250,-17.42857142857143,84.47767857142857,4355.2,-17.42857142857143,84.47767857142857,4455.4,-17.42857142857143,84.47767857142857,4559.3,-17.42857142857143,84.47767857142857,4659.5,-17.42857142857143,84.47767857142857,4764.5,-17.42857142857143,84.47767857142857,4864.6,-17.42857142857143,84.47767857142857,4964.7]","[1392.9,1392.8,1000,0.1,392.8,""smooth"",""left"",""left"",""good_move"",4250.8,2857.6,2543.5,1393.3,314,""smooth"",""up"",""up"",""good_move"",7157.8,2906.8,2572.8,4251.1,334,""smooth"",""left"",""left"",""good_move"",10722.8,3564.8,3284.5,7158,280.3,""smooth"",""up"",""up"",""good_move"",13572,2849,2602.3,10723,246.7,""smooth"",""up"",""up"",""good_move"",15816.8,2244.7,1949.1,13572.1,295.6,""smooth"",""left"",""left"",""good_move""]"
"2612","","<div style=""width:500px;"">
  <p>What determined the result of this run?</p>
  </div>","10","html-slider-response","14","185326","0.0-7.0-1.0","180","1","2025-08-06 10:47:10","36c45c0696341be0efffe67d72a12abb","89.245.26.244","Mozilla/5.0 (Windows NT 10.0; Win64; x64) AppleWebKit/537.36 (KHTML, like Gecko) Chrome/135.0.0.0 Safari/537.36 OPR/120.0.0.0","WebKit","Opera","120.0.0.0","Windows","10.0","https://app.prolific.com/","de-DE,de;q=0.9,en-US;q=0.8,en;q=0.7,zh-CN;q=0.6,zh;q=0.5,ja;q=0.4","6565f2ba13586fa869dd3b28","6877649eabb845cf142cd221","689332a51cb1824f5819535e","1","6565f2ba13586fa869dd3b28","1","2025-08-06T10:50:16.478Z","","","","AttribQ","","","","","","","","","","","50","","","","","","","","","","","","","","","","","","","","","","","","","","",""
"1996","","<div style=""width:500px;"">
  <p>How much control did you have over the ball?</p>
  </div>","84","html-slider-response","15","187323","0.0-7.0-2.0","180","1","2025-08-06 10:47:10","36c45c0696341be0efffe67d72a12abb","89.245.26.244","Mozilla/5.0 (Windows NT 10.0; Win64; x64) AppleWebKit/537.36 (KHTML, like Gecko) Chrome/135.0.0.0 Safari/537.36 OPR/120.0.0.0","WebKit","Opera","120.0.0.0","Windows","10.0","https://app.prolific.com/","de-DE,de;q=0.9,en-US;q=0.8,en;q=0.7,zh-CN;q=0.6,zh;q=0.5,ja;q=0.4","6565f2ba13586fa869dd3b28","6877649eabb845cf142cd221","689332a51cb1824f5819535e","1","6565f2ba13586fa869dd3b28","1","2025-08-06T10:50:18.475Z","","","","ControlQ","","","","","","","","","","","50","","","","","","","","","","","","","","","","","","","","","","","","","","",""
"1237","","<div style=""width:500px;"">
  <p>How would you describe your current emotional state?</p>
  </div>","18","html-slider-response","16","188561","0.0-7.0-3.0","180","1","2025-08-06 10:47:10","36c45c0696341be0efffe67d72a12abb","89.245.26.244","Mozilla/5.0 (Windows NT 10.0; Win64; x64) AppleWebKit/537.36 (KHTML, like Gecko) Chrome/135.0.0.0 Safari/537.36 OPR/120.0.0.0","WebKit","Opera","120.0.0.0","Windows","10.0","https://app.prolific.com/","de-DE,de;q=0.9,en-US;q=0.8,en;q=0.7,zh-CN;q=0.6,zh;q=0.5,ja;q=0.4","6565f2ba13586fa869dd3b28","6877649eabb845cf142cd221","689332a51cb1824f5819535e","1","6565f2ba13586fa869dd3b28","1","2025-08-06T10:50:19.713Z","","","","StressQ","","","","","","","","","","","50","","","","","","","","","","","","","","","","","","","","","","","","","","",""
"1293","","<div style=""width:500px;"">
  <p>What best describes how you currently feel?</p>
  </div>","86","html-slider-response","17","189855","0.0-7.0-4.0","180","1","2025-08-06 10:47:10","36c45c0696341be0efffe67d72a12abb","89.245.26.244","Mozilla/5.0 (Windows NT 10.0; Win64; x64) AppleWebKit/537.36 (KHTML, like Gecko) Chrome/135.0.0.0 Safari/537.36 OPR/120.0.0.0","WebKit","Opera","120.0.0.0","Windows","10.0","https://app.prolific.com/","de-DE,de;q=0.9,en-US;q=0.8,en;q=0.7,zh-CN;q=0.6,zh;q=0.5,ja;q=0.4","6565f2ba13586fa869dd3b28","6877649eabb845cf142cd221","689332a51cb1824f5819535e","1","6565f2ba13586fa869dd3b28","1","2025-08-06T10:50:21.007Z","","","","MotivationQ","","","","","","","","","","","50","","","","","","","","","","","","","","","","","","","","","","","","","","",""
"","","","","ctl-task-cpt","18","213510","0.0-7.0-0.1","180","1","2025-08-06 10:47:10","36c45c0696341be0efffe67d72a12abb","89.245.26.244","Mozilla/5.0 (Windows NT 10.0; Win64; x64) AppleWebKit/537.36 (KHTML, like Gecko) Chrome/135.0.0.0 Safari/537.36 OPR/120.0.0.0","WebKit","Opera","120.0.0.0","Windows","10.0","https://app.prolific.com/","de-DE,de;q=0.9,en-US;q=0.8,en;q=0.7,zh-CN;q=0.6,zh;q=0.5,ja;q=0.4","6565f2ba13586fa869dd3b28","6877649eabb845cf142cd221","689332a51cb1824f5819535e","1","6565f2ba13586fa869dd3b28","1","2025-08-06T10:50:44.662Z","","","","","","","","","","","","","","","","win-only","1","g1:NE,g2:SW","0.9","2","0","190811.9","860.6","5865.4","20635.2","1","4","8","6","1","1","1","5","4","0.03787878787878788","1124.1","3000","1905","[""up"",""right""]","{""num_key_presses"":4,""num_perfect"":4,""num_errors"":0,""num_randdir"":0,""num_randdir_good_moves"":0,""num_whilered"":0,""num_whileblue"":0,""num_blue"":1,""num_good_moves"":4}","[410.57142857142856,414.47767857142856,0.1,410.57142857142856,414.47767857142856,108.6,410.57142857142856,414.47767857142856,209.7,420.57142857142856,400.47767857142856,309.8,434.57142857142856,376.47767857142856,415.2,434.57142857142856,388.47767857142856,519.9,424.57142857142856,422.47767857142856,620,516.5714285714286,354.47767857142856,720.1,762.5714285714286,122.47767857142857,820.6,756.5714285714286,84.47767857142857,925.7,740.5714285714286,90.47767857142857,1032.5,726.5714285714286,100.47767857142857,1134.8,726.5714285714286,100.47767857142857,1234.8,726.5714285714286,100.47767857142857,1335,726.5714285714286,100.47767857142857,1440,726.5714285714286,100.47767857142857,1540,728.5714285714286,100.47767857142857,1640.2,728.5714285714286,100.47767857142857,1740.3,728.5714285714286,100.47767857142857,1840.3,728.5714285714286,100.47767857142857,1940.5,728.5714285714286,100.47767857142857,2040.5,728.5714285714286,100.47767857142857,2149.5,728.5714285714286,100.47767857142857,2249.7,728.5714285714286,100.47767857142857,2355.8,732.5714285714286,100.47767857142857,2459.9,734.5714285714286,100.47767857142857,2565.9,734.5714285714286,100.47767857142857,2673.2,732.5714285714286,112.47767857142857,2774.6,732.5714285714286,122.47767857142857,2874.7,732.5714285714286,122.47767857142857,2974.8,732.5714285714286,122.47767857142857,3074.8,732.5714285714286,122.47767857142857,3175.5,732.5714285714286,122.47767857142857,3282,732.5714285714286,122.47767857142857,3382.5,732.5714285714286,122.47767857142857,3485.5,732.5714285714286,122.47767857142857,3585.5,732.5714285714286,122.47767857142857,3685.6,732.5714285714286,122.47767857142857,3789.7,732.5714285714286,122.47767857142857,3889.7,738.5714285714286,126.47767857142857,3992.9,740.5714285714286,126.47767857142857,4104.6,740.5714285714286,126.47767857142857,4205.1,740.5714285714286,126.47767857142857,4305.3,740.5714285714286,126.47767857142857,4406,740.5714285714286,126.47767857142857,4509.8,740.5714285714286,126.47767857142857,4614.8,742.5714285714286,126.47767857142857,4725.9,744.5714285714286,128.47767857142856,4831.6,744.5714285714286,128.47767857142856,4931.9]","[5403.5,5403.5,3014.5,2017.8,371.2,""smooth"",""up"",""up"",""good_move"",8768.4,3364.7,3048.3,5403.7,316.4,""smooth"",""right"",""right"",""good_move"",11498.4,2729.7,2436.3,8768.7,293.4,""smooth"",""up"",""up"",""good_move"",14678,3179.4,2860.7,11498.6,318.7,""smooth"",""right"",""right"",""good_move""]"
"2946","","<div style=""width:500px;"">
  <p>What determined the result of this run?</p>
  </div>","5","html-slider-response","19","216457","0.0-7.0-1.1","180","1","2025-08-06 10:47:10","36c45c0696341be0efffe67d72a12abb","89.245.26.244","Mozilla/5.0 (Windows NT 10.0; Win64; x64) AppleWebKit/537.36 (KHTML, like Gecko) Chrome/135.0.0.0 Safari/537.36 OPR/120.0.0.0","WebKit","Opera","120.0.0.0","Windows","10.0","https://app.prolific.com/","de-DE,de;q=0.9,en-US;q=0.8,en;q=0.7,zh-CN;q=0.6,zh;q=0.5,ja;q=0.4","6565f2ba13586fa869dd3b28","6877649eabb845cf142cd221","689332a51cb1824f5819535e","1","6565f2ba13586fa869dd3b28","1","2025-08-06T10:50:47.609Z","","","","AttribQ","","","","","","","","","","","50","","","","","","","","","","","","","","","","","","","","","","","","","","",""
"1887","","<div style=""width:500px;"">
  <p>How much control did you have over the ball?</p>
  </div>","90","html-slider-response","20","218345","0.0-7.0-2.1","180","1","2025-08-06 10:47:10","36c45c0696341be0efffe67d72a12abb","89.245.26.244","Mozilla/5.0 (Windows NT 10.0; Win64; x64) AppleWebKit/537.36 (KHTML, like Gecko) Chrome/135.0.0.0 Safari/537.36 OPR/120.0.0.0","WebKit","Opera","120.0.0.0","Windows","10.0","https://app.prolific.com/","de-DE,de;q=0.9,en-US;q=0.8,en;q=0.7,zh-CN;q=0.6,zh;q=0.5,ja;q=0.4","6565f2ba13586fa869dd3b28","6877649eabb845cf142cd221","689332a51cb1824f5819535e","1","6565f2ba13586fa869dd3b28","1","2025-08-06T10:50:49.497Z","","","","ControlQ","","","","","","","","","","","50","","","","","","","","","","","","","","","","","","","","","","","","","","",""
"1518","","<div style=""width:500px;"">
  <p>How would you describe your current emotional state?</p>
  </div>","14","html-slider-response","21","219864","0.0-7.0-3.1","180","1","2025-08-06 10:47:10","36c45c0696341be0efffe67d72a12abb","89.245.26.244","Mozilla/5.0 (Windows NT 10.0; Win64; x64) AppleWebKit/537.36 (KHTML, like Gecko) Chrome/135.0.0.0 Safari/537.36 OPR/120.0.0.0","WebKit","Opera","120.0.0.0","Windows","10.0","https://app.prolific.com/","de-DE,de;q=0.9,en-US;q=0.8,en;q=0.7,zh-CN;q=0.6,zh;q=0.5,ja;q=0.4","6565f2ba13586fa869dd3b28","6877649eabb845cf142cd221","689332a51cb1824f5819535e","1","6565f2ba13586fa869dd3b28","1","2025-08-06T10:50:51.016Z","","","","StressQ","","","","","","","","","","","50","","","","","","","","","","","","","","","","","","","","","","","","","","",""
"44326","","<div style=""width:500px;"">
  <p>What best describes how you currently feel?</p>
  </div>","80","html-slider-response","22","264190","0.0-7.0-4.1","180","1","2025-08-06 10:47:10","36c45c0696341be0efffe67d72a12abb","89.245.26.244","Mozilla/5.0 (Windows NT 10.0; Win64; x64) AppleWebKit/537.36 (KHTML, like Gecko) Chrome/135.0.0.0 Safari/537.36 OPR/120.0.0.0","WebKit","Opera","120.0.0.0","Windows","10.0","https://app.prolific.com/","de-DE,de;q=0.9,en-US;q=0.8,en;q=0.7,zh-CN;q=0.6,zh;q=0.5,ja;q=0.4","6565f2ba13586fa869dd3b28","6877649eabb845cf142cd221","689332a51cb1824f5819535e","1","6565f2ba13586fa869dd3b28","1","2025-08-06T10:51:35.342Z","","","","MotivationQ","","","","","","","","","","","50","","","","","","","","","","","","","","","","","","","","","","","","","","",""
"","","","","ctl-task-cpt","23","282064","0.0-7.0-0.2","180","1","2025-08-06 10:47:10","36c45c0696341be0efffe67d72a12abb","89.245.26.244","Mozilla/5.0 (Windows NT 10.0; Win64; x64) AppleWebKit/537.36 (KHTML, like Gecko) Chrome/135.0.0.0 Safari/537.36 OPR/120.0.0.0","WebKit","Opera","120.0.0.0","Windows","10.0","https://app.prolific.com/","de-DE,de;q=0.9,en-US;q=0.8,en;q=0.7,zh-CN;q=0.6,zh;q=0.5,ja;q=0.4","6565f2ba13586fa869dd3b28","6877649eabb845cf142cd221","689332a51cb1824f5819535e","1","6565f2ba13586fa869dd3b28","1","2025-08-06T10:51:53.216Z","","","","","","","","","","","","","","","","win-only","1","g1:NE,g2:SW","0.8","3","0","265148.1","1317.5","6321.8","14856.1","1","4","8","6","1","1","1","6","5","0.045454545454545456","1095.9","3000","1830","[""up"",""right""]","{""num_key_presses"":4,""num_perfect"":4,""num_errors"":0,""num_randdir"":0,""num_randdir_good_moves"":0,""num_whilered"":0,""num_whileblue"":0,""num_blue"":0,""num_good_moves"":4}","[410.57142857142856,414.47767857142856,0.2,410.57142857142856,414.47767857142856,103.5,410.57142857142856,414.47767857142856,204.7,410.57142857142856,414.47767857142856,308.6,400.57142857142856,464.47767857142856,413.3,288.57142857142856,596.4776785714286,518.5,336.57142857142856,530.4776785714286,622.9,700.5714285714286,212.47767857142856,728.5,710.5714285714286,188.47767857142856,833.3,718.5714285714286,140.47767857142856,943,730.5714285714286,58.47767857142857,1043.2,730.5714285714286,56.47767857142857,1147.8,730.5714285714286,56.47767857142857,1248.4,730.5714285714286,56.47767857142857,1352.9,730.5714285714286,56.47767857142857,1457.9,730.5714285714286,56.47767857142857,1558.5,730.5714285714286,56.47767857142857,1658.7,730.5714285714286,56.47767857142857,1762.8,730.5714285714286,58.47767857142857,1862.9,730.5714285714286,58.47767857142857,1965.6,730.5714285714286,58.47767857142857,2075.7,730.5714285714286,58.47767857142857,2177.8,730.5714285714286,58.47767857142857,2281,730.5714285714286,58.47767857142857,2383,730.5714285714286,58.47767857142857,2483.1,730.5714285714286,58.47767857142857,2583.3,730.5714285714286,58.47767857142857,2683.4,696.5714285714286,98.47767857142857,2789.6,554.5714285714286,216.47767857142856,2893.5,414.57142857142856,330.47767857142856,2993.7,392.57142857142856,338.47767857142856,3097.7,392.57142857142856,338.47767857142856,3197.9,392.57142857142856,338.47767857142856,3298,392.57142857142856,338.47767857142856,3398.1,392.57142857142856,338.47767857142856,3498.1,392.57142857142856,338.47767857142856,3598.2,392.57142857142856,338.47767857142856,3698.3,392.57142857142856,338.47767857142856,3801.5,392.57142857142856,338.47767857142856,3904.5,392.57142857142856,338.47767857142856,4006.6,392.57142857142856,338.47767857142856,4108.6,406.57142857142856,334.47767857142856,4212.8,530.5714285714286,332.47767857142856,4312.8,824.5714285714286,422.47767857142856,4412.9,826.5714285714286,424.47767857142856,4513,828.5714285714286,424.47767857142856,4613.1,828.5714285714286,424.47767857142856,4713.2,828.5714285714286,422.47767857142856,4813.2,828.5714285714286,422.47767857142856,4913.3]","[1316.9,1317,1000,0,317,""smooth"",""up"",""up"",""good_move"",4155.9,2838.6,2585.3,1317.3,253.3,""smooth"",""right"",""right"",""good_move"",5840.8,1684.7,1339.6,4156.1,345.1,""smooth"",""up"",""up"",""good_move"",8436,2595,2324.2,5841,270.8,""smooth"",""right"",""right"",""good_move""]"
"2561","","<div style=""width:500px;"">
  <p>What determined the result of this run?</p>
  </div>","1","html-slider-response","24","284626","0.0-7.0-1.2","180","1","2025-08-06 10:47:10","36c45c0696341be0efffe67d72a12abb","89.245.26.244","Mozilla/5.0 (Windows NT 10.0; Win64; x64) AppleWebKit/537.36 (KHTML, like Gecko) Chrome/135.0.0.0 Safari/537.36 OPR/120.0.0.0","WebKit","Opera","120.0.0.0","Windows","10.0","https://app.prolific.com/","de-DE,de;q=0.9,en-US;q=0.8,en;q=0.7,zh-CN;q=0.6,zh;q=0.5,ja;q=0.4","6565f2ba13586fa869dd3b28","6877649eabb845cf142cd221","689332a51cb1824f5819535e","1","6565f2ba13586fa869dd3b28","1","2025-08-06T10:51:55.778Z","","","","AttribQ","","","","","","","","","","","50","","","","","","","","","","","","","","","","","","","","","","","","","","",""
"1824","","<div style=""width:500px;"">
  <p>How much control did you have over the ball?</p>
  </div>","88","html-slider-response","25","286451","0.0-7.0-2.2","180","1","2025-08-06 10:47:10","36c45c0696341be0efffe67d72a12abb","89.245.26.244","Mozilla/5.0 (Windows NT 10.0; Win64; x64) AppleWebKit/537.36 (KHTML, like Gecko) Chrome/135.0.0.0 Safari/537.36 OPR/120.0.0.0","WebKit","Opera","120.0.0.0","Windows","10.0","https://app.prolific.com/","de-DE,de;q=0.9,en-US;q=0.8,en;q=0.7,zh-CN;q=0.6,zh;q=0.5,ja;q=0.4","6565f2ba13586fa869dd3b28","6877649eabb845cf142cd221","689332a51cb1824f5819535e","1","6565f2ba13586fa869dd3b28","1","2025-08-06T10:51:57.603Z","","","","ControlQ","","","","","","","","","","","50","","","","","","","","","","","","","","","","","","","","","","","","","","",""
"1838","","<div style=""width:500px;"">
  <p>How would you describe your current emotional state?</p>
  </div>","14","html-slider-response","26","288290","0.0-7.0-3.2","180","1","2025-08-06 10:47:10","36c45c0696341be0efffe67d72a12abb","89.245.26.244","Mozilla/5.0 (Windows NT 10.0; Win64; x64) AppleWebKit/537.36 (KHTML, like Gecko) Chrome/135.0.0.0 Safari/537.36 OPR/120.0.0.0","WebKit","Opera","120.0.0.0","Windows","10.0","https://app.prolific.com/","de-DE,de;q=0.9,en-US;q=0.8,en;q=0.7,zh-CN;q=0.6,zh;q=0.5,ja;q=0.4","6565f2ba13586fa869dd3b28","6877649eabb845cf142cd221","689332a51cb1824f5819535e","1","6565f2ba13586fa869dd3b28","1","2025-08-06T10:51:59.442Z","","","","StressQ","","","","","","","","","","","50","","","","","","","","","","","","","","","","","","","","","","","","","","",""
"1386","","<div style=""width:500px;"">
  <p>What best describes how you currently feel?</p>
  </div>","86","html-slider-response","27","289677","0.0-7.0-4.2","180","1","2025-08-06 10:47:10","36c45c0696341be0efffe67d72a12abb","89.245.26.244","Mozilla/5.0 (Windows NT 10.0; Win64; x64) AppleWebKit/537.36 (KHTML, like Gecko) Chrome/135.0.0.0 Safari/537.36 OPR/120.0.0.0","WebKit","Opera","120.0.0.0","Windows","10.0","https://app.prolific.com/","de-DE,de;q=0.9,en-US;q=0.8,en;q=0.7,zh-CN;q=0.6,zh;q=0.5,ja;q=0.4","6565f2ba13586fa869dd3b28","6877649eabb845cf142cd221","689332a51cb1824f5819535e","1","6565f2ba13586fa869dd3b28","1","2025-08-06T10:52:00.829Z","","","","MotivationQ","","","","","","","","","","","50","","","","","","","","","","","","","","","","","","","","","","","","","","",""
"","","","","ctl-task-cpt","28","325353","0.0-7.0-0.3","180","1","2025-08-06 10:47:10","36c45c0696341be0efffe67d72a12abb","89.245.26.244","Mozilla/5.0 (Windows NT 10.0; Win64; x64) AppleWebKit/537.36 (KHTML, like Gecko) Chrome/135.0.0.0 Safari/537.36 OPR/120.0.0.0","WebKit","Opera","120.0.0.0","Windows","10.0","https://app.prolific.com/","de-DE,de;q=0.9,en-US;q=0.8,en;q=0.7,zh-CN;q=0.6,zh;q=0.5,ja;q=0.4","6565f2ba13586fa869dd3b28","6877649eabb845cf142cd221","689332a51cb1824f5819535e","1","6565f2ba13586fa869dd3b28","1","2025-08-06T10:52:36.505Z","","","","","","","","","","","","","","","","win-only","0","g1:NW,g2:SE","0.7","4","0","290636.7","1021.8","6026.2","32656.1","1","4","4","6","2","4","3","9","6","0.06818181818181818","848","3000","760","[""down"",""right""]","{""num_key_presses"":8,""num_perfect"":5,""num_errors"":1,""num_randdir"":2,""num_randdir_good_moves"":1,""num_whilered"":0,""num_whileblue"":1,""num_blue"":3,""num_good_moves"":7}","[424.57142857142856,416.47767857142856,0.3,424.57142857142856,416.47767857142856,110.2,424.57142857142856,416.47767857142856,214.6,424.57142857142856,416.47767857142856,318.6,424.57142857142856,416.47767857142856,418.7,436.57142857142856,424.47767857142856,518.8,680.5714285714286,658.4776785714286,618.9,746.5714285714286,738.4776785714286,719,746.5714285714286,738.4776785714286,819.1,746.5714285714286,738.4776785714286,919.1,746.5714285714286,738.4776785714286,1019.3,746.5714285714286,738.4776785714286,1119.3,736.5714285714286,712.4776785714286,1223.4,734.5714285714286,704.4776785714286,1323.5,732.5714285714286,698.4776785714286,1423.5,732.5714285714286,698.4776785714286,1523.7,732.5714285714286,698.4776785714286,1624.4,732.5714285714286,698.4776785714286,1728.6,732.5714285714286,698.4776785714286,1829.6,732.5714285714286,698.4776785714286,1933.6,732.5714285714286,698.4776785714286,2033.7,732.5714285714286,698.4776785714286,2133.8,732.5714285714286,698.4776785714286,2234,732.5714285714286,698.4776785714286,2334,732.5714285714286,698.4776785714286,2434.1,732.5714285714286,698.4776785714286,2534.2,732.5714285714286,698.4776785714286,2634.3,732.5714285714286,698.4776785714286,2734.4,732.5714285714286,698.4776785714286,2834.4,732.5714285714286,698.4776785714286,2938.5,732.5714285714286,698.4776785714286,3039,732.5714285714286,698.4776785714286,3139,732.5714285714286,698.4776785714286,3244.3,732.5714285714286,698.4776785714286,3345.3,732.5714285714286,698.4776785714286,3445.4,732.5714285714286,698.4776785714286,3549.2,732.5714285714286,698.4776785714286,3649.3,732.5714285714286,698.4776785714286,3753.4,732.5714285714286,688.4776785714286,3853.5,738.5714285714286,656.4776785714286,3953.6,702.5714285714286,504.47767857142856,4053.7,702.5714285714286,504.47767857142856,4158.5,702.5714285714286,504.47767857142856,4272.7,702.5714285714286,504.47767857142856,4373.7,702.5714285714286,504.47767857142856,4473.8,702.5714285714286,504.47767857142856,4575.1,702.5714285714286,504.47767857142856,4679.1,702.5714285714286,504.47767857142856,4782.2,702.5714285714286,504.47767857142856,4885.4,702.5714285714286,504.47767857142856,4989.3]","[4334.1,4334.1,2018.8,2011.5,303.8,""smooth"",""down"",""down"",""good_move"",6239.3,1904.9,1583.4,4334.4,321.5,""oops"",""right"",""left"",""bad_move"",9625.9,3386.2,3102.8,6239.7,283.4,""smooth"",""right"",""right"",""good_move"",12248.7,2622.6,2346.7,9626.1,275.9,""smooth"",""right"",""right"",""good_move"",15643.8,3394.9,3130.6,12248.9,264.3,""while_blue"",""down"",""right"",""good_move"",20832.7,5188.7,2360.3,18184.8,287.6,""smooth"",""down"",""down"",""good_move"",24153.7,3320.7,2788.6,20833,532.1,""oops"",""down"",""down"",""good_move"",26528,2374.1,2006.1,24153.9,368,""smooth"",""right"",""right"",""good_move""]"
"7718","","<div style=""width:500px;"">
  <p>What determined the result of this run?</p>
  </div>","6","html-slider-response","29","333072","0.0-7.0-1.3","180","1","2025-08-06 10:47:10","36c45c0696341be0efffe67d72a12abb","89.245.26.244","Mozilla/5.0 (Windows NT 10.0; Win64; x64) AppleWebKit/537.36 (KHTML, like Gecko) Chrome/135.0.0.0 Safari/537.36 OPR/120.0.0.0","WebKit","Opera","120.0.0.0","Windows","10.0","https://app.prolific.com/","de-DE,de;q=0.9,en-US;q=0.8,en;q=0.7,zh-CN;q=0.6,zh;q=0.5,ja;q=0.4","6565f2ba13586fa869dd3b28","6877649eabb845cf142cd221","689332a51cb1824f5819535e","1","6565f2ba13586fa869dd3b28","1","2025-08-06T10:52:44.224Z","","","","AttribQ","","","","","","","","","","","50","","","","","","","","","","","","","","","","","","","","","","","","","","",""
"5471","","<div style=""width:500px;"">
  <p>How much control did you have over the ball?</p>
  </div>","88","html-slider-response","30","338544","0.0-7.0-2.3","180","1","2025-08-06 10:47:10","36c45c0696341be0efffe67d72a12abb","89.245.26.244","Mozilla/5.0 (Windows NT 10.0; Win64; x64) AppleWebKit/537.36 (KHTML, like Gecko) Chrome/135.0.0.0 Safari/537.36 OPR/120.0.0.0","WebKit","Opera","120.0.0.0","Windows","10.0","https://app.prolific.com/","de-DE,de;q=0.9,en-US;q=0.8,en;q=0.7,zh-CN;q=0.6,zh;q=0.5,ja;q=0.4","6565f2ba13586fa869dd3b28","6877649eabb845cf142cd221","689332a51cb1824f5819535e","1","6565f2ba13586fa869dd3b28","1","2025-08-06T10:52:49.696Z","","","","ControlQ","","","","","","","","","","","50","","","","","","","","","","","","","","","","","","","","","","","","","","",""
"2329","","<div style=""width:500px;"">
  <p>How would you describe your current emotional state?</p>
  </div>","8","html-slider-response","31","340874","0.0-7.0-3.3","180","1","2025-08-06 10:47:10","36c45c0696341be0efffe67d72a12abb","89.245.26.244","Mozilla/5.0 (Windows NT 10.0; Win64; x64) AppleWebKit/537.36 (KHTML, like Gecko) Chrome/135.0.0.0 Safari/537.36 OPR/120.0.0.0","WebKit","Opera","120.0.0.0","Windows","10.0","https://app.prolific.com/","de-DE,de;q=0.9,en-US;q=0.8,en;q=0.7,zh-CN;q=0.6,zh;q=0.5,ja;q=0.4","6565f2ba13586fa869dd3b28","6877649eabb845cf142cd221","689332a51cb1824f5819535e","1","6565f2ba13586fa869dd3b28","1","2025-08-06T10:52:52.026Z","","","","StressQ","","","","","","","","","","","50","","","","","","","","","","","","","","","","","","","","","","","","","","",""
"5456","","<div style=""width:500px;"">
  <p>What best describes how you currently feel?</p>
  </div>","87","html-slider-response","32","346331","0.0-7.0-4.3","180","1","2025-08-06 10:47:10","36c45c0696341be0efffe67d72a12abb","89.245.26.244","Mozilla/5.0 (Windows NT 10.0; Win64; x64) AppleWebKit/537.36 (KHTML, like Gecko) Chrome/135.0.0.0 Safari/537.36 OPR/120.0.0.0","WebKit","Opera","120.0.0.0","Windows","10.0","https://app.prolific.com/","de-DE,de;q=0.9,en-US;q=0.8,en;q=0.7,zh-CN;q=0.6,zh;q=0.5,ja;q=0.4","6565f2ba13586fa869dd3b28","6877649eabb845cf142cd221","689332a51cb1824f5819535e","1","6565f2ba13586fa869dd3b28","1","2025-08-06T10:52:57.483Z","","","","MotivationQ","","","","","","","","","","","50","","","","","","","","","","","","","","","","","","","","","","","","","","",""
"","","","","ctl-task-cpt","33","386842","0.0-7.0-0.4","180","1","2025-08-06 10:47:10","36c45c0696341be0efffe67d72a12abb","89.245.26.244","Mozilla/5.0 (Windows NT 10.0; Win64; x64) AppleWebKit/537.36 (KHTML, like Gecko) Chrome/135.0.0.0 Safari/537.36 OPR/120.0.0.0","WebKit","Opera","120.0.0.0","Windows","10.0","https://app.prolific.com/","de-DE,de;q=0.9,en-US;q=0.8,en;q=0.7,zh-CN;q=0.6,zh;q=0.5,ja;q=0.4","6565f2ba13586fa869dd3b28","6877649eabb845cf142cd221","689332a51cb1824f5819535e","1","6565f2ba13586fa869dd3b28","1","2025-08-06T10:53:37.994Z","","","","","","","","","","","","","","","","win-only","0","g1:NW,g2:SE","0.6","5","0","347288.8","868.7","5874.7","37492.9","1","4","4","6","2","-4","-4","5","9","0.03787878787878788","2432","3000","-2450","[""down"",""right""]","{""num_key_presses"":9,""num_perfect"":5,""num_errors"":0,""num_randdir"":4,""num_randdir_good_moves"":1,""num_whilered"":0,""num_whileblue"":0,""num_blue"":2,""num_good_moves"":6}","[416.57142857142856,426.47767857142856,0.3,416.57142857142856,426.47767857142856,101.6,416.57142857142856,426.47767857142856,201.6,416.57142857142856,426.47767857142856,301.7,416.57142857142856,426.47767857142856,401.8,464.57142857142856,492.47767857142856,501.8,598.5714285714286,626.4776785714286,601.8,668.5714285714286,664.4776785714286,701.9,720.5714285714286,692.4776785714286,816.7,740.5714285714286,710.4776785714286,917.1,740.5714285714286,710.4776785714286,1017.6,740.5714285714286,710.4776785714286,1121.4,740.5714285714286,710.4776785714286,1221.4,740.5714285714286,710.4776785714286,1321.4,740.5714285714286,710.4776785714286,1422.2,740.5714285714286,710.4776785714286,1534.5,740.5714285714286,710.4776785714286,1637.2,740.5714285714286,710.4776785714286,1738,740.5714285714286,710.4776785714286,1841.8,740.5714285714286,710.4776785714286,1941.9,740.5714285714286,710.4776785714286,2042.3,740.5714285714286,710.4776785714286,2151.3,740.5714285714286,710.4776785714286,2252.2,740.5714285714286,710.4776785714286,2352.4,740.5714285714286,710.4776785714286,2456.4,740.5714285714286,710.4776785714286,2556.6,740.5714285714286,710.4776785714286,2656.6,740.5714285714286,710.4776785714286,2756.6,742.5714285714286,698.4776785714286,2856.9,732.5714285714286,494.47767857142856,2966.4,732.5714285714286,494.47767857142856,3067,732.5714285714286,494.47767857142856,3167,732.5714285714286,494.47767857142856,3267.1,732.5714285714286,494.47767857142856,3372.2,732.5714285714286,494.47767857142856,3476.7,732.5714285714286,494.47767857142856,3586.8,732.5714285714286,494.47767857142856,3691.6,732.5714285714286,494.47767857142856,3791.8,732.5714285714286,494.47767857142856,3893.6,732.5714285714286,494.47767857142856,3996.8,732.5714285714286,494.47767857142856,4099.4,732.5714285714286,494.47767857142856,4201.9,732.5714285714286,494.47767857142856,4307.1,732.5714285714286,494.47767857142856,4407.1,732.5714285714286,494.47767857142856,4511.7,732.5714285714286,494.47767857142856,4623.6,732.5714285714286,494.47767857142856,4726.6,732.5714285714286,494.47767857142856,4826.7,732.5714285714286,494.47767857142856,4941.8]","[1405.1,1405.1,1000,0,405.1,""oops"",""down"",""up"",""bad_move"",3703.3,2297.8,1949.3,1405.5,348.5,""smooth"",""down"",""down"",""good_move"",6049.2,2345.6,2005.5,3703.6,340.1,""smooth"",""down"",""down"",""good_move"",11990.5,5941.1,2615.9,8918.3,456.3,""oops"",""down"",""down"",""good_move"",14417.8,2427.2,2094.8,11990.6,332.4,""smooth"",""right"",""right"",""good_move"",17099.1,2681,2300.8,14418.1,380.2,""smooth"",""down"",""down"",""good_move"",23070.2,5970.8,1938.8,20730.9,400.5,""oops"",""right"",""up"",""bad_move"",26235,3164.5,2798.5,23070.5,366,""smooth"",""right"",""right"",""good_move"",28931.4,2696.2,2351.2,26235.2,345,""oops"",""down"",""left"",""bad_move""]"
"2384","","<div style=""width:500px;"">
  <p>What determined the result of this run?</p>
  </div>","3","html-slider-response","34","389226","0.0-7.0-1.4","180","1","2025-08-06 10:47:10","36c45c0696341be0efffe67d72a12abb","89.245.26.244","Mozilla/5.0 (Windows NT 10.0; Win64; x64) AppleWebKit/537.36 (KHTML, like Gecko) Chrome/135.0.0.0 Safari/537.36 OPR/120.0.0.0","WebKit","Opera","120.0.0.0","Windows","10.0","https://app.prolific.com/","de-DE,de;q=0.9,en-US;q=0.8,en;q=0.7,zh-CN;q=0.6,zh;q=0.5,ja;q=0.4","6565f2ba13586fa869dd3b28","6877649eabb845cf142cd221","689332a51cb1824f5819535e","1","6565f2ba13586fa869dd3b28","1","2025-08-06T10:53:40.378Z","","","","AttribQ","","","","","","","","","","","50","","","","","","","","","","","","","","","","","","","","","","","","","","",""
"1374","","<div style=""width:500px;"">
  <p>How much control did you have over the ball?</p>
  </div>","93","html-slider-response","35","390601","0.0-7.0-2.4","180","1","2025-08-06 10:47:10","36c45c0696341be0efffe67d72a12abb","89.245.26.244","Mozilla/5.0 (Windows NT 10.0; Win64; x64) AppleWebKit/537.36 (KHTML, like Gecko) Chrome/135.0.0.0 Safari/537.36 OPR/120.0.0.0","WebKit","Opera","120.0.0.0","Windows","10.0","https://app.prolific.com/","de-DE,de;q=0.9,en-US;q=0.8,en;q=0.7,zh-CN;q=0.6,zh;q=0.5,ja;q=0.4","6565f2ba13586fa869dd3b28","6877649eabb845cf142cd221","689332a51cb1824f5819535e","1","6565f2ba13586fa869dd3b28","1","2025-08-06T10:53:41.753Z","","","","ControlQ","","","","","","","","","","","50","","","","","","","","","","","","","","","","","","","","","","","","","","",""
"1074","","<div style=""width:500px;"">
  <p>How would you describe your current emotional state?</p>
  </div>","16","html-slider-response","36","391676","0.0-7.0-3.4","180","1","2025-08-06 10:47:10","36c45c0696341be0efffe67d72a12abb","89.245.26.244","Mozilla/5.0 (Windows NT 10.0; Win64; x64) AppleWebKit/537.36 (KHTML, like Gecko) Chrome/135.0.0.0 Safari/537.36 OPR/120.0.0.0","WebKit","Opera","120.0.0.0","Windows","10.0","https://app.prolific.com/","de-DE,de;q=0.9,en-US;q=0.8,en;q=0.7,zh-CN;q=0.6,zh;q=0.5,ja;q=0.4","6565f2ba13586fa869dd3b28","6877649eabb845cf142cd221","689332a51cb1824f5819535e","1","6565f2ba13586fa869dd3b28","1","2025-08-06T10:53:42.829Z","","","","StressQ","","","","","","","","","","","50","","","","","","","","","","","","","","","","","","","","","","","","","","",""
"1128","","<div style=""width:500px;"">
  <p>What best describes how you currently feel?</p>
  </div>","90","html-slider-response","37","392806","0.0-7.0-4.4","180","1","2025-08-06 10:47:10","36c45c0696341be0efffe67d72a12abb","89.245.26.244","Mozilla/5.0 (Windows NT 10.0; Win64; x64) AppleWebKit/537.36 (KHTML, like Gecko) Chrome/135.0.0.0 Safari/537.36 OPR/120.0.0.0","WebKit","Opera","120.0.0.0","Windows","10.0","https://app.prolific.com/","de-DE,de;q=0.9,en-US;q=0.8,en;q=0.7,zh-CN;q=0.6,zh;q=0.5,ja;q=0.4","6565f2ba13586fa869dd3b28","6877649eabb845cf142cd221","689332a51cb1824f5819535e","1","6565f2ba13586fa869dd3b28","1","2025-08-06T10:53:43.958Z","","","","MotivationQ","","","","","","","","","","","50","","","","","","","","","","","","","","","","","","","","","","","","","","",""
"","","","","ctl-task-cpt","38","413357","0.0-7.0-0.5","180","1","2025-08-06 10:47:10","36c45c0696341be0efffe67d72a12abb","89.245.26.244","Mozilla/5.0 (Windows NT 10.0; Win64; x64) AppleWebKit/537.36 (KHTML, like Gecko) Chrome/135.0.0.0 Safari/537.36 OPR/120.0.0.0","WebKit","Opera","120.0.0.0","Windows","10.0","https://app.prolific.com/","de-DE,de;q=0.9,en-US;q=0.8,en;q=0.7,zh-CN;q=0.6,zh;q=0.5,ja;q=0.4","6565f2ba13586fa869dd3b28","6877649eabb845cf142cd221","689332a51cb1824f5819535e","1","6565f2ba13586fa869dd3b28","1","2025-08-06T10:54:04.509Z","","","","","","","","","","","","","","","","win-only","0","g1:NW,g2:SE","0.5","6","0","393763.7","655.8","5661.9","17525.7","1","4","8","6","1","1","1","6","5","0.045454545454545456","924.1","3000","1650","[""left"",""up""]","{""num_key_presses"":4,""num_perfect"":3,""num_errors"":0,""num_randdir"":1,""num_randdir_good_moves"":1,""num_whilered"":0,""num_whileblue"":0,""num_blue"":0,""num_good_moves"":4}","[416.57142857142856,414.47767857142856,0.3,416.57142857142856,414.47767857142856,105.9,416.57142857142856,414.47767857142856,211.2,416.57142857142856,414.47767857142856,315.4,284.57142857142856,350.47767857142856,422.2,128.57142857142856,242.47767857142856,527.3,38.57142857142857,178.47767857142856,631,40.57142857142857,156.47767857142856,734.7,74.57142857142857,56.47767857142857,835.1,74.57142857142857,48.47767857142857,935.2,74.57142857142857,50.47767857142857,1040.7,76.57142857142857,66.47767857142857,1145.2,98.57142857142857,104.47767857142857,1245.3,138.57142857142856,118.47767857142857,1345.3,154.57142857142856,120.47767857142857,1455.8,168.57142857142856,122.47767857142857,1556.4,212.57142857142856,124.47767857142857,1659.9,400.57142857142856,182.47767857142856,1764.8,582.5714285714286,234.47767857142856,1864.8,630.5714285714286,244.47767857142856,1975.1,636.5714285714286,244.47767857142856,2079.9,650.5714285714286,226.47767857142856,2180.1,650.5714285714286,226.47767857142856,2280.5,650.5714285714286,226.47767857142856,2385.3,650.5714285714286,226.47767857142856,2485.3,650.5714285714286,226.47767857142856,2599.7,650.5714285714286,226.47767857142856,2700.4,650.5714285714286,226.47767857142856,2800.6,650.5714285714286,226.47767857142856,2905.3,650.5714285714286,226.47767857142856,3009.9,650.5714285714286,226.47767857142856,3109.9,650.5714285714286,226.47767857142856,3210,682.5714285714286,274.47767857142856,3315,694.5714285714286,288.47767857142856,3415.1,694.5714285714286,288.47767857142856,3515.1,694.5714285714286,286.47767857142856,3620.5,694.5714285714286,286.47767857142856,3722.6,694.5714285714286,286.47767857142856,3822.7,694.5714285714286,286.47767857142856,3930.6,694.5714285714286,286.47767857142856,4034.8,694.5714285714286,286.47767857142856,4139.9,694.5714285714286,286.47767857142856,4244.8,696.5714285714286,286.47767857142856,4345,696.5714285714286,286.47767857142856,4445,696.5714285714286,286.47767857142856,4545,698.5714285714286,286.47767857142856,4645.2,698.5714285714286,286.47767857142856,4747.7,698.5714285714286,286.47767857142856,4850.4,698.5714285714286,286.47767857142856,4950.8]","[1507.1,1507.1,1000,0,507.1,""oops"",""up"",""left"",""good_move"",4711.3,3203.9,2835.4,1507.4,368.5,""smooth"",""up"",""up"",""good_move"",8337.1,3625.3,3272.2,4711.8,353.1,""smooth"",""up"",""up"",""good_move"",11768.9,3431.6,3132,8337.4,299.5,""smooth"",""left"",""left"",""good_move""]"
"3687","","<div style=""width:500px;"">
  <p>What determined the result of this run?</p>
  </div>","11","html-slider-response","39","417044","0.0-7.0-1.5","180","1","2025-08-06 10:47:10","36c45c0696341be0efffe67d72a12abb","89.245.26.244","Mozilla/5.0 (Windows NT 10.0; Win64; x64) AppleWebKit/537.36 (KHTML, like Gecko) Chrome/135.0.0.0 Safari/537.36 OPR/120.0.0.0","WebKit","Opera","120.0.0.0","Windows","10.0","https://app.prolific.com/","de-DE,de;q=0.9,en-US;q=0.8,en;q=0.7,zh-CN;q=0.6,zh;q=0.5,ja;q=0.4","6565f2ba13586fa869dd3b28","6877649eabb845cf142cd221","689332a51cb1824f5819535e","1","6565f2ba13586fa869dd3b28","1","2025-08-06T10:54:08.196Z","","","","AttribQ","","","","","","","","","","","50","","","","","","","","","","","","","","","","","","","","","","","","","","",""
"2112","","<div style=""width:500px;"">
  <p>How much control did you have over the ball?</p>
  </div>","93","html-slider-response","40","419157","0.0-7.0-2.5","180","1","2025-08-06 10:47:10","36c45c0696341be0efffe67d72a12abb","89.245.26.244","Mozilla/5.0 (Windows NT 10.0; Win64; x64) AppleWebKit/537.36 (KHTML, like Gecko) Chrome/135.0.0.0 Safari/537.36 OPR/120.0.0.0","WebKit","Opera","120.0.0.0","Windows","10.0","https://app.prolific.com/","de-DE,de;q=0.9,en-US;q=0.8,en;q=0.7,zh-CN;q=0.6,zh;q=0.5,ja;q=0.4","6565f2ba13586fa869dd3b28","6877649eabb845cf142cd221","689332a51cb1824f5819535e","1","6565f2ba13586fa869dd3b28","1","2025-08-06T10:54:10.309Z","","","","ControlQ","","","","","","","","","","","50","","","","","","","","","","","","","","","","","","","","","","","","","","",""
"1263","","<div style=""width:500px;"">
  <p>How would you describe your current emotional state?</p>
  </div>","11","html-slider-response","41","420421","0.0-7.0-3.5","180","1","2025-08-06 10:47:10","36c45c0696341be0efffe67d72a12abb","89.245.26.244","Mozilla/5.0 (Windows NT 10.0; Win64; x64) AppleWebKit/537.36 (KHTML, like Gecko) Chrome/135.0.0.0 Safari/537.36 OPR/120.0.0.0","WebKit","Opera","120.0.0.0","Windows","10.0","https://app.prolific.com/","de-DE,de;q=0.9,en-US;q=0.8,en;q=0.7,zh-CN;q=0.6,zh;q=0.5,ja;q=0.4","6565f2ba13586fa869dd3b28","6877649eabb845cf142cd221","689332a51cb1824f5819535e","1","6565f2ba13586fa869dd3b28","1","2025-08-06T10:54:11.573Z","","","","StressQ","","","","","","","","","","","50","","","","","","","","","","","","","","","","","","","","","","","","","","",""
"9534","","<div style=""width:500px;"">
  <p>What best describes how you currently feel?</p>
  </div>","87","html-slider-response","42","429956","0.0-7.0-4.5","180","1","2025-08-06 10:47:10","36c45c0696341be0efffe67d72a12abb","89.245.26.244","Mozilla/5.0 (Windows NT 10.0; Win64; x64) AppleWebKit/537.36 (KHTML, like Gecko) Chrome/135.0.0.0 Safari/537.36 OPR/120.0.0.0","WebKit","Opera","120.0.0.0","Windows","10.0","https://app.prolific.com/","de-DE,de;q=0.9,en-US;q=0.8,en;q=0.7,zh-CN;q=0.6,zh;q=0.5,ja;q=0.4","6565f2ba13586fa869dd3b28","6877649eabb845cf142cd221","689332a51cb1824f5819535e","1","6565f2ba13586fa869dd3b28","1","2025-08-06T10:54:21.108Z","","","","MotivationQ","","","","","","","","","","","50","","","","","","","","","","","","","","","","","","","","","","","","","","",""
"","","","","ctl-task-cpt","43","457224","0.0-7.0-0.6","180","1","2025-08-06 10:47:10","36c45c0696341be0efffe67d72a12abb","89.245.26.244","Mozilla/5.0 (Windows NT 10.0; Win64; x64) AppleWebKit/537.36 (KHTML, like Gecko) Chrome/135.0.0.0 Safari/537.36 OPR/120.0.0.0","WebKit","Opera","120.0.0.0","Windows","10.0","https://app.prolific.com/","de-DE,de;q=0.9,en-US;q=0.8,en;q=0.7,zh-CN;q=0.6,zh;q=0.5,ja;q=0.4","6565f2ba13586fa869dd3b28","6877649eabb845cf142cd221","689332a51cb1824f5819535e","1","6565f2ba13586fa869dd3b28","1","2025-08-06T10:54:48.376Z","","","","","","","","","","","","","","","","win-only","3","g1:SW,g2:NE","0.4","7","0","430913.9","926","5931","24250.9","1","4","4","6","1","1","1","7","6","0.05303030303030303","1870.6","3000","1770","[""down"",""left""]","{""num_key_presses"":4,""num_perfect"":3,""num_errors"":0,""num_randdir"":1,""num_randdir_good_moves"":1,""num_whilered"":0,""num_whileblue"":0,""num_blue"":2,""num_good_moves"":4}","[416.57142857142856,422.47767857142856,0.1,416.57142857142856,422.47767857142856,105.6,416.57142857142856,422.47767857142856,209.4,416.57142857142856,422.47767857142856,309.6,416.57142857142856,422.47767857142856,409.7,416.57142857142856,422.47767857142856,509.9,682.5714285714286,252.47767857142856,616.4,750.5714285714286,150.47767857142856,727.7,762.5714285714286,82.47767857142857,838.8,762.5714285714286,80.47767857142857,939.7,762.5714285714286,80.47767857142857,1047.2,762.5714285714286,80.47767857142857,1150.9,762.5714285714286,80.47767857142857,1256.6,764.5714285714286,80.47767857142857,1361.7,566.5714285714286,332.47767857142856,1465.7,198.57142857142856,670.4776785714286,1569.8,180.57142857142856,680.4776785714286,1669.9,84.57142857142857,738.4776785714286,1770.1,78.57142857142857,742.4776785714286,1881.1,78.57142857142857,742.4776785714286,1992.2,78.57142857142857,742.4776785714286,2095.3,78.57142857142857,742.4776785714286,2195.4,82.57142857142857,740.4776785714286,2306.7,86.57142857142857,738.4776785714286,2409.7,86.57142857142857,738.4776785714286,2509.9,90.57142857142857,732.4776785714286,2610,98.57142857142857,718.4776785714286,2715.2,110.57142857142857,706.4776785714286,2815.2,120.57142857142857,706.4776785714286,2931.2,136.57142857142856,706.4776785714286,3035,142.57142857142856,702.4776785714286,3139.1,142.57142857142856,702.4776785714286,3239.9,144.57142857142856,702.4776785714286,3340,146.57142857142856,702.4776785714286,3445.3,146.57142857142856,702.4776785714286,3545.3,146.57142857142856,702.4776785714286,3645.7,150.57142857142856,702.4776785714286,3755.2,154.57142857142856,702.4776785714286,3855.2,204.57142857142856,690.4776785714286,3959.5,314.57142857142856,624.4776785714286,4059.9,386.57142857142856,584.4776785714286,4160.1,512.5714285714286,560.4776785714286,4265.6,630.5714285714286,558.4776785714286,4369.7,630.5714285714286,558.4776785714286,4471.1,630.5714285714286,558.4776785714286,4574,630.5714285714286,558.4776785714286,4675.2,630.5714285714286,558.4776785714286,4775.8,630.5714285714286,558.4776785714286,4886.5,630.5714285714286,558.4776785714286,4989.7]","[1383.8,1383.8,1000,0,383.8,""oops"",""left"",""left"",""good_move"",7386.8,6002.7,2369.5,4676.3,341,""smooth"",""down"",""down"",""good_move"",15406.7,8019.6,3719.9,11295.6,391.2,""smooth"",""left"",""left"",""good_move"",18217,2810,2425.9,15407,384.1,""smooth"",""down"",""down"",""good_move""]"
"2909","","<div style=""width:500px;"">
  <p>What determined the result of this run?</p>
  </div>","7","html-slider-response","44","460134","0.0-7.0-1.6","180","1","2025-08-06 10:47:10","36c45c0696341be0efffe67d72a12abb","89.245.26.244","Mozilla/5.0 (Windows NT 10.0; Win64; x64) AppleWebKit/537.36 (KHTML, like Gecko) Chrome/135.0.0.0 Safari/537.36 OPR/120.0.0.0","WebKit","Opera","120.0.0.0","Windows","10.0","https://app.prolific.com/","de-DE,de;q=0.9,en-US;q=0.8,en;q=0.7,zh-CN;q=0.6,zh;q=0.5,ja;q=0.4","6565f2ba13586fa869dd3b28","6877649eabb845cf142cd221","689332a51cb1824f5819535e","1","6565f2ba13586fa869dd3b28","1","2025-08-06T10:54:51.286Z","","","","AttribQ","","","","","","","","","","","50","","","","","","","","","","","","","","","","","","","","","","","","","","",""
"1137","","<div style=""width:500px;"">
  <p>How much control did you have over the ball?</p>
  </div>","95","html-slider-response","45","461272","0.0-7.0-2.6","180","1","2025-08-06 10:47:10","36c45c0696341be0efffe67d72a12abb","89.245.26.244","Mozilla/5.0 (Windows NT 10.0; Win64; x64) AppleWebKit/537.36 (KHTML, like Gecko) Chrome/135.0.0.0 Safari/537.36 OPR/120.0.0.0","WebKit","Opera","120.0.0.0","Windows","10.0","https://app.prolific.com/","de-DE,de;q=0.9,en-US;q=0.8,en;q=0.7,zh-CN;q=0.6,zh;q=0.5,ja;q=0.4","6565f2ba13586fa869dd3b28","6877649eabb845cf142cd221","689332a51cb1824f5819535e","1","6565f2ba13586fa869dd3b28","1","2025-08-06T10:54:52.424Z","","","","ControlQ","","","","","","","","","","","50","","","","","","","","","","","","","","","","","","","","","","","","","","",""
"1435","","<div style=""width:500px;"">
  <p>How would you describe your current emotional state?</p>
  </div>","13","html-slider-response","46","462708","0.0-7.0-3.6","180","1","2025-08-06 10:47:10","36c45c0696341be0efffe67d72a12abb","89.245.26.244","Mozilla/5.0 (Windows NT 10.0; Win64; x64) AppleWebKit/537.36 (KHTML, like Gecko) Chrome/135.0.0.0 Safari/537.36 OPR/120.0.0.0","WebKit","Opera","120.0.0.0","Windows","10.0","https://app.prolific.com/","de-DE,de;q=0.9,en-US;q=0.8,en;q=0.7,zh-CN;q=0.6,zh;q=0.5,ja;q=0.4","6565f2ba13586fa869dd3b28","6877649eabb845cf142cd221","689332a51cb1824f5819535e","1","6565f2ba13586fa869dd3b28","1","2025-08-06T10:54:53.860Z","","","","StressQ","","","","","","","","","","","50","","","","","","","","","","","","","","","","","","","","","","","","","","",""
"1421","","<div style=""width:500px;"">
  <p>What best describes how you currently feel?</p>
  </div>","87","html-slider-response","47","464130","0.0-7.0-4.6","180","1","2025-08-06 10:47:10","36c45c0696341be0efffe67d72a12abb","89.245.26.244","Mozilla/5.0 (Windows NT 10.0; Win64; x64) AppleWebKit/537.36 (KHTML, like Gecko) Chrome/135.0.0.0 Safari/537.36 OPR/120.0.0.0","WebKit","Opera","120.0.0.0","Windows","10.0","https://app.prolific.com/","de-DE,de;q=0.9,en-US;q=0.8,en;q=0.7,zh-CN;q=0.6,zh;q=0.5,ja;q=0.4","6565f2ba13586fa869dd3b28","6877649eabb845cf142cd221","689332a51cb1824f5819535e","1","6565f2ba13586fa869dd3b28","1","2025-08-06T10:54:55.282Z","","","","MotivationQ","","","","","","","","","","","50","","","","","","","","","","","","","","","","","","","","","","","","","","",""
"","","","","ctl-task-cpt","48","505035","0.0-7.0-0.7","180","1","2025-08-06 10:47:10","36c45c0696341be0efffe67d72a12abb","89.245.26.244","Mozilla/5.0 (Windows NT 10.0; Win64; x64) AppleWebKit/537.36 (KHTML, like Gecko) Chrome/135.0.0.0 Safari/537.36 OPR/120.0.0.0","WebKit","Opera","120.0.0.0","Windows","10.0","https://app.prolific.com/","de-DE,de;q=0.9,en-US;q=0.8,en;q=0.7,zh-CN;q=0.6,zh;q=0.5,ja;q=0.4","6565f2ba13586fa869dd3b28","6877649eabb845cf142cd221","689332a51cb1824f5819535e","1","6565f2ba13586fa869dd3b28","1","2025-08-06T10:55:36.187Z","","","","","","","","","","","","","","","","win-only","2","g1:SE,g2:NW","0.3","8","0","465087.8","838","5840.6","37885.6","1","4","8","6","1","-1","-2","5","7","0.03787878787878788","2839.7","3000","-3000","[""down"",""right""]","{""num_key_presses"":7,""num_perfect"":1,""num_errors"":1,""num_randdir"":5,""num_randdir_good_moves"":2,""num_whilered"":0,""num_whileblue"":0,""num_blue"":3,""num_good_moves"":3}","[411.57142857142856,412.47767857142856,0.2,411.57142857142856,412.47767857142856,107.9,411.57142857142856,412.47767857142856,208.1,411.57142857142856,412.47767857142856,312.5,413.57142857142856,412.47767857142856,412.6,413.57142857142856,412.47767857142856,517.6,413.57142857142856,412.47767857142856,617.7,413.57142857142856,412.47767857142856,717.8,413.57142857142856,412.47767857142856,822.1,415.57142857142856,412.47767857142856,922.7,415.57142857142856,412.47767857142856,1027.2,415.57142857142856,412.47767857142856,1132.5,415.57142857142856,412.47767857142856,1232.5,415.57142857142856,412.47767857142856,1336.4,415.57142857142856,412.47767857142856,1437.3,415.57142857142856,412.47767857142856,1537.3,417.57142857142856,412.47767857142856,1637.4,419.57142857142856,414.47767857142856,1737.5,419.57142857142856,414.47767857142856,1837.6,419.57142857142856,414.47767857142856,1937.7,419.57142857142856,414.47767857142856,2042.8,421.57142857142856,414.47767857142856,2147.9,429.57142857142856,422.47767857142856,2253.4,503.57142857142856,478.47767857142856,2357.6,591.5714285714286,556.4776785714286,2457.6,669.5714285714286,646.4776785714286,2562.2,699.5714285714286,696.4776785714286,2662.2,715.5714285714286,720.4776785714286,2762.3,735.5714285714286,748.4776785714286,2867.6,735.5714285714286,748.4776785714286,2972.6,735.5714285714286,748.4776785714286,3072.7,723.5714285714286,702.4776785714286,3172.7,725.5714285714286,716.4776785714286,3277.3,725.5714285714286,716.4776785714286,3377.3,725.5714285714286,716.4776785714286,3483.1,725.5714285714286,716.4776785714286,3587.2,725.5714285714286,716.4776785714286,3687.3,725.5714285714286,716.4776785714286,3787.3,725.5714285714286,716.4776785714286,3887.5,725.5714285714286,716.4776785714286,3987.6,725.5714285714286,716.4776785714286,4087.6,725.5714285714286,716.4776785714286,4187.8,725.5714285714286,716.4776785714286,4292.3,725.5714285714286,716.4776785714286,4392.5,725.5714285714286,716.4776785714286,4498,725.5714285714286,716.4776785714286,4598.2,725.5714285714286,716.4776785714286,4698.3,725.5714285714286,716.4776785714286,4798.4,725.5714285714286,716.4776785714286,4902.3]","[2013.2,2013.2,1000,0,1013.2,""oops"",""down"",""down"",""good_move"",9314.4,7300.8,2977,5959.7,377.7,""oops"",""right"",""left"",""bad_move"",11827.7,2513,2155.8,9314.7,357.2,""smooth"",""right"",""right"",""good_move"",19292.2,7464.1,2964.5,15975.5,352.2,""oops"",""right"",""left"",""bad_move"",21538.6,2246.2,1810.7,19292.4,435.5,""oops"",""down"",""left"",""bad_move"",24902.3,3363.5,2971.3,21538.8,392.2,""oops"",""down"",""down"",""good_move"",25015.5,113,2476,24902.5,-2363,""error"",""-"",""-"",""no_move""]"
"3153","","<div style=""width:500px;"">
  <p>What determined the result of this run?</p>
  </div>","7","html-slider-response","49","508189","0.0-7.0-1.7","180","1","2025-08-06 10:47:10","36c45c0696341be0efffe67d72a12abb","89.245.26.244","Mozilla/5.0 (Windows NT 10.0; Win64; x64) AppleWebKit/537.36 (KHTML, like Gecko) Chrome/135.0.0.0 Safari/537.36 OPR/120.0.0.0","WebKit","Opera","120.0.0.0","Windows","10.0","https://app.prolific.com/","de-DE,de;q=0.9,en-US;q=0.8,en;q=0.7,zh-CN;q=0.6,zh;q=0.5,ja;q=0.4","6565f2ba13586fa869dd3b28","6877649eabb845cf142cd221","689332a51cb1824f5819535e","1","6565f2ba13586fa869dd3b28","1","2025-08-06T10:55:39.341Z","","","","AttribQ","","","","","","","","","","","50","","","","","","","","","","","","","","","","","","","","","","","","","","",""
"1220","","<div style=""width:500px;"">
  <p>How much control did you have over the ball?</p>
  </div>","13","html-slider-response","50","509410","0.0-7.0-2.7","180","1","2025-08-06 10:47:10","36c45c0696341be0efffe67d72a12abb","89.245.26.244","Mozilla/5.0 (Windows NT 10.0; Win64; x64) AppleWebKit/537.36 (KHTML, like Gecko) Chrome/135.0.0.0 Safari/537.36 OPR/120.0.0.0","WebKit","Opera","120.0.0.0","Windows","10.0","https://app.prolific.com/","de-DE,de;q=0.9,en-US;q=0.8,en;q=0.7,zh-CN;q=0.6,zh;q=0.5,ja;q=0.4","6565f2ba13586fa869dd3b28","6877649eabb845cf142cd221","689332a51cb1824f5819535e","1","6565f2ba13586fa869dd3b28","1","2025-08-06T10:55:40.562Z","","","","ControlQ","","","","","","","","","","","50","","","","","","","","","","","","","","","","","","","","","","","","","","",""
"1654","","<div style=""width:500px;"">
  <p>How would you describe your current emotional state?</p>
  </div>","19","html-slider-response","51","511065","0.0-7.0-3.7","180","1","2025-08-06 10:47:10","36c45c0696341be0efffe67d72a12abb","89.245.26.244","Mozilla/5.0 (Windows NT 10.0; Win64; x64) AppleWebKit/537.36 (KHTML, like Gecko) Chrome/135.0.0.0 Safari/537.36 OPR/120.0.0.0","WebKit","Opera","120.0.0.0","Windows","10.0","https://app.prolific.com/","de-DE,de;q=0.9,en-US;q=0.8,en;q=0.7,zh-CN;q=0.6,zh;q=0.5,ja;q=0.4","6565f2ba13586fa869dd3b28","6877649eabb845cf142cd221","689332a51cb1824f5819535e","1","6565f2ba13586fa869dd3b28","1","2025-08-06T10:55:42.217Z","","","","StressQ","","","","","","","","","","","50","","","","","","","","","","","","","","","","","","","","","","","","","","",""
"1469","","<div style=""width:500px;"">
  <p>What best describes how you currently feel?</p>
  </div>","77","html-slider-response","52","512535","0.0-7.0-4.7","180","1","2025-08-06 10:47:10","36c45c0696341be0efffe67d72a12abb","89.245.26.244","Mozilla/5.0 (Windows NT 10.0; Win64; x64) AppleWebKit/537.36 (KHTML, like Gecko) Chrome/135.0.0.0 Safari/537.36 OPR/120.0.0.0","WebKit","Opera","120.0.0.0","Windows","10.0","https://app.prolific.com/","de-DE,de;q=0.9,en-US;q=0.8,en;q=0.7,zh-CN;q=0.6,zh;q=0.5,ja;q=0.4","6565f2ba13586fa869dd3b28","6877649eabb845cf142cd221","689332a51cb1824f5819535e","1","6565f2ba13586fa869dd3b28","1","2025-08-06T10:55:43.687Z","","","","MotivationQ","","","","","","","","","","","50","","","","","","","","","","","","","","","","","","","","","","","","","","",""
"","","","","ctl-task-cpt","53","554259","0.0-7.0-0.8","180","1","2025-08-06 10:47:10","36c45c0696341be0efffe67d72a12abb","89.245.26.244","Mozilla/5.0 (Windows NT 10.0; Win64; x64) AppleWebKit/537.36 (KHTML, like Gecko) Chrome/135.0.0.0 Safari/537.36 OPR/120.0.0.0","WebKit","Opera","120.0.0.0","Windows","10.0","https://app.prolific.com/","de-DE,de;q=0.9,en-US;q=0.8,en;q=0.7,zh-CN;q=0.6,zh;q=0.5,ja;q=0.4","6565f2ba13586fa869dd3b28","6877649eabb845cf142cd221","689332a51cb1824f5819535e","1","6565f2ba13586fa869dd3b28","1","2025-08-06T10:56:25.411Z","","","","","","","","","","","","","","","","win-only","0","g1:NW,g2:SE","0.4","9","0","513492.9","3654.6","8655.3","38704.7","1","4","4","6","2","4","4","9","5","0.06818181818181818","1987.1","3000","305","[""down"",""right""]","{""num_key_presses"":8,""num_perfect"":3,""num_errors"":0,""num_randdir"":5,""num_randdir_good_moves"":4,""num_whilered"":0,""num_whileblue"":0,""num_blue"":2,""num_good_moves"":7}","[409.57142857142856,416.47767857142856,0.2,409.57142857142856,416.47767857142856,104.7,409.57142857142856,416.47767857142856,205.6,409.57142857142856,416.47767857142856,305.8,409.57142857142856,416.47767857142856,405.9,409.57142857142856,416.47767857142856,506,409.57142857142856,416.47767857142856,606,409.57142857142856,416.47767857142856,706.1,409.57142857142856,416.47767857142856,826.7,409.57142857142856,416.47767857142856,930.8,409.57142857142856,416.47767857142856,1034.2,409.57142857142856,416.47767857142856,1135.9,395.57142857142856,404.47767857142856,1248,165.57142857142856,198.47767857142856,1350.1,155.57142857142856,160.47767857142856,1450.8,155.57142857142856,152.47767857142856,1551.2,553.5714285714286,498.47767857142856,1651.8,791.5714285714286,668.4776785714286,1755.7,785.5714285714286,688.4776785714286,1855.8,751.5714285714286,736.4776785714286,1955.9,747.5714285714286,744.4776785714286,2056,747.5714285714286,744.4776785714286,2156.1,747.5714285714286,742.4776785714286,2256.2,769.5714285714286,656.4776785714286,2360.8,769.5714285714286,656.4776785714286,2461.3,769.5714285714286,656.4776785714286,2566.1,769.5714285714286,656.4776785714286,2666.2,769.5714285714286,656.4776785714286,2771.7,769.5714285714286,656.4776785714286,2876,769.5714285714286,656.4776785714286,2976,769.5714285714286,656.4776785714286,3076.1,769.5714285714286,656.4776785714286,3181,769.5714285714286,656.4776785714286,3286,769.5714285714286,656.4776785714286,3386.2,769.5714285714286,656.4776785714286,3506.6,769.5714285714286,656.4776785714286,3611,769.5714285714286,656.4776785714286,3716.2,769.5714285714286,656.4776785714286,3823.7,769.5714285714286,656.4776785714286,3931.6,769.5714285714286,656.4776785714286,4035.7,769.5714285714286,656.4776785714286,4136.2,769.5714285714286,656.4776785714286,4240.9,769.5714285714286,656.4776785714286,4340.9,769.5714285714286,656.4776785714286,4441,769.5714285714286,656.4776785714286,4541.4,769.5714285714286,656.4776785714286,4649.4,769.5714285714286,656.4776785714286,4751.2,769.5714285714286,656.4776785714286,4856.7,769.5714285714286,656.4776785714286,4961.2]","[1419.5,1419.5,1000,0,419.5,""oops"",""down"",""down"",""good_move"",4865.4,3445.6,3083,1419.8,362.6,""smooth"",""down"",""down"",""good_move"",7901.3,3035.8,2696,4865.5,339.9,""oops"",""right"",""up"",""bad_move"",10642.7,2741.1,2395,7901.6,346.1,""oops"",""right"",""down"",""good_move"",13952.4,3309.5,3002.9,10642.9,306.6,""oops"",""right"",""down"",""good_move"",17364.9,3412.2,3100.2,13952.7,312,""smooth"",""right"",""right"",""good_move"",27348.6,9983.4,2428.5,24564.8,355.3,""oops"",""right"",""right"",""good_move"",29952.7,2603.8,2233.2,27348.9,370.6,""smooth"",""right"",""right"",""good_move""]"
"6497","","<div style=""width:500px;"">
  <p>What determined the result of this run?</p>
  </div>","7","html-slider-response","54","560757","0.0-7.0-1.8","180","1","2025-08-06 10:47:10","36c45c0696341be0efffe67d72a12abb","89.245.26.244","Mozilla/5.0 (Windows NT 10.0; Win64; x64) AppleWebKit/537.36 (KHTML, like Gecko) Chrome/135.0.0.0 Safari/537.36 OPR/120.0.0.0","WebKit","Opera","120.0.0.0","Windows","10.0","https://app.prolific.com/","de-DE,de;q=0.9,en-US;q=0.8,en;q=0.7,zh-CN;q=0.6,zh;q=0.5,ja;q=0.4","6565f2ba13586fa869dd3b28","6877649eabb845cf142cd221","689332a51cb1824f5819535e","1","6565f2ba13586fa869dd3b28","1","2025-08-06T10:56:31.909Z","","","","AttribQ","","","","","","","","","","","50","","","","","","","","","","","","","","","","","","","","","","","","","","",""
"1179","","<div style=""width:500px;"">
  <p>How much control did you have over the ball?</p>
  </div>","88","html-slider-response","55","561937","0.0-7.0-2.8","180","1","2025-08-06 10:47:10","36c45c0696341be0efffe67d72a12abb","89.245.26.244","Mozilla/5.0 (Windows NT 10.0; Win64; x64) AppleWebKit/537.36 (KHTML, like Gecko) Chrome/135.0.0.0 Safari/537.36 OPR/120.0.0.0","WebKit","Opera","120.0.0.0","Windows","10.0","https://app.prolific.com/","de-DE,de;q=0.9,en-US;q=0.8,en;q=0.7,zh-CN;q=0.6,zh;q=0.5,ja;q=0.4","6565f2ba13586fa869dd3b28","6877649eabb845cf142cd221","689332a51cb1824f5819535e","1","6565f2ba13586fa869dd3b28","1","2025-08-06T10:56:33.089Z","","","","ControlQ","","","","","","","","","","","50","","","","","","","","","","","","","","","","","","","","","","","","","","",""
"5270","","<div style=""width:500px;"">
  <p>How would you describe your current emotional state?</p>
  </div>","12","html-slider-response","56","567208","0.0-7.0-3.8","180","1","2025-08-06 10:47:10","36c45c0696341be0efffe67d72a12abb","89.245.26.244","Mozilla/5.0 (Windows NT 10.0; Win64; x64) AppleWebKit/537.36 (KHTML, like Gecko) Chrome/135.0.0.0 Safari/537.36 OPR/120.0.0.0","WebKit","Opera","120.0.0.0","Windows","10.0","https://app.prolific.com/","de-DE,de;q=0.9,en-US;q=0.8,en;q=0.7,zh-CN;q=0.6,zh;q=0.5,ja;q=0.4","6565f2ba13586fa869dd3b28","6877649eabb845cf142cd221","689332a51cb1824f5819535e","1","6565f2ba13586fa869dd3b28","1","2025-08-06T10:56:38.360Z","","","","StressQ","","","","","","","","","","","50","","","","","","","","","","","","","","","","","","","","","","","","","","",""
"2064","","<div style=""width:500px;"">
  <p>What best describes how you currently feel?</p>
  </div>","85","html-slider-response","57","569273","0.0-7.0-4.8","180","1","2025-08-06 10:47:10","36c45c0696341be0efffe67d72a12abb","89.245.26.244","Mozilla/5.0 (Windows NT 10.0; Win64; x64) AppleWebKit/537.36 (KHTML, like Gecko) Chrome/135.0.0.0 Safari/537.36 OPR/120.0.0.0","WebKit","Opera","120.0.0.0","Windows","10.0","https://app.prolific.com/","de-DE,de;q=0.9,en-US;q=0.8,en;q=0.7,zh-CN;q=0.6,zh;q=0.5,ja;q=0.4","6565f2ba13586fa869dd3b28","6877649eabb845cf142cd221","689332a51cb1824f5819535e","1","6565f2ba13586fa869dd3b28","1","2025-08-06T10:56:40.425Z","","","","MotivationQ","","","","","","","","","","","50","","","","","","","","","","","","","","","","","","","","","","","","","","",""
"","","","","ctl-task-cpt","58","602394","0.0-7.0-0.9","180","1","2025-08-06 10:47:10","36c45c0696341be0efffe67d72a12abb","89.245.26.244","Mozilla/5.0 (Windows NT 10.0; Win64; x64) AppleWebKit/537.36 (KHTML, like Gecko) Chrome/135.0.0.0 Safari/537.36 OPR/120.0.0.0","WebKit","Opera","120.0.0.0","Windows","10.0","https://app.prolific.com/","de-DE,de;q=0.9,en-US;q=0.8,en;q=0.7,zh-CN;q=0.6,zh;q=0.5,ja;q=0.4","6565f2ba13586fa869dd3b28","6877649eabb845cf142cd221","689332a51cb1824f5819535e","1","6565f2ba13586fa869dd3b28","1","2025-08-06T10:57:13.546Z","","","","","","","","","","","","","","","","win-only","0","g1:NW,g2:SE","0.5","10","0","570230.5","14180.2","19181.9","30106.1","1","4","8","6","1","1","1","10","9","0.07575757575757576","1351.2","3000","1450","[""left"",""up""]","{""num_key_presses"":4,""num_perfect"":3,""num_errors"":0,""num_randdir"":1,""num_randdir_good_moves"":1,""num_whilered"":0,""num_whileblue"":0,""num_blue"":0,""num_good_moves"":4}","[419.57142857142856,410.47767857142856,0.1,419.57142857142856,410.47767857142856,100.6,419.57142857142856,410.47767857142856,200.6,419.57142857142856,410.47767857142856,304.2,441.57142857142856,422.47767857142856,405.8,589.5714285714286,524.4776785714286,505.9,739.5714285714286,664.4776785714286,606,757.5714285714286,698.4776785714286,716.4,477.57142857142856,412.47767857142856,820.2,101.57142857142857,80.47767857142857,920.3,101.57142857142857,80.47767857142857,1023.3,99.57142857142857,76.47767857142857,1125.8,99.57142857142857,76.47767857142857,1225.8,99.57142857142857,76.47767857142857,1325.9,99.57142857142857,76.47767857142857,1426.3,99.57142857142857,76.47767857142857,1538.9,99.57142857142857,76.47767857142857,1640.7,99.57142857142857,76.47767857142857,1745.3,115.57142857142857,68.47767857142857,1845.9,123.57142857142857,68.47767857142857,1954,161.57142857142856,46.47767857142857,2055.1,165.57142857142856,42.47767857142857,2155.2,165.57142857142856,42.47767857142857,2255.3,165.57142857142856,42.47767857142857,2360.8,165.57142857142856,42.47767857142857,2465.5,165.57142857142856,42.47767857142857,2565.6,165.57142857142856,42.47767857142857,2666.7,167.57142857142856,42.47767857142857,2770.7,229.57142857142856,64.47767857142857,2875.5,257.57142857142856,68.47767857142857,2980.1,261.57142857142856,68.47767857142857,3080.2,261.57142857142856,70.47767857142857,3180.2,261.57142857142856,70.47767857142857,3285.1,261.57142857142856,68.47767857142857,3386,261.57142857142856,68.47767857142857,3490.2,261.57142857142856,68.47767857142857,3590.2,261.57142857142856,68.47767857142857,3690.2,261.57142857142856,68.47767857142857,3801.3,261.57142857142856,68.47767857142857,3905.7,261.57142857142856,68.47767857142857,4010.7,261.57142857142856,70.47767857142857,4115.8,261.57142857142856,70.47767857142857,4221.9,261.57142857142856,70.47767857142857,4326,261.57142857142856,70.47767857142857,4426.1,261.57142857142856,70.47767857142857,4530.1,261.57142857142856,70.47767857142857,4630.7,261.57142857142856,70.47767857142857,4735.3,261.57142857142856,70.47767857142857,4835.5,261.57142857142856,70.47767857142857,4935.5]","[1681.4,1681.4,1000,0,681.4,""smooth"",""up"",""up"",""good_move"",5014.4,3332.6,3008.6,1681.8,324,""oops"",""left"",""left"",""good_move"",7835.5,2820.8,2492,5014.7,328.8,""smooth"",""left"",""left"",""good_move"",10792.2,2956.6,2575.1,7835.6,381.5,""smooth"",""up"",""up"",""good_move""]"
"527547","","<div style=""width:500px;"">
  <p>What determined the result of this run?</p>
  </div>","9","html-slider-response","59","1129942","0.0-7.0-1.9","180","1","2025-08-06 10:47:10","36c45c0696341be0efffe67d72a12abb","89.245.26.244","Mozilla/5.0 (Windows NT 10.0; Win64; x64) AppleWebKit/537.36 (KHTML, like Gecko) Chrome/135.0.0.0 Safari/537.36 OPR/120.0.0.0","WebKit","Opera","120.0.0.0","Windows","10.0","https://app.prolific.com/","de-DE,de;q=0.9,en-US;q=0.8,en;q=0.7,zh-CN;q=0.6,zh;q=0.5,ja;q=0.4","6565f2ba13586fa869dd3b28","6877649eabb845cf142cd221","689332a51cb1824f5819535e","1","6565f2ba13586fa869dd3b28","1","2025-08-06T11:06:01.094Z","","","","AttribQ","","","","","","","","","","","50","","","","","","","","","","","","","","","","","","","","","","","","","","",""
"1515","","<div style=""width:500px;"">
  <p>How much control did you have over the ball?</p>
  </div>","83","html-slider-response","60","1131458","0.0-7.0-2.9","180","1","2025-08-06 10:47:10","36c45c0696341be0efffe67d72a12abb","89.245.26.244","Mozilla/5.0 (Windows NT 10.0; Win64; x64) AppleWebKit/537.36 (KHTML, like Gecko) Chrome/135.0.0.0 Safari/537.36 OPR/120.0.0.0","WebKit","Opera","120.0.0.0","Windows","10.0","https://app.prolific.com/","de-DE,de;q=0.9,en-US;q=0.8,en;q=0.7,zh-CN;q=0.6,zh;q=0.5,ja;q=0.4","6565f2ba13586fa869dd3b28","6877649eabb845cf142cd221","689332a51cb1824f5819535e","1","6565f2ba13586fa869dd3b28","1","2025-08-06T11:06:02.610Z","","","","ControlQ","","","","","","","","","","","50","","","","","","","","","","","","","","","","","","","","","","","","","","",""
"1203","","<div style=""width:500px;"">
  <p>How would you describe your current emotional state?</p>
  </div>","13","html-slider-response","61","1132662","0.0-7.0-3.9","180","1","2025-08-06 10:47:10","36c45c0696341be0efffe67d72a12abb","89.245.26.244","Mozilla/5.0 (Windows NT 10.0; Win64; x64) AppleWebKit/537.36 (KHTML, like Gecko) Chrome/135.0.0.0 Safari/537.36 OPR/120.0.0.0","WebKit","Opera","120.0.0.0","Windows","10.0","https://app.prolific.com/","de-DE,de;q=0.9,en-US;q=0.8,en;q=0.7,zh-CN;q=0.6,zh;q=0.5,ja;q=0.4","6565f2ba13586fa869dd3b28","6877649eabb845cf142cd221","689332a51cb1824f5819535e","1","6565f2ba13586fa869dd3b28","1","2025-08-06T11:06:03.814Z","","","","StressQ","","","","","","","","","","","50","","","","","","","","","","","","","","","","","","","","","","","","","","",""
"2283","","<div style=""width:500px;"">
  <p>What best describes how you currently feel?</p>
  </div>","85","html-slider-response","62","1134945","0.0-7.0-4.9","180","1","2025-08-06 10:47:10","36c45c0696341be0efffe67d72a12abb","89.245.26.244","Mozilla/5.0 (Windows NT 10.0; Win64; x64) AppleWebKit/537.36 (KHTML, like Gecko) Chrome/135.0.0.0 Safari/537.36 OPR/120.0.0.0","WebKit","Opera","120.0.0.0","Windows","10.0","https://app.prolific.com/","de-DE,de;q=0.9,en-US;q=0.8,en;q=0.7,zh-CN;q=0.6,zh;q=0.5,ja;q=0.4","6565f2ba13586fa869dd3b28","6877649eabb845cf142cd221","689332a51cb1824f5819535e","1","6565f2ba13586fa869dd3b28","1","2025-08-06T11:06:06.098Z","","","","MotivationQ","","","","","","","","","","","50","","","","","","","","","","","","","","","","","","","","","","","","","","",""
"","","","","ctl-task-cpt","63","1175377","0.0-7.0-0.10","180","1","2025-08-06 10:47:10","36c45c0696341be0efffe67d72a12abb","89.245.26.244","Mozilla/5.0 (Windows NT 10.0; Win64; x64) AppleWebKit/537.36 (KHTML, like Gecko) Chrome/135.0.0.0 Safari/537.36 OPR/120.0.0.0","WebKit","Opera","120.0.0.0","Windows","10.0","https://app.prolific.com/","de-DE,de;q=0.9,en-US;q=0.8,en;q=0.7,zh-CN;q=0.6,zh;q=0.5,ja;q=0.4","6565f2ba13586fa869dd3b28","6877649eabb845cf142cd221","689332a51cb1824f5819535e","1","6565f2ba13586fa869dd3b28","1","2025-08-06T11:06:46.529Z","","","","","","","","","","","","","","","","win-only","2","g1:SE,g2:NW","0.6","11","0","1135903.7","1161.6","6165.6","37411","1","4","4","6","2","-4","-4","6","10","0.045454545454545456","1153","3000","-2660","[""left"",""up""]","{""num_key_presses"":9,""num_perfect"":6,""num_errors"":0,""num_randdir"":3,""num_randdir_good_moves"":0,""num_whilered"":0,""num_whileblue"":0,""num_blue"":1,""num_good_moves"":6}","[414.57142857142856,427.47767857142856,0.2,414.57142857142856,427.47767857142856,103.9,414.57142857142856,427.47767857142856,209,414.57142857142856,427.47767857142856,313.7,414.57142857142856,427.47767857142856,414.3,416.57142857142856,427.47767857142856,514.3,430.57142857142856,437.47767857142856,615.2,544.5714285714286,539.4776785714286,718.7,298.57142857142856,317.47767857142856,820.2,114.57142857142857,143.47767857142856,923.7,106.57142857142857,125.47767857142857,1024,96.57142857142857,105.47767857142857,1124,96.57142857142857,103.47767857142857,1230.7,96.57142857142857,103.47767857142857,1333.7,96.57142857142857,103.47767857142857,1435.5,98.57142857142857,105.47767857142857,1545,106.57142857142857,107.47767857142857,1646.7,110.57142857142857,109.47767857142857,1749.8,110.57142857142857,109.47767857142857,1850.6,118.57142857142857,113.47767857142857,1953.8,122.57142857142857,115.47767857142857,2060.1,122.57142857142857,115.47767857142857,2163.9,140.57142857142856,129.47767857142856,2264,142.57142857142856,131.47767857142856,2365.1,142.57142857142856,131.47767857142856,2469.1,176.57142857142856,171.47767857142856,2585.3,182.57142857142856,179.47767857142856,2689.2,182.57142857142856,179.47767857142856,2795.8,192.57142857142856,201.47767857142856,2899,192.57142857142856,201.47767857142856,2999.6,166.57142857142856,215.47767857142856,3104.9,160.57142857142856,221.47767857142856,3206.9,160.57142857142856,221.47767857142856,3308.8,160.57142857142856,221.47767857142856,3409.8,160.57142857142856,221.47767857142856,3513.2,160.57142857142856,221.47767857142856,3614.1,160.57142857142856,221.47767857142856,3715.7,160.57142857142856,221.47767857142856,3819.2,160.57142857142856,221.47767857142856,3924.7,160.57142857142856,221.47767857142856,4028.9,160.57142857142856,221.47767857142856,4134.5,160.57142857142856,221.47767857142856,4238.6,160.57142857142856,221.47767857142856,4338.9,160.57142857142856,221.47767857142856,4438.9,160.57142857142856,221.47767857142856,4543.6,160.57142857142856,221.47767857142856,4644,160.57142857142856,221.47767857142856,4748.9,160.57142857142856,221.47767857142856,4853.7,160.57142857142856,221.47767857142856,4954.1]","[1372.2,1372.2,1000,0,372.2,""smooth"",""up"",""up"",""good_move"",4089,2716.5,2336.7,1372.5,379.8,""smooth"",""left"",""left"",""good_move"",7525,3435.7,3055.8,4089.3,379.9,""oops"",""up"",""down"",""bad_move"",9916.1,2390.8,2064.8,7525.3,326,""oops"",""up"",""right"",""bad_move"",12054.2,2137.9,1770,9916.3,367.9,""smooth"",""up"",""up"",""good_move"",20006,7951.4,3095.3,16595.4,315.3,""smooth"",""up"",""up"",""good_move"",22777.4,2771.1,2393,20006.3,378.1,""smooth"",""left"",""left"",""good_move"",25333,2555.3,2251.8,22777.7,303.5,""oops"",""left"",""right"",""bad_move"",28888.8,3555.1,3195.9,25333.7,359.2,""smooth"",""left"",""left"",""good_move""]"
"8651","","<div style=""width:500px;"">
  <p>What determined the result of this run?</p>
  </div>","25","html-slider-response","64","1184029","0.0-7.0-1.10","180","1","2025-08-06 10:47:10","36c45c0696341be0efffe67d72a12abb","89.245.26.244","Mozilla/5.0 (Windows NT 10.0; Win64; x64) AppleWebKit/537.36 (KHTML, like Gecko) Chrome/135.0.0.0 Safari/537.36 OPR/120.0.0.0","WebKit","Opera","120.0.0.0","Windows","10.0","https://app.prolific.com/","de-DE,de;q=0.9,en-US;q=0.8,en;q=0.7,zh-CN;q=0.6,zh;q=0.5,ja;q=0.4","6565f2ba13586fa869dd3b28","6877649eabb845cf142cd221","689332a51cb1824f5819535e","1","6565f2ba13586fa869dd3b28","1","2025-08-06T11:06:55.181Z","","","","AttribQ","","","","","","","","","","","50","","","","","","","","","","","","","","","","","","","","","","","","","","",""
"1900","","<div style=""width:500px;"">
  <p>How much control did you have over the ball?</p>
  </div>","16","html-slider-response","65","1185930","0.0-7.0-2.10","180","1","2025-08-06 10:47:10","36c45c0696341be0efffe67d72a12abb","89.245.26.244","Mozilla/5.0 (Windows NT 10.0; Win64; x64) AppleWebKit/537.36 (KHTML, like Gecko) Chrome/135.0.0.0 Safari/537.36 OPR/120.0.0.0","WebKit","Opera","120.0.0.0","Windows","10.0","https://app.prolific.com/","de-DE,de;q=0.9,en-US;q=0.8,en;q=0.7,zh-CN;q=0.6,zh;q=0.5,ja;q=0.4","6565f2ba13586fa869dd3b28","6877649eabb845cf142cd221","689332a51cb1824f5819535e","1","6565f2ba13586fa869dd3b28","1","2025-08-06T11:06:57.082Z","","","","ControlQ","","","","","","","","","","","50","","","","","","","","","","","","","","","","","","","","","","","","","","",""
"1400","","<div style=""width:500px;"">
  <p>How would you describe your current emotional state?</p>
  </div>","29","html-slider-response","66","1187331","0.0-7.0-3.10","180","1","2025-08-06 10:47:10","36c45c0696341be0efffe67d72a12abb","89.245.26.244","Mozilla/5.0 (Windows NT 10.0; Win64; x64) AppleWebKit/537.36 (KHTML, like Gecko) Chrome/135.0.0.0 Safari/537.36 OPR/120.0.0.0","WebKit","Opera","120.0.0.0","Windows","10.0","https://app.prolific.com/","de-DE,de;q=0.9,en-US;q=0.8,en;q=0.7,zh-CN;q=0.6,zh;q=0.5,ja;q=0.4","6565f2ba13586fa869dd3b28","6877649eabb845cf142cd221","689332a51cb1824f5819535e","1","6565f2ba13586fa869dd3b28","1","2025-08-06T11:06:58.483Z","","","","StressQ","","","","","","","","","","","50","","","","","","","","","","","","","","","","","","","","","","","","","","",""
"836","","<div style=""width:500px;"">
  <p>What best describes how you currently feel?</p>
  </div>","65","html-slider-response","67","1188168","0.0-7.0-4.10","180","1","2025-08-06 10:47:10","36c45c0696341be0efffe67d72a12abb","89.245.26.244","Mozilla/5.0 (Windows NT 10.0; Win64; x64) AppleWebKit/537.36 (KHTML, like Gecko) Chrome/135.0.0.0 Safari/537.36 OPR/120.0.0.0","WebKit","Opera","120.0.0.0","Windows","10.0","https://app.prolific.com/","de-DE,de;q=0.9,en-US;q=0.8,en;q=0.7,zh-CN;q=0.6,zh;q=0.5,ja;q=0.4","6565f2ba13586fa869dd3b28","6877649eabb845cf142cd221","689332a51cb1824f5819535e","1","6565f2ba13586fa869dd3b28","1","2025-08-06T11:06:59.320Z","","","","MotivationQ","","","","","","","","","","","50","","","","","","","","","","","","","","","","","","","","","","","","","","",""
"","","","","ctl-task-cpt","68","1205317","0.0-7.0-0.11","180","1","2025-08-06 10:47:10","36c45c0696341be0efffe67d72a12abb","89.245.26.244","Mozilla/5.0 (Windows NT 10.0; Win64; x64) AppleWebKit/537.36 (KHTML, like Gecko) Chrome/135.0.0.0 Safari/537.36 OPR/120.0.0.0","WebKit","Opera","120.0.0.0","Windows","10.0","https://app.prolific.com/","de-DE,de;q=0.9,en-US;q=0.8,en;q=0.7,zh-CN;q=0.6,zh;q=0.5,ja;q=0.4","6565f2ba13586fa869dd3b28","6877649eabb845cf142cd221","689332a51cb1824f5819535e","1","6565f2ba13586fa869dd3b28","1","2025-08-06T11:07:16.469Z","","","","","","","","","","","","","","","","win-only","2","g1:SE,g2:NW","0.7","12","0","1189126.1","546.7","5551.9","14130.5","1","4","8","6","1","1","1","7","6","0.05303030303030303","1493.4","3000","1775","[""down"",""right""]","{""num_key_presses"":4,""num_perfect"":4,""num_errors"":0,""num_randdir"":0,""num_randdir_good_moves"":0,""num_whilered"":0,""num_whileblue"":0,""num_blue"":0,""num_good_moves"":4}","[412.57142857142856,418.47767857142856,0.3,412.57142857142856,418.47767857142856,104.4,412.57142857142856,420.47767857142856,209.9,412.57142857142856,420.47767857142856,314,412.57142857142856,420.47767857142856,414.5,412.57142857142856,420.47767857142856,525.8,412.57142857142856,420.47767857142856,629.9,454.57142857142856,454.47767857142856,742.2,598.5714285714286,632.4776785714286,843.6,712.5714285714286,806.4776785714286,944,750.5714285714286,840.4776785714286,1044,752.5714285714286,842.4776785714286,1144.4,752.5714285714286,842.4776785714286,1248.6,752.5714285714286,840.4776785714286,1349.3,742.5714285714286,762.4776785714286,1453.8,742.5714285714286,762.4776785714286,1555.7,742.5714285714286,762.4776785714286,1658.8,842.5714285714286,774.4776785714286,1758.9,978.5714285714286,764.4776785714286,1866.2,980.5714285714286,762.4776785714286,1971.5,980.5714285714286,762.4776785714286,2073.1,980.5714285714286,762.4776785714286,2174,980.5714285714286,762.4776785714286,2275.7,980.5714285714286,762.4776785714286,2378.8,980.5714285714286,762.4776785714286,2479.6,980.5714285714286,762.4776785714286,2590.5,980.5714285714286,762.4776785714286,2690.9,980.5714285714286,760.4776785714286,2791.7,980.5714285714286,760.4776785714286,2894.2,980.5714285714286,760.4776785714286,3012.6,980.5714285714286,760.4776785714286,3121.3,980.5714285714286,760.4776785714286,3230.2,986.5714285714286,754.4776785714286,3334.1,986.5714285714286,754.4776785714286,3434.2,986.5714285714286,754.4776785714286,3534.5,988.5714285714286,752.4776785714286,3634.6,988.5714285714286,752.4776785714286,3737.9,988.5714285714286,752.4776785714286,3838.7,988.5714285714286,752.4776785714286,3940.8,988.5714285714286,752.4776785714286,4042.7,988.5714285714286,752.4776785714286,4144.3,996.5714285714286,748.4776785714286,4249.5,996.5714285714286,748.4776785714286,4359.4,996.5714285714286,748.4776785714286,4464.2,996.5714285714286,748.4776785714286,4577.5,996.5714285714286,748.4776785714286,4678.9,996.5714285714286,748.4776785714286,4779,996.5714285714286,748.4776785714286,4879,996.5714285714286,748.4776785714286,4979.1]","[1386.4,1386.4,1000,0,386.4,""smooth"",""down"",""down"",""good_move"",3743.9,2357.2,1999.2,1386.7,358,""smooth"",""right"",""right"",""good_move"",5842.5,2098.3,1770.2,3744.3,328,""smooth"",""down"",""down"",""good_move"",8484.3,2641.2,2355.3,5843.1,285.9,""smooth"",""right"",""right"",""good_move""]"
"10450","","<div style=""width:500px;"">
  <p>What determined the result of this run?</p>
  </div>","10","html-slider-response","69","1215767","0.0-7.0-1.11","180","1","2025-08-06 10:47:10","36c45c0696341be0efffe67d72a12abb","89.245.26.244","Mozilla/5.0 (Windows NT 10.0; Win64; x64) AppleWebKit/537.36 (KHTML, like Gecko) Chrome/135.0.0.0 Safari/537.36 OPR/120.0.0.0","WebKit","Opera","120.0.0.0","Windows","10.0","https://app.prolific.com/","de-DE,de;q=0.9,en-US;q=0.8,en;q=0.7,zh-CN;q=0.6,zh;q=0.5,ja;q=0.4","6565f2ba13586fa869dd3b28","6877649eabb845cf142cd221","689332a51cb1824f5819535e","1","6565f2ba13586fa869dd3b28","1","2025-08-06T11:07:26.919Z","","","","AttribQ","","","","","","","","","","","50","","","","","","","","","","","","","","","","","","","","","","","","","","",""
"1367","","<div style=""width:500px;"">
  <p>How much control did you have over the ball?</p>
  </div>","86","html-slider-response","70","1217136","0.0-7.0-2.11","180","1","2025-08-06 10:47:10","36c45c0696341be0efffe67d72a12abb","89.245.26.244","Mozilla/5.0 (Windows NT 10.0; Win64; x64) AppleWebKit/537.36 (KHTML, like Gecko) Chrome/135.0.0.0 Safari/537.36 OPR/120.0.0.0","WebKit","Opera","120.0.0.0","Windows","10.0","https://app.prolific.com/","de-DE,de;q=0.9,en-US;q=0.8,en;q=0.7,zh-CN;q=0.6,zh;q=0.5,ja;q=0.4","6565f2ba13586fa869dd3b28","6877649eabb845cf142cd221","689332a51cb1824f5819535e","1","6565f2ba13586fa869dd3b28","1","2025-08-06T11:07:28.288Z","","","","ControlQ","","","","","","","","","","","50","","","","","","","","","","","","","","","","","","","","","","","","","","",""
"2021","","<div style=""width:500px;"">
  <p>How would you describe your current emotional state?</p>
  </div>","17","html-slider-response","71","1219158","0.0-7.0-3.11","180","1","2025-08-06 10:47:10","36c45c0696341be0efffe67d72a12abb","89.245.26.244","Mozilla/5.0 (Windows NT 10.0; Win64; x64) AppleWebKit/537.36 (KHTML, like Gecko) Chrome/135.0.0.0 Safari/537.36 OPR/120.0.0.0","WebKit","Opera","120.0.0.0","Windows","10.0","https://app.prolific.com/","de-DE,de;q=0.9,en-US;q=0.8,en;q=0.7,zh-CN;q=0.6,zh;q=0.5,ja;q=0.4","6565f2ba13586fa869dd3b28","6877649eabb845cf142cd221","689332a51cb1824f5819535e","1","6565f2ba13586fa869dd3b28","1","2025-08-06T11:07:30.310Z","","","","StressQ","","","","","","","","","","","50","","","","","","","","","","","","","","","","","","","","","","","","","","",""
"4029","","<div style=""width:500px;"">
  <p>What best describes how you currently feel?</p>
  </div>","82","html-slider-response","72","1223188","0.0-7.0-4.11","180","1","2025-08-06 10:47:10","36c45c0696341be0efffe67d72a12abb","89.245.26.244","Mozilla/5.0 (Windows NT 10.0; Win64; x64) AppleWebKit/537.36 (KHTML, like Gecko) Chrome/135.0.0.0 Safari/537.36 OPR/120.0.0.0","WebKit","Opera","120.0.0.0","Windows","10.0","https://app.prolific.com/","de-DE,de;q=0.9,en-US;q=0.8,en;q=0.7,zh-CN;q=0.6,zh;q=0.5,ja;q=0.4","6565f2ba13586fa869dd3b28","6877649eabb845cf142cd221","689332a51cb1824f5819535e","1","6565f2ba13586fa869dd3b28","1","2025-08-06T11:07:34.340Z","","","","MotivationQ","","","","","","","","","","","50","","","","","","","","","","","","","","","","","","","","","","","","","","",""
"","","","","ctl-task-cpt","73","1302575","0.0-7.0-0.12","180","1","2025-08-06 10:47:10","36c45c0696341be0efffe67d72a12abb","89.245.26.244","Mozilla/5.0 (Windows NT 10.0; Win64; x64) AppleWebKit/537.36 (KHTML, like Gecko) Chrome/135.0.0.0 Safari/537.36 OPR/120.0.0.0","WebKit","Opera","120.0.0.0","Windows","10.0","https://app.prolific.com/","de-DE,de;q=0.9,en-US;q=0.8,en;q=0.7,zh-CN;q=0.6,zh;q=0.5,ja;q=0.4","6565f2ba13586fa869dd3b28","6877649eabb845cf142cd221","689332a51cb1824f5819535e","1","6565f2ba13586fa869dd3b28","1","2025-08-06T11:08:53.727Z","","","","","","","","","","","","","","","","win-only","3","g1:SW,g2:NE","0.8","13","0","1224145.8","57163.6","62165.3","76365.7","1","4","8","6","1","1","1","8","7","0.06060606060606061","1157.9","3000","1675","[""down"",""left""]","{""num_key_presses"":4,""num_perfect"":3,""num_errors"":0,""num_randdir"":1,""num_randdir_good_moves"":1,""num_whilered"":0,""num_whileblue"":0,""num_blue"":1,""num_good_moves"":4}","[411.57142857142856,417.47767857142856,0.3,411.57142857142856,417.47767857142856,101.8,411.57142857142856,417.47767857142856,202.2,411.57142857142856,417.47767857142856,302.3,411.57142857142856,417.47767857142856,408.1,411.57142857142856,417.47767857142856,512.5,411.57142857142856,417.47767857142856,613.2,331.57142857142856,489.47767857142856,717.2,207.57142857142856,575.4776785714286,822.5,91.57142857142857,721.4776785714286,927,71.57142857142857,747.4776785714286,1032,69.57142857142857,749.4776785714286,1132.8,69.57142857142857,749.4776785714286,1236.9,69.57142857142857,749.4776785714286,1337.4,69.57142857142857,749.4776785714286,1442.2,69.57142857142857,747.4776785714286,1542.2,69.57142857142857,739.4776785714286,1642.5,69.57142857142857,733.4776785714286,1746.6,69.57142857142857,731.4776785714286,1846.6,69.57142857142857,731.4776785714286,1946.8,69.57142857142857,731.4776785714286,2052.3,69.57142857142857,731.4776785714286,2152.8,69.57142857142857,731.4776785714286,2257.4,69.57142857142857,729.4776785714286,2361.8,69.57142857142857,729.4776785714286,2461.8,69.57142857142857,729.4776785714286,2562.6,69.57142857142857,729.4776785714286,2666.7,69.57142857142857,729.4776785714286,2767.9,79.57142857142857,723.4776785714286,2871.7,79.57142857142857,723.4776785714286,2972.2,79.57142857142857,723.4776785714286,3072.4,59.57142857142857,695.4776785714286,3176.3,-82.42857142857143,575.4776785714286,3277.2,-394.42857142857144,401.47767857142856,3389.5,-398.42857142857144,395.47767857142856,3491.9,-396.42857142857144,395.47767857142856,3592.4,-320.42857142857144,471.47767857142856,3694.9,-304.42857142857144,489.47767857142856,3797.8,-304.42857142857144,489.47767857142856,3902.4,-304.42857142857144,489.47767857142856,4004.9,-304.42857142857144,489.47767857142856,4113.4,-304.42857142857144,489.47767857142856,4220.8,-304.42857142857144,489.47767857142856,4320.9,-304.42857142857144,489.47767857142856,4426.7,-304.42857142857144,489.47767857142856,4526.7,-304.42857142857144,489.47767857142856,4626.9,-304.42857142857144,489.47767857142856,4726.9,-304.42857142857144,489.47767857142856,4829.5,-304.42857142857144,489.47767857142856,4933.2]","[5012.7,5012.7,2622.5,2001.8,388.4,""smooth"",""down"",""down"",""good_move"",7944,2931,2576.4,5013,354.6,""smooth"",""left"",""left"",""good_move"",11300.7,3356.2,3033.3,7944.5,322.9,""oops"",""down"",""left"",""good_move"",14060.2,2759.4,2336.3,11300.8,423.1,""smooth"",""down"",""down"",""good_move""]"
"3040","","<div style=""width:500px;"">
  <p>What determined the result of this run?</p>
  </div>","8","html-slider-response","74","1305617","0.0-7.0-1.12","180","1","2025-08-06 10:47:10","36c45c0696341be0efffe67d72a12abb","89.245.26.244","Mozilla/5.0 (Windows NT 10.0; Win64; x64) AppleWebKit/537.36 (KHTML, like Gecko) Chrome/135.0.0.0 Safari/537.36 OPR/120.0.0.0","WebKit","Opera","120.0.0.0","Windows","10.0","https://app.prolific.com/","de-DE,de;q=0.9,en-US;q=0.8,en;q=0.7,zh-CN;q=0.6,zh;q=0.5,ja;q=0.4","6565f2ba13586fa869dd3b28","6877649eabb845cf142cd221","689332a51cb1824f5819535e","1","6565f2ba13586fa869dd3b28","1","2025-08-06T11:08:56.769Z","","","","AttribQ","","","","","","","","","","","50","","","","","","","","","","","","","","","","","","","","","","","","","","",""
"1113","","<div style=""width:500px;"">
  <p>How much control did you have over the ball?</p>
