"rt","response_timestamp","stimulus","response","trial_type","trial_index","time_elapsed","internal_node_id","run_id","condition","recorded_at","source_code_version","ip","user_agent","device","browser","browser_version","platform","platform_version","referer","accept_language","PROLIFIC_PID","STUDY_ID","SESSION_ID","BATCH","prolific_id","batch","realtime","success","question_order","question_id","eventType","responses","item_order","radio_event_ids","radio_event_times","key_event_times","mouse_event_times","straightlining","zigzagging","honeypot","view_history","slider_start","which_type","canvas_config","goals_layout","control_level","trial_number","tutorial_trial_number","trial_start_time","phase1_start_time","phase2_start_time","phase3_start_time","goal_1_value","goal_1_distance","goal_2_value","goal_2_distance","goal_selected","outcome","outcome_total","participant_final_score","participant_initial_score","participant_final_score_prop","goal_choice_rt","allocated_time","allocated_time_remaining","goal_direction","counts","mouse_movements","key_presses"
"26678","1754472536505","<p style='font-size:40px;line-height:1.25'><strong>Welcome to the experiment!</strong></p><p style='font-size:1.1em;line-height:1.25'>Thank you for participanting in our experiment again! You will be asked to play the Dysfunctional Ball Game again. We will briefly recap the rules before we start.</p><p style='font-size:1.1em;line-height:1.25'>Press <strong>Next</strong> to continue.</p>","0","custom-html-button-response","0","26684","0.0-0.0","164","1","2025-08-06 09:28:28","36c45c0696341be0efffe67d72a12abb","2.97.67.193","Mozilla/5.0 (X11; CrOS x86_64 14541.0.0) AppleWebKit/537.36 (KHTML, like Gecko) Chrome/138.0.0.0 Safari/537.36","WebKit","Chrome","138.0.0.0","ChromeOS","14541.0.0","https://app.prolific.com/","en-GB,en-US;q=0.9,en;q=0.8","65a3f461bfa22dde98c10436","687a1a965b9f5b85a264363e","6893201037c5d16c7ed8f274","1","65a3f461bfa22dde98c10436","1","2025-08-06T09:28:56.508Z","","","","","","","","","","","","","","","","","","","","","","","","","","","","","","","","","","","","","","","","","",""
"9027","","","","fullscreen","1","36716","0.0-1.0","164","1","2025-08-06 09:28:28","36c45c0696341be0efffe67d72a12abb","2.97.67.193","Mozilla/5.0 (X11; CrOS x86_64 14541.0.0) AppleWebKit/537.36 (KHTML, like Gecko) Chrome/138.0.0.0 Safari/537.36","WebKit","Chrome","138.0.0.0","ChromeOS","14541.0.0","https://app.prolific.com/","en-GB,en-US;q=0.9,en;q=0.8","65a3f461bfa22dde98c10436","687a1a965b9f5b85a264363e","6893201037c5d16c7ed8f274","1","65a3f461bfa22dde98c10436","1","","true","","","","","","","","","","","","","","","","","","","","","","","","","","","","","","","","","","","","","","","","",""
"15395","1754472561937"," <p style='font-size:1.1em;line-height:1.25'>Thank you for closing all other tabs.</p><p style='font-size:1.1em;line-height:1.25'>We will now invite you to fill in some questionnaires, before starting the game.<br>This will take about 5 minutes.<br></p><p style='font-size:1.1em;line-height:1.25'>Press the <strong>Next</strong> button to continue.</p>","0","custom-html-button-response","2","52114","0.0-2.0","164","1","2025-08-06 09:28:28","36c45c0696341be0efffe67d72a12abb","2.97.67.193","Mozilla/5.0 (X11; CrOS x86_64 14541.0.0) AppleWebKit/537.36 (KHTML, like Gecko) Chrome/138.0.0.0 Safari/537.36","WebKit","Chrome","138.0.0.0","ChromeOS","14541.0.0","https://app.prolific.com/","en-GB,en-US;q=0.9,en;q=0.8","65a3f461bfa22dde98c10436","687a1a965b9f5b85a264363e","6893201037c5d16c7ed8f274","1","65a3f461bfa22dde98c10436","1","2025-08-06T09:29:21.938Z","","","","","","","","","","","","","","","","","","","","","","","","","","","","","","","","","","","","","","","","","",""
"4170","","","{""assigned_sex"":""female""}","survey-multi-choice","3","56291","0.0-3.0-0.0","164","1","2025-08-06 09:28:28","36c45c0696341be0efffe67d72a12abb","2.97.67.193","Mozilla/5.0 (X11; CrOS x86_64 14541.0.0) AppleWebKit/537.36 (KHTML, like Gecko) Chrome/138.0.0.0 Safari/537.36","WebKit","Chrome","138.0.0.0","ChromeOS","14541.0.0","https://app.prolific.com/","en-GB,en-US;q=0.9,en;q=0.8","65a3f461bfa22dde98c10436","687a1a965b9f5b85a264363e","6893201037c5d16c7ed8f274","1","65a3f461bfa22dde98c10436","1","","","[0]","0","demographics","","","","","","","","","","","","","","","","","","","","","","","","","","","","","","","","","","","","","",""
"104292","1754472670409","<p style='font-size:1.1em;line-height:1.25'>In the following, we will perform a baseline assessment. This means that we will ask you a few questions relating to your experiences over the past month.<br></p><p style='font-size:1.1em;line-height:1.25'>Press the <strong>Next</strong> button to continue.</p>","0","custom-html-button-response","4","160586","0.0-4.0-0.0","164","1","2025-08-06 09:28:28","36c45c0696341be0efffe67d72a12abb","2.97.67.193","Mozilla/5.0 (X11; CrOS x86_64 14541.0.0) AppleWebKit/537.36 (KHTML, like Gecko) Chrome/138.0.0.0 Safari/537.36","WebKit","Chrome","138.0.0.0","ChromeOS","14541.0.0","https://app.prolific.com/","en-GB,en-US;q=0.9,en;q=0.8","65a3f461bfa22dde98c10436","687a1a965b9f5b85a264363e","6893201037c5d16c7ed8f274","1","65a3f461bfa22dde98c10436","1","2025-08-06T09:31:10.410Z","","","","","","","","","","","","","","","","","","","","","","","","","","","","","","","","","","","","","","","","","",""
"58167.5","","","","survey-template","5","218762","0.0-4.0-1.0","164","1","2025-08-06 09:28:28","36c45c0696341be0efffe67d72a12abb","2.97.67.193","Mozilla/5.0 (X11; CrOS x86_64 14541.0.0) AppleWebKit/537.36 (KHTML, like Gecko) Chrome/138.0.0.0 Safari/537.36","WebKit","Chrome","138.0.0.0","ChromeOS","14541.0.0","https://app.prolific.com/","en-GB,en-US;q=0.9,en;q=0.8","65a3f461bfa22dde98c10436","687a1a965b9f5b85a264363e","6893201037c5d16c7ed8f274","1","65a3f461bfa22dde98c10436","1","2025-08-06T09:32:08.586Z","","","","pss","{""Q01"":""0"",""Q02"":""0"",""Q03"":""1"",""Q04"":""0"",""Q05"":""1"",""Q06"":""0"",""Q07"":""1"",""Q08"":""1"",""Q09"":""0"",""Q10"":""1""}","[0,1,2,3,4,5,6,7,8,9]","[""Q01"",""Q02"",""Q03"",""Q04"",""Q05"",""Q06"",""Q07"",""Q08"",""Q09"",""Q10""]","[25168.099999999977,28088.199999999953,34696,37416.399999999965,39856,44848,46128,50920.19999999995,54552.09999999998,57511.5]","[]","[0.29999999998835847,25168.099999999977,28088.199999999953,34696,37416.399999999965,39856,43160.19999999995,44848,46128,50920.19999999995,54552.09999999998,57511.5,58143.79999999999]","0.4","0.3333333333333333","0","","","","","","","","","","","","","","","","","","","","","","","","","","","","",""
"47476","1754472776065","<p style='font-size:1.1em;line-height:1.25'>Thank you for your answers! Now we will ask you a few more questions relating to your feelings in the last 24 hours.<br></p><p style='font-size:1.1em;line-height:1.25'>Press the <strong>Next</strong> button to continue.</p>","0","custom-html-button-response","6","266242","0.0-4.0-2.0","164","1","2025-08-06 09:28:28","36c45c0696341be0efffe67d72a12abb","2.97.67.193","Mozilla/5.0 (X11; CrOS x86_64 14541.0.0) AppleWebKit/537.36 (KHTML, like Gecko) Chrome/138.0.0.0 Safari/537.36","WebKit","Chrome","138.0.0.0","ChromeOS","14541.0.0","https://app.prolific.com/","en-GB,en-US;q=0.9,en;q=0.8","65a3f461bfa22dde98c10436","687a1a965b9f5b85a264363e","6893201037c5d16c7ed8f274","1","65a3f461bfa22dde98c10436","1","2025-08-06T09:32:56.066Z","","","","","","","","","","","","","","","","","","","","","","","","","","","","","","","","","","","","","","","","","",""
"43737.29999999999","","","","survey-template","7","309988","0.0-4.0-3.0","164","1","2025-08-06 09:28:28","36c45c0696341be0efffe67d72a12abb","2.97.67.193","Mozilla/5.0 (X11; CrOS x86_64 14541.0.0) AppleWebKit/537.36 (KHTML, like Gecko) Chrome/138.0.0.0 Safari/537.36","WebKit","Chrome","138.0.0.0","ChromeOS","14541.0.0","https://app.prolific.com/","en-GB,en-US;q=0.9,en;q=0.8","65a3f461bfa22dde98c10436","687a1a965b9f5b85a264363e","6893201037c5d16c7ed8f274","1","65a3f461bfa22dde98c10436","1","2025-08-06T09:33:39.812Z","","","","drsp","{""Q01"":""0"",""Q02"":""0"",""Q03"":""0"",""Q04"":""0"",""Q05"":""1"",""Q06"":""0"",""Q07"":""1"",""Q08"":""0"",""Q09"":""0"",""Q10"":""0"",""Q11"":""3"",""Q12"":""0"",""Q13"":""5"",""Q14"":""0"",""Q15"":""0"",""Q16"":""3"",""Q17"":""0"",""Q18"":""0"",""Q19"":""0"",""Q20"":""0"",""Q21"":""0"",""Q22"":""0""}","[0,1,2,3,4,5,6,7,8,9,10,11,12,13,14,15,16,17,18,19,20,21]","[""Q01"",""Q02"",""Q03"",""Q04"",""Q05"",""Q06"",""Q07"",""Q08"",""Q09"",""Q10"",""Q11"",""Q11"",""Q12"",""Q13"",""Q14"",""Q15"",""Q16"",""Q17"",""Q18"",""Q19"",""Q20"",""Q21"",""Q22""]","[8325,9852.700000000012,10644.700000000012,11795.5,14187.299999999988,16252.700000000012,17076.600000000035,18509.5,19260.20000000001,20372.400000000023,21884.100000000035,22731.900000000023,25292.20000000001,27380.100000000035,29259.20000000001,30812,32803.90000000002,33947.600000000035,34620,35899.79999999999,39307.600000000035,42131.79999999999,42899.90000000002]","[]","[0.1000000000349246,8325,9852.700000000012,10644.700000000012,11795.5,13092.900000000023,14187.299999999988,15052.900000000023,16252.700000000012,17076.600000000035,18509.5,19260.20000000001,20372.400000000023,21884.100000000035,22731.900000000023,25292.20000000001,27380.100000000035,29259.20000000001,30812,32803.90000000002,33947.600000000035,34620,35899.79999999999,39307.600000000035,40867.70000000001,42131.79999999999,42899.90000000002,43724.5]","0.7727272727272727","0.2857142857142857","0","","","","","","","","","","","","","","","","","","","","","","","","","","","","",""
"15102.599999999977","","","","survey-template","8","325095","0.0-4.0-4.0","164","1","2025-08-06 09:28:28","36c45c0696341be0efffe67d72a12abb","2.97.67.193","Mozilla/5.0 (X11; CrOS x86_64 14541.0.0) AppleWebKit/537.36 (KHTML, like Gecko) Chrome/138.0.0.0 Safari/537.36","WebKit","Chrome","138.0.0.0","ChromeOS","14541.0.0","https://app.prolific.com/","en-GB,en-US;q=0.9,en;q=0.8","65a3f461bfa22dde98c10436","687a1a965b9f5b85a264363e","6893201037c5d16c7ed8f274","1","65a3f461bfa22dde98c10436","1","2025-08-06T09:33:54.920Z","","","","stress","{""Q01"":""0"",""Q02"":""2"",""Q03"":""0""}","[0,1,2]","[""Q01"",""Q02"",""Q03""]","[9267.099999999977,12474.900000000023,14402.200000000012]","[]","[9267.099999999977,12474.900000000023,14402.200000000012,15100]","0.6666666666666666","0","0","","","","","","","","","","","","","","","","","","","","","","","","","","","","",""
"47944","","","","instructions","9","373043","0.0-5.0-0.0","164","1","2025-08-06 09:28:28","36c45c0696341be0efffe67d72a12abb","2.97.67.193","Mozilla/5.0 (X11; CrOS x86_64 14541.0.0) AppleWebKit/537.36 (KHTML, like Gecko) Chrome/138.0.0.0 Safari/537.36","WebKit","Chrome","138.0.0.0","ChromeOS","14541.0.0","https://app.prolific.com/","en-GB,en-US;q=0.9,en;q=0.8","65a3f461bfa22dde98c10436","687a1a965b9f5b85a264363e","6893201037c5d16c7ed8f274","1","65a3f461bfa22dde98c10436","1","","","","","","","","","","","","","","","[{""page_index"":0,""viewing_time"":47943}]","","","","","","","","","","","","","","","","","","","","","","","","","","","",""
"8138","","<p>Before you start with this game please answer the following three questions yourself. </p>
  <p>Through this game, we measure several aspects of your cognitive performance, such as reaction times, multi-tasking capabilities </p>
  <p>and the ability to assess the situation you are in.</p>
  <p></p>
  <p><b>How good do you usually are in such tasks?</b></p>","64","html-slider-response","10","381187","0.0-6.0-0.0","164","1","2025-08-06 09:28:28","36c45c0696341be0efffe67d72a12abb","2.97.67.193","Mozilla/5.0 (X11; CrOS x86_64 14541.0.0) AppleWebKit/537.36 (KHTML, like Gecko) Chrome/138.0.0.0 Safari/537.36","WebKit","Chrome","138.0.0.0","ChromeOS","14541.0.0","https://app.prolific.com/","en-GB,en-US;q=0.9,en;q=0.8","65a3f461bfa22dde98c10436","687a1a965b9f5b85a264363e","6893201037c5d16c7ed8f274","1","65a3f461bfa22dde98c10436","1","2025-08-06T09:34:51.011Z","","","","PreSkillQ","","","","","","","","","","","50","","","","","","","","","","","","","","","","","","","","","","","","","","",""
"5875","","<div style=""width:500px;"">
  <p>How well do you think you will perform in this task compared to other participants?</p>
  </div>","56","html-slider-response","11","387066","0.0-6.0-1.0","164","1","2025-08-06 09:28:28","36c45c0696341be0efffe67d72a12abb","2.97.67.193","Mozilla/5.0 (X11; CrOS x86_64 14541.0.0) AppleWebKit/537.36 (KHTML, like Gecko) Chrome/138.0.0.0 Safari/537.36","WebKit","Chrome","138.0.0.0","ChromeOS","14541.0.0","https://app.prolific.com/","en-GB,en-US;q=0.9,en;q=0.8","65a3f461bfa22dde98c10436","687a1a965b9f5b85a264363e","6893201037c5d16c7ed8f274","1","65a3f461bfa22dde98c10436","1","2025-08-06T09:34:56.890Z","","","","PrePerfQ","","","","","","","","","","","50","","","","","","","","","","","","","","","","","","","","","","","","","","",""
"6477","","<div style=""width:500px;"">
  <p>What best describes how you currently feel?</p>
  </div>","57","html-slider-response","12","393547","0.0-6.0-2.0","164","1","2025-08-06 09:28:28","36c45c0696341be0efffe67d72a12abb","2.97.67.193","Mozilla/5.0 (X11; CrOS x86_64 14541.0.0) AppleWebKit/537.36 (KHTML, like Gecko) Chrome/138.0.0.0 Safari/537.36","WebKit","Chrome","138.0.0.0","ChromeOS","14541.0.0","https://app.prolific.com/","en-GB,en-US;q=0.9,en;q=0.8","65a3f461bfa22dde98c10436","687a1a965b9f5b85a264363e","6893201037c5d16c7ed8f274","1","65a3f461bfa22dde98c10436","1","2025-08-06T09:35:03.371Z","","","","PreMotivationQ","","","","","","","","","","","50","","","","","","","","","","","","","","","","","","","","","","","","","","",""
"","","","","ctl-task-cpt","13","421457","0.0-7.0-0.0","164","1","2025-08-06 09:28:28","36c45c0696341be0efffe67d72a12abb","2.97.67.193","Mozilla/5.0 (X11; CrOS x86_64 14541.0.0) AppleWebKit/537.36 (KHTML, like Gecko) Chrome/138.0.0.0 Safari/537.36","WebKit","Chrome","138.0.0.0","ChromeOS","14541.0.0","https://app.prolific.com/","en-GB,en-US;q=0.9,en;q=0.8","65a3f461bfa22dde98c10436","687a1a965b9f5b85a264363e","6893201037c5d16c7ed8f274","1","65a3f461bfa22dde98c10436","1","2025-08-06T09:35:31.281Z","","","","","","","","","","","","","","","","win-only","0","g1:NW,g2:SE","1","1","0","395892.8","2303.8","7306.5","24887.9","1","4","4","6","2","-4","-5","0","0","0","5002.7","3000","-3005","[""down"",""right""]","{""num_key_presses"":6,""num_perfect"":5,""num_errors"":1,""num_randdir"":0,""num_randdir_good_moves"":0,""num_whilered"":0,""num_whileblue"":0,""num_blue"":0,""num_good_moves"":4}","[302.22232142857143,297.12857142857143,0.5,303.22232142857143,296.12857142857143,103.6,304.22232142857143,296.12857142857143,207.1,304.22232142857143,296.12857142857143,307.3,304.22232142857143,296.12857142857143,412,304.22232142857143,296.12857142857143,512.4,305.22232142857143,294.12857142857143,616.9,303.22232142857143,292.12857142857143,717,303.22232142857143,292.12857142857143,817,303.22232142857143,292.12857142857143,917.3,303.22232142857143,292.12857142857143,1022,303.22232142857143,292.12857142857143,1122.1,303.22232142857143,292.12857142857143,1227,303.22232142857143,292.12857142857143,1327,303.22232142857143,292.12857142857143,1427.1,303.22232142857143,292.12857142857143,1527.1,303.22232142857143,292.12857142857143,1627.1,303.22232142857143,292.12857142857143,1727.1,303.22232142857143,292.12857142857143,1827.5,303.22232142857143,292.12857142857143,1931.9,303.22232142857143,292.12857142857143,2031.9,303.22232142857143,292.12857142857143,2132,303.22232142857143,292.12857142857143,2232,303.22232142857143,292.12857142857143,2332.5,303.22232142857143,292.12857142857143,2432.8,303.22232142857143,292.12857142857143,2537.1,303.22232142857143,292.12857142857143,2642.2,303.22232142857143,292.12857142857143,2747.2,303.22232142857143,292.12857142857143,2851.9,303.22232142857143,292.12857142857143,2954,303.22232142857143,292.12857142857143,3054.7,303.22232142857143,292.12857142857143,3156.9,303.22232142857143,292.12857142857143,3266.8,303.22232142857143,292.12857142857143,3367,303.22232142857143,292.12857142857143,3472.1,303.22232142857143,292.12857142857143,3572.2,303.22232142857143,292.12857142857143,3672.5,303.22232142857143,292.12857142857143,3777,303.22232142857143,292.12857142857143,3877.1,303.22232142857143,292.12857142857143,3981.8,303.22232142857143,292.12857142857143,4082.2,-71.77767857142857,-80.87142857142857,4187.7,24.222321428571426,-83.87142857142857,4287.9,72.22232142857143,-62.871428571428574,4392.6,160.22232142857143,41.128571428571426,4492.9,104.22232142857143,67.12857142857143,4597.8,99.22232142857143,77.12857142857143,4702.2,86.22232142857143,66.12857142857143,4802.9,84.22232142857143,64.12857142857143,4906.5]","[2081.2,2081.1,1000,0.1,1081.1,""smooth"",""up"",""up"",""bad_move"",2525.3,443.6,2671.6,2081.7,-2228,""error"",""-"",""-"",""no_move"",6818.3,4292.7,2559.7,3529.2,729.5,""smooth"",""down"",""down"",""good_move"",9489.9,2670.9,2256.3,6819,414.6,""smooth"",""right"",""right"",""good_move"",12083.2,2592.5,2193.4,9490.7,399.1,""smooth"",""right"",""right"",""good_move"",15594.5,3510.3,3182.6,12084.2,327.7,""smooth"",""right"",""right"",""good_move""]"
"3950","","<div style=""width:500px;"">
  <p>What determined the result of this run?</p>
  </div>","91","html-slider-response","14","425409","0.0-7.0-1.0","164","1","2025-08-06 09:28:28","36c45c0696341be0efffe67d72a12abb","2.97.67.193","Mozilla/5.0 (X11; CrOS x86_64 14541.0.0) AppleWebKit/537.36 (KHTML, like Gecko) Chrome/138.0.0.0 Safari/537.36","WebKit","Chrome","138.0.0.0","ChromeOS","14541.0.0","https://app.prolific.com/","en-GB,en-US;q=0.9,en;q=0.8","65a3f461bfa22dde98c10436","687a1a965b9f5b85a264363e","6893201037c5d16c7ed8f274","1","65a3f461bfa22dde98c10436","1","2025-08-06T09:35:35.234Z","","","","AttribQ","","","","","","","","","","","50","","","","","","","","","","","","","","","","","","","","","","","","","","",""
"2886","","<div style=""width:500px;"">
  <p>How much control did you have over the ball?</p>
  </div>","85","html-slider-response","15","428300","0.0-7.0-2.0","164","1","2025-08-06 09:28:28","36c45c0696341be0efffe67d72a12abb","2.97.67.193","Mozilla/5.0 (X11; CrOS x86_64 14541.0.0) AppleWebKit/537.36 (KHTML, like Gecko) Chrome/138.0.0.0 Safari/537.36","WebKit","Chrome","138.0.0.0","ChromeOS","14541.0.0","https://app.prolific.com/","en-GB,en-US;q=0.9,en;q=0.8","65a3f461bfa22dde98c10436","687a1a965b9f5b85a264363e","6893201037c5d16c7ed8f274","1","65a3f461bfa22dde98c10436","1","2025-08-06T09:35:38.125Z","","","","ControlQ","","","","","","","","","","","50","","","","","","","","","","","","","","","","","","","","","","","","","","",""
"2897","","<div style=""width:500px;"">
  <p>How would you describe your current emotional state?</p>
  </div>","7","html-slider-response","16","431201","0.0-7.0-3.0","164","1","2025-08-06 09:28:28","36c45c0696341be0efffe67d72a12abb","2.97.67.193","Mozilla/5.0 (X11; CrOS x86_64 14541.0.0) AppleWebKit/537.36 (KHTML, like Gecko) Chrome/138.0.0.0 Safari/537.36","WebKit","Chrome","138.0.0.0","ChromeOS","14541.0.0","https://app.prolific.com/","en-GB,en-US;q=0.9,en;q=0.8","65a3f461bfa22dde98c10436","687a1a965b9f5b85a264363e","6893201037c5d16c7ed8f274","1","65a3f461bfa22dde98c10436","1","2025-08-06T09:35:41.025Z","","","","StressQ","","","","","","","","","","","50","","","","","","","","","","","","","","","","","","","","","","","","","","",""
"4407","","<div style=""width:500px;"">
  <p>What best describes how you currently feel?</p>
  </div>","98","html-slider-response","17","435611","0.0-7.0-4.0","164","1","2025-08-06 09:28:28","36c45c0696341be0efffe67d72a12abb","2.97.67.193","Mozilla/5.0 (X11; CrOS x86_64 14541.0.0) AppleWebKit/537.36 (KHTML, like Gecko) Chrome/138.0.0.0 Safari/537.36","WebKit","Chrome","138.0.0.0","ChromeOS","14541.0.0","https://app.prolific.com/","en-GB,en-US;q=0.9,en;q=0.8","65a3f461bfa22dde98c10436","687a1a965b9f5b85a264363e","6893201037c5d16c7ed8f274","1","65a3f461bfa22dde98c10436","1","2025-08-06T09:35:45.435Z","","","","MotivationQ","","","","","","","","","","","50","","","","","","","","","","","","","","","","","","","","","","","","","","",""
"","","","","ctl-task-cpt","18","454583","0.0-7.0-0.1","164","1","2025-08-06 09:28:28","36c45c0696341be0efffe67d72a12abb","2.97.67.193","Mozilla/5.0 (X11; CrOS x86_64 14541.0.0) AppleWebKit/537.36 (KHTML, like Gecko) Chrome/138.0.0.0 Safari/537.36","WebKit","Chrome","138.0.0.0","ChromeOS","14541.0.0","https://app.prolific.com/","en-GB,en-US;q=0.9,en;q=0.8","65a3f461bfa22dde98c10436","687a1a965b9f5b85a264363e","6893201037c5d16c7ed8f274","1","65a3f461bfa22dde98c10436","1","2025-08-06T09:36:04.407Z","","","","","","","","","","","","","","","","win-only","2","g1:SE,g2:NW","0.9","2","0","437944.4","1537.5","6540.8","15955.9","1","4","8","6","1","1","1","1","0","0.007575757575757576","1522.5","3000","1555","[""down"",""right""]","{""num_key_presses"":4,""num_perfect"":4,""num_errors"":0,""num_randdir"":0,""num_randdir_good_moves"":0,""num_whilered"":0,""num_whileblue"":0,""num_blue"":0,""num_good_moves"":4}","[300.22232142857143,296.12857142857143,0.3,300.22232142857143,296.12857142857143,110.4,300.22232142857143,296.12857142857143,213.3,296.22232142857143,294.12857142857143,320.7,81.22232142857143,153.12857142857143,423,96.22232142857143,170.12857142857143,523.5,410.22232142857143,463.12857142857143,628.1,447.22232142857143,501.12857142857143,728.1,491.22232142857143,519.1285714285714,833.1,499.22232142857143,521.1285714285714,933.3,381.22232142857143,443.12857142857143,1034,418.22232142857143,482.12857142857143,1138.6,470.22232142857143,503.12857142857143,1239.1,499.22232142857143,512.1285714285714,1345.3,548.2223214285714,528.1285714285714,1446,566.2223214285714,532.1285714285714,1546.8,566.2223214285714,532.1285714285714,1648.6,566.2223214285714,532.1285714285714,1753.4,566.2223214285714,532.1285714285714,1853.5,566.2223214285714,532.1285714285714,1961.1,566.2223214285714,532.1285714285714,2063.3,566.2223214285714,532.1285714285714,2163.3,566.2223214285714,532.1285714285714,2268.4,566.2223214285714,532.1285714285714,2373.5,566.2223214285714,532.1285714285714,2474.8,566.2223214285714,532.1285714285714,2578,566.2223214285714,532.1285714285714,2679.1,566.2223214285714,532.1285714285714,2783.4,567.2223214285714,533.1285714285714,2888.4,567.2223214285714,533.1285714285714,2988.6,567.2223214285714,533.1285714285714,3093.1,567.2223214285714,533.1285714285714,3193.8,567.2223214285714,533.1285714285714,3295,567.2223214285714,533.1285714285714,3398.2,567.2223214285714,533.1285714285714,3498.3,567.2223214285714,533.1285714285714,3603.3,567.2223214285714,533.1285714285714,3703.4,567.2223214285714,533.1285714285714,3803.4,567.2223214285714,533.1285714285714,3903.4,567.2223214285714,533.1285714285714,4003.4,567.2223214285714,533.1285714285714,4103.4,567.2223214285714,533.1285714285714,4205.4,567.2223214285714,533.1285714285714,4308.8,567.2223214285714,533.1285714285714,4413,567.2223214285714,534.1285714285714,4513,567.2223214285714,534.1285714285714,4613,567.2223214285714,534.1285714285714,4713,567.2223214285714,534.1285714285714,4813.1,567.2223214285714,534.1285714285714,4913.2]","[1398.8,1398.8,1000,0,398.8,""smooth"",""right"",""right"",""good_move"",4234.9,2835.6,2507.6,1399.4,327.9,""smooth"",""right"",""right"",""good_move"",7227.4,2991.7,2559.5,4235.7,432.2,""smooth"",""down"",""down"",""good_move"",9328.3,2099.6,1778.7,7228.7,320.9,""smooth"",""down"",""down"",""good_move""]"
"3544","","<div style=""width:500px;"">
  <p>What determined the result of this run?</p>
  </div>","82","html-slider-response","19","458130","0.0-7.0-1.1","164","1","2025-08-06 09:28:28","36c45c0696341be0efffe67d72a12abb","2.97.67.193","Mozilla/5.0 (X11; CrOS x86_64 14541.0.0) AppleWebKit/537.36 (KHTML, like Gecko) Chrome/138.0.0.0 Safari/537.36","WebKit","Chrome","138.0.0.0","ChromeOS","14541.0.0","https://app.prolific.com/","en-GB,en-US;q=0.9,en;q=0.8","65a3f461bfa22dde98c10436","687a1a965b9f5b85a264363e","6893201037c5d16c7ed8f274","1","65a3f461bfa22dde98c10436","1","2025-08-06T09:36:07.954Z","","","","AttribQ","","","","","","","","","","","50","","","","","","","","","","","","","","","","","","","","","","","","","","",""
"2309","","<div style=""width:500px;"">
  <p>How much control did you have over the ball?</p>
  </div>","93","html-slider-response","20","460442","0.0-7.0-2.1","164","1","2025-08-06 09:28:28","36c45c0696341be0efffe67d72a12abb","2.97.67.193","Mozilla/5.0 (X11; CrOS x86_64 14541.0.0) AppleWebKit/537.36 (KHTML, like Gecko) Chrome/138.0.0.0 Safari/537.36","WebKit","Chrome","138.0.0.0","ChromeOS","14541.0.0","https://app.prolific.com/","en-GB,en-US;q=0.9,en;q=0.8","65a3f461bfa22dde98c10436","687a1a965b9f5b85a264363e","6893201037c5d16c7ed8f274","1","65a3f461bfa22dde98c10436","1","2025-08-06T09:36:10.266Z","","","","ControlQ","","","","","","","","","","","50","","","","","","","","","","","","","","","","","","","","","","","","","","",""
"4900","","<div style=""width:500px;"">
  <p>How would you describe your current emotional state?</p>
  </div>","8","html-slider-response","21","465345","0.0-7.0-3.1","164","1","2025-08-06 09:28:28","36c45c0696341be0efffe67d72a12abb","2.97.67.193","Mozilla/5.0 (X11; CrOS x86_64 14541.0.0) AppleWebKit/537.36 (KHTML, like Gecko) Chrome/138.0.0.0 Safari/537.36","WebKit","Chrome","138.0.0.0","ChromeOS","14541.0.0","https://app.prolific.com/","en-GB,en-US;q=0.9,en;q=0.8","65a3f461bfa22dde98c10436","687a1a965b9f5b85a264363e","6893201037c5d16c7ed8f274","1","65a3f461bfa22dde98c10436","1","2025-08-06T09:36:15.169Z","","","","StressQ","","","","","","","","","","","50","","","","","","","","","","","","","","","","","","","","","","","","","","",""
"3246","","<div style=""width:500px;"">
  <p>What best describes how you currently feel?</p>
  </div>","94","html-slider-response","22","468594","0.0-7.0-4.1","164","1","2025-08-06 09:28:28","36c45c0696341be0efffe67d72a12abb","2.97.67.193","Mozilla/5.0 (X11; CrOS x86_64 14541.0.0) AppleWebKit/537.36 (KHTML, like Gecko) Chrome/138.0.0.0 Safari/537.36","WebKit","Chrome","138.0.0.0","ChromeOS","14541.0.0","https://app.prolific.com/","en-GB,en-US;q=0.9,en;q=0.8","65a3f461bfa22dde98c10436","687a1a965b9f5b85a264363e","6893201037c5d16c7ed8f274","1","65a3f461bfa22dde98c10436","1","2025-08-06T09:36:18.418Z","","","","MotivationQ","","","","","","","","","","","50","","","","","","","","","","","","","","","","","","","","","","","","","","",""
"","","","","ctl-task-cpt","23","495890","0.0-7.0-0.2","164","1","2025-08-06 09:28:28","36c45c0696341be0efffe67d72a12abb","2.97.67.193","Mozilla/5.0 (X11; CrOS x86_64 14541.0.0) AppleWebKit/537.36 (KHTML, like Gecko) Chrome/138.0.0.0 Safari/537.36","WebKit","Chrome","138.0.0.0","ChromeOS","14541.0.0","https://app.prolific.com/","en-GB,en-US;q=0.9,en;q=0.8","65a3f461bfa22dde98c10436","687a1a965b9f5b85a264363e","6893201037c5d16c7ed8f274","1","65a3f461bfa22dde98c10436","1","2025-08-06T09:36:45.714Z","","","","","","","","","","","","","","","","win-only","2","g1:SE,g2:NW","0.8","3","0","470927.9","1194.1","6199.5","24278.1","1","4","4","6","2","4","4","5","1","0.03787878787878788","1072","3000","880","[""left"",""up""]","{""num_key_presses"":6,""num_perfect"":5,""num_errors"":0,""num_randdir"":1,""num_randdir_good_moves"":1,""num_whilered"":0,""num_whileblue"":0,""num_blue"":1,""num_good_moves"":6}","[295.22232142857143,297.12857142857143,0.4,295.22232142857143,297.12857142857143,102.4,295.22232142857143,297.12857142857143,202.9,295.22232142857143,297.12857142857143,304.9,295.22232142857143,297.12857142857143,409.9,295.22232142857143,297.12857142857143,513,295.22232142857143,297.12857142857143,613.1,282.22232142857143,275.12857142857143,717.2,83.22232142857143,126.12857142857143,820.2,38.222321428571426,59.128571428571426,923.9,31.222321428571426,52.128571428571426,1026.4,31.222321428571426,52.128571428571426,1127,31.222321428571426,52.128571428571426,1233.8,36.222321428571426,52.128571428571426,1340,40.222321428571426,54.128571428571426,1442.8,40.222321428571426,54.128571428571426,1547.3,40.222321428571426,54.128571428571426,1647.5,40.222321428571426,54.128571428571426,1753.6,40.222321428571426,54.128571428571426,1856.3,40.222321428571426,54.128571428571426,1957.2,40.222321428571426,54.128571428571426,2058.2,40.222321428571426,54.128571428571426,2163.2,40.222321428571426,54.128571428571426,2268,40.222321428571426,54.128571428571426,2368.5,40.222321428571426,54.128571428571426,2473.2,40.222321428571426,54.128571428571426,2577.4,40.222321428571426,54.128571428571426,2677.9,40.222321428571426,54.128571428571426,2783.4,40.222321428571426,54.128571428571426,2888.2,40.222321428571426,54.128571428571426,2988.2,40.222321428571426,54.128571428571426,3089.7,40.222321428571426,54.128571428571426,3192.2,40.222321428571426,54.128571428571426,3292.7,40.222321428571426,54.128571428571426,3399.9,40.222321428571426,54.128571428571426,3503.7,40.222321428571426,54.128571428571426,3609.2,40.222321428571426,54.128571428571426,3711.6,41.222321428571426,55.128571428571426,3812.8,41.222321428571426,55.128571428571426,3917.9,41.222321428571426,55.128571428571426,4019.8,41.222321428571426,55.128571428571426,4121.9,41.222321428571426,55.128571428571426,4222.5,41.222321428571426,55.128571428571426,4322.7,41.222321428571426,55.128571428571426,4427,41.222321428571426,55.128571428571426,4527.5,41.222321428571426,55.128571428571426,4628.5,41.222321428571426,55.128571428571426,4732.9,41.222321428571426,55.128571428571426,4833.8,41.222321428571426,55.128571428571426,4940.2]","[1327.8,1327.8,1000,0,327.8,""smooth"",""up"",""up"",""good_move"",7390.4,6062,2360.9,4709.6,319.9,""oops"",""up"",""up"",""good_move"",10088.7,2697.8,2080,7391,617.7,""smooth"",""up"",""up"",""good_move"",12788.7,2698.9,2387.1,10089.8,311.8,""smooth"",""left"",""left"",""good_move"",15630.7,2841.4,2509.6,12789.3,331.8,""smooth"",""left"",""left"",""good_move"",17991.2,2360.1,2053.5,15631.1,306.6,""smooth"",""left"",""left"",""good_move""]"
"3941","","<div style=""width:500px;"">
  <p>What determined the result of this run?</p>
  </div>","80","html-slider-response","24","499833","0.0-7.0-1.2","164","1","2025-08-06 09:28:28","36c45c0696341be0efffe67d72a12abb","2.97.67.193","Mozilla/5.0 (X11; CrOS x86_64 14541.0.0) AppleWebKit/537.36 (KHTML, like Gecko) Chrome/138.0.0.0 Safari/537.36","WebKit","Chrome","138.0.0.0","ChromeOS","14541.0.0","https://app.prolific.com/","en-GB,en-US;q=0.9,en;q=0.8","65a3f461bfa22dde98c10436","687a1a965b9f5b85a264363e","6893201037c5d16c7ed8f274","1","65a3f461bfa22dde98c10436","1","2025-08-06T09:36:49.657Z","","","","AttribQ","","","","","","","","","","","50","","","","","","","","","","","","","","","","","","","","","","","","","","",""
"2431","","<div style=""width:500px;"">
  <p>How much control did you have over the ball?</p>
  </div>","88","html-slider-response","25","502266","0.0-7.0-2.2","164","1","2025-08-06 09:28:28","36c45c0696341be0efffe67d72a12abb","2.97.67.193","Mozilla/5.0 (X11; CrOS x86_64 14541.0.0) AppleWebKit/537.36 (KHTML, like Gecko) Chrome/138.0.0.0 Safari/537.36","WebKit","Chrome","138.0.0.0","ChromeOS","14541.0.0","https://app.prolific.com/","en-GB,en-US;q=0.9,en;q=0.8","65a3f461bfa22dde98c10436","687a1a965b9f5b85a264363e","6893201037c5d16c7ed8f274","1","65a3f461bfa22dde98c10436","1","2025-08-06T09:36:52.090Z","","","","ControlQ","","","","","","","","","","","50","","","","","","","","","","","","","","","","","","","","","","","","","","",""
"3140","","<div style=""width:500px;"">
  <p>How would you describe your current emotional state?</p>
  </div>","16","html-slider-response","26","505409","0.0-7.0-3.2","164","1","2025-08-06 09:28:28","36c45c0696341be0efffe67d72a12abb","2.97.67.193","Mozilla/5.0 (X11; CrOS x86_64 14541.0.0) AppleWebKit/537.36 (KHTML, like Gecko) Chrome/138.0.0.0 Safari/537.36","WebKit","Chrome","138.0.0.0","ChromeOS","14541.0.0","https://app.prolific.com/","en-GB,en-US;q=0.9,en;q=0.8","65a3f461bfa22dde98c10436","687a1a965b9f5b85a264363e","6893201037c5d16c7ed8f274","1","65a3f461bfa22dde98c10436","1","2025-08-06T09:36:55.233Z","","","","StressQ","","","","","","","","","","","50","","","","","","","","","","","","","","","","","","","","","","","","","","",""
"2342","","<div style=""width:500px;"">
  <p>What best describes how you currently feel?</p>
  </div>","95","html-slider-response","27","507753","0.0-7.0-4.2","164","1","2025-08-06 09:28:28","36c45c0696341be0efffe67d72a12abb","2.97.67.193","Mozilla/5.0 (X11; CrOS x86_64 14541.0.0) AppleWebKit/537.36 (KHTML, like Gecko) Chrome/138.0.0.0 Safari/537.36","WebKit","Chrome","138.0.0.0","ChromeOS","14541.0.0","https://app.prolific.com/","en-GB,en-US;q=0.9,en;q=0.8","65a3f461bfa22dde98c10436","687a1a965b9f5b85a264363e","6893201037c5d16c7ed8f274","1","65a3f461bfa22dde98c10436","1","2025-08-06T09:36:57.578Z","","","","MotivationQ","","","","","","","","","","","50","","","","","","","","","","","","","","","","","","","","","","","","","","",""
"","","","","ctl-task-cpt","28","553026","0.0-7.0-0.3","164","1","2025-08-06 09:28:28","36c45c0696341be0efffe67d72a12abb","2.97.67.193","Mozilla/5.0 (X11; CrOS x86_64 14541.0.0) AppleWebKit/537.36 (KHTML, like Gecko) Chrome/138.0.0.0 Safari/537.36","WebKit","Chrome","138.0.0.0","ChromeOS","14541.0.0","https://app.prolific.com/","en-GB,en-US;q=0.9,en;q=0.8","65a3f461bfa22dde98c10436","687a1a965b9f5b85a264363e","6893201037c5d16c7ed8f274","1","65a3f461bfa22dde98c10436","1","2025-08-06T09:37:42.850Z","","","","","","","","","","","","","","","","win-only","2","g1:SE,g2:NW","0.7","4","0","510087.6","2637.9","7641.3","42262","1","4","8","6","2","-8","-10","0","5","0","1957.4","3000","-2935","[""left"",""up""]","{""num_key_presses"":9,""num_perfect"":4,""num_errors"":2,""num_randdir"":3,""num_randdir_good_moves"":0,""num_whilered"":0,""num_whileblue"":1,""num_blue"":3,""num_good_moves"":5}","[298.22232142857143,299.12857142857143,1.2,298.22232142857143,299.12857142857143,102.8,298.22232142857143,299.12857142857143,207.5,298.22232142857143,299.12857142857143,308.8,298.22232142857143,299.12857142857143,414.8,298.22232142857143,299.12857142857143,517.7,298.22232142857143,299.12857142857143,617.8,298.22232142857143,299.12857142857143,722.8,325.22232142857143,309.12857142857143,823.1,366.22232142857143,342.12857142857143,923.1,424.22232142857143,415.12857142857143,1027.8,494.22232142857143,473.12857142857143,1128.1,507.22232142857143,484.12857142857143,1231.3,339.22232142857143,321.12857142857143,1332.6,131.22232142857143,160.12857142857143,1432.6,59.222321428571426,114.12857142857143,1537.8,31.222321428571426,84.12857142857143,1638.4,31.222321428571426,62.128571428571426,1738.6,39.222321428571426,59.128571428571426,1843.6,39.222321428571426,59.128571428571426,1943.8,39.222321428571426,59.128571428571426,2046.3,39.222321428571426,59.128571428571426,2148,49.222321428571426,81.12857142857143,2248.9,49.222321428571426,81.12857142857143,2353.2,49.222321428571426,81.12857142857143,2461.1,49.222321428571426,81.12857142857143,2562.7,49.222321428571426,81.12857142857143,2663.6,49.222321428571426,81.12857142857143,2767.5,49.222321428571426,81.12857142857143,2867.5,49.222321428571426,81.12857142857143,2967.5,49.222321428571426,81.12857142857143,3072.9,49.222321428571426,81.12857142857143,3174.2,49.222321428571426,81.12857142857143,3275,49.222321428571426,81.12857142857143,3378.1,49.222321428571426,81.12857142857143,3479.1,49.222321428571426,81.12857142857143,3583.1,49.222321428571426,81.12857142857143,3687.8,49.222321428571426,81.12857142857143,3788.1,49.222321428571426,81.12857142857143,3894.3,49.222321428571426,81.12857142857143,3998,49.222321428571426,81.12857142857143,4102.9,49.222321428571426,81.12857142857143,4210.2,49.222321428571426,81.12857142857143,4312.5,49.222321428571426,81.12857142857143,4413.4,49.222321428571426,81.12857142857143,4518,49.222321428571426,81.12857142857143,4626.1,49.222321428571426,81.12857142857143,4727.2,49.222321428571426,81.12857142857143,4827.4,49.222321428571426,81.12857142857143,4928]","[4258.5,4258.5,1908.4,2007.1,343,""oops"",""up"",""right"",""bad_move"",7868.3,3609.1,3131.6,4259.2,477.5,""smooth"",""left"",""left"",""good_move"",14589.7,6719.8,2639.2,11489.2,461.3,""oops"",""left"",""right"",""bad_move"",17057.1,2464.9,2569.1,14592.2,-104.2,""error"",""-"",""-"",""no_move"",20733.9,3676.4,2300.2,18059.6,374.1,""smooth"",""up"",""up"",""good_move"",24050.5,3316,2925.1,20734.5,390.9,""smooth"",""up"",""up"",""good_move"",26858.5,2807.7,2453.5,24050.8,354.2,""smooth"",""up"",""up"",""good_move"",29376.9,2518.1,2147.2,26858.8,370.9,""oops"",""left"",""right"",""bad_move"",32095,2717.5,2451.7,29377.5,265.8,""while_blue"",""right"",""left"",""good_move""]"
"4230","","<div style=""width:500px;"">
  <p>What determined the result of this run?</p>
  </div>","13","html-slider-response","29","557259","0.0-7.0-1.3","164","1","2025-08-06 09:28:28","36c45c0696341be0efffe67d72a12abb","2.97.67.193","Mozilla/5.0 (X11; CrOS x86_64 14541.0.0) AppleWebKit/537.36 (KHTML, like Gecko) Chrome/138.0.0.0 Safari/537.36","WebKit","Chrome","138.0.0.0","ChromeOS","14541.0.0","https://app.prolific.com/","en-GB,en-US;q=0.9,en;q=0.8","65a3f461bfa22dde98c10436","687a1a965b9f5b85a264363e","6893201037c5d16c7ed8f274","1","65a3f461bfa22dde98c10436","1","2025-08-06T09:37:47.083Z","","","","AttribQ","","","","","","","","","","","50","","","","","","","","","","","","","","","","","","","","","","","","","","",""
"5189","","<div style=""width:500px;"">
  <p>How much control did you have over the ball?</p>
  </div>","16","html-slider-response","30","562449","0.0-7.0-2.3","164","1","2025-08-06 09:28:28","36c45c0696341be0efffe67d72a12abb","2.97.67.193","Mozilla/5.0 (X11; CrOS x86_64 14541.0.0) AppleWebKit/537.36 (KHTML, like Gecko) Chrome/138.0.0.0 Safari/537.36","WebKit","Chrome","138.0.0.0","ChromeOS","14541.0.0","https://app.prolific.com/","en-GB,en-US;q=0.9,en;q=0.8","65a3f461bfa22dde98c10436","687a1a965b9f5b85a264363e","6893201037c5d16c7ed8f274","1","65a3f461bfa22dde98c10436","1","2025-08-06T09:37:52.273Z","","","","ControlQ","","","","","","","","","","","50","","","","","","","","","","","","","","","","","","","","","","","","","","",""
"4095","","<div style=""width:500px;"">
  <p>How would you describe your current emotional state?</p>
  </div>","16","html-slider-response","31","566547","0.0-7.0-3.3","164","1","2025-08-06 09:28:28","36c45c0696341be0efffe67d72a12abb","2.97.67.193","Mozilla/5.0 (X11; CrOS x86_64 14541.0.0) AppleWebKit/537.36 (KHTML, like Gecko) Chrome/138.0.0.0 Safari/537.36","WebKit","Chrome","138.0.0.0","ChromeOS","14541.0.0","https://app.prolific.com/","en-GB,en-US;q=0.9,en;q=0.8","65a3f461bfa22dde98c10436","687a1a965b9f5b85a264363e","6893201037c5d16c7ed8f274","1","65a3f461bfa22dde98c10436","1","2025-08-06T09:37:56.371Z","","","","StressQ","","","","","","","","","","","50","","","","","","","","","","","","","","","","","","","","","","","","","","",""
"4788","","<div style=""width:500px;"">
  <p>What best describes how you currently feel?</p>
  </div>","93","html-slider-response","32","571337","0.0-7.0-4.3","164","1","2025-08-06 09:28:28","36c45c0696341be0efffe67d72a12abb","2.97.67.193","Mozilla/5.0 (X11; CrOS x86_64 14541.0.0) AppleWebKit/537.36 (KHTML, like Gecko) Chrome/138.0.0.0 Safari/537.36","WebKit","Chrome","138.0.0.0","ChromeOS","14541.0.0","https://app.prolific.com/","en-GB,en-US;q=0.9,en;q=0.8","65a3f461bfa22dde98c10436","687a1a965b9f5b85a264363e","6893201037c5d16c7ed8f274","1","65a3f461bfa22dde98c10436","1","2025-08-06T09:38:01.161Z","","","","MotivationQ","","","","","","","","","","","50","","","","","","","","","","","","","","","","","","","","","","","","","","",""
"","","","","ctl-task-cpt","33","622369","0.0-7.0-0.4","164","1","2025-08-06 09:28:28","36c45c0696341be0efffe67d72a12abb","2.97.67.193","Mozilla/5.0 (X11; CrOS x86_64 14541.0.0) AppleWebKit/537.36 (KHTML, like Gecko) Chrome/138.0.0.0 Safari/537.36","WebKit","Chrome","138.0.0.0","ChromeOS","14541.0.0","https://app.prolific.com/","en-GB,en-US;q=0.9,en;q=0.8","65a3f461bfa22dde98c10436","687a1a965b9f5b85a264363e","6893201037c5d16c7ed8f274","1","65a3f461bfa22dde98c10436","1","2025-08-06T09:38:52.193Z","","","","","","","","","","","","","","","","win-only","0","g1:NW,g2:SE","0.6","5","0","573673.9","4841.2","9845.9","48012.2","1","4","8","6","1","-1","-3","0","0","0","1111.9","3000","-2775","[""left"",""up""]","{""num_key_presses"":11,""num_perfect"":5,""num_errors"":2,""num_randdir"":4,""num_randdir_good_moves"":2,""num_whilered"":0,""num_whileblue"":0,""num_blue"":3,""num_good_moves"":6}","[294.22232142857143,301.12857142857143,0.3,294.22232142857143,301.12857142857143,100.1,294.22232142857143,301.12857142857143,204.7,294.22232142857143,301.12857142857143,316.8,294.22232142857143,301.12857142857143,420.7,309.22232142857143,322.12857142857143,526.9,336.22232142857143,352.12857142857143,628.3,174.22232142857143,229.12857142857143,733.7,97.22232142857143,138.12857142857143,835.6,74.22232142857143,86.12857142857143,941,61.222321428571426,58.128571428571426,1051.8,61.222321428571426,58.128571428571426,1154.3,61.222321428571426,58.128571428571426,1254.3,61.222321428571426,58.128571428571426,1356,66.22232142857143,60.128571428571426,1456.4,66.22232142857143,60.128571428571426,1565.5,66.22232142857143,60.128571428571426,1671,66.22232142857143,60.128571428571426,1774.2,66.22232142857143,60.128571428571426,1880,66.22232142857143,60.128571428571426,1982,66.22232142857143,60.128571428571426,2084.9,66.22232142857143,60.128571428571426,2186.5,66.22232142857143,60.128571428571426,2292.8,66.22232142857143,60.128571428571426,2395.1,66.22232142857143,60.128571428571426,2495.7,66.22232142857143,60.128571428571426,2596.6,66.22232142857143,60.128571428571426,2699.5,66.22232142857143,60.128571428571426,2800.9,66.22232142857143,60.128571428571426,2906.3,66.22232142857143,60.128571428571426,3009.7,66.22232142857143,60.128571428571426,3111.4,66.22232142857143,60.128571428571426,3211.6,66.22232142857143,60.128571428571426,3316.2,66.22232142857143,60.128571428571426,3420.7,66.22232142857143,60.128571428571426,3528.7,66.22232142857143,60.128571428571426,3629.6,66.22232142857143,60.128571428571426,3729.6,66.22232142857143,60.128571428571426,3830.1,66.22232142857143,60.128571428571426,3937.1,66.22232142857143,60.128571428571426,4044.9,66.22232142857143,60.128571428571426,4150.4,66.22232142857143,60.128571428571426,4255.3,66.22232142857143,60.128571428571426,4360.7,66.22232142857143,60.128571428571426,4465.2,66.22232142857143,60.128571428571426,4571.8,66.22232142857143,60.128571428571426,4675.6,66.22232142857143,60.128571428571426,4775.7,66.22232142857143,60.128571428571426,4882.3,66.22232142857143,60.128571428571426,4987.2]","[1378.1,1378.1,1000,0,378.1,""smooth"",""up"",""up"",""good_move"",3771.1,2392.5,2043.1,1378.7,349.3,""smooth"",""up"",""up"",""good_move"",6020,2248.5,1890.7,3771.5,357.8,""oops"",""left"",""right"",""bad_move"",8402.5,2382.1,2009,6020.5,373,""smooth"",""right"",""right"",""bad_move"",9236.9,833.9,2916.3,8403,-2082.4,""error"",""-"",""-"",""no_move"",10705.7,1468.4,2170.7,10237.4,-1702.4,""error"",""-"",""-"",""no_move"",14626.2,3920.1,2489.8,11707.1,429.3,""smooth"",""left"",""left"",""good_move"",17421.9,2794.8,2421.8,14627.1,373,""oops"",""left"",""left"",""good_move"",26930.9,9507.1,2476.4,24092.6,361.9,""oops"",""left"",""left"",""good_move"",32266.3,5334.5,1476.2,30445.9,344.2,""oops"",""left"",""down"",""bad_move"",35880.7,3613.8,3289.4,32266.9,324.4,""smooth"",""left"",""left"",""good_move""]"
"2854","","<div style=""width:500px;"">
  <p>What determined the result of this run?</p>
  </div>","6","html-slider-response","34","625225","0.0-7.0-1.4","164","1","2025-08-06 09:28:28","36c45c0696341be0efffe67d72a12abb","2.97.67.193","Mozilla/5.0 (X11; CrOS x86_64 14541.0.0) AppleWebKit/537.36 (KHTML, like Gecko) Chrome/138.0.0.0 Safari/537.36","WebKit","Chrome","138.0.0.0","ChromeOS","14541.0.0","https://app.prolific.com/","en-GB,en-US;q=0.9,en;q=0.8","65a3f461bfa22dde98c10436","687a1a965b9f5b85a264363e","6893201037c5d16c7ed8f274","1","65a3f461bfa22dde98c10436","1","2025-08-06T09:38:55.049Z","","","","AttribQ","","","","","","","","","","","50","","","","","","","","","","","","","","","","","","","","","","","","","","",""
"2029","","<div style=""width:500px;"">
  <p>How much control did you have over the ball?</p>
  </div>","18","html-slider-response","35","627257","0.0-7.0-2.4","164","1","2025-08-06 09:28:28","36c45c0696341be0efffe67d72a12abb","2.97.67.193","Mozilla/5.0 (X11; CrOS x86_64 14541.0.0) AppleWebKit/537.36 (KHTML, like Gecko) Chrome/138.0.0.0 Safari/537.36","WebKit","Chrome","138.0.0.0","ChromeOS","14541.0.0","https://app.prolific.com/","en-GB,en-US;q=0.9,en;q=0.8","65a3f461bfa22dde98c10436","687a1a965b9f5b85a264363e","6893201037c5d16c7ed8f274","1","65a3f461bfa22dde98c10436","1","2025-08-06T09:38:57.081Z","","","","ControlQ","","","","","","","","","","","50","","","","","","","","","","","","","","","","","","","","","","","","","","",""
"2743","","<div style=""width:500px;"">
  <p>How would you describe your current emotional state?</p>
  </div>","32","html-slider-response","36","630001","0.0-7.0-3.4","164","1","2025-08-06 09:28:28","36c45c0696341be0efffe67d72a12abb","2.97.67.193","Mozilla/5.0 (X11; CrOS x86_64 14541.0.0) AppleWebKit/537.36 (KHTML, like Gecko) Chrome/138.0.0.0 Safari/537.36","WebKit","Chrome","138.0.0.0","ChromeOS","14541.0.0","https://app.prolific.com/","en-GB,en-US;q=0.9,en;q=0.8","65a3f461bfa22dde98c10436","687a1a965b9f5b85a264363e","6893201037c5d16c7ed8f274","1","65a3f461bfa22dde98c10436","1","2025-08-06T09:38:59.826Z","","","","StressQ","","","","","","","","","","","50","","","","","","","","","","","","","","","","","","","","","","","","","","",""
"2861","","<div style=""width:500px;"">
  <p>What best describes how you currently feel?</p>
  </div>","88","html-slider-response","37","632865","0.0-7.0-4.4","164","1","2025-08-06 09:28:28","36c45c0696341be0efffe67d72a12abb","2.97.67.193","Mozilla/5.0 (X11; CrOS x86_64 14541.0.0) AppleWebKit/537.36 (KHTML, like Gecko) Chrome/138.0.0.0 Safari/537.36","WebKit","Chrome","138.0.0.0","ChromeOS","14541.0.0","https://app.prolific.com/","en-GB,en-US;q=0.9,en;q=0.8","65a3f461bfa22dde98c10436","687a1a965b9f5b85a264363e","6893201037c5d16c7ed8f274","1","65a3f461bfa22dde98c10436","1","2025-08-06T09:39:02.690Z","","","","MotivationQ","","","","","","","","","","","50","","","","","","","","","","","","","","","","","","","","","","","","","","",""
"","","","","ctl-task-cpt","38","670394","0.0-7.0-0.5","164","1","2025-08-06 09:28:28","36c45c0696341be0efffe67d72a12abb","2.97.67.193","Mozilla/5.0 (X11; CrOS x86_64 14541.0.0) AppleWebKit/537.36 (KHTML, like Gecko) Chrome/138.0.0.0 Safari/537.36","WebKit","Chrome","138.0.0.0","ChromeOS","14541.0.0","https://app.prolific.com/","en-GB,en-US;q=0.9,en;q=0.8","65a3f461bfa22dde98c10436","687a1a965b9f5b85a264363e","6893201037c5d16c7ed8f274","1","65a3f461bfa22dde98c10436","1","2025-08-06T09:39:40.218Z","","","","","","","","","","","","","","","","win-only","0","g1:NW,g2:SE","0.5","6","0","635198.1","804.7","5807.4","34512.8","1","4","4","6","2","-4","-4","0","0","0","984.5","3000","-2430","[""down"",""right""]","{""num_key_presses"":9,""num_perfect"":4,""num_errors"":0,""num_randdir"":5,""num_randdir_good_moves"":2,""num_whilered"":0,""num_whileblue"":0,""num_blue"":0,""num_good_moves"":5}","[295.22232142857143,297.12857142857143,1.6,295.22232142857143,297.12857142857143,103,295.22232142857143,297.12857142857143,206.9,295.22232142857143,297.12857142857143,310.1,295.22232142857143,297.12857142857143,411.8,295.22232142857143,297.12857142857143,512.1,390.22232142857143,401.12857142857143,623.2,569.2223214285714,549.1285714285714,728.8,576.2223214285714,554.1285714285714,832.4,577.2223214285714,553.1285714285714,936.2,577.2223214285714,553.1285714285714,1037.3,577.2223214285714,553.1285714285714,1142.4,577.2223214285714,553.1285714285714,1249.2,577.2223214285714,553.1285714285714,1349.3,591.2223214285714,563.1285714285714,1453.2,591.2223214285714,563.1285714285714,1553.7,591.2223214285714,563.1285714285714,1658,591.2223214285714,563.1285714285714,1758.3,591.2223214285714,563.1285714285714,1863.3,591.2223214285714,563.1285714285714,1964.3,591.2223214285714,563.1285714285714,2068,591.2223214285714,563.1285714285714,2168.2,591.2223214285714,563.1285714285714,2270.8,591.2223214285714,563.1285714285714,2371.7,591.2223214285714,563.1285714285714,2476.9,591.2223214285714,563.1285714285714,2577.2,591.2223214285714,563.1285714285714,2684.7,591.2223214285714,563.1285714285714,2788,591.2223214285714,563.1285714285714,2892.5,591.2223214285714,563.1285714285714,2995.6,591.2223214285714,563.1285714285714,3098.8,591.2223214285714,563.1285714285714,3203.6,591.2223214285714,563.1285714285714,3307.2,591.2223214285714,563.1285714285714,3413.4,592.2223214285714,563.1285714285714,3527.2,592.2223214285714,563.1285714285714,3631,592.2223214285714,563.1285714285714,3736.6,592.2223214285714,563.1285714285714,3843.4,592.2223214285714,563.1285714285714,3945.3,592.2223214285714,563.1285714285714,4046.1,592.2223214285714,563.1285714285714,4150.2,592.2223214285714,563.1285714285714,4251.5,592.2223214285714,563.1285714285714,4352,592.2223214285714,563.1285714285714,4453.5,592.2223214285714,563.1285714285714,4557,592.2223214285714,563.1285714285714,4657.3,592.2223214285714,563.1285714285714,4765.9,592.2223214285714,563.1285714285714,4867.2,592.2223214285714,563.1285714285714,4971.9]","[1360.3,1360.3,1000,0,360.3,""oops"",""down"",""right"",""good_move"",4584.9,3223.2,2809.9,1361.7,413.3,""oops"",""down"",""up"",""bad_move"",7824.1,3237.6,2852.6,4586.5,385,""smooth"",""right"",""right"",""good_move"",11069.9,3244.7,2894.9,7825.2,349.8,""smooth"",""down"",""down"",""good_move"",14381.6,3309.5,2949.9,11072.1,359.6,""oops"",""down"",""left"",""bad_move"",17195,2812.6,2369.4,14382.4,443.2,""smooth"",""right"",""right"",""good_move"",20513.5,3318.1,2911.5,17195.4,406.6,""oops"",""right"",""right"",""good_move"",22862.6,2348.8,1822.6,20513.9,526.2,""oops"",""down"",""up"",""bad_move"",26087,3223.6,2884,22863.4,339.6,""smooth"",""up"",""up"",""bad_move""]"
"2589","","<div style=""width:500px;"">
  <p>What determined the result of this run?</p>
  </div>","8","html-slider-response","39","672985","0.0-7.0-1.5","164","1","2025-08-06 09:28:28","36c45c0696341be0efffe67d72a12abb","2.97.67.193","Mozilla/5.0 (X11; CrOS x86_64 14541.0.0) AppleWebKit/537.36 (KHTML, like Gecko) Chrome/138.0.0.0 Safari/537.36","WebKit","Chrome","138.0.0.0","ChromeOS","14541.0.0","https://app.prolific.com/","en-GB,en-US;q=0.9,en;q=0.8","65a3f461bfa22dde98c10436","687a1a965b9f5b85a264363e","6893201037c5d16c7ed8f274","1","65a3f461bfa22dde98c10436","1","2025-08-06T09:39:42.809Z","","","","AttribQ","","","","","","","","","","","50","","","","","","","","","","","","","","","","","","","","","","","","","","",""
"2966","","<div style=""width:500px;"">
  <p>How much control did you have over the ball?</p>
  </div>","9","html-slider-response","40","675953","0.0-7.0-2.5","164","1","2025-08-06 09:28:28","36c45c0696341be0efffe67d72a12abb","2.97.67.193","Mozilla/5.0 (X11; CrOS x86_64 14541.0.0) AppleWebKit/537.36 (KHTML, like Gecko) Chrome/138.0.0.0 Safari/537.36","WebKit","Chrome","138.0.0.0","ChromeOS","14541.0.0","https://app.prolific.com/","en-GB,en-US;q=0.9,en;q=0.8","65a3f461bfa22dde98c10436","687a1a965b9f5b85a264363e","6893201037c5d16c7ed8f274","1","65a3f461bfa22dde98c10436","1","2025-08-06T09:39:45.777Z","","","","ControlQ","","","","","","","","","","","50","","","","","","","","","","","","","","","","","","","","","","","","","","",""
"3390","","<div style=""width:500px;"">
  <p>How would you describe your current emotional state?</p>
  </div>","27","html-slider-response","41","679345","0.0-7.0-3.5","164","1","2025-08-06 09:28:28","36c45c0696341be0efffe67d72a12abb","2.97.67.193","Mozilla/5.0 (X11; CrOS x86_64 14541.0.0) AppleWebKit/537.36 (KHTML, like Gecko) Chrome/138.0.0.0 Safari/537.36","WebKit","Chrome","138.0.0.0","ChromeOS","14541.0.0","https://app.prolific.com/","en-GB,en-US;q=0.9,en;q=0.8","65a3f461bfa22dde98c10436","687a1a965b9f5b85a264363e","6893201037c5d16c7ed8f274","1","65a3f461bfa22dde98c10436","1","2025-08-06T09:39:49.169Z","","","","StressQ","","","","","","","","","","","50","","","","","","","","","","","","","","","","","","","","","","","","","","",""
"1958","","<div style=""width:500px;"">
  <p>What best describes how you currently feel?</p>
  </div>","88","html-slider-response","42","681305","0.0-7.0-4.5","164","1","2025-08-06 09:28:28","36c45c0696341be0efffe67d72a12abb","2.97.67.193","Mozilla/5.0 (X11; CrOS x86_64 14541.0.0) AppleWebKit/537.36 (KHTML, like Gecko) Chrome/138.0.0.0 Safari/537.36","WebKit","Chrome","138.0.0.0","ChromeOS","14541.0.0","https://app.prolific.com/","en-GB,en-US;q=0.9,en;q=0.8","65a3f461bfa22dde98c10436","687a1a965b9f5b85a264363e","6893201037c5d16c7ed8f274","1","65a3f461bfa22dde98c10436","1","2025-08-06T09:39:51.129Z","","","","MotivationQ","","","","","","","","","","","50","","","","","","","","","","","","","","","","","","","","","","","","","","",""
"","","","","ctl-task-cpt","43","738445","0.0-7.0-0.6","164","1","2025-08-06 09:28:28","36c45c0696341be0efffe67d72a12abb","2.97.67.193","Mozilla/5.0 (X11; CrOS x86_64 14541.0.0) AppleWebKit/537.36 (KHTML, like Gecko) Chrome/138.0.0.0 Safari/537.36","WebKit","Chrome","138.0.0.0","ChromeOS","14541.0.0","https://app.prolific.com/","en-GB,en-US;q=0.9,en;q=0.8","65a3f461bfa22dde98c10436","687a1a965b9f5b85a264363e","6893201037c5d16c7ed8f274","1","65a3f461bfa22dde98c10436","1","2025-08-06T09:40:48.269Z","","","","","","","","","","","","","","","","win-only","2","g1:SE,g2:NW","0.4","7","0","683637.2","829.2","5843.4","54123.4","1","4","4","6","2","-4","-4","0","0","0","1107.7","3000","-2445","[""left"",""up""]","{""num_key_presses"":9,""num_perfect"":4,""num_errors"":0,""num_randdir"":5,""num_randdir_good_moves"":1,""num_whilered"":0,""num_whileblue"":0,""num_blue"":6,""num_good_moves"":5}","[299.22232142857143,295.12857142857143,1,298.22232142857143,294.12857142857143,103.5,298.22232142857143,294.12857142857143,211.8,298.22232142857143,294.12857142857143,312,298.22232142857143,294.12857142857143,416.6,298.22232142857143,294.12857142857143,517.2,298.22232142857143,294.12857142857143,617.8,290.22232142857143,287.12857142857143,724.5,78.22232142857143,78.12857142857143,829.1,63.222321428571426,59.128571428571426,931,51.222321428571426,46.128571428571426,1031.6,51.222321428571426,46.128571428571426,1132.2,50.222321428571426,47.128571428571426,1232.5,50.222321428571426,47.128571428571426,1336.6,75.22232142857143,64.12857142857143,1437.2,75.22232142857143,64.12857142857143,1543.1,75.22232142857143,64.12857142857143,1643.2,75.22232142857143,64.12857142857143,1746.4,75.22232142857143,64.12857142857143,1848.6,75.22232142857143,64.12857142857143,1953.4,75.22232142857143,64.12857142857143,2057.2,75.22232142857143,64.12857142857143,2161.3,75.22232142857143,64.12857142857143,2261.6,75.22232142857143,64.12857142857143,2367,75.22232142857143,64.12857142857143,2467,75.22232142857143,64.12857142857143,2571.2,76.22232142857143,64.12857142857143,2674,76.22232142857143,64.12857142857143,2778,76.22232142857143,64.12857142857143,2881.9,76.22232142857143,64.12857142857143,2984.2,76.22232142857143,64.12857142857143,3085.9,76.22232142857143,64.12857142857143,3193.5,76.22232142857143,64.12857142857143,3293.7,76.22232142857143,64.12857142857143,3396.2,76.22232142857143,64.12857142857143,3498.4,76.22232142857143,64.12857142857143,3602.1,76.22232142857143,64.12857142857143,3708.3,76.22232142857143,64.12857142857143,3816.7,76.22232142857143,64.12857142857143,3922.7,76.22232142857143,64.12857142857143,4023.7,76.22232142857143,64.12857142857143,4126.4,76.22232142857143,64.12857142857143,4236.8,76.22232142857143,64.12857142857143,4339.5,76.22232142857143,64.12857142857143,4442.8,76.22232142857143,64.12857142857143,4546.5,76.22232142857143,64.12857142857143,4652.7,76.22232142857143,64.12857142857143,4754.9,76.22232142857143,64.12857142857143,4856.5,76.22232142857143,64.12857142857143,4957.5]","[1384.9,1384.9,1000,0,384.9,""smooth"",""up"",""up"",""good_move"",4585.2,3199.5,2872.7,1385.8,326.7,""smooth"",""up"",""up"",""good_move"",6980.5,2394,2020,4586.6,373.9,""smooth"",""up"",""up"",""good_move"",16207.9,9224.4,2686.5,13142,379.4,""oops"",""left"",""down"",""bad_move"",23243.8,7035,2577.3,20284.1,382.4,""oops"",""left"",""right"",""bad_move"",33241.6,9997.2,2656.2,30231.1,354.3,""oops"",""left"",""down"",""bad_move"",36811.3,3566.3,3174.7,33245,391.6,""smooth"",""left"",""left"",""good_move"",42669.4,5855.5,2769.2,39505.4,394.8,""oops"",""left"",""up"",""good_move"",45432.9,2763,2123.6,42669.9,639.4,""oops"",""left"",""down"",""bad_move""]"
"1867","","<div style=""width:500px;"">
  <p>What determined the result of this run?</p>
  </div>","8","html-slider-response","44","740315","0.0-7.0-1.6","164","1","2025-08-06 09:28:28","36c45c0696341be0efffe67d72a12abb","2.97.67.193","Mozilla/5.0 (X11; CrOS x86_64 14541.0.0) AppleWebKit/537.36 (KHTML, like Gecko) Chrome/138.0.0.0 Safari/537.36","WebKit","Chrome","138.0.0.0","ChromeOS","14541.0.0","https://app.prolific.com/","en-GB,en-US;q=0.9,en;q=0.8","65a3f461bfa22dde98c10436","687a1a965b9f5b85a264363e","6893201037c5d16c7ed8f274","1","65a3f461bfa22dde98c10436","1","2025-08-06T09:40:50.139Z","","","","AttribQ","","","","","","","","","","","50","","","","","","","","","","","","","","","","","","","","","","","","","","",""
"2493","","<div style=""width:500px;"">
  <p>How much control did you have over the ball?</p>
  </div>","6","html-slider-response","45","742811","0.0-7.0-2.6","164","1","2025-08-06 09:28:28","36c45c0696341be0efffe67d72a12abb","2.97.67.193","Mozilla/5.0 (X11; CrOS x86_64 14541.0.0) AppleWebKit/537.36 (KHTML, like Gecko) Chrome/138.0.0.0 Safari/537.36","WebKit","Chrome","138.0.0.0","ChromeOS","14541.0.0","https://app.prolific.com/","en-GB,en-US;q=0.9,en;q=0.8","65a3f461bfa22dde98c10436","687a1a965b9f5b85a264363e","6893201037c5d16c7ed8f274","1","65a3f461bfa22dde98c10436","1","2025-08-06T09:40:52.636Z","","","","ControlQ","","","","","","","","","","","50","","","","","","","","","","","","","","","","","","","","","","","","","","",""
"2012","","<div style=""width:500px;"">
  <p>How would you describe your current emotional state?</p>
  </div>","37","html-slider-response","46","744826","0.0-7.0-3.6","164","1","2025-08-06 09:28:28","36c45c0696341be0efffe67d72a12abb","2.97.67.193","Mozilla/5.0 (X11; CrOS x86_64 14541.0.0) AppleWebKit/537.36 (KHTML, like Gecko) Chrome/138.0.0.0 Safari/537.36","WebKit","Chrome","138.0.0.0","ChromeOS","14541.0.0","https://app.prolific.com/","en-GB,en-US;q=0.9,en;q=0.8","65a3f461bfa22dde98c10436","687a1a965b9f5b85a264363e","6893201037c5d16c7ed8f274","1","65a3f461bfa22dde98c10436","1","2025-08-06T09:40:54.650Z","","","","StressQ","","","","","","","","","","","50","","","","","","","","","","","","","","","","","","","","","","","","","","",""
"2030","","<div style=""width:500px;"">
  <p>What best describes how you currently feel?</p>
  </div>","73","html-slider-response","47","746857","0.0-7.0-4.6","164","1","2025-08-06 09:28:28","36c45c0696341be0efffe67d72a12abb","2.97.67.193","Mozilla/5.0 (X11; CrOS x86_64 14541.0.0) AppleWebKit/537.36 (KHTML, like Gecko) Chrome/138.0.0.0 Safari/537.36","WebKit","Chrome","138.0.0.0","ChromeOS","14541.0.0","https://app.prolific.com/","en-GB,en-US;q=0.9,en;q=0.8","65a3f461bfa22dde98c10436","687a1a965b9f5b85a264363e","6893201037c5d16c7ed8f274","1","65a3f461bfa22dde98c10436","1","2025-08-06T09:40:56.682Z","","","","MotivationQ","","","","","","","","","","","50","","","","","","","","","","","","","","","","","","","","","","","","","","",""
"","","","","ctl-task-cpt","48","786782","0.0-7.0-0.7","164","1","2025-08-06 09:28:28","36c45c0696341be0efffe67d72a12abb","2.97.67.193","Mozilla/5.0 (X11; CrOS x86_64 14541.0.0) AppleWebKit/537.36 (KHTML, like Gecko) Chrome/138.0.0.0 Safari/537.36","WebKit","Chrome","138.0.0.0","ChromeOS","14541.0.0","https://app.prolific.com/","en-GB,en-US;q=0.9,en;q=0.8","65a3f461bfa22dde98c10436","687a1a965b9f5b85a264363e","6893201037c5d16c7ed8f274","1","65a3f461bfa22dde98c10436","1","2025-08-06T09:41:36.607Z","","","","","","","","","","","","","","","","win-only","2","g1:SE,g2:NW","0.3","8","0","749190.1","987.2","5988.5","36908.4","1","4","8","6","1","-1","-1","0","0","0","1551.9","3000","-2150","[""down"",""right""]","{""num_key_presses"":8,""num_perfect"":1,""num_errors"":0,""num_randdir"":7,""num_randdir_good_moves"":3,""num_whilered"":0,""num_whileblue"":0,""num_blue"":1,""num_good_moves"":4}","[296.22232142857143,293.12857142857143,0.5,296.22232142857143,293.12857142857143,101.6,296.22232142857143,293.12857142857143,203.8,296.22232142857143,293.12857142857143,308.2,296.22232142857143,293.12857142857143,418,212.22232142857143,616.1285714285714,518.9,-159.77767857142857,640.1285714285714,621.3,27.222321428571426,296.12857142857143,722.1,261.22232142857143,261.12857142857143,825.9,452.22232142857143,427.12857142857143,934.6,501.22232142857143,470.12857142857143,1040.1,512.2223214285714,509.12857142857143,1142.7,514.2223214285714,515.1285714285714,1250.2,523.2223214285714,524.1285714285714,1354.2,524.2223214285714,525.1285714285714,1459.9,524.2223214285714,525.1285714285714,1569.7,524.2223214285714,525.1285714285714,1670,529.2223214285714,531.1285714285714,1774.3,529.2223214285714,532.1285714285714,1885.1,529.2223214285714,532.1285714285714,1989.3,529.2223214285714,532.1285714285714,2091.1,529.2223214285714,532.1285714285714,2198,529.2223214285714,532.1285714285714,2304.3,529.2223214285714,532.1285714285714,2407.4,529.2223214285714,532.1285714285714,2514.1,529.2223214285714,532.1285714285714,2620.4,529.2223214285714,532.1285714285714,2726,529.2223214285714,532.1285714285714,2828.3,529.2223214285714,532.1285714285714,2932.4,529.2223214285714,532.1285714285714,3035.3,529.2223214285714,532.1285714285714,3137.1,529.2223214285714,532.1285714285714,3240.6,529.2223214285714,532.1285714285714,3341,529.2223214285714,532.1285714285714,3444.2,529.2223214285714,532.1285714285714,3547.1,529.2223214285714,532.1285714285714,3653.7,529.2223214285714,532.1285714285714,3757.8,529.2223214285714,532.1285714285714,3863.5,529.2223214285714,532.1285714285714,3965.9,529.2223214285714,532.1285714285714,4068.3,529.2223214285714,532.1285714285714,4169.1,529.2223214285714,532.1285714285714,4269.7,529.2223214285714,532.1285714285714,4372.8,529.2223214285714,532.1285714285714,4476.6,529.2223214285714,532.1285714285714,4584.1,529.2223214285714,532.1285714285714,4692,529.2223214285714,532.1285714285714,4793.5,529.2223214285714,532.1285714285714,4900.5]","[4887.6,4887.6,2479.7,2005.6,402.3,""oops"",""down"",""left"",""bad_move"",7794,2903.2,2357.7,4890.8,545.5,""oops"",""right"",""left"",""bad_move"",10887,3092.6,2728.5,7794.4,364.1,""oops"",""down"",""down"",""good_move"",13468.3,2579.2,2167.4,10889.1,411.8,""oops"",""down"",""up"",""bad_move"",16656.9,3187.3,2907.4,13469.6,279.9,""smooth"",""right"",""right"",""good_move"",20337.7,3678.7,3328.2,16659,350.5,""oops"",""right"",""left"",""bad_move"",23914.4,3571.3,3002.1,20343.1,569.2,""oops"",""right"",""right"",""good_move"",27539.4,3622.7,2603.3,23916.8,1019.3,""oops"",""down"",""right"",""good_move""]"
"2729","","<div style=""width:500px;"">
  <p>What determined the result of this run?</p>
  </div>","5","html-slider-response","49","789513","0.0-7.0-1.7","164","1","2025-08-06 09:28:28","36c45c0696341be0efffe67d72a12abb","2.97.67.193","Mozilla/5.0 (X11; CrOS x86_64 14541.0.0) AppleWebKit/537.36 (KHTML, like Gecko) Chrome/138.0.0.0 Safari/537.36","WebKit","Chrome","138.0.0.0","ChromeOS","14541.0.0","https://app.prolific.com/","en-GB,en-US;q=0.9,en;q=0.8","65a3f461bfa22dde98c10436","687a1a965b9f5b85a264363e","6893201037c5d16c7ed8f274","1","65a3f461bfa22dde98c10436","1","2025-08-06T09:41:39.338Z","","","","AttribQ","","","","","","","","","","","50","","","","","","","","","","","","","","","","","","","","","","","","","","",""
"1947","","<div style=""width:500px;"">
  <p>How much control did you have over the ball?</p>
  </div>","5","html-slider-response","50","791465","0.0-7.0-2.7","164","1","2025-08-06 09:28:28","36c45c0696341be0efffe67d72a12abb","2.97.67.193","Mozilla/5.0 (X11; CrOS x86_64 14541.0.0) AppleWebKit/537.36 (KHTML, like Gecko) Chrome/138.0.0.0 Safari/537.36","WebKit","Chrome","138.0.0.0","ChromeOS","14541.0.0","https://app.prolific.com/","en-GB,en-US;q=0.9,en;q=0.8","65a3f461bfa22dde98c10436","687a1a965b9f5b85a264363e","6893201037c5d16c7ed8f274","1","65a3f461bfa22dde98c10436","1","2025-08-06T09:41:41.289Z","","","","ControlQ","","","","","","","","","","","50","","","","","","","","","","","","","","","","","","","","","","","","","","",""
"1773","","<div style=""width:500px;"">
  <p>How would you describe your current emotional state?</p>
  </div>","29","html-slider-response","51","793241","0.0-7.0-3.7","164","1","2025-08-06 09:28:28","36c45c0696341be0efffe67d72a12abb","2.97.67.193","Mozilla/5.0 (X11; CrOS x86_64 14541.0.0) AppleWebKit/537.36 (KHTML, like Gecko) Chrome/138.0.0.0 Safari/537.36","WebKit","Chrome","138.0.0.0","ChromeOS","14541.0.0","https://app.prolific.com/","en-GB,en-US;q=0.9,en;q=0.8","65a3f461bfa22dde98c10436","687a1a965b9f5b85a264363e","6893201037c5d16c7ed8f274","1","65a3f461bfa22dde98c10436","1","2025-08-06T09:41:43.065Z","","","","StressQ","","","","","","","","","","","50","","","","","","","","","","","","","","","","","","","","","","","","","","",""
"1278","","<div style=""width:500px;"">
  <p>What best describes how you currently feel?</p>
  </div>","71","html-slider-response","52","794521","0.0-7.0-4.7","164","1","2025-08-06 09:28:28","36c45c0696341be0efffe67d72a12abb","2.97.67.193","Mozilla/5.0 (X11; CrOS x86_64 14541.0.0) AppleWebKit/537.36 (KHTML, like Gecko) Chrome/138.0.0.0 Safari/537.36","WebKit","Chrome","138.0.0.0","ChromeOS","14541.0.0","https://app.prolific.com/","en-GB,en-US;q=0.9,en;q=0.8","65a3f461bfa22dde98c10436","687a1a965b9f5b85a264363e","6893201037c5d16c7ed8f274","1","65a3f461bfa22dde98c10436","1","2025-08-06T09:41:44.346Z","","","","MotivationQ","","","","","","","","","","","50","","","","","","","","","","","","","","","","","","","","","","","","","","",""
"","","","","ctl-task-cpt","53","845157","0.0-7.0-0.8","164","1","2025-08-06 09:28:28","36c45c0696341be0efffe67d72a12abb","2.97.67.193","Mozilla/5.0 (X11; CrOS x86_64 14541.0.0) AppleWebKit/537.36 (KHTML, like Gecko) Chrome/138.0.0.0 Safari/537.36","WebKit","Chrome","138.0.0.0","ChromeOS","14541.0.0","https://app.prolific.com/","en-GB,en-US;q=0.9,en;q=0.8","65a3f461bfa22dde98c10436","687a1a965b9f5b85a264363e","6893201037c5d16c7ed8f274","1","65a3f461bfa22dde98c10436","1","2025-08-06T09:42:34.981Z","","","","","","","","","","","","","","","","win-only","3","g1:SW,g2:NE","0.4","9","0","796854.1","780.5","5790.4","47615.5","1","4","4","6","1","-1","-1","0","0","0","1359.6","3000","-2020","[""down"",""left""]","{""num_key_presses"":9,""num_perfect"":4,""num_errors"":0,""num_randdir"":5,""num_randdir_good_moves"":2,""num_whilered"":0,""num_whileblue"":0,""num_blue"":4,""num_good_moves"":6}","[291.22232142857143,297.12857142857143,0.7,291.22232142857143,297.12857142857143,101.3,291.22232142857143,297.12857142857143,203.9,291.22232142857143,297.12857142857143,307,291.22232142857143,297.12857142857143,409.7,291.22232142857143,297.12857142857143,522.9,289.22232142857143,300.12857142857143,625.9,279.22232142857143,313.12857142857143,741.1,167.22232142857143,445.12857142857143,849.4,138.22232142857143,479.12857142857143,952.8,114.22232142857143,515.1285714285714,1053.2,103.22232142857143,523.1285714285714,1153.4,72.22232142857143,542.1285714285714,1259.3,67.22232142857143,544.1285714285714,1370.7,67.22232142857143,544.1285714285714,1477.7,67.22232142857143,544.1285714285714,1582,67.22232142857143,544.1285714285714,1684.4,67.22232142857143,544.1285714285714,1788.5,67.22232142857143,544.1285714285714,1891,67.22232142857143,544.1285714285714,1995.8,67.22232142857143,544.1285714285714,2097.3,67.22232142857143,543.1285714285714,2202.3,67.22232142857143,542.1285714285714,2309.8,67.22232142857143,542.1285714285714,2414.8,67.22232142857143,542.1285714285714,2519,67.22232142857143,542.1285714285714,2622.6,67.22232142857143,542.1285714285714,2724,68.22232142857143,540.1285714285714,2824.4,70.22232142857143,538.1285714285714,2927.3,107.22232142857143,551.1285714285714,3028,107.22232142857143,555.1285714285714,3130.4,107.22232142857143,555.1285714285714,3232,107.22232142857143,555.1285714285714,3332.5,107.22232142857143,555.1285714285714,3437.1,107.22232142857143,555.1285714285714,3538,107.22232142857143,555.1285714285714,3646.6,107.22232142857143,555.1285714285714,3751.8,107.22232142857143,555.1285714285714,3854.4,107.22232142857143,555.1285714285714,3962.3,107.22232142857143,555.1285714285714,4063.8,107.22232142857143,555.1285714285714,4167.8,107.22232142857143,555.1285714285714,4268.1,107.22232142857143,555.1285714285714,4368.3,107.22232142857143,555.1285714285714,4472.3,107.22232142857143,555.1285714285714,4578.2,107.22232142857143,555.1285714285714,4678.4,107.22232142857143,555.1285714285714,4782.3,107.22232142857143,555.1285714285714,4883.6,107.22232142857143,555.1285714285714,4987.8]","[1346.1,1346.1,1000,0,346.1,""oops"",""down"",""left"",""good_move"",11041.4,9694.1,2214,8364.1,463.3,""oops"",""down"",""right"",""bad_move"",14219.9,3177.6,2519.7,11042.3,657.9,""oops"",""right"",""right"",""bad_move"",17475.8,3254.9,2909.3,14220.9,345.6,""smooth"",""down"",""down"",""good_move"",27796,10319.8,2581.8,24795.9,418.4,""smooth"",""down"",""down"",""good_move"",30706.5,2908.8,2221.1,27797.7,687.7,""oops"",""left"",""right"",""bad_move"",33531.6,2822.8,2197.4,30708.8,625.4,""oops"",""left"",""left"",""good_move"",35768.1,2235.9,1686.9,33532.2,549,""smooth"",""left"",""left"",""good_move"",39384.6,3610.9,3187.5,35773.7,423.4,""smooth"",""left"",""left"",""good_move""]"
"2186","","<div style=""width:500px;"">
  <p>What determined the result of this run?</p>
  </div>","14","html-slider-response","54","847345","0.0-7.0-1.8","164","1","2025-08-06 09:28:28","36c45c0696341be0efffe67d72a12abb","2.97.67.193","Mozilla/5.0 (X11; CrOS x86_64 14541.0.0) AppleWebKit/537.36 (KHTML, like Gecko) Chrome/138.0.0.0 Safari/537.36","WebKit","Chrome","138.0.0.0","ChromeOS","14541.0.0","https://app.prolific.com/","en-GB,en-US;q=0.9,en;q=0.8","65a3f461bfa22dde98c10436","687a1a965b9f5b85a264363e","6893201037c5d16c7ed8f274","1","65a3f461bfa22dde98c10436","1","2025-08-06T09:42:37.169Z","","","","AttribQ","","","","","","","","","","","50","","","","","","","","","","","","","","","","","","","","","","","","","","",""
"2111","","<div style=""width:500px;"">
  <p>How much control did you have over the ball?</p>
  </div>","14","html-slider-response","55","849458","0.0-7.0-2.8","164","1","2025-08-06 09:28:28","36c45c0696341be0efffe67d72a12abb","2.97.67.193","Mozilla/5.0 (X11; CrOS x86_64 14541.0.0) AppleWebKit/537.36 (KHTML, like Gecko) Chrome/138.0.0.0 Safari/537.36","WebKit","Chrome","138.0.0.0","ChromeOS","14541.0.0","https://app.prolific.com/","en-GB,en-US;q=0.9,en;q=0.8","65a3f461bfa22dde98c10436","687a1a965b9f5b85a264363e","6893201037c5d16c7ed8f274","1","65a3f461bfa22dde98c10436","1","2025-08-06T09:42:39.282Z","","","","ControlQ","","","","","","","","","","","50","","","","","","","","","","","","","","","","","","","","","","","","","","",""
"1562","","<div style=""width:500px;"">
  <p>How would you describe your current emotional state?</p>
  </div>","23","html-slider-response","56","851025","0.0-7.0-3.8","164","1","2025-08-06 09:28:28","36c45c0696341be0efffe67d72a12abb","2.97.67.193","Mozilla/5.0 (X11; CrOS x86_64 14541.0.0) AppleWebKit/537.36 (KHTML, like Gecko) Chrome/138.0.0.0 Safari/537.36","WebKit","Chrome","138.0.0.0","ChromeOS","14541.0.0","https://app.prolific.com/","en-GB,en-US;q=0.9,en;q=0.8","65a3f461bfa22dde98c10436","687a1a965b9f5b85a264363e","6893201037c5d16c7ed8f274","1","65a3f461bfa22dde98c10436","1","2025-08-06T09:42:40.849Z","","","","StressQ","","","","","","","","","","","50","","","","","","","","","","","","","","","","","","","","","","","","","","",""
"2558","","<div style=""width:500px;"">
  <p>What best describes how you currently feel?</p>
  </div>","70","html-slider-response","57","853585","0.0-7.0-4.8","164","1","2025-08-06 09:28:28","36c45c0696341be0efffe67d72a12abb","2.97.67.193","Mozilla/5.0 (X11; CrOS x86_64 14541.0.0) AppleWebKit/537.36 (KHTML, like Gecko) Chrome/138.0.0.0 Safari/537.36","WebKit","Chrome","138.0.0.0","ChromeOS","14541.0.0","https://app.prolific.com/","en-GB,en-US;q=0.9,en;q=0.8","65a3f461bfa22dde98c10436","687a1a965b9f5b85a264363e","6893201037c5d16c7ed8f274","1","65a3f461bfa22dde98c10436","1","2025-08-06T09:42:43.410Z","","","","MotivationQ","","","","","","","","","","","50","","","","","","","","","","","","","","","","","","","","","","","","","","",""
"","","","","ctl-task-cpt","58","914174","0.0-7.0-0.9","164","1","2025-08-06 09:28:28","36c45c0696341be0efffe67d72a12abb","2.97.67.193","Mozilla/5.0 (X11; CrOS x86_64 14541.0.0) AppleWebKit/537.36 (KHTML, like Gecko) Chrome/138.0.0.0 Safari/537.36","WebKit","Chrome","138.0.0.0","ChromeOS","14541.0.0","https://app.prolific.com/","en-GB,en-US;q=0.9,en;q=0.8","65a3f461bfa22dde98c10436","687a1a965b9f5b85a264363e","6893201037c5d16c7ed8f274","1","65a3f461bfa22dde98c10436","1","2025-08-06T09:43:43.998Z","","","","","","","","","","","","","","","","win-only","1","g1:NE,g2:SW","0.5","10","0","855918.2","1652.6","6666.1","57574.4","1","4","8","6","2","-8","-8","0","0","0","1336.1","3000","-1695","[""down"",""left""]","{""num_key_presses"":12,""num_perfect"":5,""num_errors"":0,""num_randdir"":7,""num_randdir_good_moves"":2,""num_whilered"":0,""num_whileblue"":0,""num_blue"":4,""num_good_moves"":7}","[294.22232142857143,299.12857142857143,3.2,294.22232142857143,299.12857142857143,100.3,294.22232142857143,299.12857142857143,201.5,294.22232142857143,299.12857142857143,307.3,294.22232142857143,299.12857142857143,409,294.22232142857143,299.12857142857143,519.3,294.22232142857143,299.12857142857143,624.1,316.22232142857143,276.12857142857143,731.4,335.22232142857143,253.12857142857143,838.8,265.22232142857143,355.12857142857143,942.9,150.22232142857143,478.12857142857143,1047.3,112.22232142857143,518.1285714285714,1147.9,75.22232142857143,539.1285714285714,1249.7,62.222321428571426,542.1285714285714,1350.6,62.222321428571426,542.1285714285714,1455.9,62.222321428571426,542.1285714285714,1556.2,62.222321428571426,542.1285714285714,1658.3,62.222321428571426,542.1285714285714,1762.4,62.222321428571426,542.1285714285714,1865.4,78.22232142857143,552.1285714285714,1965.8,79.22232142857143,553.1285714285714,2070.2,79.22232142857143,553.1285714285714,2171,79.22232142857143,553.1285714285714,2274.1,79.22232142857143,553.1285714285714,2375.7,79.22232142857143,553.1285714285714,2477.2,79.22232142857143,553.1285714285714,2579.9,79.22232142857143,553.1285714285714,2684.3,79.22232142857143,553.1285714285714,2785.7,79.22232142857143,553.1285714285714,2887.5,79.22232142857143,553.1285714285714,2992.5,79.22232142857143,553.1285714285714,3098.3,79.22232142857143,553.1285714285714,3198.8,79.22232142857143,553.1285714285714,3300.9,79.22232142857143,553.1285714285714,3406.5,79.22232142857143,553.1285714285714,3520.6,79.22232142857143,553.1285714285714,3622.4,79.22232142857143,553.1285714285714,3728.7,79.22232142857143,553.1285714285714,3839.7,79.22232142857143,553.1285714285714,3947.9,79.22232142857143,553.1285714285714,4049.8,79.22232142857143,553.1285714285714,4154.1,79.22232142857143,553.1285714285714,4256.2,79.22232142857143,553.1285714285714,4358.6,79.22232142857143,553.1285714285714,4464.8,79.22232142857143,553.1285714285714,4573,79.22232142857143,553.1285714285714,4676.1,79.22232142857143,553.1285714285714,4776.9,79.22232142857143,553.1285714285714,4883.8,79.22232142857143,553.1285714285714,4985.7]","[1363.5,1363.5,1000,0,363.5,""smooth"",""down"",""down"",""good_move"",7670.1,6305,2265.3,4925.8,479,""smooth"",""down"",""down"",""good_move"",11046.8,3375.4,2866.9,7671.4,508.5,""oops"",""down"",""down"",""good_move"",21944.7,10895.3,2542.6,19080,322.1,""smooth"",""left"",""left"",""good_move"",24984.1,3037,2680.8,21947.1,356.2,""smooth"",""left"",""left"",""good_move"",27313.2,2325.9,1968.5,24987.3,357.4,""oops"",""left"",""up"",""bad_move"",34297.6,6983.5,3039.4,30911.2,347,""oops"",""left"",""down"",""good_move"",37140.3,2841.9,2397.7,34298.4,444.2,""oops"",""left"",""up"",""bad_move"",39749.6,2608.8,1946.7,37140.8,662.2,""oops"",""left"",""up"",""bad_move"",43037.7,3286.1,2880.7,39751.6,405.5,""smooth"",""left"",""left"",""good_move"",45692.5,2654.2,2329.4,43038.3,324.8,""oops"",""down"",""up"",""bad_move"",48208.3,2513.8,2161.9,45694.5,351.9,""oops"",""down"",""right"",""bad_move""]"
"1697","","<div style=""width:500px;"">
  <p>What determined the result of this run?</p>
  </div>","1","html-slider-response","59","915873","0.0-7.0-1.9","164","1","2025-08-06 09:28:28","36c45c0696341be0efffe67d72a12abb","2.97.67.193","Mozilla/5.0 (X11; CrOS x86_64 14541.0.0) AppleWebKit/537.36 (KHTML, like Gecko) Chrome/138.0.0.0 Safari/537.36","WebKit","Chrome","138.0.0.0","ChromeOS","14541.0.0","https://app.prolific.com/","en-GB,en-US;q=0.9,en;q=0.8","65a3f461bfa22dde98c10436","687a1a965b9f5b85a264363e","6893201037c5d16c7ed8f274","1","65a3f461bfa22dde98c10436","1","2025-08-06T09:43:45.697Z","","","","AttribQ","","","","","","","","","","","50","","","","","","","","","","","","","","","","","","","","","","","","","","",""
"1870","","<div style=""width:500px;"">
  <p>How much control did you have over the ball?</p>
  </div>","1","html-slider-response","60","917746","0.0-7.0-2.9","164","1","2025-08-06 09:28:28","36c45c0696341be0efffe67d72a12abb","2.97.67.193","Mozilla/5.0 (X11; CrOS x86_64 14541.0.0) AppleWebKit/537.36 (KHTML, like Gecko) Chrome/138.0.0.0 Safari/537.36","WebKit","Chrome","138.0.0.0","ChromeOS","14541.0.0","https://app.prolific.com/","en-GB,en-US;q=0.9,en;q=0.8","65a3f461bfa22dde98c10436","687a1a965b9f5b85a264363e","6893201037c5d16c7ed8f274","1","65a3f461bfa22dde98c10436","1","2025-08-06T09:43:47.570Z","","","","ControlQ","","","","","","","","","","","50","","","","","","","","","","","","","","","","","","","","","","","","","","",""
"3454","","<div style=""width:500px;"">
  <p>How would you describe your current emotional state?</p>
  </div>","47","html-slider-response","61","921202","0.0-7.0-3.9","164","1","2025-08-06 09:28:28","36c45c0696341be0efffe67d72a12abb","2.97.67.193","Mozilla/5.0 (X11; CrOS x86_64 14541.0.0) AppleWebKit/537.36 (KHTML, like Gecko) Chrome/138.0.0.0 Safari/537.36","WebKit","Chrome","138.0.0.0","ChromeOS","14541.0.0","https://app.prolific.com/","en-GB,en-US;q=0.9,en;q=0.8","65a3f461bfa22dde98c10436","687a1a965b9f5b85a264363e","6893201037c5d16c7ed8f274","1","65a3f461bfa22dde98c10436","1","2025-08-06T09:43:51.026Z","","","","StressQ","","","","","","","","","","","50","","","","","","","","","","","","","","","","","","","","","","","","","","",""
"2932","","<div style=""width:500px;"">
  <p>What best describes how you currently feel?</p>
  </div>","43","html-slider-response","62","924137","0.0-7.0-4.9","164","1","2025-08-06 09:28:28","36c45c0696341be0efffe67d72a12abb","2.97.67.193","Mozilla/5.0 (X11; CrOS x86_64 14541.0.0) AppleWebKit/537.36 (KHTML, like Gecko) Chrome/138.0.0.0 Safari/537.36","WebKit","Chrome","138.0.0.0","ChromeOS","14541.0.0","https://app.prolific.com/","en-GB,en-US;q=0.9,en;q=0.8","65a3f461bfa22dde98c10436","687a1a965b9f5b85a264363e","6893201037c5d16c7ed8f274","1","65a3f461bfa22dde98c10436","1","2025-08-06T09:43:53.961Z","","","","MotivationQ","","","","","","","","","","","50","","","","","","","","","","","","","","","","","","","","","","","","","","",""
"","","","","ctl-task-cpt","63","964486","0.0-7.0-0.10","164","1","2025-08-06 09:28:28","36c45c0696341be0efffe67d72a12abb","2.97.67.193","Mozilla/5.0 (X11; CrOS x86_64 14541.0.0) AppleWebKit/537.36 (KHTML, like Gecko) Chrome/138.0.0.0 Safari/537.36","WebKit","Chrome","138.0.0.0","ChromeOS","14541.0.0","https://app.prolific.com/","en-GB,en-US;q=0.9,en;q=0.8","65a3f461bfa22dde98c10436","687a1a965b9f5b85a264363e","6893201037c5d16c7ed8f274","1","65a3f461bfa22dde98c10436","1","2025-08-06T09:44:34.310Z","","","","","","","","","","","","","","","","win-only","2","g1:SE,g2:NW","0.6","11","0","926469.7","892.4","5900.7","37331","1","4","8","6","1","1","1","1","0","0.007575757575757576","1344.1","3000","1165","[""down"",""right""]","{""num_key_presses"":6,""num_perfect"":4,""num_errors"":0,""num_randdir"":2,""num_randdir_good_moves"":1,""num_whilered"":0,""num_whileblue"":0,""num_blue"":4,""num_good_moves"":5}","[294.22232142857143,298.12857142857143,0.4,294.22232142857143,298.12857142857143,105.4,294.22232142857143,298.12857142857143,208.7,294.22232142857143,298.12857142857143,314.1,294.22232142857143,298.12857142857143,418.3,294.22232142857143,298.12857142857143,526,294.22232142857143,298.12857142857143,629.6,294.22232142857143,298.12857142857143,738,430.22232142857143,410.12857142857143,846.7,534.2223214285714,500.12857142857143,953.3,588.2223214285714,549.1285714285714,1061.4,590.2223214285714,552.1285714285714,1161.6,553.2223214285714,535.1285714285714,1272.4,553.2223214285714,535.1285714285714,1376.4,553.2223214285714,532.1285714285714,1478,553.2223214285714,527.1285714285714,1581,553.2223214285714,527.1285714285714,1687.3,553.2223214285714,527.1285714285714,1794.8,553.2223214285714,527.1285714285714,1897.8,553.2223214285714,527.1285714285714,2008.3,553.2223214285714,527.1285714285714,2109.7,553.2223214285714,527.1285714285714,2215.3,553.2223214285714,527.1285714285714,2320.4,553.2223214285714,527.1285714285714,2424.9,553.2223214285714,527.1285714285714,2528.6,553.2223214285714,527.1285714285714,2633.9,553.2223214285714,527.1285714285714,2734.2,553.2223214285714,527.1285714285714,2836.4,553.2223214285714,527.1285714285714,2944.8,553.2223214285714,527.1285714285714,3046.3,553.2223214285714,527.1285714285714,3154.8,553.2223214285714,527.1285714285714,3260.9,553.2223214285714,527.1285714285714,3362.8,553.2223214285714,527.1285714285714,3469.4,553.2223214285714,527.1285714285714,3570.5,553.2223214285714,527.1285714285714,3671.1,553.2223214285714,527.1285714285714,3772,553.2223214285714,527.1285714285714,3872.1,553.2223214285714,527.1285714285714,3985.5,553.2223214285714,527.1285714285714,4098,553.2223214285714,527.1285714285714,4208.5,553.2223214285714,527.1285714285714,4315,553.2223214285714,527.1285714285714,4426.5,553.2223214285714,527.1285714285714,4539.3,553.2223214285714,527.1285714285714,4643.6,553.2223214285714,527.1285714285714,4750.3,553.2223214285714,527.1285714285714,4859.9,553.2223214285714,527.1285714285714,4962.6]","[13186.6,13186.6,3115.7,9354.2,716.8,""smooth"",""right"",""right"",""good_move"",16483.7,3295.7,2867,13188,428.7,""smooth"",""right"",""right"",""good_move"",19492.3,3008.2,2656,16484.1,352.2,""oops"",""down"",""up"",""bad_move"",22801.9,3308.9,2705.6,19493,603.3,""smooth"",""down"",""down"",""good_move"",29406.7,6602.7,3441,25376.3,589.4,""oops"",""down"",""down"",""good_move"",31248.9,1841.6,1257.6,29407.3,584,""smooth"",""down"",""down"",""good_move""]"
"2753","","<div style=""width:500px;"">
  <p>What determined the result of this run?</p>
  </div>","39","html-slider-response","64","967241","0.0-7.0-1.10","164","1","2025-08-06 09:28:28","36c45c0696341be0efffe67d72a12abb","2.97.67.193","Mozilla/5.0 (X11; CrOS x86_64 14541.0.0) AppleWebKit/537.36 (KHTML, like Gecko) Chrome/138.0.0.0 Safari/537.36","WebKit","Chrome","138.0.0.0","ChromeOS","14541.0.0","https://app.prolific.com/","en-GB,en-US;q=0.9,en;q=0.8","65a3f461bfa22dde98c10436","687a1a965b9f5b85a264363e","6893201037c5d16c7ed8f274","1","65a3f461bfa22dde98c10436","1","2025-08-06T09:44:37.065Z","","","","AttribQ","","","","","","","","","","","50","","","","","","","","","","","","","","","","","","","","","","","","","","",""
"2806","","<div style=""width:500px;"">
  <p>How much control did you have over the ball?</p>
  </div>","45","html-slider-response","65","970050","0.0-7.0-2.10","164","1","2025-08-06 09:28:28","36c45c0696341be0efffe67d72a12abb","2.97.67.193","Mozilla/5.0 (X11; CrOS x86_64 14541.0.0) AppleWebKit/537.36 (KHTML, like Gecko) Chrome/138.0.0.0 Safari/537.36","WebKit","Chrome","138.0.0.0","ChromeOS","14541.0.0","https://app.prolific.com/","en-GB,en-US;q=0.9,en;q=0.8","65a3f461bfa22dde98c10436","687a1a965b9f5b85a264363e","6893201037c5d16c7ed8f274","1","65a3f461bfa22dde98c10436","1","2025-08-06T09:44:39.874Z","","","","ControlQ","","","","","","","","","","","50","","","","","","","","","","","","","","","","","","","","","","","","","","",""
"1606","","<div style=""width:500px;"">
  <p>How would you describe your current emotional state?</p>
  </div>","44","html-slider-response","66","971659","0.0-7.0-3.10","164","1","2025-08-06 09:28:28","36c45c0696341be0efffe67d72a12abb","2.97.67.193","Mozilla/5.0 (X11; CrOS x86_64 14541.0.0) AppleWebKit/537.36 (KHTML, like Gecko) Chrome/138.0.0.0 Safari/537.36","WebKit","Chrome","138.0.0.0","ChromeOS","14541.0.0","https://app.prolific.com/","en-GB,en-US;q=0.9,en;q=0.8","65a3f461bfa22dde98c10436","687a1a965b9f5b85a264363e","6893201037c5d16c7ed8f274","1","65a3f461bfa22dde98c10436","1","2025-08-06T09:44:41.483Z","","","","StressQ","","","","","","","","","","","50","","","","","","","","","","","","","","","","","","","","","","","","","","",""
"3540","","<div style=""width:500px;"">
  <p>What best describes how you currently feel?</p>
  </div>","64","html-slider-response","67","975201","0.0-7.0-4.10","164","1","2025-08-06 09:28:28","36c45c0696341be0efffe67d72a12abb","2.97.67.193","Mozilla/5.0 (X11; CrOS x86_64 14541.0.0) AppleWebKit/537.36 (KHTML, like Gecko) Chrome/138.0.0.0 Safari/537.36","WebKit","Chrome","138.0.0.0","ChromeOS","14541.0.0","https://app.prolific.com/","en-GB,en-US;q=0.9,en;q=0.8","65a3f461bfa22dde98c10436","687a1a965b9f5b85a264363e","6893201037c5d16c7ed8f274","1","65a3f461bfa22dde98c10436","1","2025-08-06T09:44:45.025Z","","","","MotivationQ","","","","","","","","","","","50","","","","","","","","","","","","","","","","","","","","","","","","","","",""
"","","","","ctl-task-cpt","68","1004192","0.0-7.0-0.11","164","1","2025-08-06 09:28:28","36c45c0696341be0efffe67d72a12abb","2.97.67.193","Mozilla/5.0 (X11; CrOS x86_64 14541.0.0) AppleWebKit/537.36 (KHTML, like Gecko) Chrome/138.0.0.0 Safari/537.36","WebKit","Chrome","138.0.0.0","ChromeOS","14541.0.0","https://app.prolific.com/","en-GB,en-US;q=0.9,en;q=0.8","65a3f461bfa22dde98c10436","687a1a965b9f5b85a264363e","6893201037c5d16c7ed8f274","1","65a3f461bfa22dde98c10436","1","2025-08-06T09:45:14.016Z","","","","","","","","","","","","","","","","win-only","2","g1:SE,g2:NW","0.7","12","0","977533.9","3484.5","8496.2","25976","1","4","4","6","1","1","1","2","1","0.015151515151515152","2297.5","3000","2195","[""down"",""right""]","{""num_key_presses"":4,""num_perfect"":3,""num_errors"":0,""num_randdir"":1,""num_randdir_good_moves"":1,""num_whilered"":0,""num_whileblue"":0,""num_blue"":2,""num_good_moves"":4}","[291.22232142857143,296.12857142857143,2,291.22232142857143,296.12857142857143,102.3,291.22232142857143,296.12857142857143,212.2,291.22232142857143,296.12857142857143,317.8,291.22232142857143,296.12857142857143,423,291.22232142857143,296.12857142857143,530.2,291.22232142857143,296.12857142857143,632.3,295.22232142857143,302.12857142857143,737.4,430.22232142857143,439.12857142857143,843,478.22232142857143,493.12857142857143,947.9,414.22232142857143,405.12857142857143,1052.6,222.22232142857143,217.12857142857143,1156.8,164.22232142857143,144.12857142857143,1270.4,121.22232142857143,105.12857142857143,1371.1,108.22232142857143,85.12857142857143,1474.1,103.22232142857143,71.12857142857143,1584.2,104.22232142857143,72.12857142857143,1684.5,672.2223214285714,538.1285714285714,1787.6,728.2223214285714,567.1285714285714,1887.6,691.2223214285714,571.1285714285714,1987.9,605.2223214285714,558.1285714285714,2097.7,574.2223214285714,552.1285714285714,2200.1,562.2223214285714,548.1285714285714,2304.7,562.2223214285714,548.1285714285714,2405.8,562.2223214285714,548.1285714285714,2507.6,562.2223214285714,548.1285714285714,2607.8,562.2223214285714,548.1285714285714,2708.5,562.2223214285714,548.1285714285714,2814.8,567.2223214285714,548.1285714285714,2921.8,567.2223214285714,549.1285714285714,3025.7,567.2223214285714,549.1285714285714,3130.3,568.2223214285714,550.1285714285714,3233.1,568.2223214285714,550.1285714285714,3334.2,568.2223214285714,550.1285714285714,3442.4,568.2223214285714,550.1285714285714,3548.4,568.2223214285714,550.1285714285714,3650.3,568.2223214285714,550.1285714285714,3759.9,568.2223214285714,550.1285714285714,3862.6,568.2223214285714,550.1285714285714,3966.6,568.2223214285714,550.1285714285714,4074.3,568.2223214285714,550.1285714285714,4177.7,568.2223214285714,550.1285714285714,4281.8,568.2223214285714,550.1285714285714,4391.9,568.2223214285714,550.1285714285714,4496.2,568.2223214285714,550.1285714285714,4599.5,568.2223214285714,550.1285714285714,4700.8,568.2223214285714,550.1285714285714,4803.8,568.2223214285714,550.1285714285714,4905.8]","[1390.1,1390.1,1000,0,390.1,""smooth"",""down"",""down"",""good_move"",4596.1,3205.3,2507.5,1390.8,697.8,""smooth"",""right"",""right"",""good_move"",7649.3,3050.4,2662.4,4598.9,388,""oops"",""down"",""right"",""good_move"",17334.1,9684.3,2596.7,14405.3,332.2,""smooth"",""down"",""down"",""good_move""]"
"2880","","<div style=""width:500px;"">
  <p>What determined the result of this run?</p>
  </div>","29","html-slider-response","69","1007074","0.0-7.0-1.11","164","1","2025-08-06 09:28:28","36c45c0696341be0efffe67d72a12abb","2.97.67.193","Mozilla/5.0 (X11; CrOS x86_64 14541.0.0) AppleWebKit/537.36 (KHTML, like Gecko) Chrome/138.0.0.0 Safari/537.36","WebKit","Chrome","138.0.0.0","ChromeOS","14541.0.0","https://app.prolific.com/","en-GB,en-US;q=0.9,en;q=0.8","65a3f461bfa22dde98c10436","687a1a965b9f5b85a264363e","6893201037c5d16c7ed8f274","1","65a3f461bfa22dde98c10436","1","2025-08-06T09:45:16.898Z","","","","AttribQ","","","","","","","","","","","50","","","","","","","","","","","","","","","","","","","","","","","","","","",""
"2836","","<div style=""width:500px;"">
  <p>How much control did you have over the ball?</p>
  </div>","47","html-slider-response","70","1009913","0.0-7.0-2.11","164","1","2025-08-06 09:28:28","36c45c0696341be0efffe67d72a12abb","2.97.67.193","Mozilla/5.0 (X11; CrOS x86_64 14541.0.0) AppleWebKit/537.36 (KHTML, like Gecko) Chrome/138.0.0.0 Safari/537.36","WebKit","Chrome","138.0.0.0","ChromeOS","14541.0.0","https://app.prolific.com/","en-GB,en-US;q=0.9,en;q=0.8","65a3f461bfa22dde98c10436","687a1a965b9f5b85a264363e","6893201037c5d16c7ed8f274","1","65a3f461bfa22dde98c10436","1","2025-08-06T09:45:19.737Z","","","","ControlQ","","","","","","","","","","","50","","","","","","","","","","","","","","","","","","","","","","","","","","",""
"2374","","<div style=""width:500px;"">
  <p>How would you describe your current emotional state?</p>
  </div>","45","html-slider-response","71","1012289","0.0-7.0-3.11","164","1","2025-08-06 09:28:28","36c45c0696341be0efffe67d72a12abb","2.97.67.193","Mozilla/5.0 (X11; CrOS x86_64 14541.0.0) AppleWebKit/537.36 (KHTML, like Gecko) Chrome/138.0.0.0 Safari/537.36","WebKit","Chrome","138.0.0.0","ChromeOS","14541.0.0","https://app.prolific.com/","en-GB,en-US;q=0.9,en;q=0.8","65a3f461bfa22dde98c10436","687a1a965b9f5b85a264363e","6893201037c5d16c7ed8f274","1","65a3f461bfa22dde98c10436","1","2025-08-06T09:45:22.114Z","","","","StressQ","","","","","","","","","","","50","","","","","","","","","","","","","","","","","","","","","","","","","","",""
"1798","","<div style=""width:500px;"">
  <p>What best describes how you currently feel?</p>
  </div>","59","html-slider-response","72","1014089","0.0-7.0-4.11","164","1","2025-08-06 09:28:28","36c45c0696341be0efffe67d72a12abb","2.97.67.193","Mozilla/5.0 (X11; CrOS x86_64 14541.0.0) AppleWebKit/537.36 (KHTML, like Gecko) Chrome/138.0.0.0 Safari/537.36","WebKit","Chrome","138.0.0.0","ChromeOS","14541.0.0","https://app.prolific.com/","en-GB,en-US;q=0.9,en;q=0.8","65a3f461bfa22dde98c10436","687a1a965b9f5b85a264363e","6893201037c5d16c7ed8f274","1","65a3f461bfa22dde98c10436","1","2025-08-06T09:45:23.913Z","","","","MotivationQ","","","","","","","","","","","50","","","","","","","","","","","","","","","","","","","","","","","","","","",""
"","","","","ctl-task-cpt","73","1056893","0.0-7.0-0.12","164","1","2025-08-06 09:28:28","36c45c0696341be0efffe67d72a12abb","2.97.67.193","Mozilla/5.0 (X11; CrOS x86_64 14541.0.0) AppleWebKit/537.36 (KHTML, like Gecko) Chrome/138.0.0.0 Safari/537.36","WebKit","Chrome","138.0.0.0","ChromeOS","14541.0.0","https://app.prolific.com/","en-GB,en-US;q=0.9,en;q=0.8","65a3f461bfa22dde98c10436","687a1a965b9f5b85a264363e","6893201037c5d16c7ed8f274","1","65a3f461bfa22dde98c10436","1","2025-08-06T09:46:06.717Z","","","","","","","","","","","","","","","","win-only","0","g1:NW,g2:SE","0.8","13","0","1016422.2","1372.6","6390.9","39786.9","1","4","4","6","2","4","4","6","2","0.045454545454545456","1248.1","3000","1790","[""down"",""right""]","{""num_key_presses"":8,""num_perfect"":7,""num_errors"":0,""num_randdir"":1,""num_randdir_good_moves"":0,""num_whilered"":0,""num_whileblue"":0,""num_blue"":3,""num_good_moves"":7}","[298.22232142857143,300.12857142857143,1.1,298.22232142857143,300.12857142857143,101.4,298.22232142857143,300.12857142857143,210.5,298.22232142857143,300.12857142857143,318.3,298.22232142857143,300.12857142857143,420.3,298.22232142857143,300.12857142857143,524.4,298.22232142857143,300.12857142857143,624.7,356.22232142857143,353.12857142857143,725.3,375.22232142857143,374.12857142857143,826.6,489.22232142857143,525.1285714285714,927.6,539.2223214285714,597.1285714285714,1036,545.2223214285714,577.1285714285714,1149.7,548.2223214285714,566.1285714285714,1270.8,548.2223214285714,566.1285714285714,1374.2,549.2223214285714,565.1285714285714,1476.1,553.2223214285714,554.1285714285714,1585.8,559.2223214285714,550.1285714285714,1693,560.2223214285714,551.1285714285714,1800.5,560.2223214285714,551.1285714285714,1907.8,560.2223214285714,551.1285714285714,2013.2,560.2223214285714,551.1285714285714,2127.8,560.2223214285714,551.1285714285714,2236.4,560.2223214285714,551.1285714285714,2337.2,560.2223214285714,551.1285714285714,2447,560.2223214285714,551.1285714285714,2551.8,560.2223214285714,551.1285714285714,2664.6,560.2223214285714,551.1285714285714,2770.3,560.2223214285714,551.1285714285714,2876,560.2223214285714,551.1285714285714,2983.2,560.2223214285714,551.1285714285714,3089.2,560.2223214285714,551.1285714285714,3202.3,560.2223214285714,551.1285714285714,3302.7,560.2223214285714,551.1285714285714,3418.4,560.2223214285714,551.1285714285714,3532.8,560.2223214285714,551.1285714285714,3636.9,560.2223214285714,551.1285714285714,3744.2,560.2223214285714,551.1285714285714,3852.8,560.2223214285714,551.1285714285714,3964.1,560.2223214285714,551.1285714285714,4073.4,560.2223214285714,551.1285714285714,4174,560.2223214285714,551.1285714285714,4276.8,560.2223214285714,551.1285714285714,4386.8,560.2223214285714,551.1285714285714,4500.7,560.2223214285714,551.1285714285714,4606.5,560.2223214285714,551.1285714285714,4710.1,560.2223214285714,551.1285714285714,4822.5,560.2223214285714,551.1285714285714,4928.5]","[1574.9,1574.9,1000,0,574.9,""smooth"",""down"",""down"",""good_move"",4209.1,2632.4,2237.7,1576.7,394.7,""smooth"",""right"",""right"",""good_move"",7505.1,3294.7,2829.2,4210.4,465.5,""smooth"",""down"",""down"",""good_move"",13870.3,6364.7,2595.7,10791.1,483.5,""smooth"",""right"",""right"",""good_move"",16835.7,2965.1,2416.1,13870.6,549,""oops"",""down"",""up"",""bad_move"",27866.8,11030.5,3071.8,24373.5,421.5,""smooth"",""right"",""right"",""good_move"",30139.6,2271.7,1760,27867.9,511.7,""smooth"",""down"",""down"",""good_move"",33047.2,2904.9,2501.6,30142.3,403.3,""smooth"",""down"",""down"",""good_move""]"
"1890","","<div style=""width:500px;"">
  <p>What determined the result of this run?</p>
  </div>","44","html-slider-response","74","1058785","0.0-7.0-1.12","164","1","2025-08-06 09:28:28","36c45c0696341be0efffe67d72a12abb","2.97.67.193","Mozilla/5.0 (X11; CrOS x86_64 14541.0.0) AppleWebKit/537.36 (KHTML, like Gecko) Chrome/138.0.0.0 Safari/537.36","WebKit","Chrome","138.0.0.0","ChromeOS","14541.0.0","https://app.prolific.com/","en-GB,en-US;q=0.9,en;q=0.8","65a3f461bfa22dde98c10436","687a1a965b9f5b85a264363e","6893201037c5d16c7ed8f274","1","65a3f461bfa22dde98c10436","1","2025-08-06T09:46:08.609Z","","","","AttribQ","","","","","","","","","","","50","","","","","","","","","","","","","","","","","","","","","","","","","","",""
"1933","","<div style=""width:500px;"">
  <p>How much control did you have over the ball?</p>
  </div>","57","html-slider-response","75","1060722","0.0-7.0-2.12","164","1","2025-08-06 09:28:28","36c45c0696341be0efffe67d72a12abb","2.97.67.193","Mozilla/5.0 (X11; CrOS x86_64 14541.0.0) AppleWebKit/537.36 (KHTML, like Gecko) Chrome/138.0.0.0 Safari/537.36","WebKit","Chrome","138.0.0.0","ChromeOS","14541.0.0","https://app.prolific.com/","en-GB,en-US;q=0.9,en;q=0.8","65a3f461bfa22dde98c10436","687a1a965b9f5b85a264363e","6893201037c5d16c7ed8f274","1","65a3f461bfa22dde98c10436","1","2025-08-06T09:46:10.546Z","","","","ControlQ","","","","","","","","","","","50","","","","","","","","","","","","","","","","","","","","","","","","","","",""
"1629","","<div style=""width:500px;"">
  <p>How would you describe your current emotional state?</p>
  </div>","43","html-slider-response","76","1062353","0.0-7.0-3.12","164","1","2025-08-06 09:28:28","36c45c0696341be0efffe67d72a12abb","2.97.67.193","Mozilla/5.0 (X11; CrOS x86_64 14541.0.0) AppleWebKit/537.36 (KHTML, like Gecko) Chrome/138.0.0.0 Safari/537.36","WebKit","Chrome","138.0.0.0","ChromeOS","14541.0.0","https://app.prolific.com/","en-GB,en-US;q=0.9,en;q=0.8","65a3f461bfa22dde98c10436","687a1a965b9f5b85a264363e","6893201037c5d16c7ed8f274","1","65a3f461bfa22dde98c10436","1","2025-08-06T09:46:12.177Z","","","","StressQ","","","","","","","","","","","50","","","","","","","","","","","","","","","","","","","","","","","","","","",""
"1618","","<div style=""width:500px;"">
  <p>What best describes how you currently feel?</p>
  </div>","58","html-slider-response","77","1063973","0.0-7.0-4.12","164","1","2025-08-06 09:28:28","36c45c0696341be0efffe67d72a12abb","2.97.67.193","Mozilla/5.0 (X11; CrOS x86_64 14541.0.0) AppleWebKit/537.36 (KHTML, like Gecko) Chrome/138.0.0.0 Safari/537.36","WebKit","Chrome","138.0.0.0","ChromeOS","14541.0.0","https://app.prolific.com/","en-GB,en-US;q=0.9,en;q=0.8","65a3f461bfa22dde98c10436","687a1a965b9f5b85a264363e","6893201037c5d16c7ed8f274","1","65a3f461bfa22dde98c10436","1","2025-08-06T09:46:13.798Z","","","","MotivationQ","","","","","","","","","","","50","","","","","","","","","","","","","","","","","","","","","","","","","","",""
