"rt","response_timestamp","stimulus","response","trial_type","trial_index","time_elapsed","internal_node_id","run_id","condition","recorded_at","source_code_version","ip","user_agent","device","browser","browser_version","platform","platform_version","referer","accept_language","PROLIFIC_PID","STUDY_ID","SESSION_ID","BATCH","prolific_id","batch","realtime","success","question_order","question_id","eventType","responses","item_order","radio_event_ids","radio_event_times","key_event_times","mouse_event_times","straightlining","zigzagging","honeypot","view_history","slider_start","which_type","canvas_config","goals_layout","control_level","trial_number","tutorial_trial_number","trial_start_time","phase1_start_time","phase2_start_time","phase3_start_time","goal_1_value","goal_1_distance","goal_2_value","goal_2_distance","goal_selected","outcome","outcome_total","participant_final_score","participant_initial_score","participant_final_score_prop","goal_choice_rt","allocated_time","allocated_time_remaining","goal_direction","counts","mouse_movements","key_presses"
"2018","1753865595420","<p style='font-size:40px;line-height:1.25'><strong>Welcome to the experiment!</strong></p><p style='font-size:1.1em;line-height:1.25'>Thank you for participanting in our experiment again! You will be asked to play the Dysfunctional Ball Game again. We will briefly recap the rules before we start.</p><p style='font-size:1.1em;line-height:1.25'>Press <strong>Next</strong> to continue.</p>","0","custom-html-button-response","0","2024","0.0-0.0","64","1","2025-07-30 08:53:10","36c45c0696341be0efffe67d72a12abb","23.17.128.84","Mozilla/5.0 (Windows NT 10.0; Win64; x64; rv:141.0) Gecko/20100101 Firefox/141.0","","Firefox","141.0","Windows","10.0","https://app.prolific.com/","en-US,en;q=0.5","65a4a7343830fdcc679739e0","687a19d2168e237449fb8af4","6889dd356561f65154762160","0","65a4a7343830fdcc679739e0","0","2025-07-30T08:53:15.421Z","","","","","","","","","","","","","","","","","","","","","","","","","","","","","","","","","","","","","","","","","",""
"2868","","","","fullscreen","1","5900","0.0-1.0","64","1","2025-07-30 08:53:10","36c45c0696341be0efffe67d72a12abb","23.17.128.84","Mozilla/5.0 (Windows NT 10.0; Win64; x64; rv:141.0) Gecko/20100101 Firefox/141.0","","Firefox","141.0","Windows","10.0","https://app.prolific.com/","en-US,en;q=0.5","65a4a7343830fdcc679739e0","687a19d2168e237449fb8af4","6889dd356561f65154762160","0","65a4a7343830fdcc679739e0","0","","true","","","","","","","","","","","","","","","","","","","","","","","","","","","","","","","","","","","","","","","","",""
"4595","1753865603892"," <p style='font-size:1.1em;line-height:1.25'>Thank you for closing all other tabs.</p><p style='font-size:1.1em;line-height:1.25'>We will now invite you to fill in some questionnaires, before starting the game.<br>This will take about 5 minutes.<br></p><p style='font-size:1.1em;line-height:1.25'>Press the <strong>Next</strong> button to continue.</p>","0","custom-html-button-response","2","10495","0.0-2.0","64","1","2025-07-30 08:53:10","36c45c0696341be0efffe67d72a12abb","23.17.128.84","Mozilla/5.0 (Windows NT 10.0; Win64; x64; rv:141.0) Gecko/20100101 Firefox/141.0","","Firefox","141.0","Windows","10.0","https://app.prolific.com/","en-US,en;q=0.5","65a4a7343830fdcc679739e0","687a19d2168e237449fb8af4","6889dd356561f65154762160","0","65a4a7343830fdcc679739e0","0","2025-07-30T08:53:23.892Z","","","","","","","","","","","","","","","","","","","","","","","","","","","","","","","","","","","","","","","","","",""
"3107","","","{""assigned_sex"":""male""}","survey-multi-choice","3","13604","0.0-3.0-0.0","64","1","2025-07-30 08:53:10","36c45c0696341be0efffe67d72a12abb","23.17.128.84","Mozilla/5.0 (Windows NT 10.0; Win64; x64; rv:141.0) Gecko/20100101 Firefox/141.0","","Firefox","141.0","Windows","10.0","https://app.prolific.com/","en-US,en;q=0.5","65a4a7343830fdcc679739e0","687a19d2168e237449fb8af4","6889dd356561f65154762160","0","65a4a7343830fdcc679739e0","0","","","[0]","0","demographics","","","","","","","","","","","","","","","","","","","","","","","","","","","","","","","","","","","","","",""
"1126","1753865608129","<p style='font-size:1.1em;line-height:1.25'>In the following, we will perform a baseline assessment. This means that we will ask you a few questions relating to your experiences over the past month.<br></p><p style='font-size:1.1em;line-height:1.25'>Press the <strong>Next</strong> button to continue.</p>","0","custom-html-button-response","4","14732","0.0-4.0-0.0","64","1","2025-07-30 08:53:10","36c45c0696341be0efffe67d72a12abb","23.17.128.84","Mozilla/5.0 (Windows NT 10.0; Win64; x64; rv:141.0) Gecko/20100101 Firefox/141.0","","Firefox","141.0","Windows","10.0","https://app.prolific.com/","en-US,en;q=0.5","65a4a7343830fdcc679739e0","687a19d2168e237449fb8af4","6889dd356561f65154762160","0","65a4a7343830fdcc679739e0","0","2025-07-30T08:53:28.129Z","","","","","","","","","","","","","","","","","","","","","","","","","","","","","","","","","","","","","","","","","",""
"58102","","","","survey-template","5","72835","0.0-4.0-1.0","64","1","2025-07-30 08:53:10","36c45c0696341be0efffe67d72a12abb","23.17.128.84","Mozilla/5.0 (Windows NT 10.0; Win64; x64; rv:141.0) Gecko/20100101 Firefox/141.0","","Firefox","141.0","Windows","10.0","https://app.prolific.com/","en-US,en;q=0.5","65a4a7343830fdcc679739e0","687a19d2168e237449fb8af4","6889dd356561f65154762160","0","65a4a7343830fdcc679739e0","0","2025-07-30T08:54:26.232Z","","","","pss","{""Q01"":""2"",""Q02"":""2"",""Q03"":""2"",""Q04"":""2"",""Q05"":""2"",""Q06"":""2"",""Q07"":""1"",""Q08"":""3"",""Q09"":""1"",""Q10"":""2""}","[0,1,2,3,4,5,6,7,8,9]","[""Q01"",""Q02"",""Q03"",""Q04"",""Q05"",""Q06"",""Q07"",""Q08"",""Q09"",""Q10""]","[10937,14388,16233,19366,22035,30441,31259,47043,53762,57577]","[]","[1,10937,14388,16233,19366,22035,28649,30441,31259,46062,46579,47043,53762,57577,58102]","0.7","0.2222222222222222","0","","","","","","","","","","","","","","","","","","","","","","","","","","","","",""
"1297","1753865667530","<p style='font-size:1.1em;line-height:1.25'>Thank you for your answers! Now we will ask you a few more questions relating to your feelings in the last 24 hours.<br></p><p style='font-size:1.1em;line-height:1.25'>Press the <strong>Next</strong> button to continue.</p>","0","custom-html-button-response","6","74133","0.0-4.0-2.0","64","1","2025-07-30 08:53:10","36c45c0696341be0efffe67d72a12abb","23.17.128.84","Mozilla/5.0 (Windows NT 10.0; Win64; x64; rv:141.0) Gecko/20100101 Firefox/141.0","","Firefox","141.0","Windows","10.0","https://app.prolific.com/","en-US,en;q=0.5","65a4a7343830fdcc679739e0","687a19d2168e237449fb8af4","6889dd356561f65154762160","0","65a4a7343830fdcc679739e0","0","2025-07-30T08:54:27.530Z","","","","","","","","","","","","","","","","","","","","","","","","","","","","","","","","","","","","","","","","","",""
"61138","","","","survey-template","7","135275","0.0-4.0-3.0","64","1","2025-07-30 08:53:10","36c45c0696341be0efffe67d72a12abb","23.17.128.84","Mozilla/5.0 (Windows NT 10.0; Win64; x64; rv:141.0) Gecko/20100101 Firefox/141.0","","Firefox","141.0","Windows","10.0","https://app.prolific.com/","en-US,en;q=0.5","65a4a7343830fdcc679739e0","687a19d2168e237449fb8af4","6889dd356561f65154762160","0","65a4a7343830fdcc679739e0","0","2025-07-30T08:55:28.672Z","","","","drsp","{""Q01"":""2"",""Q02"":""2"",""Q03"":""2"",""Q04"":""2"",""Q05"":""1"",""Q06"":""1"",""Q07"":""1"",""Q08"":""0"",""Q09"":""2"",""Q10"":""1"",""Q11"":""2"",""Q12"":""3"",""Q13"":""5"",""Q14"":""3"",""Q15"":""3"",""Q16"":""1"",""Q17"":""3"",""Q18"":""3"",""Q19"":""1"",""Q20"":""2"",""Q21"":""1"",""Q22"":""1""}","[0,1,2,3,4,5,6,7,8,9,10,11,12,13,14,15,16,17,18,19,20,21]","[""Q01"",""Q01"",""Q02"",""Q03"",""Q04"",""Q05"",""Q06"",""Q07"",""Q08"",""Q09"",""Q10"",""Q11"",""Q12"",""Q13"",""Q14"",""Q15"",""Q16"",""Q17"",""Q18"",""Q19"",""Q19"",""Q20"",""Q21"",""Q22""]","[5394,6328,8014,9132,10514,12976,19246,20739,22444,24935,26599,28329,29515,31469,34145,36063,38321,40111,41334,43319,44818,53856,56498,60551]","[]","[0,5394,6328,8014,9132,10514,12976,19246,20739,22444,24935,26599,28329,29515,31469,34145,36063,38321,40111,41334,43319,44818,53856,56498,60551,61138]","0.36363636363636365","0.3333333333333333","0","","","","","","","","","","","","","","","","","","","","","","","","","","","","",""
"9964","","","","survey-template","8","145241","0.0-4.0-4.0","64","1","2025-07-30 08:53:10","36c45c0696341be0efffe67d72a12abb","23.17.128.84","Mozilla/5.0 (Windows NT 10.0; Win64; x64; rv:141.0) Gecko/20100101 Firefox/141.0","","Firefox","141.0","Windows","10.0","https://app.prolific.com/","en-US,en;q=0.5","65a4a7343830fdcc679739e0","687a19d2168e237449fb8af4","6889dd356561f65154762160","0","65a4a7343830fdcc679739e0","0","2025-07-30T08:55:38.638Z","","","","stress","{""Q01"":""2"",""Q02"":""3"",""Q03"":""3""}","[0,1,2]","[""Q01"",""Q02"",""Q03""]","[4449,7109,9504]","[]","[4449,7109,9504,9964]","0.6666666666666666","0.5","0","","","","","","","","","","","","","","","","","","","","","","","","","","","","",""
"3853","","","","instructions","9","149094","0.0-5.0-0.0","64","1","2025-07-30 08:53:10","36c45c0696341be0efffe67d72a12abb","23.17.128.84","Mozilla/5.0 (Windows NT 10.0; Win64; x64; rv:141.0) Gecko/20100101 Firefox/141.0","","Firefox","141.0","Windows","10.0","https://app.prolific.com/","en-US,en;q=0.5","65a4a7343830fdcc679739e0","687a19d2168e237449fb8af4","6889dd356561f65154762160","0","65a4a7343830fdcc679739e0","0","","","","","","","","","","","","","","","[{""page_index"":0,""viewing_time"":3853}]","","","","","","","","","","","","","","","","","","","","","","","","","","","",""
"7869","","<p>Before you start with this game please answer the following three questions yourself. </p>
  <p>Through this game, we measure several aspects of your cognitive performance, such as reaction times, multi-tasking capabilities </p>
  <p>and the ability to assess the situation you are in.</p>
  <p></p>
  <p><b>How good do you usually are in such tasks?</b></p>","100","html-slider-response","10","156964","0.0-6.0-0.0","64","1","2025-07-30 08:53:10","36c45c0696341be0efffe67d72a12abb","23.17.128.84","Mozilla/5.0 (Windows NT 10.0; Win64; x64; rv:141.0) Gecko/20100101 Firefox/141.0","","Firefox","141.0","Windows","10.0","https://app.prolific.com/","en-US,en;q=0.5","65a4a7343830fdcc679739e0","687a19d2168e237449fb8af4","6889dd356561f65154762160","0","65a4a7343830fdcc679739e0","0","2025-07-30T08:55:50.361Z","","","","PreSkillQ","","","","","","","","","","","50","","","","","","","","","","","","","","","","","","","","","","","","","","",""
"8987","","<div style=""width:500px;"">
  <p>How well do you think you will perform in this task compared to other participants?</p>
  </div>","58","html-slider-response","11","165954","0.0-6.0-1.0","64","1","2025-07-30 08:53:10","36c45c0696341be0efffe67d72a12abb","23.17.128.84","Mozilla/5.0 (Windows NT 10.0; Win64; x64; rv:141.0) Gecko/20100101 Firefox/141.0","","Firefox","141.0","Windows","10.0","https://app.prolific.com/","en-US,en;q=0.5","65a4a7343830fdcc679739e0","687a19d2168e237449fb8af4","6889dd356561f65154762160","0","65a4a7343830fdcc679739e0","0","2025-07-30T08:55:59.351Z","","","","PrePerfQ","","","","","","","","","","","50","","","","","","","","","","","","","","","","","","","","","","","","","","",""
"3661","","<div style=""width:500px;"">
  <p>What best describes how you currently feel?</p>
  </div>","34","html-slider-response","12","169615","0.0-6.0-2.0","64","1","2025-07-30 08:53:10","36c45c0696341be0efffe67d72a12abb","23.17.128.84","Mozilla/5.0 (Windows NT 10.0; Win64; x64; rv:141.0) Gecko/20100101 Firefox/141.0","","Firefox","141.0","Windows","10.0","https://app.prolific.com/","en-US,en;q=0.5","65a4a7343830fdcc679739e0","687a19d2168e237449fb8af4","6889dd356561f65154762160","0","65a4a7343830fdcc679739e0","0","2025-07-30T08:56:03.012Z","","","","PreMotivationQ","","","","","","","","","","","50","","","","","","","","","","","","","","","","","","","","","","","","","","",""
"","","","","ctl-task-cpt","13","192962","0.0-7.0-0.0","64","1","2025-07-30 08:53:10","36c45c0696341be0efffe67d72a12abb","23.17.128.84","Mozilla/5.0 (Windows NT 10.0; Win64; x64; rv:141.0) Gecko/20100101 Firefox/141.0","","Firefox","141.0","Windows","10.0","https://app.prolific.com/","en-US,en;q=0.5","65a4a7343830fdcc679739e0","687a19d2168e237449fb8af4","6889dd356561f65154762160","0","65a4a7343830fdcc679739e0","0","2025-07-30T08:56:26.359Z","","","","","","","","","","","","","","","","win-only","3","g1:SW,g2:NE","1","1","0","173151","1667","6668","20343","1","4","8","6","1","1","0","0","0","0","2098","3000","2560","[""down"",""left""]","{""num_key_presses"":5,""num_perfect"":4,""num_errors"":1,""num_randdir"":0,""num_randdir_good_moves"":0,""num_whilered"":0,""num_whileblue"":0,""num_blue"":0,""num_good_moves"":4}","[412.57142857142856,415.27142551967074,0,412.57142857142856,415.27142551967074,102,412.57142857142856,415.27142551967074,210,445.57142857142856,427.27142551967074,319,458.57142857142856,431.27142551967074,428,458.57142857142856,431.27142551967074,536,458.57142857142856,431.27142551967074,646,458.57142857142856,431.27142551967074,755,458.57142857142856,431.27142551967074,864,458.57142857142856,431.27142551967074,972,458.57142857142856,431.27142551967074,1081,458.57142857142856,431.27142551967074,1190,458.57142857142856,431.27142551967074,1300,458.57142857142856,431.27142551967074,1409,446.57142857142856,447.27142551967074,1516,269.57142857142856,631.2714255196707,1626,113.57142857142857,738.2714255196707,1735,98.57142857142857,755.2714255196707,1844,98.57142857142857,755.2714255196707,1952,98.57142857142857,755.2714255196707,2062,98.57142857142857,755.2714255196707,2170,99.57142857142857,755.2714255196707,2280,230.57142857142856,719.2714255196707,2388,387.57142857142856,615.2714255196707,2497,390.57142857142856,591.2714255196707,2606,415.57142857142856,535.2714255196707,2714,508.57142857142856,491.27142551967074,2824,647.5714285714286,466.27142551967074,2932,648.5714285714286,466.27142551967074,3042,648.5714285714286,466.27142551967074,3150,648.5714285714286,466.27142551967074,3260,648.5714285714286,466.27142551967074,3367,804.5714285714286,462.27142551967074,3477,943.5714285714286,443.27142551967074,3586,944.5714285714286,443.27142551967074,3695,944.5714285714286,443.27142551967074,3803,944.5714285714286,443.27142551967074,3912,944.5714285714286,443.27142551967074,4022,944.5714285714286,443.27142551967074,4131,944.5714285714286,443.27142551967074,4239,944.5714285714286,443.27142551967074,4348,944.5714285714286,443.27142551967074,4457,944.5714285714286,443.27142551967074,4566,944.5714285714286,443.27142551967074,4675,944.5714285714286,443.27142551967074,4784,944.5714285714286,443.27142551967074,4893]","[906,906,1000,0,-94,""error"",""-"",""-"",""no_move"",5243,4337,2923.2,1915,404.8,""smooth"",""down"",""down"",""good_move"",8027,2784,2402.2,5243,381.8,""smooth"",""left"",""left"",""good_move"",10971,2944,1608.1,8027,1335.9,""smooth"",""down"",""down"",""good_move"",13387,2416,2067.2,10971,348.8,""smooth"",""left"",""left"",""good_move""]"
"3463","","<div style=""width:500px;"">
  <p>What determined the result of this run?</p>
  </div>","100","html-slider-response","14","196425","0.0-7.0-1.0","64","1","2025-07-30 08:53:10","36c45c0696341be0efffe67d72a12abb","23.17.128.84","Mozilla/5.0 (Windows NT 10.0; Win64; x64; rv:141.0) Gecko/20100101 Firefox/141.0","","Firefox","141.0","Windows","10.0","https://app.prolific.com/","en-US,en;q=0.5","65a4a7343830fdcc679739e0","687a19d2168e237449fb8af4","6889dd356561f65154762160","0","65a4a7343830fdcc679739e0","0","2025-07-30T08:56:29.822Z","","","","AttribQ","","","","","","","","","","","50","","","","","","","","","","","","","","","","","","","","","","","","","","",""
"2049","","<div style=""width:500px;"">
  <p>How much control did you have over the ball?</p>
  </div>","100","html-slider-response","15","198475","0.0-7.0-2.0","64","1","2025-07-30 08:53:10","36c45c0696341be0efffe67d72a12abb","23.17.128.84","Mozilla/5.0 (Windows NT 10.0; Win64; x64; rv:141.0) Gecko/20100101 Firefox/141.0","","Firefox","141.0","Windows","10.0","https://app.prolific.com/","en-US,en;q=0.5","65a4a7343830fdcc679739e0","687a19d2168e237449fb8af4","6889dd356561f65154762160","0","65a4a7343830fdcc679739e0","0","2025-07-30T08:56:31.873Z","","","","ControlQ","","","","","","","","","","","50","","","","","","","","","","","","","","","","","","","","","","","","","","",""
"2676","","<div style=""width:500px;"">
  <p>How would you describe your current emotional state?</p>
  </div>","0","html-slider-response","16","201152","0.0-7.0-3.0","64","1","2025-07-30 08:53:10","36c45c0696341be0efffe67d72a12abb","23.17.128.84","Mozilla/5.0 (Windows NT 10.0; Win64; x64; rv:141.0) Gecko/20100101 Firefox/141.0","","Firefox","141.0","Windows","10.0","https://app.prolific.com/","en-US,en;q=0.5","65a4a7343830fdcc679739e0","687a19d2168e237449fb8af4","6889dd356561f65154762160","0","65a4a7343830fdcc679739e0","0","2025-07-30T08:56:34.549Z","","","","StressQ","","","","","","","","","","","50","","","","","","","","","","","","","","","","","","","","","","","","","","",""
"4733","","<div style=""width:500px;"">
  <p>What best describes how you currently feel?</p>
  </div>","0","html-slider-response","17","205886","0.0-7.0-4.0","64","1","2025-07-30 08:53:10","36c45c0696341be0efffe67d72a12abb","23.17.128.84","Mozilla/5.0 (Windows NT 10.0; Win64; x64; rv:141.0) Gecko/20100101 Firefox/141.0","","Firefox","141.0","Windows","10.0","https://app.prolific.com/","en-US,en;q=0.5","65a4a7343830fdcc679739e0","687a19d2168e237449fb8af4","6889dd356561f65154762160","0","65a4a7343830fdcc679739e0","0","2025-07-30T08:56:39.283Z","","","","MotivationQ","","","","","","","","","","","50","","","","","","","","","","","","","","","","","","","","","","","","","","",""
"","","","","ctl-task-cpt","18","242881","0.0-7.0-0.1","64","1","2025-07-30 08:53:10","36c45c0696341be0efffe67d72a12abb","23.17.128.84","Mozilla/5.0 (Windows NT 10.0; Win64; x64; rv:141.0) Gecko/20100101 Firefox/141.0","","Firefox","141.0","Windows","10.0","https://app.prolific.com/","en-US,en;q=0.5","65a4a7343830fdcc679739e0","687a19d2168e237449fb8af4","6889dd356561f65154762160","0","65a4a7343830fdcc679739e0","0","2025-07-30T08:57:16.278Z","","","","","","","","","","","","","","","","win-only","3","g1:SW,g2:NE","0.9","2","0","209421","1072","6085","33992","1","4","4","6","2","4","3","3","0","0.022727272727272728","1300","3000","2320","[""up"",""right""]","{""num_key_presses"":7,""num_perfect"":6,""num_errors"":1,""num_randdir"":0,""num_randdir_good_moves"":0,""num_whilered"":0,""num_whileblue"":0,""num_blue"":3,""num_good_moves"":6}","[414.57142857142856,414.27142551967074,0,414.57142857142856,414.27142551967074,113,415.57142857142856,413.27142551967074,222,423.57142857142856,411.27142551967074,331,423.57142857142856,411.27142551967074,439,423.57142857142856,411.27142551967074,548,423.57142857142856,411.27142551967074,657,423.57142857142856,411.27142551967074,766,423.57142857142856,411.27142551967074,875,541.5714285714286,370.27142551967074,984,746.5714285714286,189.27142551967074,1092,805.5714285714286,77.27142551967076,1202,809.5714285714286,65.27142551967076,1310,809.5714285714286,65.27142551967076,1419,881.5714285714286,112.27142551967076,1528,1012.5714285714286,148.27142551967074,1637,1013.5714285714286,147.27142551967074,1747,1013.5714285714286,147.27142551967074,1854,1013.5714285714286,147.27142551967074,1963,1013.5714285714286,147.27142551967074,2073,1013.5714285714286,147.27142551967074,2181,1013.5714285714286,147.27142551967074,2291,1013.5714285714286,147.27142551967074,2400,1013.5714285714286,147.27142551967074,2508,1013.5714285714286,147.27142551967074,2617,1013.5714285714286,147.27142551967074,2727,1013.5714285714286,147.27142551967074,2835,1013.5714285714286,147.27142551967074,2943,1013.5714285714286,147.27142551967074,3053,1013.5714285714286,147.27142551967074,3161,1013.5714285714286,147.27142551967074,3270,1013.5714285714286,147.27142551967074,3379,1013.5714285714286,147.27142551967074,3489,1013.5714285714286,147.27142551967074,3597,1013.5714285714286,147.27142551967074,3707,1013.5714285714286,147.27142551967074,3815,1013.5714285714286,147.27142551967074,3924,1013.5714285714286,147.27142551967074,4033,1013.5714285714286,147.27142551967074,4142,1013.5714285714286,147.27142551967074,4251,1013.5714285714286,147.27142551967074,4360,1013.5714285714286,147.27142551967074,4468,1013.5714285714286,147.27142551967074,4577,1013.5714285714286,147.27142551967074,4687,1013.5714285714286,147.27142551967074,4795,1013.5714285714286,147.27142551967074,4904]","[2325,2325,2871.7,2023,-2569.7,""error"",""-"",""-"",""no_move"",10045,7720,2791.2,6875,378.8,""smooth"",""up"",""up"",""good_move"",13596,3551,3097.7,10045,453.3,""smooth"",""up"",""up"",""good_move"",16557,2961,2438.9,13596,522.1,""smooth"",""right"",""right"",""good_move"",18829,2272,1920.6,16557,351.4,""smooth"",""right"",""right"",""good_move"",25101,6272,2269.2,22509,322.8,""smooth"",""right"",""right"",""good_move"",27621,2520,2157,25101,363,""smooth"",""up"",""up"",""good_move""]"
"20685","","<div style=""width:500px;"">
  <p>What determined the result of this run?</p>
  </div>","100","html-slider-response","19","263567","0.0-7.0-1.1","64","1","2025-07-30 08:53:10","36c45c0696341be0efffe67d72a12abb","23.17.128.84","Mozilla/5.0 (Windows NT 10.0; Win64; x64; rv:141.0) Gecko/20100101 Firefox/141.0","","Firefox","141.0","Windows","10.0","https://app.prolific.com/","en-US,en;q=0.5","65a4a7343830fdcc679739e0","687a19d2168e237449fb8af4","6889dd356561f65154762160","0","65a4a7343830fdcc679739e0","0","2025-07-30T08:57:36.964Z","","","","AttribQ","","","","","","","","","","","50","","","","","","","","","","","","","","","","","","","","","","","","","","",""
"2471","","<div style=""width:500px;"">
  <p>How much control did you have over the ball?</p>
  </div>","100","html-slider-response","20","266039","0.0-7.0-2.1","64","1","2025-07-30 08:53:10","36c45c0696341be0efffe67d72a12abb","23.17.128.84","Mozilla/5.0 (Windows NT 10.0; Win64; x64; rv:141.0) Gecko/20100101 Firefox/141.0","","Firefox","141.0","Windows","10.0","https://app.prolific.com/","en-US,en;q=0.5","65a4a7343830fdcc679739e0","687a19d2168e237449fb8af4","6889dd356561f65154762160","0","65a4a7343830fdcc679739e0","0","2025-07-30T08:57:39.436Z","","","","ControlQ","","","","","","","","","","","50","","","","","","","","","","","","","","","","","","","","","","","","","","",""
"1993","","<div style=""width:500px;"">
  <p>How would you describe your current emotional state?</p>
  </div>","0","html-slider-response","21","268032","0.0-7.0-3.1","64","1","2025-07-30 08:53:10","36c45c0696341be0efffe67d72a12abb","23.17.128.84","Mozilla/5.0 (Windows NT 10.0; Win64; x64; rv:141.0) Gecko/20100101 Firefox/141.0","","Firefox","141.0","Windows","10.0","https://app.prolific.com/","en-US,en;q=0.5","65a4a7343830fdcc679739e0","687a19d2168e237449fb8af4","6889dd356561f65154762160","0","65a4a7343830fdcc679739e0","0","2025-07-30T08:57:41.429Z","","","","StressQ","","","","","","","","","","","50","","","","","","","","","","","","","","","","","","","","","","","","","","",""
"3492","","<div style=""width:500px;"">
  <p>What best describes how you currently feel?</p>
  </div>","0","html-slider-response","22","271525","0.0-7.0-4.1","64","1","2025-07-30 08:53:10","36c45c0696341be0efffe67d72a12abb","23.17.128.84","Mozilla/5.0 (Windows NT 10.0; Win64; x64; rv:141.0) Gecko/20100101 Firefox/141.0","","Firefox","141.0","Windows","10.0","https://app.prolific.com/","en-US,en;q=0.5","65a4a7343830fdcc679739e0","687a19d2168e237449fb8af4","6889dd356561f65154762160","0","65a4a7343830fdcc679739e0","0","2025-07-30T08:57:44.922Z","","","","MotivationQ","","","","","","","","","","","50","","","","","","","","","","","","","","","","","","","","","","","","","","",""
"","","","","ctl-task-cpt","23","315157","0.0-7.0-0.2","64","1","2025-07-30 08:53:10","36c45c0696341be0efffe67d72a12abb","23.17.128.84","Mozilla/5.0 (Windows NT 10.0; Win64; x64; rv:141.0) Gecko/20100101 Firefox/141.0","","Firefox","141.0","Windows","10.0","https://app.prolific.com/","en-US,en;q=0.5","65a4a7343830fdcc679739e0","687a19d2168e237449fb8af4","6889dd356561f65154762160","0","65a4a7343830fdcc679739e0","0","2025-07-30T08:58:28.554Z","","","","","","","","","","","","","","","","win-only","3","g1:SW,g2:NE","0.8","3","0","275060","1094","6107","40627","1","4","8","6","2","8","7","10","3","0.07575757575757576","1816","3000","1960","[""up"",""right""]","{""num_key_presses"":10,""num_perfect"":7,""num_errors"":1,""num_randdir"":2,""num_randdir_good_moves"":1,""num_whilered"":0,""num_whileblue"":1,""num_blue"":3,""num_good_moves"":8}","[411.57142857142856,405.27142551967074,0,411.57142857142856,405.27142551967074,114,420.57142857142856,405.27142551967074,223,680.5714285714286,425.27142551967074,332,1017.5714285714286,376.27142551967074,440,1113.5714285714287,358.27142551967074,549,1113.5714285714287,358.27142551967074,658,1113.5714285714287,358.27142551967074,767,1113.5714285714287,358.27142551967074,875,1113.5714285714287,358.27142551967074,984,1113.5714285714287,358.27142551967074,1093,1113.5714285714287,358.27142551967074,1202,1113.5714285714287,358.27142551967074,1311,1113.5714285714287,358.27142551967074,1420,807.5714285714286,276.27142551967074,1528,708.5714285714286,116.27142551967076,1638,735.5714285714286,88.27142551967076,1747,751.5714285714286,77.27142551967076,1855,1064.5714285714287,103.27142551967076,1965,1320.5714285714287,108.27142551967076,2073,1321.5714285714287,108.27142551967076,2182,1321.5714285714287,108.27142551967076,2292,1321.5714285714287,108.27142551967076,2400,1321.5714285714287,108.27142551967076,2508,1321.5714285714287,108.27142551967076,2618,1321.5714285714287,108.27142551967076,2727,1321.5714285714287,108.27142551967076,2836,1321.5714285714287,108.27142551967076,2944,1321.5714285714287,108.27142551967076,3053,1321.5714285714287,108.27142551967076,3162,1321.5714285714287,108.27142551967076,3272,1321.5714285714287,108.27142551967076,3380,1321.5714285714287,108.27142551967076,3489,1321.5714285714287,108.27142551967076,3598,1321.5714285714287,108.27142551967076,3707,1321.5714285714287,108.27142551967076,3816,1321.5714285714287,108.27142551967076,3924,1321.5714285714287,108.27142551967076,4034,1321.5714285714287,108.27142551967076,4142,1321.5714285714287,108.27142551967076,4251,1321.5714285714287,108.27142551967076,4360,1321.5714285714287,108.27142551967076,4469,1321.5714285714287,108.27142551967076,4578,1321.5714285714287,108.27142551967076,4687,1321.5714285714287,108.27142551967076,4795,1321.5714285714287,108.27142551967076,4904]","[8754,8754,2195.2,6160,398.8,""oops"",""right"",""right"",""good_move"",10954,2200,1775.5,8754,424.5,""smooth"",""right"",""right"",""good_move"",12946,1992,1623.3,10954,368.7,""oops"",""right"",""left"",""bad_move"",15946,3000,2041.3,12946,958.7,""smooth"",""right"",""right"",""good_move"",19395,3449,3133.6,15946,315.4,""smooth"",""up"",""up"",""good_move"",22323,2928,2634,19395,294,""while_blue"",""up"",""down"",""bad_move"",24851,2528,2163.5,22323,364.5,""smooth"",""up"",""up"",""good_move"",27811,2960,2601.2,24851,358.8,""smooth"",""up"",""up"",""good_move"",30923,3112,1645.1,27811,1466.9,""smooth"",""up"",""up"",""good_move"",34235,3312,2977.2,30923,334.8,""smooth"",""right"",""right"",""good_move""]"
"2934","","<div style=""width:500px;"">
  <p>What determined the result of this run?</p>
  </div>","100","html-slider-response","24","318092","0.0-7.0-1.2","64","1","2025-07-30 08:53:10","36c45c0696341be0efffe67d72a12abb","23.17.128.84","Mozilla/5.0 (Windows NT 10.0; Win64; x64; rv:141.0) Gecko/20100101 Firefox/141.0","","Firefox","141.0","Windows","10.0","https://app.prolific.com/","en-US,en;q=0.5","65a4a7343830fdcc679739e0","687a19d2168e237449fb8af4","6889dd356561f65154762160","0","65a4a7343830fdcc679739e0","0","2025-07-30T08:58:31.489Z","","","","AttribQ","","","","","","","","","","","50","","","","","","","","","","","","","","","","","","","","","","","","","","",""
"1549","","<div style=""width:500px;"">
  <p>How much control did you have over the ball?</p>
  </div>","100","html-slider-response","25","319642","0.0-7.0-2.2","64","1","2025-07-30 08:53:10","36c45c0696341be0efffe67d72a12abb","23.17.128.84","Mozilla/5.0 (Windows NT 10.0; Win64; x64; rv:141.0) Gecko/20100101 Firefox/141.0","","Firefox","141.0","Windows","10.0","https://app.prolific.com/","en-US,en;q=0.5","65a4a7343830fdcc679739e0","687a19d2168e237449fb8af4","6889dd356561f65154762160","0","65a4a7343830fdcc679739e0","0","2025-07-30T08:58:33.039Z","","","","ControlQ","","","","","","","","","","","50","","","","","","","","","","","","","","","","","","","","","","","","","","",""
"1368","","<div style=""width:500px;"">
  <p>How would you describe your current emotional state?</p>
  </div>","0","html-slider-response","26","321010","0.0-7.0-3.2","64","1","2025-07-30 08:53:10","36c45c0696341be0efffe67d72a12abb","23.17.128.84","Mozilla/5.0 (Windows NT 10.0; Win64; x64; rv:141.0) Gecko/20100101 Firefox/141.0","","Firefox","141.0","Windows","10.0","https://app.prolific.com/","en-US,en;q=0.5","65a4a7343830fdcc679739e0","687a19d2168e237449fb8af4","6889dd356561f65154762160","0","65a4a7343830fdcc679739e0","0","2025-07-30T08:58:34.407Z","","","","StressQ","","","","","","","","","","","50","","","","","","","","","","","","","","","","","","","","","","","","","","",""
"1586","","<div style=""width:500px;"">
  <p>What best describes how you currently feel?</p>
  </div>","0","html-slider-response","27","322596","0.0-7.0-4.2","64","1","2025-07-30 08:53:10","36c45c0696341be0efffe67d72a12abb","23.17.128.84","Mozilla/5.0 (Windows NT 10.0; Win64; x64; rv:141.0) Gecko/20100101 Firefox/141.0","","Firefox","141.0","Windows","10.0","https://app.prolific.com/","en-US,en;q=0.5","65a4a7343830fdcc679739e0","687a19d2168e237449fb8af4","6889dd356561f65154762160","0","65a4a7343830fdcc679739e0","0","2025-07-30T08:58:35.993Z","","","","MotivationQ","","","","","","","","","","","50","","","","","","","","","","","","","","","","","","","","","","","","","","",""
"","","","","ctl-task-cpt","28","380741","0.0-7.0-0.3","64","1","2025-07-30 08:53:10","36c45c0696341be0efffe67d72a12abb","23.17.128.84","Mozilla/5.0 (Windows NT 10.0; Win64; x64; rv:141.0) Gecko/20100101 Firefox/141.0","","Firefox","141.0","Windows","10.0","https://app.prolific.com/","en-US,en;q=0.5","65a4a7343830fdcc679739e0","687a19d2168e237449fb8af4","6889dd356561f65154762160","0","65a4a7343830fdcc679739e0","0","2025-07-30T08:59:34.139Z","","","","","","","","","","","","","","","","win-only","3","g1:SW,g2:NE","0.7","4","0","326131","1484","6498","55143","1","4","4","6","2","4","4","14","10","0.10606060606060606","1035","3000","1860","[""up"",""right""]","{""num_key_presses"":10,""num_perfect"":7,""num_errors"":0,""num_randdir"":3,""num_randdir_good_moves"":1,""num_whilered"":0,""num_whileblue"":0,""num_blue"":5,""num_good_moves"":8}","[409.57142857142856,420.27142551967074,0,409.57142857142856,420.27142551967074,115,537.5714285714286,435.27142551967074,223,999.5714285714286,453.27142551967074,332,1118.5714285714287,409.27142551967074,441,1084.5714285714287,389.27142551967074,550,1074.5714285714287,381.27142551967074,659,1055.5714285714287,364.27142551967074,768,922.5714285714286,183.27142551967074,877,831.5714285714286,86.27142551967076,986,823.5714285714286,81.27142551967076,1094,954.5714285714286,118.27142551967076,1203,1093.5714285714287,152.27142551967074,1312,1093.5714285714287,152.27142551967074,1422,1093.5714285714287,152.27142551967074,1530,1093.5714285714287,152.27142551967074,1639,1093.5714285714287,152.27142551967074,1748,1093.5714285714287,152.27142551967074,1857,1093.5714285714287,152.27142551967074,1966,1093.5714285714287,152.27142551967074,2075,1093.5714285714287,152.27142551967074,2184,1093.5714285714287,152.27142551967074,2292,1093.5714285714287,152.27142551967074,2401,1093.5714285714287,152.27142551967074,2510,1093.5714285714287,152.27142551967074,2619,1093.5714285714287,152.27142551967074,2728,1093.5714285714287,152.27142551967074,2837,1093.5714285714287,152.27142551967074,2946,1093.5714285714287,152.27142551967074,3055,1093.5714285714287,152.27142551967074,3163,1093.5714285714287,152.27142551967074,3272,1093.5714285714287,152.27142551967074,3382,1093.5714285714287,152.27142551967074,3491,1093.5714285714287,152.27142551967074,3599,1093.5714285714287,152.27142551967074,3708,1093.5714285714287,152.27142551967074,3817,1093.5714285714287,152.27142551967074,3926,1093.5714285714287,152.27142551967074,4035,1093.5714285714287,152.27142551967074,4143,1093.5714285714287,152.27142551967074,4252,1093.5714285714287,152.27142551967074,4361,1093.5714285714287,152.27142551967074,4470,1093.5714285714287,152.27142551967074,4579,1093.5714285714287,152.27142551967074,4688,1093.5714285714287,152.27142551967074,4797,1093.5714285714287,152.27142551967074,4906]","[1437,1437,1000,0,437,""oops"",""right"",""right"",""good_move"",4606,3169,2792.3,1437,376.7,""oops"",""up"",""left"",""bad_move"",7566,2960,2468.8,4606,491.2,""smooth"",""up"",""up"",""good_move"",14894,7328,2587.6,11995,311.4,""smooth"",""right"",""right"",""good_move"",18238,3344,2984.2,14894,359.8,""oops"",""up"",""down"",""bad_move"",24967,6729,3724.4,20893,349.6,""smooth"",""up"",""up"",""good_move"",39455,14488,2864.2,36185,405.8,""smooth"",""up"",""up"",""good_move"",42455,3000,2104.1,39455,895.9,""smooth"",""right"",""right"",""good_move"",45151,2695,2325.4,42456,369.6,""smooth"",""up"",""up"",""good_move"",48360,3209,2812.6,45151,396.4,""smooth"",""right"",""right"",""good_move""]"
"8706","","<div style=""width:500px;"">
  <p>What determined the result of this run?</p>
  </div>","100","html-slider-response","29","389449","0.0-7.0-1.3","64","1","2025-07-30 08:53:10","36c45c0696341be0efffe67d72a12abb","23.17.128.84","Mozilla/5.0 (Windows NT 10.0; Win64; x64; rv:141.0) Gecko/20100101 Firefox/141.0","","Firefox","141.0","Windows","10.0","https://app.prolific.com/","en-US,en;q=0.5","65a4a7343830fdcc679739e0","687a19d2168e237449fb8af4","6889dd356561f65154762160","0","65a4a7343830fdcc679739e0","0","2025-07-30T08:59:42.846Z","","","","AttribQ","","","","","","","","","","","50","","","","","","","","","","","","","","","","","","","","","","","","","","",""
"1577","","<div style=""width:500px;"">
  <p>How much control did you have over the ball?</p>
  </div>","100","html-slider-response","30","391027","0.0-7.0-2.3","64","1","2025-07-30 08:53:10","36c45c0696341be0efffe67d72a12abb","23.17.128.84","Mozilla/5.0 (Windows NT 10.0; Win64; x64; rv:141.0) Gecko/20100101 Firefox/141.0","","Firefox","141.0","Windows","10.0","https://app.prolific.com/","en-US,en;q=0.5","65a4a7343830fdcc679739e0","687a19d2168e237449fb8af4","6889dd356561f65154762160","0","65a4a7343830fdcc679739e0","0","2025-07-30T08:59:44.424Z","","","","ControlQ","","","","","","","","","","","50","","","","","","","","","","","","","","","","","","","","","","","","","","",""
"1580","","<div style=""width:500px;"">
  <p>How would you describe your current emotional state?</p>
  </div>","0","html-slider-response","31","392607","0.0-7.0-3.3","64","1","2025-07-30 08:53:10","36c45c0696341be0efffe67d72a12abb","23.17.128.84","Mozilla/5.0 (Windows NT 10.0; Win64; x64; rv:141.0) Gecko/20100101 Firefox/141.0","","Firefox","141.0","Windows","10.0","https://app.prolific.com/","en-US,en;q=0.5","65a4a7343830fdcc679739e0","687a19d2168e237449fb8af4","6889dd356561f65154762160","0","65a4a7343830fdcc679739e0","0","2025-07-30T08:59:46.004Z","","","","StressQ","","","","","","","","","","","50","","","","","","","","","","","","","","","","","","","","","","","","","","",""
"1768","","<div style=""width:500px;"">
  <p>What best describes how you currently feel?</p>
  </div>","0","html-slider-response","32","394375","0.0-7.0-4.3","64","1","2025-07-30 08:53:10","36c45c0696341be0efffe67d72a12abb","23.17.128.84","Mozilla/5.0 (Windows NT 10.0; Win64; x64; rv:141.0) Gecko/20100101 Firefox/141.0","","Firefox","141.0","Windows","10.0","https://app.prolific.com/","en-US,en;q=0.5","65a4a7343830fdcc679739e0","687a19d2168e237449fb8af4","6889dd356561f65154762160","0","65a4a7343830fdcc679739e0","0","2025-07-30T08:59:47.772Z","","","","MotivationQ","","","","","","","","","","","50","","","","","","","","","","","","","","","","","","","","","","","","","","",""
"","","","","ctl-task-cpt","33","480908","0.0-7.0-0.4","64","1","2025-07-30 08:53:10","36c45c0696341be0efffe67d72a12abb","23.17.128.84","Mozilla/5.0 (Windows NT 10.0; Win64; x64; rv:141.0) Gecko/20100101 Firefox/141.0","","Firefox","141.0","Windows","10.0","https://app.prolific.com/","en-US,en;q=0.5","65a4a7343830fdcc679739e0","687a19d2168e237449fb8af4","6889dd356561f65154762160","0","65a4a7343830fdcc679739e0","0","2025-07-30T09:01:14.305Z","","","","","","","","","","","","","","","","win-only","1","g1:NE,g2:SW","0.6","5","0","397911","30731","35740","83529","1","4","8","6","2","8","7","21","14","0.1590909090909091","1363","3000","1800","[""down"",""left""]","{""num_key_presses"":12,""num_perfect"":7,""num_errors"":1,""num_randdir"":4,""num_randdir_good_moves"":2,""num_whilered"":0,""num_whileblue"":1,""num_blue"":5,""num_good_moves"":9}","[419.57142857142856,411.27142551967074,1,419.57142857142856,411.27142551967074,108,419.57142857142856,411.27142551967074,218,419.57142857142856,411.27142551967074,327,418.57142857142856,408.27142551967074,436,418.57142857142856,406.27142551967074,544,419.57142857142856,393.27142551967074,654,442.57142857142856,346.27142551967074,762,447.57142857142856,339.27142551967074,872,395.57142857142856,393.27142551967074,980,207.57142857142856,582.2714255196707,1089,79.57142857142857,735.2714255196707,1198,41.57142857142857,776.2714255196707,1306,40.57142857142857,777.2714255196707,1415,54.57142857142857,765.2714255196707,1524,271.57142857142856,718.2714255196707,1633,694.5714285714286,583.2714255196707,1743,909.5714285714286,506.27142551967074,1851,923.5714285714286,498.27142551967074,1959,923.5714285714286,498.27142551967074,2069,923.5714285714286,498.27142551967074,2178,923.5714285714286,498.27142551967074,2287,923.5714285714286,498.27142551967074,2396,923.5714285714286,498.27142551967074,2504,923.5714285714286,498.27142551967074,2613,923.5714285714286,498.27142551967074,2723,923.5714285714286,498.27142551967074,2831,923.5714285714286,498.27142551967074,2940,923.5714285714286,498.27142551967074,3049,923.5714285714286,498.27142551967074,3157,923.5714285714286,498.27142551967074,3267,923.5714285714286,498.27142551967074,3375,923.5714285714286,498.27142551967074,3485,923.5714285714286,498.27142551967074,3593,923.5714285714286,498.27142551967074,3702,923.5714285714286,498.27142551967074,3811,923.5714285714286,498.27142551967074,3920,923.5714285714286,498.27142551967074,4029,923.5714285714286,498.27142551967074,4138,923.5714285714286,498.27142551967074,4246,923.5714285714286,498.27142551967074,4355,923.5714285714286,498.27142551967074,4464,923.5714285714286,498.27142551967074,4573,923.5714285714286,498.27142551967074,4683,923.5714285714286,498.27142551967074,4792,923.5714285714286,498.27142551967074,4900]","[1491,1491,1000,0,491,""oops"",""down"",""right"",""bad_move"",4427,2936,2598,1491,338,""smooth"",""down"",""down"",""good_move"",10636,6209,2608.5,7715,312.5,""smooth"",""down"",""down"",""good_move"",16372,5736,2468.6,13551,352.4,""smooth"",""left"",""left"",""good_move"",23660,7288,3314.3,20023,322.7,""oops"",""left"",""down"",""good_move"",25716,2056,1688.4,23660,367.6,""oops"",""left"",""left"",""good_move"",28653,2937,2461.7,25716,475.3,""smooth"",""left"",""left"",""good_move"",31596,2943,2632,28653,311,""while_blue"",""left"",""right"",""bad_move"",34965,3369,2969.4,31596,399.6,""oops"",""left"",""up"",""bad_move"",37940,2975,2112,34965,863,""smooth"",""left"",""left"",""good_move"",41020,3080,2753.2,37940,326.8,""smooth"",""left"",""left"",""good_move"",47509,6489,2485.9,44664,359.1,""smooth"",""down"",""down"",""good_move""]"
"21364","","<div style=""width:500px;"">
  <p>What determined the result of this run?</p>
  </div>","100","html-slider-response","34","502273","0.0-7.0-1.4","64","1","2025-07-30 08:53:10","36c45c0696341be0efffe67d72a12abb","23.17.128.84","Mozilla/5.0 (Windows NT 10.0; Win64; x64; rv:141.0) Gecko/20100101 Firefox/141.0","","Firefox","141.0","Windows","10.0","https://app.prolific.com/","en-US,en;q=0.5","65a4a7343830fdcc679739e0","687a19d2168e237449fb8af4","6889dd356561f65154762160","0","65a4a7343830fdcc679739e0","0","2025-07-30T09:01:35.670Z","","","","AttribQ","","","","","","","","","","","50","","","","","","","","","","","","","","","","","","","","","","","","","","",""
"1441","","<div style=""width:500px;"">
  <p>How much control did you have over the ball?</p>
  </div>","100","html-slider-response","35","503715","0.0-7.0-2.4","64","1","2025-07-30 08:53:10","36c45c0696341be0efffe67d72a12abb","23.17.128.84","Mozilla/5.0 (Windows NT 10.0; Win64; x64; rv:141.0) Gecko/20100101 Firefox/141.0","","Firefox","141.0","Windows","10.0","https://app.prolific.com/","en-US,en;q=0.5","65a4a7343830fdcc679739e0","687a19d2168e237449fb8af4","6889dd356561f65154762160","0","65a4a7343830fdcc679739e0","0","2025-07-30T09:01:37.112Z","","","","ControlQ","","","","","","","","","","","50","","","","","","","","","","","","","","","","","","","","","","","","","","",""
"1698","","<div style=""width:500px;"">
  <p>How would you describe your current emotional state?</p>
  </div>","0","html-slider-response","36","505413","0.0-7.0-3.4","64","1","2025-07-30 08:53:10","36c45c0696341be0efffe67d72a12abb","23.17.128.84","Mozilla/5.0 (Windows NT 10.0; Win64; x64; rv:141.0) Gecko/20100101 Firefox/141.0","","Firefox","141.0","Windows","10.0","https://app.prolific.com/","en-US,en;q=0.5","65a4a7343830fdcc679739e0","687a19d2168e237449fb8af4","6889dd356561f65154762160","0","65a4a7343830fdcc679739e0","0","2025-07-30T09:01:38.810Z","","","","StressQ","","","","","","","","","","","50","","","","","","","","","","","","","","","","","","","","","","","","","","",""
"1467","","<div style=""width:500px;"">
  <p>What best describes how you currently feel?</p>
  </div>","0","html-slider-response","37","506881","0.0-7.0-4.4","64","1","2025-07-30 08:53:10","36c45c0696341be0efffe67d72a12abb","23.17.128.84","Mozilla/5.0 (Windows NT 10.0; Win64; x64; rv:141.0) Gecko/20100101 Firefox/141.0","","Firefox","141.0","Windows","10.0","https://app.prolific.com/","en-US,en;q=0.5","65a4a7343830fdcc679739e0","687a19d2168e237449fb8af4","6889dd356561f65154762160","0","65a4a7343830fdcc679739e0","0","2025-07-30T09:01:40.278Z","","","","MotivationQ","","","","","","","","","","","50","","","","","","","","","","","","","","","","","","","","","","","","","","",""
"","","","","ctl-task-cpt","38","558067","0.0-7.0-0.5","64","1","2025-07-30 08:53:10","36c45c0696341be0efffe67d72a12abb","23.17.128.84","Mozilla/5.0 (Windows NT 10.0; Win64; x64; rv:141.0) Gecko/20100101 Firefox/141.0","","Firefox","141.0","Windows","10.0","https://app.prolific.com/","en-US,en;q=0.5","65a4a7343830fdcc679739e0","687a19d2168e237449fb8af4","6889dd356561f65154762160","0","65a4a7343830fdcc679739e0","0","2025-07-30T09:02:31.464Z","","","","","","","","","","","","","","","","win-only","3","g1:SW,g2:NE","0.5","6","0","510416","1114","6120","48182","1","4","4","6","2","4","4","25","21","0.1893939393939394","2208","3000","1915","[""up"",""right""]","{""num_key_presses"":10,""num_perfect"":5,""num_errors"":0,""num_randdir"":5,""num_randdir_good_moves"":3,""num_whilered"":0,""num_whileblue"":0,""num_blue"":4,""num_good_moves"":8}","[420.57142857142856,427.27142551967074,0,420.57142857142856,427.27142551967074,105,420.57142857142856,427.27142551967074,213,446.57142857142856,422.27142551967074,322,556.5714285714286,434.27142551967074,432,581.5714285714286,458.27142551967074,541,581.5714285714286,458.27142551967074,649,580.5714285714286,444.27142551967074,759,580.5714285714286,443.27142551967074,867,580.5714285714286,443.27142551967074,976,580.5714285714286,442.27142551967074,1085,580.5714285714286,438.27142551967074,1194,580.5714285714286,438.27142551967074,1303,580.5714285714286,438.27142551967074,1412,580.5714285714286,438.27142551967074,1521,580.5714285714286,438.27142551967074,1629,580.5714285714286,438.27142551967074,1738,580.5714285714286,438.27142551967074,1848,687.5714285714286,309.27142551967074,1956,778.5714285714286,143.27142551967074,2065,784.5714285714286,87.27142551967076,2174,784.5714285714286,86.27142551967076,2282,786.5714285714286,109.27142551967076,2392,911.5714285714286,225.27142551967074,2501,940.5714285714286,239.27142551967074,2610,940.5714285714286,239.27142551967074,2718,940.5714285714286,239.27142551967074,2827,940.5714285714286,239.27142551967074,2936,940.5714285714286,239.27142551967074,3045,940.5714285714286,239.27142551967074,3154,940.5714285714286,239.27142551967074,3262,940.5714285714286,239.27142551967074,3372,940.5714285714286,239.27142551967074,3481,940.5714285714286,239.27142551967074,3589,940.5714285714286,239.27142551967074,3698,940.5714285714286,239.27142551967074,3808,940.5714285714286,239.27142551967074,3916,940.5714285714286,239.27142551967074,4025,940.5714285714286,239.27142551967074,4134,940.5714285714286,239.27142551967074,4242,940.5714285714286,239.27142551967074,4352,940.5714285714286,239.27142551967074,4460,940.5714285714286,239.27142551967074,4569,940.5714285714286,239.27142551967074,4679,940.5714285714286,239.27142551967074,4788,940.5714285714286,239.27142551967074,4896]","[1385,1385,1000,0,385,""oops"",""right"",""left"",""bad_move"",8706,7321,2833.4,5584,288.6,""smooth"",""right"",""right"",""good_move"",18914,10208,2766.6,15819,328.4,""oops"",""right"",""right"",""good_move"",22162,3248,2699.3,18914,548.7,""smooth"",""up"",""up"",""good_move"",25114,2952,1556.9,22162,1395.1,""smooth"",""up"",""up"",""good_move"",28131,3017,2710.3,25114,306.7,""smooth"",""right"",""right"",""good_move"",30682,2551,2221.5,28131,329.5,""oops"",""right"",""right"",""good_move"",36082,5400,2323.8,33397,361.2,""oops"",""up"",""down"",""bad_move"",38842,2760,2398.5,36082,361.5,""smooth"",""up"",""up"",""good_move"",41779,2937,2617.9,38842,319.1,""oops"",""up"",""up"",""good_move""]"
"2590","","<div style=""width:500px;"">
  <p>What determined the result of this run?</p>
  </div>","100","html-slider-response","39","560657","0.0-7.0-1.5","64","1","2025-07-30 08:53:10","36c45c0696341be0efffe67d72a12abb","23.17.128.84","Mozilla/5.0 (Windows NT 10.0; Win64; x64; rv:141.0) Gecko/20100101 Firefox/141.0","","Firefox","141.0","Windows","10.0","https://app.prolific.com/","en-US,en;q=0.5","65a4a7343830fdcc679739e0","687a19d2168e237449fb8af4","6889dd356561f65154762160","0","65a4a7343830fdcc679739e0","0","2025-07-30T09:02:34.054Z","","","","AttribQ","","","","","","","","","","","50","","","","","","","","","","","","","","","","","","","","","","","","","","",""
"1540","","<div style=""width:500px;"">
  <p>How much control did you have over the ball?</p>
  </div>","100","html-slider-response","40","562199","0.0-7.0-2.5","64","1","2025-07-30 08:53:10","36c45c0696341be0efffe67d72a12abb","23.17.128.84","Mozilla/5.0 (Windows NT 10.0; Win64; x64; rv:141.0) Gecko/20100101 Firefox/141.0","","Firefox","141.0","Windows","10.0","https://app.prolific.com/","en-US,en;q=0.5","65a4a7343830fdcc679739e0","687a19d2168e237449fb8af4","6889dd356561f65154762160","0","65a4a7343830fdcc679739e0","0","2025-07-30T09:02:35.596Z","","","","ControlQ","","","","","","","","","","","50","","","","","","","","","","","","","","","","","","","","","","","","","","",""
"1737","","<div style=""width:500px;"">
  <p>How would you describe your current emotional state?</p>
  </div>","0","html-slider-response","41","563936","0.0-7.0-3.5","64","1","2025-07-30 08:53:10","36c45c0696341be0efffe67d72a12abb","23.17.128.84","Mozilla/5.0 (Windows NT 10.0; Win64; x64; rv:141.0) Gecko/20100101 Firefox/141.0","","Firefox","141.0","Windows","10.0","https://app.prolific.com/","en-US,en;q=0.5","65a4a7343830fdcc679739e0","687a19d2168e237449fb8af4","6889dd356561f65154762160","0","65a4a7343830fdcc679739e0","0","2025-07-30T09:02:37.333Z","","","","StressQ","","","","","","","","","","","50","","","","","","","","","","","","","","","","","","","","","","","","","","",""
"4003","","<div style=""width:500px;"">
  <p>What best describes how you currently feel?</p>
  </div>","25","html-slider-response","42","567941","0.0-7.0-4.5","64","1","2025-07-30 08:53:10","36c45c0696341be0efffe67d72a12abb","23.17.128.84","Mozilla/5.0 (Windows NT 10.0; Win64; x64; rv:141.0) Gecko/20100101 Firefox/141.0","","Firefox","141.0","Windows","10.0","https://app.prolific.com/","en-US,en;q=0.5","65a4a7343830fdcc679739e0","687a19d2168e237449fb8af4","6889dd356561f65154762160","0","65a4a7343830fdcc679739e0","0","2025-07-30T09:02:41.338Z","","","","MotivationQ","","","","","","","","","","","50","","","","","","","","","","","","","","","","","","","","","","","","","","",""
"","","","","ctl-task-cpt","43","624166","0.0-7.0-0.6","64","1","2025-07-30 08:53:10","36c45c0696341be0efffe67d72a12abb","23.17.128.84","Mozilla/5.0 (Windows NT 10.0; Win64; x64; rv:141.0) Gecko/20100101 Firefox/141.0","","Firefox","141.0","Windows","10.0","https://app.prolific.com/","en-US,en;q=0.5","65a4a7343830fdcc679739e0","687a19d2168e237449fb8af4","6889dd356561f65154762160","0","65a4a7343830fdcc679739e0","0","2025-07-30T09:03:37.563Z","","","","","","","","","","","","","","","","win-only","3","g1:SW,g2:NE","0.4","7","0","571476","913","5916","53221","1","4","8","6","2","8","8","33","25","0.25","1515","3000","1560","[""up"",""right""]","{""num_key_presses"":12,""num_perfect"":6,""num_errors"":0,""num_randdir"":6,""num_randdir_good_moves"":3,""num_whilered"":0,""num_whileblue"":0,""num_blue"":3,""num_good_moves"":9}","[406.57142857142856,409.27142551967074,0,406.57142857142856,409.27142551967074,104,406.57142857142856,409.27142551967074,212,406.57142857142856,409.27142551967074,320,406.57142857142856,409.27142551967074,429,407.57142857142856,408.27142551967074,538,520.5714285714286,315.27142551967074,647,718.5714285714286,145.27142551967074,756,778.5714285714286,108.27142551967076,865,781.5714285714286,107.27142551967076,974,781.5714285714286,107.27142551967076,1083,781.5714285714286,107.27142551967076,1192,781.5714285714286,107.27142551967076,1301,781.5714285714286,107.27142551967076,1410,781.5714285714286,107.27142551967076,1519,781.5714285714286,107.27142551967076,1627,781.5714285714286,107.27142551967076,1736,781.5714285714286,107.27142551967076,1845,781.5714285714286,107.27142551967076,1953,781.5714285714286,107.27142551967076,2063,781.5714285714286,107.27142551967076,2172,781.5714285714286,107.27142551967076,2281,781.5714285714286,107.27142551967076,2389,781.5714285714286,107.27142551967076,2498,781.5714285714286,107.27142551967076,2607,781.5714285714286,107.27142551967076,2716,781.5714285714286,107.27142551967076,2825,781.5714285714286,107.27142551967076,2934,781.5714285714286,107.27142551967076,3043,781.5714285714286,107.27142551967076,3152,781.5714285714286,107.27142551967076,3260,781.5714285714286,107.27142551967076,3369,781.5714285714286,107.27142551967076,3479,781.5714285714286,107.27142551967076,3587,781.5714285714286,107.27142551967076,3696,781.5714285714286,107.27142551967076,3805,781.5714285714286,107.27142551967076,3914,781.5714285714286,107.27142551967076,4023,781.5714285714286,107.27142551967076,4132,781.5714285714286,107.27142551967076,4240,781.5714285714286,107.27142551967076,4350,781.5714285714286,107.27142551967076,4458,781.5714285714286,107.27142551967076,4568,781.5714285714286,107.27142551967076,4677,781.5714285714286,107.27142551967076,4786,781.5714285714286,107.27142551967076,4894]","[1556,1556,1000,0,556,""oops"",""right"",""down"",""bad_move"",5483,3927,3504.2,1556,422.8,""oops"",""right"",""left"",""bad_move"",8948,3465,3103.1,5483,361.9,""oops"",""up"",""left"",""bad_move"",18900,9952,2342.9,16193,364.1,""oops"",""up"",""up"",""good_move"",24908,6008,1988.2,22540,379.8,""oops"",""up"",""up"",""good_move"",27965,3057,2514.6,24908,542.4,""oops"",""up"",""right"",""good_move"",31108,3143,2817,27965,326,""smooth"",""up"",""up"",""good_move"",34237,3129,2554.2,31108,574.8,""smooth"",""up"",""up"",""good_move"",37220,2983,2026.8,34237,956.2,""smooth"",""right"",""right"",""good_move"",40740,3520,3169.5,37220,350.5,""smooth"",""right"",""right"",""good_move"",43901,3161,2832.8,40740,328.2,""smooth"",""right"",""right"",""good_move"",47021,3120,2807.8,43901,312.2,""smooth"",""right"",""right"",""good_move""]"
"3838","","<div style=""width:500px;"">
  <p>What determined the result of this run?</p>
  </div>","87","html-slider-response","44","628003","0.0-7.0-1.6","64","1","2025-07-30 08:53:10","36c45c0696341be0efffe67d72a12abb","23.17.128.84","Mozilla/5.0 (Windows NT 10.0; Win64; x64; rv:141.0) Gecko/20100101 Firefox/141.0","","Firefox","141.0","Windows","10.0","https://app.prolific.com/","en-US,en;q=0.5","65a4a7343830fdcc679739e0","687a19d2168e237449fb8af4","6889dd356561f65154762160","0","65a4a7343830fdcc679739e0","0","2025-07-30T09:03:41.400Z","","","","AttribQ","","","","","","","","","","","50","","","","","","","","","","","","","","","","","","","","","","","","","","",""
"2391","","<div style=""width:500px;"">
  <p>How much control did you have over the ball?</p>
  </div>","87","html-slider-response","45","630395","0.0-7.0-2.6","64","1","2025-07-30 08:53:10","36c45c0696341be0efffe67d72a12abb","23.17.128.84","Mozilla/5.0 (Windows NT 10.0; Win64; x64; rv:141.0) Gecko/20100101 Firefox/141.0","","Firefox","141.0","Windows","10.0","https://app.prolific.com/","en-US,en;q=0.5","65a4a7343830fdcc679739e0","687a19d2168e237449fb8af4","6889dd356561f65154762160","0","65a4a7343830fdcc679739e0","0","2025-07-30T09:03:43.792Z","","","","ControlQ","","","","","","","","","","","50","","","","","","","","","","","","","","","","","","","","","","","","","","",""
"2483","","<div style=""width:500px;"">
  <p>How would you describe your current emotional state?</p>
  </div>","0","html-slider-response","46","632879","0.0-7.0-3.6","64","1","2025-07-30 08:53:10","36c45c0696341be0efffe67d72a12abb","23.17.128.84","Mozilla/5.0 (Windows NT 10.0; Win64; x64; rv:141.0) Gecko/20100101 Firefox/141.0","","Firefox","141.0","Windows","10.0","https://app.prolific.com/","en-US,en;q=0.5","65a4a7343830fdcc679739e0","687a19d2168e237449fb8af4","6889dd356561f65154762160","0","65a4a7343830fdcc679739e0","0","2025-07-30T09:03:46.276Z","","","","StressQ","","","","","","","","","","","50","","","","","","","","","","","","","","","","","","","","","","","","","","",""
"3396","","<div style=""width:500px;"">
  <p>What best describes how you currently feel?</p>
  </div>","16","html-slider-response","47","636275","0.0-7.0-4.6","64","1","2025-07-30 08:53:10","36c45c0696341be0efffe67d72a12abb","23.17.128.84","Mozilla/5.0 (Windows NT 10.0; Win64; x64; rv:141.0) Gecko/20100101 Firefox/141.0","","Firefox","141.0","Windows","10.0","https://app.prolific.com/","en-US,en;q=0.5","65a4a7343830fdcc679739e0","687a19d2168e237449fb8af4","6889dd356561f65154762160","0","65a4a7343830fdcc679739e0","0","2025-07-30T09:03:49.672Z","","","","MotivationQ","","","","","","","","","","","50","","","","","","","","","","","","","","","","","","","","","","","","","","",""
"","","","","ctl-task-cpt","48","750731","0.0-7.0-0.7","64","1","2025-07-30 08:53:10","36c45c0696341be0efffe67d72a12abb","23.17.128.84","Mozilla/5.0 (Windows NT 10.0; Win64; x64; rv:141.0) Gecko/20100101 Firefox/141.0","","Firefox","141.0","Windows","10.0","https://app.prolific.com/","en-US,en;q=0.5","65a4a7343830fdcc679739e0","687a19d2168e237449fb8af4","6889dd356561f65154762160","0","65a4a7343830fdcc679739e0","0","2025-07-30T09:05:44.128Z","","","","","","","","","","","","","","","","win-only","0","g1:NW,g2:SE","0.3","8","0","639811","15626","20634","111452","1","4","4","6","1","1","1","34","33","0.25757575757575757","2472","3000","480","[""left"",""up""]","{""num_key_presses"":22,""num_perfect"":7,""num_errors"":0,""num_randdir"":15,""num_randdir_good_moves"":6,""num_whilered"":0,""num_whileblue"":0,""num_blue"":8,""num_good_moves"":13}","[408.57142857142856,422.27142551967074,0,408.57142857142856,422.27142551967074,107,408.57142857142856,422.27142551967074,216,408.57142857142856,422.27142551967074,325,408.57142857142856,422.27142551967074,434,408.57142857142856,422.27142551967074,543,408.57142857142856,422.27142551967074,651,408.57142857142856,422.27142551967074,759,410.57142857142856,421.27142551967074,869,409.57142857142856,417.27142551967074,978,320.57142857142856,290.27142551967074,1088,214.57142857142856,179.27142551967074,1196,155.57142857142856,112.27142551967076,1304,95.57142857142857,81.27142551967076,1414,92.57142857142857,79.27142551967076,1522,92.57142857142857,79.27142551967076,1632,351.57142857142856,334.27142551967074,1740,647.5714285714286,692.2714255196707,1849,623.5714285714286,634.2714255196707,1958,238.57142857142856,272.27142551967074,2068,110.57142857142857,178.27142551967074,2176,62.57142857142857,134.27142551967074,2285,60.57142857142857,99.27142551967076,2393,63.57142857142857,94.27142551967076,2503,80.57142857142857,102.27142551967076,2611,439.57142857142856,255.27142551967074,2720,845.5714285714286,380.27142551967074,2829,974.5714285714286,371.27142551967074,2938,975.5714285714286,370.27142551967074,3047,975.5714285714286,370.27142551967074,3156,975.5714285714286,370.27142551967074,3265,975.5714285714286,370.27142551967074,3374,975.5714285714286,370.27142551967074,3483,975.5714285714286,370.27142551967074,3592,975.5714285714286,370.27142551967074,3700,975.5714285714286,370.27142551967074,3809,975.5714285714286,370.27142551967074,3919,975.5714285714286,370.27142551967074,4027,975.5714285714286,370.27142551967074,4136,975.5714285714286,370.27142551967074,4244,975.5714285714286,370.27142551967074,4354,975.5714285714286,370.27142551967074,4462,975.5714285714286,370.27142551967074,4571,975.5714285714286,370.27142551967074,4680,975.5714285714286,370.27142551967074,4789,975.5714285714286,370.27142551967074,4898]","[1385,1385,1000,0,385,""oops"",""up"",""right"",""bad_move"",4538,3153,2804.6,1385,348.4,""oops"",""up"",""right"",""bad_move"",7545,3007,2673.6,4538,333.4,""oops"",""up"",""up"",""good_move"",18282,10736,2843.4,15057,381.6,""oops"",""up"",""right"",""bad_move"",24019,5737,2504.2,21187,327.8,""smooth"",""up"",""up"",""good_move"",27186,3167,2811.5,24019,355.5,""smooth"",""left"",""left"",""good_move"",30194,3008,2110.3,27186,897.7,""oops"",""left"",""right"",""bad_move"",33475,3280,2713.5,30195,566.5,""oops"",""left"",""left"",""good_move"",36459,2984,2596.4,33475,387.6,""smooth"",""left"",""left"",""good_move"",39482,3023,1613.5,36459,1409.5,""oops"",""left"",""right"",""bad_move"",41643,2160,1733.5,39483,426.5,""oops"",""left"",""right"",""bad_move"",48268,6625,2424,45517,327,""oops"",""left"",""left"",""good_move"",58491,10223,3003.4,55177,310.6,""oops"",""left"",""left"",""good_move"",67772,9281,1513.2,65850,408.8,""oops"",""left"",""right"",""bad_move"",70428,2656,2225.1,67772,430.9,""oops"",""left"",""down"",""bad_move"",73356,2928,2560.3,70428,367.7,""smooth"",""left"",""left"",""good_move"",76324,2968,2406.9,73356,561.1,""smooth"",""left"",""left"",""good_move"",79300,2976,1792.6,76324,1183.4,""oops"",""left"",""left"",""good_move"",82252,2952,2414.1,79300,537.9,""oops"",""left"",""right"",""bad_move"",84637,2385,2004.6,82252,380.4,""smooth"",""left"",""left"",""good_move"",87588,2951,2486,84637,465,""smooth"",""left"",""left"",""good_move"",90541,2953,2364.1,87588,588.9,""oops"",""up"",""up"",""good_move""]"
"23193","","<div style=""width:500px;"">
  <p>What determined the result of this run?</p>
  </div>","82","html-slider-response","49","773925","0.0-7.0-1.7","64","1","2025-07-30 08:53:10","36c45c0696341be0efffe67d72a12abb","23.17.128.84","Mozilla/5.0 (Windows NT 10.0; Win64; x64; rv:141.0) Gecko/20100101 Firefox/141.0","","Firefox","141.0","Windows","10.0","https://app.prolific.com/","en-US,en;q=0.5","65a4a7343830fdcc679739e0","687a19d2168e237449fb8af4","6889dd356561f65154762160","0","65a4a7343830fdcc679739e0","0","2025-07-30T09:06:07.322Z","","","","AttribQ","","","","","","","","","","","50","","","","","","","","","","","","","","","","","","","","","","","","","","",""
"4041","","<div style=""width:500px;"">
  <p>How much control did you have over the ball?</p>
  </div>","71","html-slider-response","50","777966","0.0-7.0-2.7","64","1","2025-07-30 08:53:10","36c45c0696341be0efffe67d72a12abb","23.17.128.84","Mozilla/5.0 (Windows NT 10.0; Win64; x64; rv:141.0) Gecko/20100101 Firefox/141.0","","Firefox","141.0","Windows","10.0","https://app.prolific.com/","en-US,en;q=0.5","65a4a7343830fdcc679739e0","687a19d2168e237449fb8af4","6889dd356561f65154762160","0","65a4a7343830fdcc679739e0","0","2025-07-30T09:06:11.363Z","","","","ControlQ","","","","","","","","","","","50","","","","","","","","","","","","","","","","","","","","","","","","","","",""
"3218","","<div style=""width:500px;"">
  <p>How would you describe your current emotional state?</p>
  </div>","0","html-slider-response","51","781184","0.0-7.0-3.7","64","1","2025-07-30 08:53:10","36c45c0696341be0efffe67d72a12abb","23.17.128.84","Mozilla/5.0 (Windows NT 10.0; Win64; x64; rv:141.0) Gecko/20100101 Firefox/141.0","","Firefox","141.0","Windows","10.0","https://app.prolific.com/","en-US,en;q=0.5","65a4a7343830fdcc679739e0","687a19d2168e237449fb8af4","6889dd356561f65154762160","0","65a4a7343830fdcc679739e0","0","2025-07-30T09:06:14.581Z","","","","StressQ","","","","","","","","","","","50","","","","","","","","","","","","","","","","","","","","","","","","","","",""
"7293","","<div style=""width:500px;"">
  <p>What best describes how you currently feel?</p>
  </div>","25","html-slider-response","52","788477","0.0-7.0-4.7","64","1","2025-07-30 08:53:10","36c45c0696341be0efffe67d72a12abb","23.17.128.84","Mozilla/5.0 (Windows NT 10.0; Win64; x64; rv:141.0) Gecko/20100101 Firefox/141.0","","Firefox","141.0","Windows","10.0","https://app.prolific.com/","en-US,en;q=0.5","65a4a7343830fdcc679739e0","687a19d2168e237449fb8af4","6889dd356561f65154762160","0","65a4a7343830fdcc679739e0","0","2025-07-30T09:06:21.874Z","","","","MotivationQ","","","","","","","","","","","50","","","","","","","","","","","","","","","","","","","","","","","","","","",""
"","","","","ctl-task-cpt","53","1278646","0.0-7.0-0.8","64","1","2025-07-30 08:53:10","36c45c0696341be0efffe67d72a12abb","23.17.128.84","Mozilla/5.0 (Windows NT 10.0; Win64; x64; rv:141.0) Gecko/20100101 Firefox/141.0","","Firefox","141.0","Windows","10.0","https://app.prolific.com/","en-US,en;q=0.5","65a4a7343830fdcc679739e0","687a19d2168e237449fb8af4","6889dd356561f65154762160","0","65a4a7343830fdcc679739e0","0","2025-07-30T09:14:32.043Z","","","","","","","","","","","","","","","","win-only","2","g1:SE,g2:NW","0.4","9","0","792012","453262","458277","487156","1","4","4","6","2","4","3","37","34","0.2803030303030303","2051","3000","2265","[""left"",""up""]","{""num_key_presses"":8,""num_perfect"":4,""num_errors"":1,""num_randdir"":3,""num_randdir_good_moves"":3,""num_whilered"":0,""num_whileblue"":1,""num_blue"":3,""num_good_moves"":7}","[406.57142857142856,421.27142551967074,0,405.57142857142856,421.27142551967074,104,402.57142857142856,421.27142551967074,215,596.5714285714286,426.27142551967074,319,836.5714285714286,431.27142551967074,428,871.5714285714286,429.27142551967074,532,969.5714285714286,407.27142551967074,639,970.5714285714286,407.27142551967074,745,970.5714285714286,407.27142551967074,849,970.5714285714286,407.27142551967074,960,970.5714285714286,407.27142551967074,1060,970.5714285714286,407.27142551967074,1164,972.5714285714286,404.27142551967074,1267,953.5714285714286,385.27142551967074,1376,951.5714285714286,385.27142551967074,1482,690.5714285714286,327.27142551967074,1587,280.57142857142856,196.27142551967074,1695,231.57142857142856,179.27142551967074,1800,163.57142857142856,141.27142551967074,1903,64.57142857142857,81.27142551967076,2007,63.57142857142857,80.27142551967076,2107,165.57142857142856,108.27142551967076,2211,908.5714285714286,239.27142551967074,2324,1020.5714285714286,257.27142551967074,2434,1020.5714285714286,257.27142551967074,2535,1020.5714285714286,257.27142551967074,2639,1020.5714285714286,257.27142551967074,2745,1020.5714285714286,257.27142551967074,2853,1020.5714285714286,257.27142551967074,2956,1020.5714285714286,257.27142551967074,3063,1020.5714285714286,257.27142551967074,3164,1020.5714285714286,257.27142551967074,3272,1020.5714285714286,257.27142551967074,3381,1020.5714285714286,257.27142551967074,3488,1020.5714285714286,257.27142551967074,3589,1020.5714285714286,257.27142551967074,3694,1020.5714285714286,257.27142551967074,3799,1020.5714285714286,257.27142551967074,3904,1020.5714285714286,257.27142551967074,4010,1020.5714285714286,257.27142551967074,4120,1020.5714285714286,257.27142551967074,4233,1020.5714285714286,257.27142551967074,4339,1020.5714285714286,257.27142551967074,4446,1020.5714285714286,257.27142551967074,4554,1020.5714285714286,257.27142551967074,4660,1020.5714285714286,257.27142551967074,4761,1020.5714285714286,257.27142551967074,4866,1020.5714285714286,257.27142551967074,4967]","[1370,1370,1000,0,370,""smooth"",""left"",""left"",""good_move"",4411,3041,2663.9,1370,377.1,""oops"",""left"",""up"",""good_move"",14027,9616,1736.9,11922,368.1,""smooth"",""left"",""left"",""good_move"",17043,3016,2618.5,14027,397.5,""smooth"",""up"",""up"",""good_move"",19803,2760,2434.8,17043,325.2,""smooth"",""left"",""left"",""good_move"",22627,2824,2532,19803,292,""while_blue"",""up"",""down"",""bad_move"",25123,2496,2158.6,22627,337.4,""oops"",""up"",""up"",""good_move"",28604,3481,3184.1,25123,296.9,""oops"",""up"",""up"",""good_move""]"
"4441","","<div style=""width:500px;"">
  <p>What determined the result of this run?</p>
  </div>","81","html-slider-response","54","1283088","0.0-7.0-1.8","64","1","2025-07-30 08:53:10","36c45c0696341be0efffe67d72a12abb","23.17.128.84","Mozilla/5.0 (Windows NT 10.0; Win64; x64; rv:141.0) Gecko/20100101 Firefox/141.0","","Firefox","141.0","Windows","10.0","https://app.prolific.com/","en-US,en;q=0.5","65a4a7343830fdcc679739e0","687a19d2168e237449fb8af4","6889dd356561f65154762160","0","65a4a7343830fdcc679739e0","0","2025-07-30T09:14:36.485Z","","","","AttribQ","","","","","","","","","","","50","","","","","","","","","","","","","","","","","","","","","","","","","","",""
"3871","","<div style=""width:500px;"">
  <p>How much control did you have over the ball?</p>
  </div>","84","html-slider-response","55","1286960","0.0-7.0-2.8","64","1","2025-07-30 08:53:10","36c45c0696341be0efffe67d72a12abb","23.17.128.84","Mozilla/5.0 (Windows NT 10.0; Win64; x64; rv:141.0) Gecko/20100101 Firefox/141.0","","Firefox","141.0","Windows","10.0","https://app.prolific.com/","en-US,en;q=0.5","65a4a7343830fdcc679739e0","687a19d2168e237449fb8af4","6889dd356561f65154762160","0","65a4a7343830fdcc679739e0","0","2025-07-30T09:14:40.357Z","","","","ControlQ","","","","","","","","","","","50","","","","","","","","","","","","","","","","","","","","","","","","","","",""
"1599","","<div style=""width:500px;"">
  <p>How would you describe your current emotional state?</p>
  </div>","0","html-slider-response","56","1288560","0.0-7.0-3.8","64","1","2025-07-30 08:53:10","36c45c0696341be0efffe67d72a12abb","23.17.128.84","Mozilla/5.0 (Windows NT 10.0; Win64; x64; rv:141.0) Gecko/20100101 Firefox/141.0","","Firefox","141.0","Windows","10.0","https://app.prolific.com/","en-US,en;q=0.5","65a4a7343830fdcc679739e0","687a19d2168e237449fb8af4","6889dd356561f65154762160","0","65a4a7343830fdcc679739e0","0","2025-07-30T09:14:41.957Z","","","","StressQ","","","","","","","","","","","50","","","","","","","","","","","","","","","","","","","","","","","","","","",""
"2628","","<div style=""width:500px;"">
  <p>What best describes how you currently feel?</p>
  </div>","14","html-slider-response","57","1291189","0.0-7.0-4.8","64","1","2025-07-30 08:53:10","36c45c0696341be0efffe67d72a12abb","23.17.128.84","Mozilla/5.0 (Windows NT 10.0; Win64; x64; rv:141.0) Gecko/20100101 Firefox/141.0","","Firefox","141.0","Windows","10.0","https://app.prolific.com/","en-US,en;q=0.5","65a4a7343830fdcc679739e0","687a19d2168e237449fb8af4","6889dd356561f65154762160","0","65a4a7343830fdcc679739e0","0","2025-07-30T09:14:44.586Z","","","","MotivationQ","","","","","","","","","","","50","","","","","","","","","","","","","","","","","","","","","","","","","","",""
"","","","","ctl-task-cpt","58","1319728","0.0-7.0-0.9","64","1","2025-07-30 08:53:10","36c45c0696341be0efffe67d72a12abb","23.17.128.84","Mozilla/5.0 (Windows NT 10.0; Win64; x64; rv:141.0) Gecko/20100101 Firefox/141.0","","Firefox","141.0","Windows","10.0","https://app.prolific.com/","en-US,en;q=0.5","65a4a7343830fdcc679739e0","687a19d2168e237449fb8af4","6889dd356561f65154762160","0","65a4a7343830fdcc679739e0","0","2025-07-30T09:15:13.125Z","","","","","","","","","","","","","","","","win-only","3","g1:SW,g2:NE","0.5","10","0","1294724","1113","6128","25531","1","4","8","6","2","8","8","45","37","0.3409090909090909","974","3000","2370","[""up"",""right""]","{""num_key_presses"":6,""num_perfect"":4,""num_errors"":0,""num_randdir"":2,""num_randdir_good_moves"":2,""num_whilered"":0,""num_whileblue"":0,""num_blue"":1,""num_good_moves"":6}","[418.57142857142856,416.27142551967074,0,418.57142857142856,416.27142551967074,104,418.57142857142856,416.27142551967074,210,418.57142857142856,416.27142551967074,318,418.57142857142856,416.27142551967074,425,418.57142857142856,416.27142551967074,532,426.57142857142856,412.27142551967074,636,660.5714285714286,286.27142551967074,740,764.5714285714286,134.27142551967074,840,783.5714285714286,82.27142551967076,951,783.5714285714286,81.27142551967076,1060,908.5714285714286,112.27142551967076,1160,950.5714285714286,121.27142551967076,1272,950.5714285714286,121.27142551967076,1376,950.5714285714286,121.27142551967076,1486,950.5714285714286,121.27142551967076,1587,950.5714285714286,121.27142551967076,1702,950.5714285714286,121.27142551967076,1808,950.5714285714286,121.27142551967076,1914,950.5714285714286,121.27142551967076,2015,950.5714285714286,121.27142551967076,2115,950.5714285714286,121.27142551967076,2218,950.5714285714286,121.27142551967076,2327,950.5714285714286,121.27142551967076,2442,950.5714285714286,121.27142551967076,2545,950.5714285714286,121.27142551967076,2646,950.5714285714286,121.27142551967076,2748,950.5714285714286,121.27142551967076,2848,950.5714285714286,121.27142551967076,2948,950.5714285714286,121.27142551967076,3058,950.5714285714286,121.27142551967076,3163,950.5714285714286,121.27142551967076,3276,950.5714285714286,121.27142551967076,3377,950.5714285714286,121.27142551967076,3483,950.5714285714286,121.27142551967076,3586,950.5714285714286,121.27142551967076,3698,950.5714285714286,121.27142551967076,3802,950.5714285714286,121.27142551967076,3907,950.5714285714286,121.27142551967076,4007,950.5714285714286,121.27142551967076,4108,950.5714285714286,121.27142551967076,4217,950.5714285714286,121.27142551967076,4318,950.5714285714286,121.27142551967076,4434,950.5714285714286,121.27142551967076,4544,950.5714285714286,121.27142551967076,4653,950.5714285714286,121.27142551967076,4757,950.5714285714286,121.27142551967076,4859,950.5714285714286,121.27142551967076,4970]","[1441,1441,1000,0,441,""smooth"",""right"",""right"",""good_move"",3993,2552,2200.9,1441,351.1,""oops"",""up"",""right"",""good_move"",6986,2993,2664.9,3993,328.1,""smooth"",""up"",""up"",""good_move"",9793,2807,2430.4,6986,376.6,""smooth"",""up"",""up"",""good_move"",12626,2833,2030.3,9793,802.7,""oops"",""up"",""up"",""good_move"",19210,6584,2662.3,16236,311.7,""smooth"",""right"",""right"",""good_move""]"
"2781","","<div style=""width:500px;"">
  <p>What determined the result of this run?</p>
  </div>","87","html-slider-response","59","1322509","0.0-7.0-1.9","64","1","2025-07-30 08:53:10","36c45c0696341be0efffe67d72a12abb","23.17.128.84","Mozilla/5.0 (Windows NT 10.0; Win64; x64; rv:141.0) Gecko/20100101 Firefox/141.0","","Firefox","141.0","Windows","10.0","https://app.prolific.com/","en-US,en;q=0.5","65a4a7343830fdcc679739e0","687a19d2168e237449fb8af4","6889dd356561f65154762160","0","65a4a7343830fdcc679739e0","0","2025-07-30T09:15:15.906Z","","","","AttribQ","","","","","","","","","","","50","","","","","","","","","","","","","","","","","","","","","","","","","","",""
"1931","","<div style=""width:500px;"">
  <p>How much control did you have over the ball?</p>
  </div>","88","html-slider-response","60","1324442","0.0-7.0-2.9","64","1","2025-07-30 08:53:10","36c45c0696341be0efffe67d72a12abb","23.17.128.84","Mozilla/5.0 (Windows NT 10.0; Win64; x64; rv:141.0) Gecko/20100101 Firefox/141.0","","Firefox","141.0","Windows","10.0","https://app.prolific.com/","en-US,en;q=0.5","65a4a7343830fdcc679739e0","687a19d2168e237449fb8af4","6889dd356561f65154762160","0","65a4a7343830fdcc679739e0","0","2025-07-30T09:15:17.839Z","","","","ControlQ","","","","","","","","","","","50","","","","","","","","","","","","","","","","","","","","","","","","","","",""
"1401","","<div style=""width:500px;"">
  <p>How would you describe your current emotional state?</p>
  </div>","0","html-slider-response","61","1325844","0.0-7.0-3.9","64","1","2025-07-30 08:53:10","36c45c0696341be0efffe67d72a12abb","23.17.128.84","Mozilla/5.0 (Windows NT 10.0; Win64; x64; rv:141.0) Gecko/20100101 Firefox/141.0","","Firefox","141.0","Windows","10.0","https://app.prolific.com/","en-US,en;q=0.5","65a4a7343830fdcc679739e0","687a19d2168e237449fb8af4","6889dd356561f65154762160","0","65a4a7343830fdcc679739e0","0","2025-07-30T09:15:19.241Z","","","","StressQ","","","","","","","","","","","50","","","","","","","","","","","","","","","","","","","","","","","","","","",""
"1674","","<div style=""width:500px;"">
  <p>What best describes how you currently feel?</p>
  </div>","17","html-slider-response","62","1327519","0.0-7.0-4.9","64","1","2025-07-30 08:53:10","36c45c0696341be0efffe67d72a12abb","23.17.128.84","Mozilla/5.0 (Windows NT 10.0; Win64; x64; rv:141.0) Gecko/20100101 Firefox/141.0","","Firefox","141.0","Windows","10.0","https://app.prolific.com/","en-US,en;q=0.5","65a4a7343830fdcc679739e0","687a19d2168e237449fb8af4","6889dd356561f65154762160","0","65a4a7343830fdcc679739e0","0","2025-07-30T09:15:20.916Z","","","","MotivationQ","","","","","","","","","","","50","","","","","","","","","","","","","","","","","","","","","","","","","","",""
"","","","","ctl-task-cpt","63","1374807","0.0-7.0-0.10","64","1","2025-07-30 08:53:10","36c45c0696341be0efffe67d72a12abb","23.17.128.84","Mozilla/5.0 (Windows NT 10.0; Win64; x64; rv:141.0) Gecko/20100101 Firefox/141.0","","Firefox","141.0","Windows","10.0","https://app.prolific.com/","en-US,en;q=0.5","65a4a7343830fdcc679739e0","687a19d2168e237449fb8af4","6889dd356561f65154762160","0","65a4a7343830fdcc679739e0","0","2025-07-30T09:16:08.204Z","","","","","","","","","","","","","","","","win-only","1","g1:NE,g2:SW","0.6","11","0","1331054","836","5844","44280","1","4","8","6","2","8","7","52","45","0.3939393939393939","1502","3000","1590","[""down"",""left""]","{""num_key_presses"":12,""num_perfect"":7,""num_errors"":1,""num_randdir"":4,""num_randdir_good_moves"":2,""num_whilered"":0,""num_whileblue"":1,""num_blue"":3,""num_good_moves"":9}","[421.57142857142856,418.27142551967074,0,421.57142857142856,418.27142551967074,102,644.5714285714286,456.27142551967074,204,874.5714285714286,469.27142551967074,305,884.5714285714286,454.27142551967074,407,884.5714285714286,454.27142551967074,508,884.5714285714286,454.27142551967074,615,884.5714285714286,454.27142551967074,719,884.5714285714286,454.27142551967074,821,884.5714285714286,454.27142551967074,923,471.57142857142856,455.27142551967074,1025,30.57142857142857,611.2714255196707,1125,-142.42857142857144,743.2714255196707,1229,-40.42857142857143,743.2714255196707,1330,66.57142857142857,744.2714255196707,1434,71.57142857142857,745.2714255196707,1535,176.57142857142856,745.2714255196707,1635,934.5714285714286,719.2714255196707,1735,1054.5714285714287,709.2714255196707,1836,1019.5714285714286,618.2714255196707,1939,966.5714285714286,536.2714255196707,2040,1000.5714285714286,523.2714255196707,2146,1005.5714285714286,522.2714255196707,2252,1005.5714285714286,522.2714255196707,2355,1005.5714285714286,522.2714255196707,2463,1005.5714285714286,522.2714255196707,2568,1005.5714285714286,522.2714255196707,2673,1005.5714285714286,522.2714255196707,2775,1005.5714285714286,522.2714255196707,2877,1005.5714285714286,522.2714255196707,2987,1005.5714285714286,522.2714255196707,3096,1005.5714285714286,522.2714255196707,3200,1005.5714285714286,522.2714255196707,3301,1005.5714285714286,522.2714255196707,3403,1005.5714285714286,522.2714255196707,3505,1005.5714285714286,522.2714255196707,3613,1005.5714285714286,522.2714255196707,3719,1005.5714285714286,522.2714255196707,3821,1005.5714285714286,522.2714255196707,3924,1005.5714285714286,522.2714255196707,4029,1005.5714285714286,522.2714255196707,4133,1005.5714285714286,522.2714255196707,4236,1005.5714285714286,522.2714255196707,4343,1005.5714285714286,522.2714255196707,4446,1005.5714285714286,522.2714255196707,4552,1005.5714285714286,522.2714255196707,4656,1005.5714285714286,522.2714255196707,4762,1005.5714285714286,522.2714255196707,4865,1005.5714285714286,522.2714255196707,4966]","[5309,5309,2926.1,2018,364.9,""smooth"",""down"",""down"",""good_move"",7565,2256,1784,5309,472,""smooth"",""down"",""down"",""good_move"",10085,2520,2199,7565,321,""smooth"",""down"",""down"",""good_move"",12645,2560,2264.4,10085,295.6,""smooth"",""left"",""left"",""good_move"",15765,3120,2855,12645,265,""while_blue"",""left"",""right"",""bad_move"",20117,4352,855.8,18940,321.2,""smooth"",""left"",""left"",""good_move"",23157,3040,2261.2,20117,778.8,""smooth"",""left"",""left"",""good_move"",26597,3440,3106.7,23157,333.3,""oops"",""left"",""right"",""bad_move"",29141,2544,2107.5,26597,436.5,""oops"",""left"",""left"",""good_move"",32173,3032,2144.6,29141,887.4,""oops"",""left"",""up"",""bad_move"",35198,3025,2330,32173,695,""oops"",""left"",""left"",""good_move"",38166,2968,2289.7,35198,678.3,""smooth"",""down"",""down"",""good_move""]"
"2166","","<div style=""width:500px;"">
  <p>What determined the result of this run?</p>
  </div>","90","html-slider-response","64","1376974","0.0-7.0-1.10","64","1","2025-07-30 08:53:10","36c45c0696341be0efffe67d72a12abb","23.17.128.84","Mozilla/5.0 (Windows NT 10.0; Win64; x64; rv:141.0) Gecko/20100101 Firefox/141.0","","Firefox","141.0","Windows","10.0","https://app.prolific.com/","en-US,en;q=0.5","65a4a7343830fdcc679739e0","687a19d2168e237449fb8af4","6889dd356561f65154762160","0","65a4a7343830fdcc679739e0","0","2025-07-30T09:16:10.371Z","","","","AttribQ","","","","","","","","","","","50","","","","","","","","","","","","","","","","","","","","","","","","","","",""
"1863","","<div style=""width:500px;"">
  <p>How much control did you have over the ball?</p>
  </div>","88","html-slider-response","65","1378837","0.0-7.0-2.10","64","1","2025-07-30 08:53:10","36c45c0696341be0efffe67d72a12abb","23.17.128.84","Mozilla/5.0 (Windows NT 10.0; Win64; x64; rv:141.0) Gecko/20100101 Firefox/141.0","","Firefox","141.0","Windows","10.0","https://app.prolific.com/","en-US,en;q=0.5","65a4a7343830fdcc679739e0","687a19d2168e237449fb8af4","6889dd356561f65154762160","0","65a4a7343830fdcc679739e0","0","2025-07-30T09:16:12.234Z","","","","ControlQ","","","","","","","","","","","50","","","","","","","","","","","","","","","","","","","","","","","","","","",""
"1375","","<div style=""width:500px;"">
  <p>How would you describe your current emotional state?</p>
  </div>","0","html-slider-response","66","1380214","0.0-7.0-3.10","64","1","2025-07-30 08:53:10","36c45c0696341be0efffe67d72a12abb","23.17.128.84","Mozilla/5.0 (Windows NT 10.0; Win64; x64; rv:141.0) Gecko/20100101 Firefox/141.0","","Firefox","141.0","Windows","10.0","https://app.prolific.com/","en-US,en;q=0.5","65a4a7343830fdcc679739e0","687a19d2168e237449fb8af4","6889dd356561f65154762160","0","65a4a7343830fdcc679739e0","0","2025-07-30T09:16:13.611Z","","","","StressQ","","","","","","","","","","","50","","","","","","","","","","","","","","","","","","","","","","","","","","",""
"2421","","<div style=""width:500px;"">
  <p>What best describes how you currently feel?</p>
  </div>","12","html-slider-response","67","1382636","0.0-7.0-4.10","64","1","2025-07-30 08:53:10","36c45c0696341be0efffe67d72a12abb","23.17.128.84","Mozilla/5.0 (Windows NT 10.0; Win64; x64; rv:141.0) Gecko/20100101 Firefox/141.0","","Firefox","141.0","Windows","10.0","https://app.prolific.com/","en-US,en;q=0.5","65a4a7343830fdcc679739e0","687a19d2168e237449fb8af4","6889dd356561f65154762160","0","65a4a7343830fdcc679739e0","0","2025-07-30T09:16:16.033Z","","","","MotivationQ","","","","","","","","","","","50","","","","","","","","","","","","","","","","","","","","","","","","","","",""
"","","","","ctl-task-cpt","68","1411936","0.0-7.0-0.11","64","1","2025-07-30 08:53:10","36c45c0696341be0efffe67d72a12abb","23.17.128.84","Mozilla/5.0 (Windows NT 10.0; Win64; x64; rv:141.0) Gecko/20100101 Firefox/141.0","","Firefox","141.0","Windows","10.0","https://app.prolific.com/","en-US,en;q=0.5","65a4a7343830fdcc679739e0","687a19d2168e237449fb8af4","6889dd356561f65154762160","0","65a4a7343830fdcc679739e0","0","2025-07-30T09:16:45.333Z","","","","","","","","","","","","","","","","win-only","3","g1:SW,g2:NE","0.7","12","0","1386171","1181","6190","26290","1","4","4","6","2","4","4","56","52","0.42424242424242425","1226","3000","2300","[""up"",""right""]","{""num_key_presses"":6,""num_perfect"":4,""num_errors"":0,""num_randdir"":2,""num_randdir_good_moves"":2,""num_whilered"":0,""num_whileblue"":0,""num_blue"":1,""num_good_moves"":6}","[417.57142857142856,427.27142551967074,0,414.57142857142856,425.27142551967074,116,411.57142857142856,424.27142551967074,226,476.57142857142856,534.2714255196707,338,658.5714285714286,584.2714255196707,448,855.5714285714286,571.2714255196707,558,885.5714285714286,571.2714255196707,669,885.5714285714286,571.2714255196707,780,885.5714285714286,571.2714255196707,892,870.5714285714286,457.27142551967074,1003,806.5714285714286,135.27142551967074,1113,806.5714285714286,102.27142551967076,1224,905.5714285714286,144.27142551967074,1335,1027.5714285714287,214.27142551967074,1446,1027.5714285714287,214.27142551967074,1556,1027.5714285714287,214.27142551967074,1667,1027.5714285714287,214.27142551967074,1779,1027.5714285714287,214.27142551967074,1889,1027.5714285714287,214.27142551967074,2000,1027.5714285714287,214.27142551967074,2111,1027.5714285714287,214.27142551967074,2222,1027.5714285714287,214.27142551967074,2333,1027.5714285714287,214.27142551967074,2443,1027.5714285714287,214.27142551967074,2554,1027.5714285714287,214.27142551967074,2665,1027.5714285714287,214.27142551967074,2776,1027.5714285714287,214.27142551967074,2887,1027.5714285714287,214.27142551967074,2997,1027.5714285714287,214.27142551967074,3109,1027.5714285714287,214.27142551967074,3220,1027.5714285714287,214.27142551967074,3331,1027.5714285714287,214.27142551967074,3442,1027.5714285714287,214.27142551967074,3553,1027.5714285714287,214.27142551967074,3664,1027.5714285714287,214.27142551967074,3774,1027.5714285714287,214.27142551967074,3886,1027.5714285714287,214.27142551967074,3996,1027.5714285714287,214.27142551967074,4107,1027.5714285714287,214.27142551967074,4218,1027.5714285714287,214.27142551967074,4327,1027.5714285714287,214.27142551967074,4437,1027.5714285714287,214.27142551967074,4548,1027.5714285714287,214.27142551967074,4659,1027.5714285714287,214.27142551967074,4770,1027.5714285714287,214.27142551967074,4882,1027.5714285714287,214.27142551967074,4993]","[1343,1343,1000,0,343,""smooth"",""up"",""up"",""good_move"",8128,6785,2596.7,5043,488.3,""oops"",""up"",""right"",""good_move"",10920,2792,2336.3,8128,455.7,""smooth"",""up"",""up"",""good_move"",14376,3456,3084.2,10920,371.8,""oops"",""up"",""right"",""good_move"",16704,2328,1963.9,14376,364.1,""smooth"",""up"",""up"",""good_move"",19808,3104,2778.5,16704,325.5,""smooth"",""right"",""right"",""good_move""]"
"2826","","<div style=""width:500px;"">
  <p>What determined the result of this run?</p>
  </div>","88","html-slider-response","69","1414763","0.0-7.0-1.11","64","1","2025-07-30 08:53:10","36c45c0696341be0efffe67d72a12abb","23.17.128.84","Mozilla/5.0 (Windows NT 10.0; Win64; x64; rv:141.0) Gecko/20100101 Firefox/141.0","","Firefox","141.0","Windows","10.0","https://app.prolific.com/","en-US,en;q=0.5","65a4a7343830fdcc679739e0","687a19d2168e237449fb8af4","6889dd356561f65154762160","0","65a4a7343830fdcc679739e0","0","2025-07-30T09:16:48.160Z","","","","AttribQ","","","","","","","","","","","50","","","","","","","","","","","","","","","","","","","","","","","","","","",""
"1953","","<div style=""width:500px;"">
  <p>How much control did you have over the ball?</p>
  </div>","84","html-slider-response","70","1416717","0.0-7.0-2.11","64","1","2025-07-30 08:53:10","36c45c0696341be0efffe67d72a12abb","23.17.128.84","Mozilla/5.0 (Windows NT 10.0; Win64; x64; rv:141.0) Gecko/20100101 Firefox/141.0","","Firefox","141.0","Windows","10.0","https://app.prolific.com/","en-US,en;q=0.5","65a4a7343830fdcc679739e0","687a19d2168e237449fb8af4","6889dd356561f65154762160","0","65a4a7343830fdcc679739e0","0","2025-07-30T09:16:50.114Z","","","","ControlQ","","","","","","","","","","","50","","","","","","","","","","","","","","","","","","","","","","","","","","",""
"1866","","<div style=""width:500px;"">
  <p>How would you describe your current emotional state?</p>
  </div>","0","html-slider-response","71","1418583","0.0-7.0-3.11","64","1","2025-07-30 08:53:10","36c45c0696341be0efffe67d72a12abb","23.17.128.84","Mozilla/5.0 (Windows NT 10.0; Win64; x64; rv:141.0) Gecko/20100101 Firefox/141.0","","Firefox","141.0","Windows","10.0","https://app.prolific.com/","en-US,en;q=0.5","65a4a7343830fdcc679739e0","687a19d2168e237449fb8af4","6889dd356561f65154762160","0","65a4a7343830fdcc679739e0","0","2025-07-30T09:16:51.980Z","","","","StressQ","","","","","","","","","","","50","","","","","","","","","","","","","","","","","","","","","","","","","","",""
"1194","","<div style=""width:500px;"">
  <p>What best describes how you currently feel?</p>
  </div>","13","html-slider-response","72","1419777","0.0-7.0-4.11","64","1","2025-07-30 08:53:10","36c45c0696341be0efffe67d72a12abb","23.17.128.84","Mozilla/5.0 (Windows NT 10.0; Win64; x64; rv:141.0) Gecko/20100101 Firefox/141.0","","Firefox","141.0","Windows","10.0","https://app.prolific.com/","en-US,en;q=0.5","65a4a7343830fdcc679739e0","687a19d2168e237449fb8af4","6889dd356561f65154762160","0","65a4a7343830fdcc679739e0","0","2025-07-30T09:16:53.174Z","","","","MotivationQ","","","","","","","","","","","50","","","","","","","","","","","","","","","","","","","","","","","","","","",""
"","","","","ctl-task-cpt","73","1449152","0.0-7.0-0.12","64","1","2025-07-30 08:53:10","36c45c0696341be0efffe67d72a12abb","23.17.128.84","Mozilla/5.0 (Windows NT 10.0; Win64; x64; rv:141.0) Gecko/20100101 Firefox/141.0","","Firefox","141.0","Windows","10.0","https://app.prolific.com/","en-US,en;q=0.5","65a4a7343830fdcc679739e0","687a19d2168e237449fb8af4","6889dd356561f65154762160","0","65a4a7343830fdcc679739e0","0","2025-07-30T09:17:22.549Z","","","","","","","","","","","","","","","","win-only","0","g1:NW,g2:SE","0.8","13","0","1423313","916","5921","26363","1","4","4","6","2","4","4","60","56","0.45454545454545453","923","3000","2340","[""down"",""right""]","{""num_key_presses"":6,""num_perfect"":6,""num_errors"":0,""num_randdir"":0,""num_randdir_good_moves"":0,""num_whilered"":0,""num_whileblue"":0,""num_blue"":1,""num_good_moves"":6}","[415.57142857142856,422.27142551967074,0,415.57142857142856,422.27142551967074,106,515.5714285714286,423.27142551967074,215,619.5714285714286,427.27142551967074,324,619.5714285714286,427.27142551967074,432,641.5714285714286,432.27142551967074,540,713.5714285714286,513.2714255196707,646,769.5714285714286,651.2714255196707,754,790.5714285714286,746.2714255196707,862,794.5714285714286,759.2714255196707,971,824.5714285714286,720.2714255196707,1078,934.5714285714286,643.2714255196707,1185,935.5714285714286,643.2714255196707,1293,935.5714285714286,643.2714255196707,1400,935.5714285714286,643.2714255196707,1508,935.5714285714286,643.2714255196707,1618,935.5714285714286,643.2714255196707,1726,935.5714285714286,643.2714255196707,1836,935.5714285714286,643.2714255196707,1944,935.5714285714286,643.2714255196707,2051,935.5714285714286,643.2714255196707,2158,935.5714285714286,643.2714255196707,2266,935.5714285714286,643.2714255196707,2375,935.5714285714286,643.2714255196707,2481,935.5714285714286,643.2714255196707,2589,935.5714285714286,643.2714255196707,2697,935.5714285714286,643.2714255196707,2806,935.5714285714286,643.2714255196707,2914,935.5714285714286,643.2714255196707,3024,935.5714285714286,643.2714255196707,3131,935.5714285714286,643.2714255196707,3240,935.5714285714286,643.2714255196707,3348,935.5714285714286,643.2714255196707,3457,935.5714285714286,643.2714255196707,3566,935.5714285714286,643.2714255196707,3674,935.5714285714286,643.2714255196707,3782,935.5714285714286,643.2714255196707,3890,935.5714285714286,643.2714255196707,3999,935.5714285714286,643.2714255196707,4106,935.5714285714286,643.2714255196707,4214,935.5714285714286,643.2714255196707,4324,935.5714285714286,643.2714255196707,4433,935.5714285714286,643.2714255196707,4542,935.5714285714286,643.2714255196707,4649,935.5714285714286,643.2714255196707,4757,935.5714285714286,643.2714255196707,4865,935.5714285714286,643.2714255196707,4974]","[1367,1367,1000,0,367,""smooth"",""right"",""right"",""good_move"",4976,3609,3302.3,1367,306.7,""smooth"",""down"",""down"",""good_move"",8112,3136,2786.8,4976,349.2,""smooth"",""right"",""right"",""good_move"",11320,3208,2872,8112,336,""smooth"",""down"",""down"",""good_move"",17024,5704,2109.8,14570,344.2,""smooth"",""down"",""down"",""good_move"",20176,3152,2712.5,17024,439.5,""smooth"",""right"",""right"",""good_move""]"
"2959","","<div style=""width:500px;"">
  <p>What determined the result of this run?</p>
  </div>","82","html-slider-response","74","1452112","0.0-7.0-1.12","64","1","2025-07-30 08:53:10","36c45c0696341be0efffe67d72a12abb","23.17.128.84","Mozilla/5.0 (Windows NT 10.0; Win64; x64; rv:141.0) Gecko/20100101 Firefox/141.0","","Firefox","141.0","Windows","10.0","https://app.prolific.com/","en-US,en;q=0.5","65a4a7343830fdcc679739e0","687a19d2168e237449fb8af4","6889dd356561f65154762160","0","65a4a7343830fdcc679739e0","0","2025-07-30T09:17:25.509Z","","","","AttribQ","","","","","","","","","","","50","","","","","","","","","","","","","","","","","","","","","","","","","","",""
"1268","","<div style=""width:500px;"">
  <p>How much control did you have over the ball?</p>
  </div>","85","html-slider-response","75","1453381","0.0-7.0-2.12","64","1","2025-07-30 08:53:10","36c45c0696341be0efffe67d72a12abb","23.17.128.84","Mozilla/5.0 (Windows NT 10.0; Win64; x64; rv:141.0) Gecko/20100101 Firefox/141.0","","Firefox","141.0","Windows","10.0","https://app.prolific.com/","en-US,en;q=0.5","65a4a7343830fdcc679739e0","687a19d2168e237449fb8af4","6889dd356561f65154762160","0","65a4a7343830fdcc679739e0","0","2025-07-30T09:17:26.778Z","","","","ControlQ","","","","","","","","","","","50","","","","","","","","","","","","","","","","","","","","","","","","","","",""
"1564","","<div style=""width:500px;"">
  <p>How would you describe your current emotional state?</p>
  </div>","0","html-slider-response","76","1454944","0.0-7.0-3.12","64","1","2025-07-30 08:53:10","36c45c0696341be0efffe67d72a12abb","23.17.128.84","Mozilla/5.0 (Windows NT 10.0; Win64; x64; rv:141.0) Gecko/20100101 Firefox/141.0","","Firefox","141.0","Windows","10.0","https://app.prolific.com/","en-US,en;q=0.5","65a4a7343830fdcc679739e0","687a19d2168e237449fb8af4","6889dd356561f65154762160","0","65a4a7343830fdcc679739e0","0","2025-07-30T09:17:28.341Z","","","","StressQ","","","","","","","","","","","50","","","","","","","","","","","","","","","","","","","","","","","","","","",""
"1347","","<div style=""width:500px;"">
  <p>What best describes how you currently feel?</p>
  </div>","14","html-slider-response","77","1456293","0.0-7.0-4.12","64","1","2025-07-30 08:53:10","36c45c0696341be0efffe67d72a12abb","23.17.128.84","Mozilla/5.0 (Windows NT 10.0; Win64; x64; rv:141.0) Gecko/20100101 Firefox/141.0","","Firefox","141.0","Windows","10.0","https://app.prolific.com/","en-US,en;q=0.5","65a4a7343830fdcc679739e0","687a19d2168e237449fb8af4","6889dd356561f65154762160","0","65a4a7343830fdcc679739e0","0","2025-07-30T09:17:29.690Z","","","","MotivationQ","","","","","","","","","","","50","","","","","","","","","","","","","","","","","","","","","","","","","","",""
"","","","","ctl-task-cpt","78","1489034","0.0-7.0-0.13","64","1","2025-07-30 08:53:10","36c45c0696341be0efffe67d72a12abb","23.17.128.84","Mozilla/5.0 (Windows NT 10.0; Win64; x64; rv:141.0) Gecko/20100101 Firefox/141.0","","Firefox","141.0","Windows","10.0","https://app.prolific.com/","en-US,en;q=0.5","65a4a7343830fdcc679739e0","687a19d2168e237449fb8af4","6889dd356561f65154762160","0","65a4a7343830fdcc679739e0","0","2025-07-30T09:18:02.431Z","","","","","","","","","","","","","","","","win-only","3","g1:SW,g2:NE","0.9","14","0","1459828","1133","6141","29727","1","4","8","6","2","8","8","68","60","0.5151515151515151","912","3000","2340","[""up"",""right""]","{""num_key_presses"":6,""num_perfect"":6,""num_errors"":0,""num_randdir"":0,""num_randdir_good_moves"":0,""num_whilered"":0,""num_whileblue"":0,""num_blue"":2,""num_good_moves"":6}","[412.57142857142856,408.27142551967074,0,412.57142857142856,408.27142551967074,109,411.57142857142856,408.27142551967074,221,411.57142857142856,408.27142551967074,332,459.57142857142856,432.27142551967074,443,576.5714285714286,452.27142551967074,554,692.5714285714286,330.27142551967074,666,796.5714285714286,164.27142551967074,776,802.5714285714286,76.27142551967076,886,807.5714285714286,73.27142551967076,997,1006.5714285714286,128.27142551967074,1108,1056.5714285714287,141.27142551967074,1218,1056.5714285714287,141.27142551967074,1329,1056.5714285714287,141.27142551967074,1440,1056.5714285714287,141.27142551967074,1552,1056.5714285714287,141.27142551967074,1662,1056.5714285714287,141.27142551967074,1774,1056.5714285714287,141.27142551967074,1885,1056.5714285714287,141.27142551967074,1996,1056.5714285714287,141.27142551967074,2107,1056.5714285714287,141.27142551967074,2217,1056.5714285714287,141.27142551967074,2329,1056.5714285714287,141.27142551967074,2440,1056.5714285714287,141.27142551967074,2551,1056.5714285714287,141.27142551967074,2663,1056.5714285714287,141.27142551967074,2773,1056.5714285714287,141.27142551967074,2883,1056.5714285714287,141.27142551967074,2996,1056.5714285714287,141.27142551967074,3106,1056.5714285714287,141.27142551967074,3218,1056.5714285714287,141.27142551967074,3329,1056.5714285714287,141.27142551967074,3439,1056.5714285714287,141.27142551967074,3551,1056.5714285714287,141.27142551967074,3661,1056.5714285714287,141.27142551967074,3772,1056.5714285714287,141.27142551967074,3883,1056.5714285714287,141.27142551967074,3994,1056.5714285714287,141.27142551967074,4106,1056.5714285714287,141.27142551967074,4217,1056.5714285714287,141.27142551967074,4329,1056.5714285714287,141.27142551967074,4440,1056.5714285714287,141.27142551967074,4551,1056.5714285714287,141.27142551967074,4664,1056.5714285714287,141.27142551967074,4774,1056.5714285714287,141.27142551967074,4879,1056.5714285714287,141.27142551967074,4983]","[1402,1402,1000,0,402,""smooth"",""right"",""right"",""good_move"",3962,2560,2194.3,1402,365.7,""smooth"",""up"",""up"",""good_move"",6842,2880,2307.6,3962,572.4,""smooth"",""up"",""up"",""good_move"",17355,10513,2927.3,14075,352.7,""smooth"",""right"",""right"",""good_move"",19931,2576,2216.4,17355,359.6,""smooth"",""up"",""up"",""good_move"",23291,3360,3078.2,19931,281.8,""smooth"",""right"",""right"",""good_move""]"
"591938","","<div style=""width:500px;"">
  <p>What determined the result of this run?</p>
  </div>","80","html-slider-response","79","2080974","0.0-7.0-1.13","64","1","2025-07-30 08:53:10","36c45c0696341be0efffe67d72a12abb","23.17.128.84","Mozilla/5.0 (Windows NT 10.0; Win64; x64; rv:141.0) Gecko/20100101 Firefox/141.0","","Firefox","141.0","Windows","10.0","https://app.prolific.com/","en-US,en;q=0.5","65a4a7343830fdcc679739e0","687a19d2168e237449fb8af4","6889dd356561f65154762160","0","65a4a7343830fdcc679739e0","0","2025-07-30T09:27:54.371Z","","","","AttribQ","","","","","","","","","","","50","","","","","","","","","","","","","","","","","","","","","","","","","","",""
"1928","","<div style=""width:500px;"">
  <p>How much control did you have over the ball?</p>
  </div>","79","html-slider-response","80","2082903","0.0-7.0-2.13","64","1","2025-07-30 08:53:10","36c45c0696341be0efffe67d72a12abb","23.17.128.84","Mozilla/5.0 (Windows NT 10.0; Win64; x64; rv:141.0) Gecko/20100101 Firefox/141.0","","Firefox","141.0","Windows","10.0","https://app.prolific.com/","en-US,en;q=0.5","65a4a7343830fdcc679739e0","687a19d2168e237449fb8af4","6889dd356561f65154762160","0","65a4a7343830fdcc679739e0","0","2025-07-30T09:27:56.300Z","","","","ControlQ","","","","","","","","","","","50","","","","","","","","","","","","","","","","","","","","","","","","","","",""
"1371","","<div style=""width:500px;"">
  <p>How would you describe your current emotional state?</p>
  </div>","0","html-slider-response","81","2084276","0.0-7.0-3.13","64","1","2025-07-30 08:53:10","36c45c0696341be0efffe67d72a12abb","23.17.128.84","Mozilla/5.0 (Windows NT 10.0; Win64; x64; rv:141.0) Gecko/20100101 Firefox/141.0","","Firefox","141.0","Windows","10.0","https://app.prolific.com/","en-US,en;q=0.5","65a4a7343830fdcc679739e0","687a19d2168e237449fb8af4","6889dd356561f65154762160","0","65a4a7343830fdcc679739e0","0","2025-07-30T09:27:57.673Z","","","","StressQ","","","","","","","","","","","50","","","","","","","","","","","","","","","","","","","","","","","","","","",""
"2005","","<div style=""width:500px;"">
  <p>What best describes how you currently feel?</p>
  </div>","12","html-slider-response","82","2086281","0.0-7.0-4.13","64","1","2025-07-30 08:53:10","36c45c0696341be0efffe67d72a12abb","23.17.128.84","Mozilla/5.0 (Windows NT 10.0; Win64; x64; rv:141.0) Gecko/20100101 Firefox/141.0","","Firefox","141.0","Windows","10.0","https://app.prolific.com/","en-US,en;q=0.5","65a4a7343830fdcc679739e0","687a19d2168e237449fb8af4","6889dd356561f65154762160","0","65a4a7343830fdcc679739e0","0","2025-07-30T09:27:59.678Z","","","","MotivationQ","","","","","","","","","","","50","","","","","","","","","","","","","","","","","","","","","","","","","","",""
