"rt","response_timestamp","stimulus","response","trial_type","trial_index","time_elapsed","internal_node_id","run_id","condition","recorded_at","source_code_version","ip","user_agent","device","browser","browser_version","platform","platform_version","referer","accept_language","PROLIFIC_PID","STUDY_ID","SESSION_ID","BATCH","prolific_id","batch","realtime","success","question_order","question_id","eventType","responses","item_order","radio_event_ids","radio_event_times","key_event_times","mouse_event_times","straightlining","zigzagging","honeypot","view_history","slider_start","which_type","canvas_config","goals_layout","control_level","trial_number","tutorial_trial_number","trial_start_time","phase1_start_time","phase2_start_time","phase3_start_time","goal_1_value","goal_1_distance","goal_2_value","goal_2_distance","goal_selected","outcome","outcome_total","participant_final_score","participant_initial_score","participant_final_score_prop","goal_choice_rt","allocated_time","allocated_time_remaining","goal_direction","counts","mouse_movements","key_presses"
"423143","1753865064974","<p style='font-size:40px;line-height:1.25'><strong>Welcome to the experiment!</strong></p><p style='font-size:1.1em;line-height:1.25'>Thank you for participanting in our experiment again! You will be asked to play the Dysfunctional Ball Game again. We will briefly recap the rules before we start.</p><p style='font-size:1.1em;line-height:1.25'>Press <strong>Next</strong> to continue.</p>","0","custom-html-button-response","0","423146","0.0-0.0","2","1","2025-07-30 08:37:22","36c45c0696341be0efffe67d72a12abb","85.246.21.29","Mozilla/5.0 (Windows NT 10.0; Win64; x64) AppleWebKit/537.36 (KHTML, like Gecko) Chrome/138.0.0.0 Safari/537.36","WebKit","Chrome","138.0.0.0","Windows","10.0","https://app.prolific.com/","pt-PT,pt;q=0.9,en-US;q=0.8,en;q=0.7","65a93241fc1ee8c40991a861","683dba9a53627eb9ab41b36a","6889d9bf078f3b5bbd8847ad","0","65a93241fc1ee8c40991a861","0","2025-07-30T08:44:24.975Z","","","","","","","","","","","","","","","","","","","","","","","","","","","","","","","","","","","","","","","","","",""
"1180","","","","fullscreen","1","425345","0.0-1.0","2","1","2025-07-30 08:37:22","36c45c0696341be0efffe67d72a12abb","85.246.21.29","Mozilla/5.0 (Windows NT 10.0; Win64; x64) AppleWebKit/537.36 (KHTML, like Gecko) Chrome/138.0.0.0 Safari/537.36","WebKit","Chrome","138.0.0.0","Windows","10.0","https://app.prolific.com/","pt-PT,pt;q=0.9,en-US;q=0.8,en;q=0.7","65a93241fc1ee8c40991a861","683dba9a53627eb9ab41b36a","6889d9bf078f3b5bbd8847ad","0","65a93241fc1ee8c40991a861","0","","true","","","","","","","","","","","","","","","","","","","","","","","","","","","","","","","","","","","","","","","","",""
"768","1753865067943"," <p style='font-size:1.1em;line-height:1.25'>Thank you for closing all other tabs.</p><p style='font-size:1.1em;line-height:1.25'>We will now invite you to fill in some questionnaires, before starting the game.<br>This will take about 5 minutes.<br></p><p style='font-size:1.1em;line-height:1.25'>Press the <strong>Next</strong> button to continue.</p>","0","custom-html-button-response","2","426114","0.0-2.0","2","1","2025-07-30 08:37:22","36c45c0696341be0efffe67d72a12abb","85.246.21.29","Mozilla/5.0 (Windows NT 10.0; Win64; x64) AppleWebKit/537.36 (KHTML, like Gecko) Chrome/138.0.0.0 Safari/537.36","WebKit","Chrome","138.0.0.0","Windows","10.0","https://app.prolific.com/","pt-PT,pt;q=0.9,en-US;q=0.8,en;q=0.7","65a93241fc1ee8c40991a861","683dba9a53627eb9ab41b36a","6889d9bf078f3b5bbd8847ad","0","65a93241fc1ee8c40991a861","0","2025-07-30T08:44:27.943Z","","","","","","","","","","","","","","","","","","","","","","","","","","","","","","","","","","","","","","","","","",""
"2358","","","{""assigned_sex"":""female""}","survey-multi-choice","3","428475","0.0-3.0-0.0","2","1","2025-07-30 08:37:22","36c45c0696341be0efffe67d72a12abb","85.246.21.29","Mozilla/5.0 (Windows NT 10.0; Win64; x64) AppleWebKit/537.36 (KHTML, like Gecko) Chrome/138.0.0.0 Safari/537.36","WebKit","Chrome","138.0.0.0","Windows","10.0","https://app.prolific.com/","pt-PT,pt;q=0.9,en-US;q=0.8,en;q=0.7","65a93241fc1ee8c40991a861","683dba9a53627eb9ab41b36a","6889d9bf078f3b5bbd8847ad","0","65a93241fc1ee8c40991a861","0","","","[0]","0","demographics","","","","","","","","","","","","","","","","","","","","","","","","","","","","","","","","","","","","","",""
"1744","1753865072048","<p style='font-size:1.1em;line-height:1.25'>In the following, we will perform a baseline assessment. This means that we will ask you a few questions relating to your experiences over the past month.<br></p><p style='font-size:1.1em;line-height:1.25'>Press the <strong>Next</strong> button to continue.</p>","0","custom-html-button-response","4","430219","0.0-4.0-0.0","2","1","2025-07-30 08:37:22","36c45c0696341be0efffe67d72a12abb","85.246.21.29","Mozilla/5.0 (Windows NT 10.0; Win64; x64) AppleWebKit/537.36 (KHTML, like Gecko) Chrome/138.0.0.0 Safari/537.36","WebKit","Chrome","138.0.0.0","Windows","10.0","https://app.prolific.com/","pt-PT,pt;q=0.9,en-US;q=0.8,en;q=0.7","65a93241fc1ee8c40991a861","683dba9a53627eb9ab41b36a","6889d9bf078f3b5bbd8847ad","0","65a93241fc1ee8c40991a861","0","2025-07-30T08:44:32.048Z","","","","","","","","","","","","","","","","","","","","","","","","","","","","","","","","","","","","","","","","","",""
"43902.89999997616","","","","survey-template","5","474127","0.0-4.0-1.0","2","1","2025-07-30 08:37:22","36c45c0696341be0efffe67d72a12abb","85.246.21.29","Mozilla/5.0 (Windows NT 10.0; Win64; x64) AppleWebKit/537.36 (KHTML, like Gecko) Chrome/138.0.0.0 Safari/537.36","WebKit","Chrome","138.0.0.0","Windows","10.0","https://app.prolific.com/","pt-PT,pt;q=0.9,en-US;q=0.8,en;q=0.7","65a93241fc1ee8c40991a861","683dba9a53627eb9ab41b36a","6889d9bf078f3b5bbd8847ad","0","65a93241fc1ee8c40991a861","0","2025-07-30T08:45:15.957Z","","","","pss","{""Q01"":""1"",""Q02"":""0"",""Q03"":""1"",""Q04"":""0"",""Q05"":""1"",""Q06"":""0"",""Q07"":""0"",""Q08"":""2"",""Q09"":""0"",""Q10"":""0""}","[0,1,2,3,4,5,6,7,8,9]","[""Q01"",""Q02"",""Q03"",""Q04"",""Q05"",""Q06"",""Q07"",""Q08"",""Q09"",""Q10""]","[5015.399999976158,9045.799999952316,10938.599999964237,19659.5,23913.19999998808,27514,31730.799999952316,35393.39999997616,39410.09999996424,42896.39999997616]","[]","[0.09999996423721313,5015.399999976158,9045.799999952316,10434.5,10938.599999964237,19659.5,23913.19999998808,27514,31730.799999952316,35393.39999997616,39410.09999996424,42896.39999997616,43900.5]","0.4","0.4444444444444444","0","","","","","","","","","","","","","","","","","","","","","","","","","","","","",""
"1105","1753865117063","<p style='font-size:1.1em;line-height:1.25'>Thank you for your answers! Now we will ask you a few more questions relating to your feelings in the last 24 hours.<br></p><p style='font-size:1.1em;line-height:1.25'>Press the <strong>Next</strong> button to continue.</p>","0","custom-html-button-response","6","475234","0.0-4.0-2.0","2","1","2025-07-30 08:37:22","36c45c0696341be0efffe67d72a12abb","85.246.21.29","Mozilla/5.0 (Windows NT 10.0; Win64; x64) AppleWebKit/537.36 (KHTML, like Gecko) Chrome/138.0.0.0 Safari/537.36","WebKit","Chrome","138.0.0.0","Windows","10.0","https://app.prolific.com/","pt-PT,pt;q=0.9,en-US;q=0.8,en;q=0.7","65a93241fc1ee8c40991a861","683dba9a53627eb9ab41b36a","6889d9bf078f3b5bbd8847ad","0","65a93241fc1ee8c40991a861","0","2025-07-30T08:45:17.063Z","","","","","","","","","","","","","","","","","","","","","","","","","","","","","","","","","","","","","","","","","",""
"32828.5","","","","survey-template","7","508065","0.0-4.0-3.0","2","1","2025-07-30 08:37:22","36c45c0696341be0efffe67d72a12abb","85.246.21.29","Mozilla/5.0 (Windows NT 10.0; Win64; x64) AppleWebKit/537.36 (KHTML, like Gecko) Chrome/138.0.0.0 Safari/537.36","WebKit","Chrome","138.0.0.0","Windows","10.0","https://app.prolific.com/","pt-PT,pt;q=0.9,en-US;q=0.8,en;q=0.7","65a93241fc1ee8c40991a861","683dba9a53627eb9ab41b36a","6889d9bf078f3b5bbd8847ad","0","65a93241fc1ee8c40991a861","0","2025-07-30T08:45:49.895Z","","","","drsp","{""Q01"":""0"",""Q02"":""0"",""Q03"":""0"",""Q04"":""1"",""Q05"":""0"",""Q06"":""0"",""Q07"":""1"",""Q08"":""0"",""Q09"":""0"",""Q10"":""0"",""Q11"":""0"",""Q12"":""0"",""Q13"":""5"",""Q14"":""0"",""Q15"":""0"",""Q16"":""0"",""Q17"":""0"",""Q18"":""0"",""Q19"":""0"",""Q20"":""0"",""Q21"":""0"",""Q22"":""0""}","[0,1,2,3,4,5,6,7,8,9,10,11,12,13,14,15,16,17,18,19,20,21]","[""Q01"",""Q02"",""Q03"",""Q04"",""Q04"",""Q05"",""Q06"",""Q13"",""Q07"",""Q08"",""Q09"",""Q10"",""Q11"",""Q12"",""Q14"",""Q15"",""Q16"",""Q17"",""Q18"",""Q19"",""Q20"",""Q21"",""Q22""]","[2423.5,3002.399999976158,3947.399999976158,4673.399999976158,5947.099999964237,6646.199999988079,7360.099999964237,9820.199999988079,12673.399999976158,13653.099999964237,14641.399999976158,15709.199999988079,17502.19999998808,18149.399999976158,19521.299999952316,21838.299999952316,22655.299999952316,25424.299999952316,26399.19999998808,27582.099999964237,29131.299999952316,30004.19999998808,30666.399999976158]","[]","[0.09999996423721313,2423.5,3002.399999976158,3405.5,3947.399999976158,4673.399999976158,5947.099999964237,6646.199999988079,7360.099999964237,9820.199999988079,12673.399999976158,13653.099999964237,14641.399999976158,15709.199999988079,17502.19999998808,18149.399999976158,19521.299999952316,21838.299999952316,22655.299999952316,25424.299999952316,26399.19999998808,27582.099999964237,29131.299999952316,30004.19999998808,30666.399999976158,32824.39999997616]","0.8636363636363636","0.2857142857142857","0","","","","","","","","","","","","","","","","","","","","","","","","","","","","",""
"7070.199999988079","","","","survey-template","8","515137","0.0-4.0-4.0","2","1","2025-07-30 08:37:22","36c45c0696341be0efffe67d72a12abb","85.246.21.29","Mozilla/5.0 (Windows NT 10.0; Win64; x64) AppleWebKit/537.36 (KHTML, like Gecko) Chrome/138.0.0.0 Safari/537.36","WebKit","Chrome","138.0.0.0","Windows","10.0","https://app.prolific.com/","pt-PT,pt;q=0.9,en-US;q=0.8,en;q=0.7","65a93241fc1ee8c40991a861","683dba9a53627eb9ab41b36a","6889d9bf078f3b5bbd8847ad","0","65a93241fc1ee8c40991a861","0","2025-07-30T08:45:56.966Z","","","","stress","{""Q01"":""1"",""Q02"":""2"",""Q03"":""0""}","[0,1,2]","[""Q01"",""Q02"",""Q03""]","[1965.3999999761581,3956.399999976158,6416.399999976158]","[]","[1965.3999999761581,3956.399999976158,5102.5,6416.399999976158,7069.399999976158]","0.3333333333333333","0","0","","","","","","","","","","","","","","","","","","","","","","","","","","","","",""
"1268","","","","instructions","9","516406","0.0-5.0-0.0","2","1","2025-07-30 08:37:22","36c45c0696341be0efffe67d72a12abb","85.246.21.29","Mozilla/5.0 (Windows NT 10.0; Win64; x64) AppleWebKit/537.36 (KHTML, like Gecko) Chrome/138.0.0.0 Safari/537.36","WebKit","Chrome","138.0.0.0","Windows","10.0","https://app.prolific.com/","pt-PT,pt;q=0.9,en-US;q=0.8,en;q=0.7","65a93241fc1ee8c40991a861","683dba9a53627eb9ab41b36a","6889d9bf078f3b5bbd8847ad","0","65a93241fc1ee8c40991a861","0","","","","","","","","","","","","","","","[{""page_index"":0,""viewing_time"":1268}]","","","","","","","","","","","","","","","","","","","","","","","","","","","",""
"1854","","<p>Before you start with this game please answer the following three questions yourself. </p>
  <p>Through this game, we measure several aspects of your cognitive performance, such as reaction times, multi-tasking capabilities </p>
  <p>and the ability to assess the situation you are in.</p>
  <p></p>
  <p><b>How good do you usually are in such tasks?</b></p>","61","html-slider-response","10","518266","0.0-6.0-0.0","2","1","2025-07-30 08:37:22","36c45c0696341be0efffe67d72a12abb","85.246.21.29","Mozilla/5.0 (Windows NT 10.0; Win64; x64) AppleWebKit/537.36 (KHTML, like Gecko) Chrome/138.0.0.0 Safari/537.36","WebKit","Chrome","138.0.0.0","Windows","10.0","https://app.prolific.com/","pt-PT,pt;q=0.9,en-US;q=0.8,en;q=0.7","65a93241fc1ee8c40991a861","683dba9a53627eb9ab41b36a","6889d9bf078f3b5bbd8847ad","0","65a93241fc1ee8c40991a861","0","2025-07-30T08:46:00.095Z","","","","PreSkillQ","","","","","","","","","","","50","","","","","","","","","","","","","","","","","","","","","","","","","","",""
"2099","","<div style=""width:500px;"">
  <p>How well do you think you will perform in this task compared to other participants?</p>
  </div>","25","html-slider-response","11","520366","0.0-6.0-1.0","2","1","2025-07-30 08:37:22","36c45c0696341be0efffe67d72a12abb","85.246.21.29","Mozilla/5.0 (Windows NT 10.0; Win64; x64) AppleWebKit/537.36 (KHTML, like Gecko) Chrome/138.0.0.0 Safari/537.36","WebKit","Chrome","138.0.0.0","Windows","10.0","https://app.prolific.com/","pt-PT,pt;q=0.9,en-US;q=0.8,en;q=0.7","65a93241fc1ee8c40991a861","683dba9a53627eb9ab41b36a","6889d9bf078f3b5bbd8847ad","0","65a93241fc1ee8c40991a861","0","2025-07-30T08:46:02.195Z","","","","PrePerfQ","","","","","","","","","","","50","","","","","","","","","","","","","","","","","","","","","","","","","","",""
"1551","","<div style=""width:500px;"">
  <p>What best describes how you currently feel?</p>
  </div>","100","html-slider-response","12","521918","0.0-6.0-2.0","2","1","2025-07-30 08:37:22","36c45c0696341be0efffe67d72a12abb","85.246.21.29","Mozilla/5.0 (Windows NT 10.0; Win64; x64) AppleWebKit/537.36 (KHTML, like Gecko) Chrome/138.0.0.0 Safari/537.36","WebKit","Chrome","138.0.0.0","Windows","10.0","https://app.prolific.com/","pt-PT,pt;q=0.9,en-US;q=0.8,en;q=0.7","65a93241fc1ee8c40991a861","683dba9a53627eb9ab41b36a","6889d9bf078f3b5bbd8847ad","0","65a93241fc1ee8c40991a861","0","2025-07-30T08:46:03.747Z","","","","PreMotivationQ","","","","","","","","","","","50","","","","","","","","","","","","","","","","","","","","","","","","","","",""
"","","","","ctl-task-cpt","13","550162","0.0-7.0-0.0","2","1","2025-07-30 08:37:22","36c45c0696341be0efffe67d72a12abb","85.246.21.29","Mozilla/5.0 (Windows NT 10.0; Win64; x64) AppleWebKit/537.36 (KHTML, like Gecko) Chrome/138.0.0.0 Safari/537.36","WebKit","Chrome","138.0.0.0","Windows","10.0","https://app.prolific.com/","pt-PT,pt;q=0.9,en-US;q=0.8,en;q=0.7","65a93241fc1ee8c40991a861","683dba9a53627eb9ab41b36a","6889d9bf078f3b5bbd8847ad","0","65a93241fc1ee8c40991a861","0","2025-07-30T08:46:31.991Z","","","","","","","","","","","","","","","","win-only","0","g1:NW,g2:SE","1","1","0","523250.6","743.6","5745.8","25238.3","1","4","4","6","2","4","4","4","0","0.030303030303030304","1333.4","3000","745","[""down"",""right""]","{""num_key_presses"":6,""num_perfect"":6,""num_errors"":0,""num_randdir"":0,""num_randdir_good_moves"":0,""num_whilered"":0,""num_whileblue"":0,""num_blue"":1,""num_good_moves"":6}","[414.57142857142856,418.47767857142856,0.2,414.57142857142856,418.47767857142856,103.3,414.57142857142856,418.47767857142856,207.2,414.57142857142856,418.47767857142856,307.4,414.57142857142856,418.47767857142856,411.9,414.57142857142856,418.47767857142856,512.6,424.57142857142856,432.47767857142856,612.9,459.57142857142856,452.47767857142856,717.4,723.5714285714286,751.4776785714286,818.4,773.5714285714286,796.4776785714286,918.5,743.5714285714286,786.4776785714286,1022.9,743.5714285714286,786.4776785714286,1122.9,743.5714285714286,786.4776785714286,1227.9,743.5714285714286,786.4776785714286,1332.6,743.5714285714286,786.4776785714286,1437.2,743.5714285714286,786.4776785714286,1542.2,748.5714285714286,775.4776785714286,1647.9,976.5714285714286,523.4776785714286,1753.1,1097.5714285714287,482.47767857142856,1858.4,1097.5714285714287,482.47767857142856,1962.9,1097.5714285714287,482.47767857142856,2068.3,1097.5714285714287,482.47767857142856,2172.8,1097.5714285714287,482.47767857142856,2272.8,1097.5714285714287,482.47767857142856,2372.9,1097.5714285714287,482.47767857142856,2476.8,1097.5714285714287,482.47767857142856,2577.1,1097.5714285714287,482.47767857142856,2677.9,1097.5714285714287,482.47767857142856,2782.5,1097.5714285714287,482.47767857142856,2887,1097.5714285714287,482.47767857142856,2987.3,1097.5714285714287,482.47767857142856,3092.8,1097.5714285714287,482.47767857142856,3197.1,1097.5714285714287,482.47767857142856,3297.6,1097.5714285714287,482.47767857142856,3401.8,1097.5714285714287,482.47767857142856,3502.9,1097.5714285714287,482.47767857142856,3608.4,1097.5714285714287,482.47767857142856,3712.8,1097.5714285714287,482.47767857142856,3813.2,1097.5714285714287,482.47767857142856,3917.2,1097.5714285714287,482.47767857142856,4017.5,1097.5714285714287,482.47767857142856,4117.7,1097.5714285714287,482.47767857142856,4222.7,1097.5714285714287,482.47767857142856,4323.6,1097.5714285714287,482.47767857142856,4427,1097.5714285714287,482.47767857142856,4527.4,1097.5714285714287,482.47767857142856,4627.4,1097.5714285714287,482.47767857142856,4727.4,1097.5714285714287,482.47767857142856,4832.5,1097.5714285714287,482.47767857142856,4932.8]","[1395.7,1395.7,1000,0,395.7,""smooth"",""down"",""down"",""good_move"",7914,6518.1,2117.2,5324.8,472.1,""smooth"",""down"",""down"",""good_move"",10578.3,2664.1,2289.9,7914.2,374.2,""smooth"",""right"",""right"",""good_move"",14082,3503.3,3139.2,10578.7,364.1,""smooth"",""right"",""right"",""good_move"",16553.9,2471.8,2133.4,14082.1,338.4,""smooth"",""down"",""down"",""good_move"",19401.9,2848,2505.2,16553.9,342.8,""smooth"",""right"",""right"",""good_move""]"
"1721","","<div style=""width:500px;"">
  <p>What determined the result of this run?</p>
  </div>","0","html-slider-response","14","551884","0.0-7.0-1.0","2","1","2025-07-30 08:37:22","36c45c0696341be0efffe67d72a12abb","85.246.21.29","Mozilla/5.0 (Windows NT 10.0; Win64; x64) AppleWebKit/537.36 (KHTML, like Gecko) Chrome/138.0.0.0 Safari/537.36","WebKit","Chrome","138.0.0.0","Windows","10.0","https://app.prolific.com/","pt-PT,pt;q=0.9,en-US;q=0.8,en;q=0.7","65a93241fc1ee8c40991a861","683dba9a53627eb9ab41b36a","6889d9bf078f3b5bbd8847ad","0","65a93241fc1ee8c40991a861","0","2025-07-30T08:46:33.713Z","","","","AttribQ","","","","","","","","","","","50","","","","","","","","","","","","","","","","","","","","","","","","","","",""
"2194","","<div style=""width:500px;"">
  <p>How much control did you have over the ball?</p>
  </div>","100","html-slider-response","15","554078","0.0-7.0-2.0","2","1","2025-07-30 08:37:22","36c45c0696341be0efffe67d72a12abb","85.246.21.29","Mozilla/5.0 (Windows NT 10.0; Win64; x64) AppleWebKit/537.36 (KHTML, like Gecko) Chrome/138.0.0.0 Safari/537.36","WebKit","Chrome","138.0.0.0","Windows","10.0","https://app.prolific.com/","pt-PT,pt;q=0.9,en-US;q=0.8,en;q=0.7","65a93241fc1ee8c40991a861","683dba9a53627eb9ab41b36a","6889d9bf078f3b5bbd8847ad","0","65a93241fc1ee8c40991a861","0","2025-07-30T08:46:35.907Z","","","","ControlQ","","","","","","","","","","","50","","","","","","","","","","","","","","","","","","","","","","","","","","",""
"1475","","<div style=""width:500px;"">
  <p>How would you describe your current emotional state?</p>
  </div>","0","html-slider-response","16","555554","0.0-7.0-3.0","2","1","2025-07-30 08:37:22","36c45c0696341be0efffe67d72a12abb","85.246.21.29","Mozilla/5.0 (Windows NT 10.0; Win64; x64) AppleWebKit/537.36 (KHTML, like Gecko) Chrome/138.0.0.0 Safari/537.36","WebKit","Chrome","138.0.0.0","Windows","10.0","https://app.prolific.com/","pt-PT,pt;q=0.9,en-US;q=0.8,en;q=0.7","65a93241fc1ee8c40991a861","683dba9a53627eb9ab41b36a","6889d9bf078f3b5bbd8847ad","0","65a93241fc1ee8c40991a861","0","2025-07-30T08:46:37.383Z","","","","StressQ","","","","","","","","","","","50","","","","","","","","","","","","","","","","","","","","","","","","","","",""
"1500","","<div style=""width:500px;"">
  <p>What best describes how you currently feel?</p>
  </div>","100","html-slider-response","17","557054","0.0-7.0-4.0","2","1","2025-07-30 08:37:22","36c45c0696341be0efffe67d72a12abb","85.246.21.29","Mozilla/5.0 (Windows NT 10.0; Win64; x64) AppleWebKit/537.36 (KHTML, like Gecko) Chrome/138.0.0.0 Safari/537.36","WebKit","Chrome","138.0.0.0","Windows","10.0","https://app.prolific.com/","pt-PT,pt;q=0.9,en-US;q=0.8,en;q=0.7","65a93241fc1ee8c40991a861","683dba9a53627eb9ab41b36a","6889d9bf078f3b5bbd8847ad","0","65a93241fc1ee8c40991a861","0","2025-07-30T08:46:38.884Z","","","","MotivationQ","","","","","","","","","","","50","","","","","","","","","","","","","","","","","","","","","","","","","","",""
"","","","","ctl-task-cpt","18","585097","0.0-7.0-0.1","2","1","2025-07-30 08:37:22","36c45c0696341be0efffe67d72a12abb","85.246.21.29","Mozilla/5.0 (Windows NT 10.0; Win64; x64) AppleWebKit/537.36 (KHTML, like Gecko) Chrome/138.0.0.0 Safari/537.36","WebKit","Chrome","138.0.0.0","Windows","10.0","https://app.prolific.com/","pt-PT,pt;q=0.9,en-US;q=0.8,en;q=0.7","65a93241fc1ee8c40991a861","683dba9a53627eb9ab41b36a","6889d9bf078f3b5bbd8847ad","0","65a93241fc1ee8c40991a861","0","2025-07-30T08:47:06.926Z","","","","","","","","","","","","","","","","win-only","2","g1:SE,g2:NW","0.9","2","0","558386.1","718.2","5721.7","25031.4","1","4","8","6","2","8","8","12","4","0.09090909090909091","782.9","3000","1135","[""left"",""up""]","{""num_key_presses"":6,""num_perfect"":6,""num_errors"":0,""num_randdir"":0,""num_randdir_good_moves"":0,""num_whilered"":0,""num_whileblue"":0,""num_blue"":1,""num_good_moves"":6}","[419.57142857142856,424.47767857142856,0.5,419.57142857142856,424.47767857142856,103.8,419.57142857142856,424.47767857142856,208.1,419.57142857142856,424.47767857142856,312.7,401.57142857142856,414.47767857142856,413.4,244.57142857142856,260.47767857142856,514.2,141.57142857142856,154.47767857142856,618.1,88.57142857142857,109.47767857142857,723.2,83.57142857142857,106.47767857142857,827.4,83.57142857142857,106.47767857142857,927.7,-38.42857142857143,164.47767857142856,1028.7,-271.42857142857144,263.47767857142856,1132.7,-284.42857142857144,263.47767857142856,1232.7,-284.42857142857144,263.47767857142856,1333,-284.42857142857144,263.47767857142856,1437.9,-284.42857142857144,263.47767857142856,1537.9,-284.42857142857144,263.47767857142856,1638.8,-284.42857142857144,263.47767857142856,1742.3,-284.42857142857144,263.47767857142856,1843.5,-284.42857142857144,263.47767857142856,1947.4,-284.42857142857144,263.47767857142856,2049.2,-284.42857142857144,263.47767857142856,2153.4,-284.42857142857144,263.47767857142856,2253.7,-284.42857142857144,263.47767857142856,2357.6,-284.42857142857144,263.47767857142856,2458.3,-284.42857142857144,263.47767857142856,2562.5,-284.42857142857144,263.47767857142856,2667.8,-284.42857142857144,263.47767857142856,2772.7,-284.42857142857144,263.47767857142856,2873,-284.42857142857144,263.47767857142856,2977.9,-284.42857142857144,263.47767857142856,3078.1,-284.42857142857144,263.47767857142856,3182.3,-284.42857142857144,263.47767857142856,3283.2,-284.42857142857144,263.47767857142856,3387.8,-284.42857142857144,263.47767857142856,3492.7,-284.42857142857144,263.47767857142856,3597.8,-284.42857142857144,263.47767857142856,3698.4,-284.42857142857144,263.47767857142856,3798.9,-284.42857142857144,263.47767857142856,3902.8,-284.42857142857144,263.47767857142856,4007.4,-284.42857142857144,263.47767857142856,4108,-284.42857142857144,263.47767857142856,4208.1,-284.42857142857144,263.47767857142856,4312.6,-284.42857142857144,263.47767857142856,4418.5,-284.42857142857144,263.47767857142856,4523.1,-284.42857142857144,263.47767857142856,4628.3,-284.42857142857144,263.47767857142856,4729.1,-284.42857142857144,263.47767857142856,4833.8,-284.42857142857144,263.47767857142856,4937.2]","[1338.6,1338.5,1000,0.1,338.5,""smooth"",""left"",""left"",""good_move"",3882.8,2543.8,2243.1,1339,300.7,""smooth"",""up"",""up"",""good_move"",6706.4,2823.4,2487.4,3883,336,""smooth"",""up"",""up"",""good_move"",9491.3,2784.7,2457.4,6706.6,327.3,""smooth"",""left"",""left"",""good_move"",12747.2,3255.8,2961.4,9491.4,294.4,""smooth"",""up"",""up"",""good_move"",19219.4,6472.1,2691,16219.4,309,""smooth"",""left"",""left"",""good_move""]"
"1212","","<div style=""width:500px;"">
  <p>What determined the result of this run?</p>
  </div>","0","html-slider-response","19","586310","0.0-7.0-1.1","2","1","2025-07-30 08:37:22","36c45c0696341be0efffe67d72a12abb","85.246.21.29","Mozilla/5.0 (Windows NT 10.0; Win64; x64) AppleWebKit/537.36 (KHTML, like Gecko) Chrome/138.0.0.0 Safari/537.36","WebKit","Chrome","138.0.0.0","Windows","10.0","https://app.prolific.com/","pt-PT,pt;q=0.9,en-US;q=0.8,en;q=0.7","65a93241fc1ee8c40991a861","683dba9a53627eb9ab41b36a","6889d9bf078f3b5bbd8847ad","0","65a93241fc1ee8c40991a861","0","2025-07-30T08:47:08.139Z","","","","AttribQ","","","","","","","","","","","50","","","","","","","","","","","","","","","","","","","","","","","","","","",""
"999","","<div style=""width:500px;"">
  <p>How much control did you have over the ball?</p>
  </div>","100","html-slider-response","20","587310","0.0-7.0-2.1","2","1","2025-07-30 08:37:22","36c45c0696341be0efffe67d72a12abb","85.246.21.29","Mozilla/5.0 (Windows NT 10.0; Win64; x64) AppleWebKit/537.36 (KHTML, like Gecko) Chrome/138.0.0.0 Safari/537.36","WebKit","Chrome","138.0.0.0","Windows","10.0","https://app.prolific.com/","pt-PT,pt;q=0.9,en-US;q=0.8,en;q=0.7","65a93241fc1ee8c40991a861","683dba9a53627eb9ab41b36a","6889d9bf078f3b5bbd8847ad","0","65a93241fc1ee8c40991a861","0","2025-07-30T08:47:09.139Z","","","","ControlQ","","","","","","","","","","","50","","","","","","","","","","","","","","","","","","","","","","","","","","",""
"1239","","<div style=""width:500px;"">
  <p>How would you describe your current emotional state?</p>
  </div>","0","html-slider-response","21","588549","0.0-7.0-3.1","2","1","2025-07-30 08:37:22","36c45c0696341be0efffe67d72a12abb","85.246.21.29","Mozilla/5.0 (Windows NT 10.0; Win64; x64) AppleWebKit/537.36 (KHTML, like Gecko) Chrome/138.0.0.0 Safari/537.36","WebKit","Chrome","138.0.0.0","Windows","10.0","https://app.prolific.com/","pt-PT,pt;q=0.9,en-US;q=0.8,en;q=0.7","65a93241fc1ee8c40991a861","683dba9a53627eb9ab41b36a","6889d9bf078f3b5bbd8847ad","0","65a93241fc1ee8c40991a861","0","2025-07-30T08:47:10.378Z","","","","StressQ","","","","","","","","","","","50","","","","","","","","","","","","","","","","","","","","","","","","","","",""
"1045","","<div style=""width:500px;"">
  <p>What best describes how you currently feel?</p>
  </div>","100","html-slider-response","22","589594","0.0-7.0-4.1","2","1","2025-07-30 08:37:22","36c45c0696341be0efffe67d72a12abb","85.246.21.29","Mozilla/5.0 (Windows NT 10.0; Win64; x64) AppleWebKit/537.36 (KHTML, like Gecko) Chrome/138.0.0.0 Safari/537.36","WebKit","Chrome","138.0.0.0","Windows","10.0","https://app.prolific.com/","pt-PT,pt;q=0.9,en-US;q=0.8,en;q=0.7","65a93241fc1ee8c40991a861","683dba9a53627eb9ab41b36a","6889d9bf078f3b5bbd8847ad","0","65a93241fc1ee8c40991a861","0","2025-07-30T08:47:11.423Z","","","","MotivationQ","","","","","","","","","","","50","","","","","","","","","","","","","","","","","","","","","","","","","","",""
"","","","","ctl-task-cpt","23","627292","0.0-7.0-0.2","2","1","2025-07-30 08:37:22","36c45c0696341be0efffe67d72a12abb","85.246.21.29","Mozilla/5.0 (Windows NT 10.0; Win64; x64) AppleWebKit/537.36 (KHTML, like Gecko) Chrome/138.0.0.0 Safari/537.36","WebKit","Chrome","138.0.0.0","Windows","10.0","https://app.prolific.com/","pt-PT,pt;q=0.9,en-US;q=0.8,en;q=0.7","65a93241fc1ee8c40991a861","683dba9a53627eb9ab41b36a","6889d9bf078f3b5bbd8847ad","0","65a93241fc1ee8c40991a861","0","2025-07-30T08:47:49.121Z","","","","","","","","","","","","","","","","win-only","0","g1:NW,g2:SE","0.8","3","0","590926.5","658.3","5661.5","34681.5","1","4","4","6","2","-4","-6","6","12","0.045454545454545456","571","3000","-3015","[""down"",""right""]","{""num_key_presses"":12,""num_perfect"":7,""num_errors"":2,""num_randdir"":2,""num_randdir_good_moves"":0,""num_whilered"":1,""num_whileblue"":0,""num_blue"":0,""num_good_moves"":7}","[414.57142857142856,412.47767857142856,0.3,414.57142857142856,412.47767857142856,104.6,414.57142857142856,412.47767857142856,208.4,426.57142857142856,426.47767857142856,314,711.5714285714286,667.4776785714286,418,772.5714285714286,750.4776785714286,522.8,772.5714285714286,750.4776785714286,627.7,803.5714285714286,691.4776785714286,730,1019.5714285714286,518.4776785714286,834.2,1054.5714285714287,504.47767857142856,938.3,1054.5714285714287,504.47767857142856,1043.3,1054.5714285714287,504.47767857142856,1147.2,1054.5714285714287,504.47767857142856,1248.8,1054.5714285714287,504.47767857142856,1354.6,1054.5714285714287,504.47767857142856,1458.2,1054.5714285714287,504.47767857142856,1563.2,1054.5714285714287,504.47767857142856,1668,1054.5714285714287,504.47767857142856,1772.7,1054.5714285714287,504.47767857142856,1873.5,1054.5714285714287,504.47767857142856,1978.5,1054.5714285714287,504.47767857142856,2082.9,1054.5714285714287,504.47767857142856,2187.6,1054.5714285714287,504.47767857142856,2293.1,1054.5714285714287,504.47767857142856,2397.5,1054.5714285714287,504.47767857142856,2502.2,1054.5714285714287,504.47767857142856,2605,1054.5714285714287,504.47767857142856,2708.5,1054.5714285714287,504.47767857142856,2808.5,1054.5714285714287,504.47767857142856,2908.7,1054.5714285714287,504.47767857142856,3013.6,1054.5714285714287,504.47767857142856,3118,1054.5714285714287,504.47767857142856,3223.3,1054.5714285714287,504.47767857142856,3327.6,1054.5714285714287,504.47767857142856,3432.8,1054.5714285714287,504.47767857142856,3533.5,1054.5714285714287,504.47767857142856,3638.9,1054.5714285714287,504.47767857142856,3743.3,1054.5714285714287,504.47767857142856,3848.1,1054.5714285714287,504.47767857142856,3948.2,1054.5714285714287,504.47767857142856,4048.9,1054.5714285714287,504.47767857142856,4153.3,1054.5714285714287,504.47767857142856,4258.4,1054.5714285714287,504.47767857142856,4363.3,1054.5714285714287,504.47767857142856,4467.1,1054.5714285714287,504.47767857142856,4569.5,1054.5714285714287,504.47767857142856,4673.2,1054.5714285714287,504.47767857142856,4777.7,1054.5714285714287,504.47767857142856,4883.2,1054.5714285714287,504.47767857142856,4987.3]","[1338.6,1338.6,1000,0,338.6,""smooth"",""down"",""down"",""good_move"",4538.4,3199.5,2857.7,1338.9,341.8,""smooth"",""right"",""right"",""good_move"",7442.2,2903.5,2562.7,4538.7,340.8,""smooth"",""down"",""down"",""good_move"",10186.8,2744.3,2398.6,7442.5,345.7,""oops"",""right"",""left"",""bad_move"",12802.9,2615.6,2276.5,10187.3,339.1,""smooth"",""down"",""down"",""good_move"",15626.1,2822.9,2508.7,12803.2,314.2,""oops"",""right"",""up"",""bad_move"",18002.4,2376.1,2039.6,15626.3,336.5,""smooth"",""right"",""right"",""good_move"",20362,2359.4,2041,18002.6,318.4,""smooth"",""right"",""right"",""good_move"",23034.3,2672.2,2370.3,20362.1,301.9,""smooth"",""right"",""right"",""good_move"",24097.9,1063.4,2423.5,23034.5,-1360.1,""error"",""-"",""-"",""no_move"",24290.3,192.4,2423.5,23034.5,-1167.6,""while_red"",""-"",""-"",""no_move"",25338.1,1240.1,3198.7,25100.1,-2960.7,""error"",""-"",""-"",""no_move""]"
"2207","","<div style=""width:500px;"">
  <p>What determined the result of this run?</p>
  </div>","0","html-slider-response","24","629499","0.0-7.0-1.2","2","1","2025-07-30 08:37:22","36c45c0696341be0efffe67d72a12abb","85.246.21.29","Mozilla/5.0 (Windows NT 10.0; Win64; x64) AppleWebKit/537.36 (KHTML, like Gecko) Chrome/138.0.0.0 Safari/537.36","WebKit","Chrome","138.0.0.0","Windows","10.0","https://app.prolific.com/","pt-PT,pt;q=0.9,en-US;q=0.8,en;q=0.7","65a93241fc1ee8c40991a861","683dba9a53627eb9ab41b36a","6889d9bf078f3b5bbd8847ad","0","65a93241fc1ee8c40991a861","0","2025-07-30T08:47:51.328Z","","","","AttribQ","","","","","","","","","","","50","","","","","","","","","","","","","","","","","","","","","","","","","","",""
"1563","","<div style=""width:500px;"">
  <p>How much control did you have over the ball?</p>
  </div>","0","html-slider-response","25","631062","0.0-7.0-2.2","2","1","2025-07-30 08:37:22","36c45c0696341be0efffe67d72a12abb","85.246.21.29","Mozilla/5.0 (Windows NT 10.0; Win64; x64) AppleWebKit/537.36 (KHTML, like Gecko) Chrome/138.0.0.0 Safari/537.36","WebKit","Chrome","138.0.0.0","Windows","10.0","https://app.prolific.com/","pt-PT,pt;q=0.9,en-US;q=0.8,en;q=0.7","65a93241fc1ee8c40991a861","683dba9a53627eb9ab41b36a","6889d9bf078f3b5bbd8847ad","0","65a93241fc1ee8c40991a861","0","2025-07-30T08:47:52.891Z","","","","ControlQ","","","","","","","","","","","50","","","","","","","","","","","","","","","","","","","","","","","","","","",""
"1855","","<div style=""width:500px;"">
  <p>How would you describe your current emotional state?</p>
  </div>","100","html-slider-response","26","632918","0.0-7.0-3.2","2","1","2025-07-30 08:37:22","36c45c0696341be0efffe67d72a12abb","85.246.21.29","Mozilla/5.0 (Windows NT 10.0; Win64; x64) AppleWebKit/537.36 (KHTML, like Gecko) Chrome/138.0.0.0 Safari/537.36","WebKit","Chrome","138.0.0.0","Windows","10.0","https://app.prolific.com/","pt-PT,pt;q=0.9,en-US;q=0.8,en;q=0.7","65a93241fc1ee8c40991a861","683dba9a53627eb9ab41b36a","6889d9bf078f3b5bbd8847ad","0","65a93241fc1ee8c40991a861","0","2025-07-30T08:47:54.747Z","","","","StressQ","","","","","","","","","","","50","","","","","","","","","","","","","","","","","","","","","","","","","","",""
"1240","","<div style=""width:500px;"">
  <p>What best describes how you currently feel?</p>
  </div>","100","html-slider-response","27","634159","0.0-7.0-4.2","2","1","2025-07-30 08:37:22","36c45c0696341be0efffe67d72a12abb","85.246.21.29","Mozilla/5.0 (Windows NT 10.0; Win64; x64) AppleWebKit/537.36 (KHTML, like Gecko) Chrome/138.0.0.0 Safari/537.36","WebKit","Chrome","138.0.0.0","Windows","10.0","https://app.prolific.com/","pt-PT,pt;q=0.9,en-US;q=0.8,en;q=0.7","65a93241fc1ee8c40991a861","683dba9a53627eb9ab41b36a","6889d9bf078f3b5bbd8847ad","0","65a93241fc1ee8c40991a861","0","2025-07-30T08:47:55.988Z","","","","MotivationQ","","","","","","","","","","","50","","","","","","","","","","","","","","","","","","","","","","","","","","",""
"","","","","ctl-task-cpt","28","672874","0.0-7.0-0.3","2","1","2025-07-30 08:37:22","36c45c0696341be0efffe67d72a12abb","85.246.21.29","Mozilla/5.0 (Windows NT 10.0; Win64; x64) AppleWebKit/537.36 (KHTML, like Gecko) Chrome/138.0.0.0 Safari/537.36","WebKit","Chrome","138.0.0.0","Windows","10.0","https://app.prolific.com/","pt-PT,pt;q=0.9,en-US;q=0.8,en;q=0.7","65a93241fc1ee8c40991a861","683dba9a53627eb9ab41b36a","6889d9bf078f3b5bbd8847ad","0","65a93241fc1ee8c40991a861","0","2025-07-30T08:48:34.703Z","","","","","","","","","","","","","","","","win-only","0","g1:NW,g2:SE","0.7","4","0","635491.8","825.9","5831.6","35695.7","1","4","8","6","2","8","8","14","6","0.10606060606060606","995.3","3000","90","[""down"",""right""]","{""num_key_presses"":8,""num_perfect"":5,""num_errors"":0,""num_randdir"":3,""num_randdir_good_moves"":2,""num_whilered"":0,""num_whileblue"":0,""num_blue"":2,""num_good_moves"":7}","[412.57142857142856,413.47767857142856,0.1,412.57142857142856,413.47767857142856,100,412.57142857142856,413.47767857142856,201.2,412.57142857142856,413.47767857142856,305.2,412.57142857142856,413.47767857142856,406.1,421.57142857142856,426.47767857142856,506.7,564.5714285714286,606.4776785714286,610.7,638.5714285714286,671.4776785714286,715.5,675.5714285714286,711.4776785714286,819.9,745.5714285714286,735.4776785714286,921.6,754.5714285714286,736.4776785714286,1026.3,754.5714285714286,736.4776785714286,1130.5,976.5714285714286,536.4776785714286,1231.9,1210.5714285714287,418.47767857142856,1335.7,1210.5714285714287,418.47767857142856,1438.8,1210.5714285714287,418.47767857142856,1541.1,1210.5714285714287,418.47767857142856,1645.1,1210.5714285714287,418.47767857142856,1750.1,1210.5714285714287,418.47767857142856,1851.3,1210.5714285714287,418.47767857142856,1956.3,1210.5714285714287,418.47767857142856,2060.1,1210.5714285714287,418.47767857142856,2165.7,1210.5714285714287,418.47767857142856,2270.4,1210.5714285714287,418.47767857142856,2374.6,1210.5714285714287,418.47767857142856,2477.7,1210.5714285714287,418.47767857142856,2581.6,1210.5714285714287,418.47767857142856,2685.7,1210.5714285714287,418.47767857142856,2790.3,1210.5714285714287,418.47767857142856,2894.9,1210.5714285714287,418.47767857142856,2995.6,1210.5714285714287,418.47767857142856,3095.9,1210.5714285714287,418.47767857142856,3196.6,1210.5714285714287,418.47767857142856,3296.9,1210.5714285714287,418.47767857142856,3401.6,1210.5714285714287,418.47767857142856,3504.5,1210.5714285714287,418.47767857142856,3605.1,1210.5714285714287,418.47767857142856,3706.7,1210.5714285714287,418.47767857142856,3810.7,1210.5714285714287,418.47767857142856,3915.8,1210.5714285714287,418.47767857142856,4016.2,1210.5714285714287,418.47767857142856,4116.3,1210.5714285714287,418.47767857142856,4221.6,1210.5714285714287,418.47767857142856,4325.6,1210.5714285714287,418.47767857142856,4429.9,1210.5714285714287,418.47767857142856,4531.3,1210.5714285714287,418.47767857142856,4635.7,1210.5714285714287,418.47767857142856,4741.5,1210.5714285714287,418.47767857142856,4845.5,1210.5714285714287,418.47767857142856,4950.4]","[1370.7,1370.7,1000,0,370.7,""smooth"",""down"",""down"",""good_move"",8418.5,7047.5,3082.2,5025.6,310.8,""oops"",""right"",""left"",""bad_move"",11418.7,2999.9,2613.7,8418.8,386.2,""smooth"",""down"",""down"",""good_move"",17778.9,6360,2283.3,15096,399.6,""smooth"",""right"",""right"",""good_move"",20882.7,3103.5,2744.3,17779.2,359.2,""oops"",""right"",""right"",""good_move"",23707.2,2824.3,2469.6,20882.9,354.7,""smooth"",""right"",""right"",""good_move"",27211.3,3504,3106.2,23707.3,397.8,""oops"",""down"",""right"",""good_move"",29778.5,2567.1,2189.3,27211.4,377.8,""smooth"",""down"",""down"",""good_move""]"
"1379","","<div style=""width:500px;"">
  <p>What determined the result of this run?</p>
  </div>","0","html-slider-response","29","674254","0.0-7.0-1.3","2","1","2025-07-30 08:37:22","36c45c0696341be0efffe67d72a12abb","85.246.21.29","Mozilla/5.0 (Windows NT 10.0; Win64; x64) AppleWebKit/537.36 (KHTML, like Gecko) Chrome/138.0.0.0 Safari/537.36","WebKit","Chrome","138.0.0.0","Windows","10.0","https://app.prolific.com/","pt-PT,pt;q=0.9,en-US;q=0.8,en;q=0.7","65a93241fc1ee8c40991a861","683dba9a53627eb9ab41b36a","6889d9bf078f3b5bbd8847ad","0","65a93241fc1ee8c40991a861","0","2025-07-30T08:48:36.083Z","","","","AttribQ","","","","","","","","","","","50","","","","","","","","","","","","","","","","","","","","","","","","","","",""
"1017","","<div style=""width:500px;"">
  <p>How much control did you have over the ball?</p>
  </div>","5","html-slider-response","30","675272","0.0-7.0-2.3","2","1","2025-07-30 08:37:22","36c45c0696341be0efffe67d72a12abb","85.246.21.29","Mozilla/5.0 (Windows NT 10.0; Win64; x64) AppleWebKit/537.36 (KHTML, like Gecko) Chrome/138.0.0.0 Safari/537.36","WebKit","Chrome","138.0.0.0","Windows","10.0","https://app.prolific.com/","pt-PT,pt;q=0.9,en-US;q=0.8,en;q=0.7","65a93241fc1ee8c40991a861","683dba9a53627eb9ab41b36a","6889d9bf078f3b5bbd8847ad","0","65a93241fc1ee8c40991a861","0","2025-07-30T08:48:37.101Z","","","","ControlQ","","","","","","","","","","","50","","","","","","","","","","","","","","","","","","","","","","","","","","",""
"1465","","<div style=""width:500px;"">
  <p>How would you describe your current emotional state?</p>
  </div>","0","html-slider-response","31","676738","0.0-7.0-3.3","2","1","2025-07-30 08:37:22","36c45c0696341be0efffe67d72a12abb","85.246.21.29","Mozilla/5.0 (Windows NT 10.0; Win64; x64) AppleWebKit/537.36 (KHTML, like Gecko) Chrome/138.0.0.0 Safari/537.36","WebKit","Chrome","138.0.0.0","Windows","10.0","https://app.prolific.com/","pt-PT,pt;q=0.9,en-US;q=0.8,en;q=0.7","65a93241fc1ee8c40991a861","683dba9a53627eb9ab41b36a","6889d9bf078f3b5bbd8847ad","0","65a93241fc1ee8c40991a861","0","2025-07-30T08:48:38.567Z","","","","StressQ","","","","","","","","","","","50","","","","","","","","","","","","","","","","","","","","","","","","","","",""
"1686","","<div style=""width:500px;"">
  <p>What best describes how you currently feel?</p>
  </div>","100","html-slider-response","32","678425","0.0-7.0-4.3","2","1","2025-07-30 08:37:22","36c45c0696341be0efffe67d72a12abb","85.246.21.29","Mozilla/5.0 (Windows NT 10.0; Win64; x64) AppleWebKit/537.36 (KHTML, like Gecko) Chrome/138.0.0.0 Safari/537.36","WebKit","Chrome","138.0.0.0","Windows","10.0","https://app.prolific.com/","pt-PT,pt;q=0.9,en-US;q=0.8,en;q=0.7","65a93241fc1ee8c40991a861","683dba9a53627eb9ab41b36a","6889d9bf078f3b5bbd8847ad","0","65a93241fc1ee8c40991a861","0","2025-07-30T08:48:40.254Z","","","","MotivationQ","","","","","","","","","","","50","","","","","","","","","","","","","","","","","","","","","","","","","","",""
"","","","","ctl-task-cpt","33","715795","0.0-7.0-0.4","2","1","2025-07-30 08:37:22","36c45c0696341be0efffe67d72a12abb","85.246.21.29","Mozilla/5.0 (Windows NT 10.0; Win64; x64) AppleWebKit/537.36 (KHTML, like Gecko) Chrome/138.0.0.0 Safari/537.36","WebKit","Chrome","138.0.0.0","Windows","10.0","https://app.prolific.com/","pt-PT,pt;q=0.9,en-US;q=0.8,en;q=0.7","65a93241fc1ee8c40991a861","683dba9a53627eb9ab41b36a","6889d9bf078f3b5bbd8847ad","0","65a93241fc1ee8c40991a861","0","2025-07-30T08:49:17.624Z","","","","","","","","","","","","","","","","win-only","2","g1:SE,g2:NW","0.6","5","0","679757.4","564.3","5567","34352","1","4","8","6","1","-1","-1","13","14","0.09848484848484848","693.3","3000","-2965","[""down"",""right""]","{""num_key_presses"":8,""num_perfect"":5,""num_errors"":0,""num_randdir"":3,""num_randdir_good_moves"":0,""num_whilered"":0,""num_whileblue"":0,""num_blue"":1,""num_good_moves"":5}","[424.57142857142856,414.47767857142856,0.3,424.57142857142856,414.47767857142856,108.2,424.57142857142856,414.47767857142856,208.5,367.57142857142856,382.47767857142856,309.2,290.57142857142856,333.47767857142856,415,542.5714285714286,562.4776785714286,519,698.5714285714286,707.4776785714286,623.2,705.5714285714286,718.4776785714286,726.6,724.5714285714286,710.4776785714286,829.5,1015.5714285714286,618.4776785714286,934.9,1098.5714285714287,603.4776785714286,1038,1098.5714285714287,603.4776785714286,1142.3,1098.5714285714287,603.4776785714286,1242.3,1098.5714285714287,603.4776785714286,1343.4,1106.5714285714287,603.4776785714286,1447.4,1109.5714285714287,603.4776785714286,1547.4,1109.5714285714287,603.4776785714286,1654.7,1109.5714285714287,603.4776785714286,1755.4,1109.5714285714287,603.4776785714286,1857.2,1109.5714285714287,603.4776785714286,1963.6,1109.5714285714287,603.4776785714286,2066.5,1109.5714285714287,603.4776785714286,2171.4,1109.5714285714287,603.4776785714286,2275.9,1109.5714285714287,603.4776785714286,2380.7,1109.5714285714287,603.4776785714286,2482.8,1109.5714285714287,603.4776785714286,2587.5,1109.5714285714287,603.4776785714286,2692,1109.5714285714287,603.4776785714286,2792.3,1109.5714285714287,603.4776785714286,2893.7,1109.5714285714287,603.4776785714286,2997,1109.5714285714287,603.4776785714286,3101.6,1109.5714285714287,603.4776785714286,3203.5,1109.5714285714287,603.4776785714286,3308.2,1109.5714285714287,603.4776785714286,3413.3,1109.5714285714287,603.4776785714286,3517.2,1109.5714285714287,603.4776785714286,3621.7,1109.5714285714287,603.4776785714286,3723,1109.5714285714287,603.4776785714286,3828.4,1109.5714285714287,603.4776785714286,3933.3,1109.5714285714287,603.4776785714286,4034,1109.5714285714287,603.4776785714286,4139.3,1109.5714285714287,603.4776785714286,4242.2,1109.5714285714287,603.4776785714286,4343.4,1109.5714285714287,603.4776785714286,4447.8,1109.5714285714287,603.4776785714286,4551.4,1109.5714285714287,603.4776785714286,4656.6,1109.5714285714287,603.4776785714286,4761,1109.5714285714287,603.4776785714286,4863,1109.5714285714287,603.4776785714286,4967.9]","[1378.1,1378.1,1000,0,378.1,""smooth"",""down"",""down"",""good_move"",8617.8,7239.3,2478.8,5793.6,345.4,""smooth"",""right"",""right"",""good_move"",11618.6,3000.5,2633.2,8618.1,367.3,""smooth"",""right"",""right"",""good_move"",14426,2807.2,2435,11618.8,372.2,""oops"",""down"",""left"",""bad_move"",16890,2463.9,2168.5,14426.1,295.4,""oops"",""down"",""left"",""bad_move"",19682,2791.7,2448.9,16890.3,342.8,""smooth"",""down"",""down"",""good_move"",23346.3,3664,3313.5,19682.3,350.5,""oops"",""right"",""left"",""bad_move"",25865.4,2518.9,2141.8,23346.5,377.1,""smooth"",""right"",""right"",""good_move""]"
"3358","","<div style=""width:500px;"">
  <p>What determined the result of this run?</p>
  </div>","0","html-slider-response","34","719154","0.0-7.0-1.4","2","1","2025-07-30 08:37:22","36c45c0696341be0efffe67d72a12abb","85.246.21.29","Mozilla/5.0 (Windows NT 10.0; Win64; x64) AppleWebKit/537.36 (KHTML, like Gecko) Chrome/138.0.0.0 Safari/537.36","WebKit","Chrome","138.0.0.0","Windows","10.0","https://app.prolific.com/","pt-PT,pt;q=0.9,en-US;q=0.8,en;q=0.7","65a93241fc1ee8c40991a861","683dba9a53627eb9ab41b36a","6889d9bf078f3b5bbd8847ad","0","65a93241fc1ee8c40991a861","0","2025-07-30T08:49:20.983Z","","","","AttribQ","","","","","","","","","","","50","","","","","","","","","","","","","","","","","","","","","","","","","","",""
"3035","","<div style=""width:500px;"">
  <p>How much control did you have over the ball?</p>
  </div>","0","html-slider-response","35","722190","0.0-7.0-2.4","2","1","2025-07-30 08:37:22","36c45c0696341be0efffe67d72a12abb","85.246.21.29","Mozilla/5.0 (Windows NT 10.0; Win64; x64) AppleWebKit/537.36 (KHTML, like Gecko) Chrome/138.0.0.0 Safari/537.36","WebKit","Chrome","138.0.0.0","Windows","10.0","https://app.prolific.com/","pt-PT,pt;q=0.9,en-US;q=0.8,en;q=0.7","65a93241fc1ee8c40991a861","683dba9a53627eb9ab41b36a","6889d9bf078f3b5bbd8847ad","0","65a93241fc1ee8c40991a861","0","2025-07-30T08:49:24.020Z","","","","ControlQ","","","","","","","","","","","50","","","","","","","","","","","","","","","","","","","","","","","","","","",""
"1220","","<div style=""width:500px;"">
  <p>How would you describe your current emotional state?</p>
  </div>","0","html-slider-response","36","723411","0.0-7.0-3.4","2","1","2025-07-30 08:37:22","36c45c0696341be0efffe67d72a12abb","85.246.21.29","Mozilla/5.0 (Windows NT 10.0; Win64; x64) AppleWebKit/537.36 (KHTML, like Gecko) Chrome/138.0.0.0 Safari/537.36","WebKit","Chrome","138.0.0.0","Windows","10.0","https://app.prolific.com/","pt-PT,pt;q=0.9,en-US;q=0.8,en;q=0.7","65a93241fc1ee8c40991a861","683dba9a53627eb9ab41b36a","6889d9bf078f3b5bbd8847ad","0","65a93241fc1ee8c40991a861","0","2025-07-30T08:49:25.240Z","","","","StressQ","","","","","","","","","","","50","","","","","","","","","","","","","","","","","","","","","","","","","","",""
"1219","","<div style=""width:500px;"">
  <p>What best describes how you currently feel?</p>
  </div>","100","html-slider-response","37","724631","0.0-7.0-4.4","2","1","2025-07-30 08:37:22","36c45c0696341be0efffe67d72a12abb","85.246.21.29","Mozilla/5.0 (Windows NT 10.0; Win64; x64) AppleWebKit/537.36 (KHTML, like Gecko) Chrome/138.0.0.0 Safari/537.36","WebKit","Chrome","138.0.0.0","Windows","10.0","https://app.prolific.com/","pt-PT,pt;q=0.9,en-US;q=0.8,en;q=0.7","65a93241fc1ee8c40991a861","683dba9a53627eb9ab41b36a","6889d9bf078f3b5bbd8847ad","0","65a93241fc1ee8c40991a861","0","2025-07-30T08:49:26.460Z","","","","MotivationQ","","","","","","","","","","","50","","","","","","","","","","","","","","","","","","","","","","","","","","",""
"","","","","ctl-task-cpt","38","749446","0.0-7.0-0.5","2","1","2025-07-30 08:37:22","36c45c0696341be0efffe67d72a12abb","85.246.21.29","Mozilla/5.0 (Windows NT 10.0; Win64; x64) AppleWebKit/537.36 (KHTML, like Gecko) Chrome/138.0.0.0 Safari/537.36","WebKit","Chrome","138.0.0.0","Windows","10.0","https://app.prolific.com/","pt-PT,pt;q=0.9,en-US;q=0.8,en;q=0.7","65a93241fc1ee8c40991a861","683dba9a53627eb9ab41b36a","6889d9bf078f3b5bbd8847ad","0","65a93241fc1ee8c40991a861","0","2025-07-30T08:49:51.275Z","","","","","","","","","","","","","","","","win-only","2","g1:SE,g2:NW","0.5","6","0","725963.3","504","5506.7","21795.8","1","4","4","6","1","1","1","14","13","0.10606060606060606","611.1","3000","1685","[""down"",""right""]","{""num_key_presses"":4,""num_perfect"":2,""num_errors"":0,""num_randdir"":2,""num_randdir_good_moves"":2,""num_whilered"":0,""num_whileblue"":0,""num_blue"":2,""num_good_moves"":4}","[411.57142857142856,418.47767857142856,0.1,411.57142857142856,418.47767857142856,102.2,411.57142857142856,418.47767857142856,206.5,421.57142857142856,422.47767857142856,308.3,593.5714285714286,552.4776785714286,410.1,702.5714285714286,717.4776785714286,510.6,748.5714285714286,787.4776785714286,619.1,748.5714285714286,787.4776785714286,721.8,824.5714285714286,685.4776785714286,825.6,998.5714285714286,607.4776785714286,929.3,1007.5714285714286,605.4776785714286,1033.3,1007.5714285714286,605.4776785714286,1140.7,1007.5714285714286,605.4776785714286,1243.1,1007.5714285714286,605.4776785714286,1346.7,1007.5714285714286,605.4776785714286,1447.2,1007.5714285714286,605.4776785714286,1553.5,1007.5714285714286,605.4776785714286,1658.3,1007.5714285714286,605.4776785714286,1761.8,1007.5714285714286,605.4776785714286,1861.9,1007.5714285714286,605.4776785714286,1963.6,1007.5714285714286,605.4776785714286,2065.6,1007.5714285714286,605.4776785714286,2166.5,1007.5714285714286,605.4776785714286,2267.6,1007.5714285714286,605.4776785714286,2373.1,1007.5714285714286,605.4776785714286,2477.2,1007.5714285714286,605.4776785714286,2577.2,1007.5714285714286,605.4776785714286,2678.1,1007.5714285714286,605.4776785714286,2783,1007.5714285714286,605.4776785714286,2887.2,1007.5714285714286,605.4776785714286,2991.8,1007.5714285714286,605.4776785714286,3096.8,1007.5714285714286,605.4776785714286,3198.4,1007.5714285714286,605.4776785714286,3303,1007.5714285714286,605.4776785714286,3407.8,1007.5714285714286,605.4776785714286,3513.1,1007.5714285714286,605.4776785714286,3616.5,1007.5714285714286,605.4776785714286,3717.7,1007.5714285714286,605.4776785714286,3818.2,1007.5714285714286,605.4776785714286,3922,1007.5714285714286,605.4776785714286,4024.1,1007.5714285714286,605.4776785714286,4127.2,1007.5714285714286,605.4776785714286,4227.9,1007.5714285714286,605.4776785714286,4332,1007.5714285714286,605.4776785714286,4436.6,1007.5714285714286,605.4776785714286,4538.1,1007.5714285714286,605.4776785714286,4643.8,1007.5714285714286,605.4776785714286,4748.8,1007.5714285714286,605.4776785714286,4857.1,1007.5714285714286,605.4776785714286,4962.7]","[9008.2,9008.2,2637.7,5989.9,380.6,""smooth"",""down"",""down"",""good_move"",11033.3,2024.7,1684.2,9008.6,340.5,""smooth"",""right"",""right"",""good_move"",13800.2,2766.6,2435.9,11033.7,330.6,""oops"",""down"",""down"",""good_move"",16199.7,2399.3,2072.8,13800.4,326.5,""oops"",""right"",""right"",""good_move""]"
"1455","","<div style=""width:500px;"">
  <p>What determined the result of this run?</p>
  </div>","0","html-slider-response","39","750903","0.0-7.0-1.5","2","1","2025-07-30 08:37:22","36c45c0696341be0efffe67d72a12abb","85.246.21.29","Mozilla/5.0 (Windows NT 10.0; Win64; x64) AppleWebKit/537.36 (KHTML, like Gecko) Chrome/138.0.0.0 Safari/537.36","WebKit","Chrome","138.0.0.0","Windows","10.0","https://app.prolific.com/","pt-PT,pt;q=0.9,en-US;q=0.8,en;q=0.7","65a93241fc1ee8c40991a861","683dba9a53627eb9ab41b36a","6889d9bf078f3b5bbd8847ad","0","65a93241fc1ee8c40991a861","0","2025-07-30T08:49:52.732Z","","","","AttribQ","","","","","","","","","","","50","","","","","","","","","","","","","","","","","","","","","","","","","","",""
"1290","","<div style=""width:500px;"">
  <p>How much control did you have over the ball?</p>
  </div>","0","html-slider-response","40","752193","0.0-7.0-2.5","2","1","2025-07-30 08:37:22","36c45c0696341be0efffe67d72a12abb","85.246.21.29","Mozilla/5.0 (Windows NT 10.0; Win64; x64) AppleWebKit/537.36 (KHTML, like Gecko) Chrome/138.0.0.0 Safari/537.36","WebKit","Chrome","138.0.0.0","Windows","10.0","https://app.prolific.com/","pt-PT,pt;q=0.9,en-US;q=0.8,en;q=0.7","65a93241fc1ee8c40991a861","683dba9a53627eb9ab41b36a","6889d9bf078f3b5bbd8847ad","0","65a93241fc1ee8c40991a861","0","2025-07-30T08:49:54.022Z","","","","ControlQ","","","","","","","","","","","50","","","","","","","","","","","","","","","","","","","","","","","","","","",""
"1231","","<div style=""width:500px;"">
  <p>How would you describe your current emotional state?</p>
  </div>","0","html-slider-response","41","753425","0.0-7.0-3.5","2","1","2025-07-30 08:37:22","36c45c0696341be0efffe67d72a12abb","85.246.21.29","Mozilla/5.0 (Windows NT 10.0; Win64; x64) AppleWebKit/537.36 (KHTML, like Gecko) Chrome/138.0.0.0 Safari/537.36","WebKit","Chrome","138.0.0.0","Windows","10.0","https://app.prolific.com/","pt-PT,pt;q=0.9,en-US;q=0.8,en;q=0.7","65a93241fc1ee8c40991a861","683dba9a53627eb9ab41b36a","6889d9bf078f3b5bbd8847ad","0","65a93241fc1ee8c40991a861","0","2025-07-30T08:49:55.254Z","","","","StressQ","","","","","","","","","","","50","","","","","","","","","","","","","","","","","","","","","","","","","","",""
"1302","","<div style=""width:500px;"">
  <p>What best describes how you currently feel?</p>
  </div>","100","html-slider-response","42","754728","0.0-7.0-4.5","2","1","2025-07-30 08:37:22","36c45c0696341be0efffe67d72a12abb","85.246.21.29","Mozilla/5.0 (Windows NT 10.0; Win64; x64) AppleWebKit/537.36 (KHTML, like Gecko) Chrome/138.0.0.0 Safari/537.36","WebKit","Chrome","138.0.0.0","Windows","10.0","https://app.prolific.com/","pt-PT,pt;q=0.9,en-US;q=0.8,en;q=0.7","65a93241fc1ee8c40991a861","683dba9a53627eb9ab41b36a","6889d9bf078f3b5bbd8847ad","0","65a93241fc1ee8c40991a861","0","2025-07-30T08:49:56.557Z","","","","MotivationQ","","","","","","","","","","","50","","","","","","","","","","","","","","","","","","","","","","","","","","",""
"","","","","ctl-task-cpt","43","789508","0.0-7.0-0.6","2","1","2025-07-30 08:37:22","36c45c0696341be0efffe67d72a12abb","85.246.21.29","Mozilla/5.0 (Windows NT 10.0; Win64; x64) AppleWebKit/537.36 (KHTML, like Gecko) Chrome/138.0.0.0 Safari/537.36","WebKit","Chrome","138.0.0.0","Windows","10.0","https://app.prolific.com/","pt-PT,pt;q=0.9,en-US;q=0.8,en;q=0.7","65a93241fc1ee8c40991a861","683dba9a53627eb9ab41b36a","6889d9bf078f3b5bbd8847ad","0","65a93241fc1ee8c40991a861","0","2025-07-30T08:50:31.337Z","","","","","","","","","","","","","","","","win-only","3","g1:SW,g2:NE","0.4","7","0","756060.2","734.6","5738","31762.2","1","4","4","6","1","-1","-1","13","14","0.09848484848484848","693.2","3000","-2960","[""down"",""left""]","{""num_key_presses"":5,""num_perfect"":2,""num_errors"":0,""num_randdir"":3,""num_randdir_good_moves"":0,""num_whilered"":0,""num_whileblue"":0,""num_blue"":2,""num_good_moves"":2}","[413.57142857142856,417.47767857142856,0.4,413.57142857142856,417.47767857142856,102.4,413.57142857142856,417.47767857142856,205.8,413.57142857142856,417.47767857142856,306,413.57142857142856,417.47767857142856,407.3,300.57142857142856,554.4776785714286,510.1,20.57142857142857,827.4776785714286,610.2,17.57142857142857,828.4776785714286,715.9,17.57142857142857,828.4776785714286,817.8,148.57142857142856,735.4776785714286,919.4,767.5714285714286,520.4776785714286,1019.9,1056.5714285714287,490.47767857142856,1124.1,1071.5714285714287,487.47767857142856,1227.1,1071.5714285714287,487.47767857142856,1327.3,1071.5714285714287,487.47767857142856,1432.5,1071.5714285714287,487.47767857142856,1532.7,1071.5714285714287,487.47767857142856,1637.6,1071.5714285714287,487.47767857142856,1738.5,1071.5714285714287,487.47767857142856,1840.1,1071.5714285714287,487.47767857142856,1943.8,1071.5714285714287,487.47767857142856,2048,1071.5714285714287,487.47767857142856,2149,1071.5714285714287,487.47767857142856,2252.3,1071.5714285714287,487.47767857142856,2352.8,1071.5714285714287,487.47767857142856,2457.5,1071.5714285714287,487.47767857142856,2558.1,1071.5714285714287,487.47767857142856,2658.5,1071.5714285714287,487.47767857142856,2762.4,1071.5714285714287,487.47767857142856,2872,1071.5714285714287,487.47767857142856,2976.8,1071.5714285714287,487.47767857142856,3081.6,1071.5714285714287,487.47767857142856,3186.8,1071.5714285714287,487.47767857142856,3286.9,1071.5714285714287,487.47767857142856,3391.8,1071.5714285714287,487.47767857142856,3491.8,1071.5714285714287,487.47767857142856,3592.3,1071.5714285714287,487.47767857142856,3698,1071.5714285714287,487.47767857142856,3801.4,1071.5714285714287,487.47767857142856,3906,1071.5714285714287,487.47767857142856,4007.3,1071.5714285714287,487.47767857142856,4111.2,1071.5714285714287,487.47767857142856,4211.5,1071.5714285714287,487.47767857142856,4312.2,1071.5714285714287,487.47767857142856,4415.8,1071.5714285714287,487.47767857142856,4516.6,1071.5714285714287,487.47767857142856,4620.9,1071.5714285714287,487.47767857142856,4724.9,1071.5714285714287,487.47767857142856,4826,1071.5714285714287,487.47767857142856,4926.4]","[1408.3,1408.3,1000,0,408.3,""oops"",""left"",""up"",""bad_move"",7977,6568.1,2302.8,5306,368.2,""smooth"",""left"",""left"",""good_move"",15144.5,7167.1,2110.4,12627.7,406.4,""oops"",""left"",""right"",""bad_move"",18320.1,3175.3,2806.2,15144.8,369.1,""smooth"",""down"",""down"",""good_move"",21728.4,3408.1,3024.6,18320.3,383.5,""oops"",""down"",""up"",""bad_move""]"
"1720","","<div style=""width:500px;"">
  <p>What determined the result of this run?</p>
  </div>","0","html-slider-response","44","791228","0.0-7.0-1.6","2","1","2025-07-30 08:37:22","36c45c0696341be0efffe67d72a12abb","85.246.21.29","Mozilla/5.0 (Windows NT 10.0; Win64; x64) AppleWebKit/537.36 (KHTML, like Gecko) Chrome/138.0.0.0 Safari/537.36","WebKit","Chrome","138.0.0.0","Windows","10.0","https://app.prolific.com/","pt-PT,pt;q=0.9,en-US;q=0.8,en;q=0.7","65a93241fc1ee8c40991a861","683dba9a53627eb9ab41b36a","6889d9bf078f3b5bbd8847ad","0","65a93241fc1ee8c40991a861","0","2025-07-30T08:50:33.057Z","","","","AttribQ","","","","","","","","","","","50","","","","","","","","","","","","","","","","","","","","","","","","","","",""
"1112","","<div style=""width:500px;"">
  <p>How much control did you have over the ball?</p>
  </div>","0","html-slider-response","45","792341","0.0-7.0-2.6","2","1","2025-07-30 08:37:22","36c45c0696341be0efffe67d72a12abb","85.246.21.29","Mozilla/5.0 (Windows NT 10.0; Win64; x64) AppleWebKit/537.36 (KHTML, like Gecko) Chrome/138.0.0.0 Safari/537.36","WebKit","Chrome","138.0.0.0","Windows","10.0","https://app.prolific.com/","pt-PT,pt;q=0.9,en-US;q=0.8,en;q=0.7","65a93241fc1ee8c40991a861","683dba9a53627eb9ab41b36a","6889d9bf078f3b5bbd8847ad","0","65a93241fc1ee8c40991a861","0","2025-07-30T08:50:34.170Z","","","","ControlQ","","","","","","","","","","","50","","","","","","","","","","","","","","","","","","","","","","","","","","",""
"1460","","<div style=""width:500px;"">
  <p>How would you describe your current emotional state?</p>
  </div>","100","html-slider-response","46","793801","0.0-7.0-3.6","2","1","2025-07-30 08:37:22","36c45c0696341be0efffe67d72a12abb","85.246.21.29","Mozilla/5.0 (Windows NT 10.0; Win64; x64) AppleWebKit/537.36 (KHTML, like Gecko) Chrome/138.0.0.0 Safari/537.36","WebKit","Chrome","138.0.0.0","Windows","10.0","https://app.prolific.com/","pt-PT,pt;q=0.9,en-US;q=0.8,en;q=0.7","65a93241fc1ee8c40991a861","683dba9a53627eb9ab41b36a","6889d9bf078f3b5bbd8847ad","0","65a93241fc1ee8c40991a861","0","2025-07-30T08:50:35.630Z","","","","StressQ","","","","","","","","","","","50","","","","","","","","","","","","","","","","","","","","","","","","","","",""
"1440","","<div style=""width:500px;"">
  <p>What best describes how you currently feel?</p>
  </div>","0","html-slider-response","47","795242","0.0-7.0-4.6","2","1","2025-07-30 08:37:22","36c45c0696341be0efffe67d72a12abb","85.246.21.29","Mozilla/5.0 (Windows NT 10.0; Win64; x64) AppleWebKit/537.36 (KHTML, like Gecko) Chrome/138.0.0.0 Safari/537.36","WebKit","Chrome","138.0.0.0","Windows","10.0","https://app.prolific.com/","pt-PT,pt;q=0.9,en-US;q=0.8,en;q=0.7","65a93241fc1ee8c40991a861","683dba9a53627eb9ab41b36a","6889d9bf078f3b5bbd8847ad","0","65a93241fc1ee8c40991a861","0","2025-07-30T08:50:37.071Z","","","","MotivationQ","","","","","","","","","","","50","","","","","","","","","","","","","","","","","","","","","","","","","","",""
"","","","","ctl-task-cpt","48","822150","0.0-7.0-0.7","2","1","2025-07-30 08:37:22","36c45c0696341be0efffe67d72a12abb","85.246.21.29","Mozilla/5.0 (Windows NT 10.0; Win64; x64) AppleWebKit/537.36 (KHTML, like Gecko) Chrome/138.0.0.0 Safari/537.36","WebKit","Chrome","138.0.0.0","Windows","10.0","https://app.prolific.com/","pt-PT,pt;q=0.9,en-US;q=0.8,en;q=0.7","65a93241fc1ee8c40991a861","683dba9a53627eb9ab41b36a","6889d9bf078f3b5bbd8847ad","0","65a93241fc1ee8c40991a861","0","2025-07-30T08:51:03.979Z","","","","","","","","","","","","","","","","win-only","0","g1:NW,g2:SE","0.3","8","0","796574.5","726","5731.7","23883.5","1","4","8","6","1","-1","-1","12","13","0.09090909090909091","1022.3","3000","-1185","[""left"",""up""]","{""num_key_presses"":2,""num_perfect"":0,""num_errors"":0,""num_randdir"":2,""num_randdir_good_moves"":0,""num_whilered"":0,""num_whileblue"":0,""num_blue"":1,""num_good_moves"":0}","[407.57142857142856,422.47767857142856,0.2,407.57142857142856,422.47767857142856,100.4,407.57142857142856,422.47767857142856,201.6,407.57142857142856,422.47767857142856,303.2,464.57142857142856,492.47767857142856,410,710.5714285714286,757.4776785714286,513.2,710.5714285714286,756.4776785714286,614.2,672.5714285714286,729.4776785714286,715.3,196.57142857142856,280.47767857142856,818.4,17.57142857142857,97.47767857142857,921.6,17.57142857142857,62.47767857142857,1032.4,17.57142857142857,62.47767857142857,1135.1,-4.428571428571431,75.47767857142857,1239.3,-251.42857142857144,151.47767857142856,1343.6,-281.42857142857144,165.47767857142856,1447.1,-281.42857142857144,165.47767857142856,1553.3,-281.42857142857144,165.47767857142856,1657.3,-281.42857142857144,165.47767857142856,1758.1,-281.42857142857144,165.47767857142856,1859.4,-281.42857142857144,165.47767857142856,1963.5,-281.42857142857144,165.47767857142856,2068.4,-281.42857142857144,165.47767857142856,2171.4,-281.42857142857144,165.47767857142856,2278.3,-281.42857142857144,165.47767857142856,2378.3,-281.42857142857144,165.47767857142856,2484.4,-281.42857142857144,165.47767857142856,2586.3,-281.42857142857144,165.47767857142856,2691.8,-281.42857142857144,165.47767857142856,2794,-281.42857142857144,165.47767857142856,2896.5,-281.42857142857144,165.47767857142856,3000.7,-281.42857142857144,165.47767857142856,3103.3,-281.42857142857144,165.47767857142856,3208.9,-281.42857142857144,165.47767857142856,3313.5,-281.42857142857144,165.47767857142856,3417.4,-281.42857142857144,165.47767857142856,3517.5,-281.42857142857144,165.47767857142856,3623.6,-281.42857142857144,165.47767857142856,3729.9,-281.42857142857144,165.47767857142856,3837.7,-281.42857142857144,165.47767857142856,3942.6,-281.42857142857144,165.47767857142856,4047.2,-281.42857142857144,165.47767857142856,4150.9,-281.42857142857144,165.47767857142856,4256.9,-281.42857142857144,165.47767857142856,4360.3,-281.42857142857144,165.47767857142856,4466.8,-281.42857142857144,165.47767857142856,4569.2,-281.42857142857144,165.47767857142856,4673.5,-281.42857142857144,165.47767857142856,4774.1,-281.42857142857144,165.47767857142856,4877,-281.42857142857144,165.47767857142856,4977.5]","[1396.5,1396.5,1000,0,396.5,""oops"",""left"",""down"",""bad_move"",8268.2,6871.1,2638.3,5185.4,444.5,""oops"",""left"",""right"",""bad_move""]"
"8488","","<div style=""width:500px;"">
  <p>What determined the result of this run?</p>
  </div>","0","html-slider-response","49","830639","0.0-7.0-1.7","2","1","2025-07-30 08:37:22","36c45c0696341be0efffe67d72a12abb","85.246.21.29","Mozilla/5.0 (Windows NT 10.0; Win64; x64) AppleWebKit/537.36 (KHTML, like Gecko) Chrome/138.0.0.0 Safari/537.36","WebKit","Chrome","138.0.0.0","Windows","10.0","https://app.prolific.com/","pt-PT,pt;q=0.9,en-US;q=0.8,en;q=0.7","65a93241fc1ee8c40991a861","683dba9a53627eb9ab41b36a","6889d9bf078f3b5bbd8847ad","0","65a93241fc1ee8c40991a861","0","2025-07-30T08:51:12.468Z","","","","AttribQ","","","","","","","","","","","50","","","","","","","","","","","","","","","","","","","","","","","","","","",""
"1402","","<div style=""width:500px;"">
  <p>How much control did you have over the ball?</p>
  </div>","0","html-slider-response","50","832042","0.0-7.0-2.7","2","1","2025-07-30 08:37:22","36c45c0696341be0efffe67d72a12abb","85.246.21.29","Mozilla/5.0 (Windows NT 10.0; Win64; x64) AppleWebKit/537.36 (KHTML, like Gecko) Chrome/138.0.0.0 Safari/537.36","WebKit","Chrome","138.0.0.0","Windows","10.0","https://app.prolific.com/","pt-PT,pt;q=0.9,en-US;q=0.8,en;q=0.7","65a93241fc1ee8c40991a861","683dba9a53627eb9ab41b36a","6889d9bf078f3b5bbd8847ad","0","65a93241fc1ee8c40991a861","0","2025-07-30T08:51:13.871Z","","","","ControlQ","","","","","","","","","","","50","","","","","","","","","","","","","","","","","","","","","","","","","","",""
"1389","","<div style=""width:500px;"">
  <p>How would you describe your current emotional state?</p>
  </div>","0","html-slider-response","51","833432","0.0-7.0-3.7","2","1","2025-07-30 08:37:22","36c45c0696341be0efffe67d72a12abb","85.246.21.29","Mozilla/5.0 (Windows NT 10.0; Win64; x64) AppleWebKit/537.36 (KHTML, like Gecko) Chrome/138.0.0.0 Safari/537.36","WebKit","Chrome","138.0.0.0","Windows","10.0","https://app.prolific.com/","pt-PT,pt;q=0.9,en-US;q=0.8,en;q=0.7","65a93241fc1ee8c40991a861","683dba9a53627eb9ab41b36a","6889d9bf078f3b5bbd8847ad","0","65a93241fc1ee8c40991a861","0","2025-07-30T08:51:15.261Z","","","","StressQ","","","","","","","","","","","50","","","","","","","","","","","","","","","","","","","","","","","","","","",""
"5639","","<div style=""width:500px;"">
  <p>What best describes how you currently feel?</p>
  </div>","100","html-slider-response","52","839072","0.0-7.0-4.7","2","1","2025-07-30 08:37:22","36c45c0696341be0efffe67d72a12abb","85.246.21.29","Mozilla/5.0 (Windows NT 10.0; Win64; x64) AppleWebKit/537.36 (KHTML, like Gecko) Chrome/138.0.0.0 Safari/537.36","WebKit","Chrome","138.0.0.0","Windows","10.0","https://app.prolific.com/","pt-PT,pt;q=0.9,en-US;q=0.8,en;q=0.7","65a93241fc1ee8c40991a861","683dba9a53627eb9ab41b36a","6889d9bf078f3b5bbd8847ad","0","65a93241fc1ee8c40991a861","0","2025-07-30T08:51:20.901Z","","","","MotivationQ","","","","","","","","","","","50","","","","","","","","","","","","","","","","","","","","","","","","","","",""
"","","","","ctl-task-cpt","53","910497","0.0-7.0-0.8","2","1","2025-07-30 08:37:22","36c45c0696341be0efffe67d72a12abb","85.246.21.29","Mozilla/5.0 (Windows NT 10.0; Win64; x64) AppleWebKit/537.36 (KHTML, like Gecko) Chrome/138.0.0.0 Safari/537.36","WebKit","Chrome","138.0.0.0","Windows","10.0","https://app.prolific.com/","pt-PT,pt;q=0.9,en-US;q=0.8,en;q=0.7","65a93241fc1ee8c40991a861","683dba9a53627eb9ab41b36a","6889d9bf078f3b5bbd8847ad","0","65a93241fc1ee8c40991a861","0","2025-07-30T08:52:32.326Z","","","","","","","","","","","","","","","","win-only","1","g1:NE,g2:SW","0.4","9","0","840404.7","1250.7","6256.1","68403","1","4","8","6","2","-8","-10","2","12","0.015151515151515152","1021.3","3000","-1520","[""down"",""left""]","{""num_key_presses"":18,""num_perfect"":5,""num_errors"":2,""num_randdir"":9,""num_randdir_good_moves"":3,""num_whilered"":2,""num_whileblue"":1,""num_blue"":5,""num_good_moves"":9}","[417.57142857142856,424.47767857142856,0.3,417.57142857142856,424.47767857142856,105.1,417.57142857142856,424.47767857142856,210.9,405.57142857142856,432.47767857142856,314.4,405.57142857142856,432.47767857142856,419.8,412.57142857142856,431.47767857142856,520.4,593.5714285714286,277.47767857142856,626.1,465.57142857142856,312.47767857142856,730.3,129.57142857142856,694.4776785714286,838.2,107.57142857142857,718.4776785714286,940.6,77.57142857142857,716.4776785714286,1041.1,77.57142857142857,716.4776785714286,1150.3,-20.42857142857143,693.4776785714286,1252.3,-178.42857142857144,627.4776785714286,1358.1,-176.42857142857144,622.4776785714286,1462,-176.42857142857144,622.4776785714286,1569.9,-176.42857142857144,622.4776785714286,1677.5,-175.42857142857144,622.4776785714286,1780.7,-175.42857142857144,622.4776785714286,1891.6,-175.42857142857144,622.4776785714286,1993.8,-175.42857142857144,622.4776785714286,2094.9,-175.42857142857144,622.4776785714286,2196.7,-175.42857142857144,622.4776785714286,2300.8,-175.42857142857144,622.4776785714286,2403.9,-175.42857142857144,622.4776785714286,2506,-175.42857142857144,622.4776785714286,2611.7,-175.42857142857144,622.4776785714286,2716.4,-175.42857142857144,622.4776785714286,2824.3,-175.42857142857144,622.4776785714286,2925.2,-175.42857142857144,622.4776785714286,3031,-175.42857142857144,622.4776785714286,3136.8,-175.42857142857144,622.4776785714286,3244.4,-175.42857142857144,622.4776785714286,3347.4,-175.42857142857144,622.4776785714286,3454.9,-175.42857142857144,622.4776785714286,3555.3,-175.42857142857144,622.4776785714286,3666.5,-175.42857142857144,622.4776785714286,3774,-175.42857142857144,622.4776785714286,3876.4,-175.42857142857144,622.4776785714286,3981.7,-175.42857142857144,622.4776785714286,4089.4,-175.42857142857144,622.4776785714286,4190,-175.42857142857144,622.4776785714286,4298.5,-175.42857142857144,622.4776785714286,4400.6,-175.42857142857144,622.4776785714286,4506.2,-175.42857142857144,622.4776785714286,4615.7,-175.42857142857144,622.4776785714286,4719.4,-175.42857142857144,622.4776785714286,4825.8,-175.42857142857144,622.4776785714286,4938.8]","[1386.1,1386.1,1000,0,386.1,""smooth"",""left"",""left"",""good_move"",7385.4,5998.8,2394,4666.2,325.2,""oops"",""down"",""right"",""bad_move"",9985.4,2599.6,2098.2,7385.8,501.4,""smooth"",""down"",""down"",""good_move"",16897.5,6911.4,2240.2,14267.1,390.2,""oops"",""down"",""left"",""good_move"",19969.6,3072,2612.7,16897.6,459.3,""smooth"",""left"",""left"",""good_move"",23409.2,3439.3,3043,19969.9,396.3,""oops"",""left"",""left"",""good_move"",35457.4,12047.9,3209.6,31861.9,385.9,""smooth"",""down"",""down"",""good_move"",38185.5,2727.7,2328.1,35457.8,399.6,""oops"",""down"",""right"",""bad_move"",40864.9,2679.2,2305.7,38185.8,373.4,""oops"",""down"",""right"",""bad_move"",43473.6,2608.4,2312.1,40865.2,296.3,""while_blue"",""left"",""left"",""good_move"",45937.2,2462.8,1817.6,43474.4,645.2,""oops"",""left"",""right"",""bad_move"",49305.7,3368.2,2994,45937.5,374.2,""smooth"",""down"",""down"",""good_move"",52233.3,2927.4,2607.2,49305.9,320.2,""oops"",""left"",""left"",""good_move"",54928.7,2694.9,2346.1,52233.8,348.8,""oops"",""left"",""right"",""bad_move"",57248.7,2319.8,2009.6,54928.9,310.2,""oops"",""left"",""right"",""bad_move"",58161.4,912.4,2446.8,57249,-1534.4,""error"",""-"",""-"",""no_move"",58339.1,177.3,2446.8,57249,-1356.7,""while_red"",""-"",""-"",""no_move"",58513.1,351.3,2446.8,57249,-1182.7,""while_red"",""-"",""-"",""no_move""]"
"1267","","<div style=""width:500px;"">
  <p>What determined the result of this run?</p>
  </div>","0","html-slider-response","54","911765","0.0-7.0-1.8","2","1","2025-07-30 08:37:22","36c45c0696341be0efffe67d72a12abb","85.246.21.29","Mozilla/5.0 (Windows NT 10.0; Win64; x64) AppleWebKit/537.36 (KHTML, like Gecko) Chrome/138.0.0.0 Safari/537.36","WebKit","Chrome","138.0.0.0","Windows","10.0","https://app.prolific.com/","pt-PT,pt;q=0.9,en-US;q=0.8,en;q=0.7","65a93241fc1ee8c40991a861","683dba9a53627eb9ab41b36a","6889d9bf078f3b5bbd8847ad","0","65a93241fc1ee8c40991a861","0","2025-07-30T08:52:33.594Z","","","","AttribQ","","","","","","","","","","","50","","","","","","","","","","","","","","","","","","","","","","","","","","",""
"1087","","<div style=""width:500px;"">
  <p>How much control did you have over the ball?</p>
  </div>","0","html-slider-response","55","912854","0.0-7.0-2.8","2","1","2025-07-30 08:37:22","36c45c0696341be0efffe67d72a12abb","85.246.21.29","Mozilla/5.0 (Windows NT 10.0; Win64; x64) AppleWebKit/537.36 (KHTML, like Gecko) Chrome/138.0.0.0 Safari/537.36","WebKit","Chrome","138.0.0.0","Windows","10.0","https://app.prolific.com/","pt-PT,pt;q=0.9,en-US;q=0.8,en;q=0.7","65a93241fc1ee8c40991a861","683dba9a53627eb9ab41b36a","6889d9bf078f3b5bbd8847ad","0","65a93241fc1ee8c40991a861","0","2025-07-30T08:52:34.683Z","","","","ControlQ","","","","","","","","","","","50","","","","","","","","","","","","","","","","","","","","","","","","","","",""
"1381","","<div style=""width:500px;"">
  <p>How would you describe your current emotional state?</p>
  </div>","100","html-slider-response","56","914237","0.0-7.0-3.8","2","1","2025-07-30 08:37:22","36c45c0696341be0efffe67d72a12abb","85.246.21.29","Mozilla/5.0 (Windows NT 10.0; Win64; x64) AppleWebKit/537.36 (KHTML, like Gecko) Chrome/138.0.0.0 Safari/537.36","WebKit","Chrome","138.0.0.0","Windows","10.0","https://app.prolific.com/","pt-PT,pt;q=0.9,en-US;q=0.8,en;q=0.7","65a93241fc1ee8c40991a861","683dba9a53627eb9ab41b36a","6889d9bf078f3b5bbd8847ad","0","65a93241fc1ee8c40991a861","0","2025-07-30T08:52:36.066Z","","","","StressQ","","","","","","","","","","","50","","","","","","","","","","","","","","","","","","","","","","","","","","",""
"1277","","<div style=""width:500px;"">
  <p>What best describes how you currently feel?</p>
  </div>","0","html-slider-response","57","915515","0.0-7.0-4.8","2","1","2025-07-30 08:37:22","36c45c0696341be0efffe67d72a12abb","85.246.21.29","Mozilla/5.0 (Windows NT 10.0; Win64; x64) AppleWebKit/537.36 (KHTML, like Gecko) Chrome/138.0.0.0 Safari/537.36","WebKit","Chrome","138.0.0.0","Windows","10.0","https://app.prolific.com/","pt-PT,pt;q=0.9,en-US;q=0.8,en;q=0.7","65a93241fc1ee8c40991a861","683dba9a53627eb9ab41b36a","6889d9bf078f3b5bbd8847ad","0","65a93241fc1ee8c40991a861","0","2025-07-30T08:52:37.344Z","","","","MotivationQ","","","","","","","","","","","50","","","","","","","","","","","","","","","","","","","","","","","","","","",""
"","","","","ctl-task-cpt","58","946271","0.0-7.0-0.9","2","1","2025-07-30 08:37:22","36c45c0696341be0efffe67d72a12abb","85.246.21.29","Mozilla/5.0 (Windows NT 10.0; Win64; x64) AppleWebKit/537.36 (KHTML, like Gecko) Chrome/138.0.0.0 Safari/537.36","WebKit","Chrome","138.0.0.0","Windows","10.0","https://app.prolific.com/","pt-PT,pt;q=0.9,en-US;q=0.8,en;q=0.7","65a93241fc1ee8c40991a861","683dba9a53627eb9ab41b36a","6889d9bf078f3b5bbd8847ad","0","65a93241fc1ee8c40991a861","0","2025-07-30T08:53:08.101Z","","","","","","","","","","","","","","","","win-only","2","g1:SE,g2:NW","0.5","10","0","916847","763.8","5767.9","27730.4","1","4","4","6","2","4","3","5","2","0.03787878787878788","1424.5","3000","2135","[""left"",""up""]","{""num_key_presses"":7,""num_perfect"":4,""num_errors"":1,""num_randdir"":2,""num_randdir_good_moves"":2,""num_whilered"":0,""num_whileblue"":0,""num_blue"":1,""num_good_moves"":6}","[414.57142857142856,417.47767857142856,0.1,414.57142857142856,417.47767857142856,101.2,414.57142857142856,417.47767857142856,209.9,414.57142857142856,417.47767857142856,315.1,430.57142857142856,471.47767857142856,416.1,528.5714285714286,577.4776785714286,526,616.5714285714286,657.4776785714286,626.2,663.5714285714286,683.4776785714286,731.1,565.5714285714286,596.4776785714286,831.6,147.57142857142856,234.47767857142856,941.2,126.57142857142857,181.47767857142856,1042.6,67.57142857142857,146.47767857142856,1150.1,60.57142857142857,125.47767857142857,1258.5,57.57142857142857,92.47767857142857,1362.4,57.57142857142857,85.47767857142857,1464.2,57.57142857142857,85.47767857142857,1568.4,72.57142857142857,111.47767857142857,1683.6,435.57142857142856,238.47767857142856,1783.6,1069.5714285714287,333.47767857142856,1894.3,1123.5714285714287,335.47767857142856,2001.9,1123.5714285714287,335.47767857142856,2102.3,1123.5714285714287,335.47767857142856,2210.4,1123.5714285714287,335.47767857142856,2311.2,1123.5714285714287,335.47767857142856,2414.5,1123.5714285714287,335.47767857142856,2516.5,1123.5714285714287,335.47767857142856,2623,1123.5714285714287,335.47767857142856,2726.8,1123.5714285714287,335.47767857142856,2831.9,1123.5714285714287,335.47767857142856,2935.7,1123.5714285714287,335.47767857142856,3041.9,1123.5714285714287,335.47767857142856,3143.1,1123.5714285714287,335.47767857142856,3245.2,1123.5714285714287,335.47767857142856,3354.5,1123.5714285714287,335.47767857142856,3462.4,1123.5714285714287,335.47767857142856,3569,1123.5714285714287,335.47767857142856,3673.8,1123.5714285714287,335.47767857142856,3777.8,1123.5714285714287,335.47767857142856,3884.3,1123.5714285714287,335.47767857142856,3985.4,1123.5714285714287,335.47767857142856,4088.5,1123.5714285714287,335.47767857142856,4188.8,1123.5714285714287,335.47767857142856,4293.7,1123.5714285714287,335.47767857142856,4405.5,1123.5714285714287,335.47767857142856,4507.2,1123.5714285714287,335.47767857142856,4609.5,1123.5714285714287,335.47767857142856,4718.5,1123.5714285714287,335.47767857142856,4822.7,1123.5714285714287,335.47767857142856,4926.6]","[479.6,479.6,1000,0,-520.4,""error"",""-"",""-"",""no_move"",4519.8,4039.9,2665.5,1489.5,364.8,""oops"",""left"",""left"",""good_move"",7079.2,2558.7,2122.4,4520.5,436.3,""oops"",""up"",""up"",""good_move"",9743.2,2663.6,2306.5,7079.6,357.1,""smooth"",""up"",""up"",""good_move"",12673.9,2930.1,2567.9,9743.8,362.2,""smooth"",""left"",""left"",""good_move"",15606.8,2932.8,2115.3,12674,817.5,""smooth"",""up"",""up"",""good_move"",21711.3,6104.4,2450.2,18890.6,370.5,""smooth"",""left"",""left"",""good_move""]"
"1435","","<div style=""width:500px;"">
  <p>What determined the result of this run?</p>
  </div>","0","html-slider-response","59","947707","0.0-7.0-1.9","2","1","2025-07-30 08:37:22","36c45c0696341be0efffe67d72a12abb","85.246.21.29","Mozilla/5.0 (Windows NT 10.0; Win64; x64) AppleWebKit/537.36 (KHTML, like Gecko) Chrome/138.0.0.0 Safari/537.36","WebKit","Chrome","138.0.0.0","Windows","10.0","https://app.prolific.com/","pt-PT,pt;q=0.9,en-US;q=0.8,en;q=0.7","65a93241fc1ee8c40991a861","683dba9a53627eb9ab41b36a","6889d9bf078f3b5bbd8847ad","0","65a93241fc1ee8c40991a861","0","2025-07-30T08:53:09.537Z","","","","AttribQ","","","","","","","","","","","50","","","","","","","","","","","","","","","","","","","","","","","","","","",""
"2980","","<div style=""width:500px;"">
  <p>How much control did you have over the ball?</p>
  </div>","0","html-slider-response","60","950688","0.0-7.0-2.9","2","1","2025-07-30 08:37:22","36c45c0696341be0efffe67d72a12abb","85.246.21.29","Mozilla/5.0 (Windows NT 10.0; Win64; x64) AppleWebKit/537.36 (KHTML, like Gecko) Chrome/138.0.0.0 Safari/537.36","WebKit","Chrome","138.0.0.0","Windows","10.0","https://app.prolific.com/","pt-PT,pt;q=0.9,en-US;q=0.8,en;q=0.7","65a93241fc1ee8c40991a861","683dba9a53627eb9ab41b36a","6889d9bf078f3b5bbd8847ad","0","65a93241fc1ee8c40991a861","0","2025-07-30T08:53:12.517Z","","","","ControlQ","","","","","","","","","","","50","","","","","","","","","","","","","","","","","","","","","","","","","","",""
"1320","","<div style=""width:500px;"">
  <p>How would you describe your current emotional state?</p>
  </div>","100","html-slider-response","61","952010","0.0-7.0-3.9","2","1","2025-07-30 08:37:22","36c45c0696341be0efffe67d72a12abb","85.246.21.29","Mozilla/5.0 (Windows NT 10.0; Win64; x64) AppleWebKit/537.36 (KHTML, like Gecko) Chrome/138.0.0.0 Safari/537.36","WebKit","Chrome","138.0.0.0","Windows","10.0","https://app.prolific.com/","pt-PT,pt;q=0.9,en-US;q=0.8,en;q=0.7","65a93241fc1ee8c40991a861","683dba9a53627eb9ab41b36a","6889d9bf078f3b5bbd8847ad","0","65a93241fc1ee8c40991a861","0","2025-07-30T08:53:13.839Z","","","","StressQ","","","","","","","","","","","50","","","","","","","","","","","","","","","","","","","","","","","","","","",""
"1020","","<div style=""width:500px;"">
  <p>What best describes how you currently feel?</p>
  </div>","0","html-slider-response","62","953030","0.0-7.0-4.9","2","1","2025-07-30 08:37:22","36c45c0696341be0efffe67d72a12abb","85.246.21.29","Mozilla/5.0 (Windows NT 10.0; Win64; x64) AppleWebKit/537.36 (KHTML, like Gecko) Chrome/138.0.0.0 Safari/537.36","WebKit","Chrome","138.0.0.0","Windows","10.0","https://app.prolific.com/","pt-PT,pt;q=0.9,en-US;q=0.8,en;q=0.7","65a93241fc1ee8c40991a861","683dba9a53627eb9ab41b36a","6889d9bf078f3b5bbd8847ad","0","65a93241fc1ee8c40991a861","0","2025-07-30T08:53:14.860Z","","","","MotivationQ","","","","","","","","","","","50","","","","","","","","","","","","","","","","","","","","","","","","","","",""
"","","","","ctl-task-cpt","63","970804","0.0-7.0-0.10","2","1","2025-07-30 08:37:22","36c45c0696341be0efffe67d72a12abb","85.246.21.29","Mozilla/5.0 (Windows NT 10.0; Win64; x64) AppleWebKit/537.36 (KHTML, like Gecko) Chrome/138.0.0.0 Safari/537.36","WebKit","Chrome","138.0.0.0","Windows","10.0","https://app.prolific.com/","pt-PT,pt;q=0.9,en-US;q=0.8,en;q=0.7","65a93241fc1ee8c40991a861","683dba9a53627eb9ab41b36a","6889d9bf078f3b5bbd8847ad","0","65a93241fc1ee8c40991a861","0","2025-07-30T08:53:32.633Z","","","","","","","","","","","","","","","","win-only","1","g1:NE,g2:SW","0.6","11","0","954362.7","499.1","5504.1","14754.2","1","4","8","6","1","1","1","6","5","0.045454545454545456","1194.7","3000","2395","[""up"",""right""]","{""num_key_presses"":4,""num_perfect"":3,""num_errors"":0,""num_randdir"":1,""num_randdir_good_moves"":1,""num_whilered"":0,""num_whileblue"":0,""num_blue"":0,""num_good_moves"":4}","[417.57142857142856,408.47767857142856,0.2,417.57142857142856,408.47767857142856,110.6,417.57142857142856,408.47767857142856,214.1,417.57142857142856,408.47767857142856,320.4,416.57142857142856,408.47767857142856,421.9,280.57142857142856,573.4776785714286,538.3,124.57142857142857,763.4776785714286,641.2,93.57142857142857,791.4776785714286,743,116.57142857142857,765.4776785714286,845.8,586.5714285714286,273.47767857142856,948.2,767.5714285714286,121.47767857142857,1048.3,771.5714285714286,82.47767857142857,1151.5,769.5714285714286,78.47767857142857,1259.7,803.5714285714286,85.47767857142857,1367.5,1000.5714285714286,207.47767857142856,1486.3,1066.5714285714287,242.47767857142856,1600.8,1068.5714285714287,242.47767857142856,1709.2,1068.5714285714287,242.47767857142856,1819.8,1068.5714285714287,242.47767857142856,1921.3,1068.5714285714287,242.47767857142856,2023.1,1068.5714285714287,242.47767857142856,2137.2,1068.5714285714287,242.47767857142856,2242.9,1068.5714285714287,242.47767857142856,2343.6,1068.5714285714287,242.47767857142856,2447.3,1068.5714285714287,242.47767857142856,2548.2,1068.5714285714287,242.47767857142856,2656.3,1068.5714285714287,242.47767857142856,2769.3,1068.5714285714287,242.47767857142856,2879.5,1068.5714285714287,242.47767857142856,2983.9,1068.5714285714287,242.47767857142856,3092.8,1068.5714285714287,242.47767857142856,3193,1068.5714285714287,242.47767857142856,3296.6,1068.5714285714287,242.47767857142856,3403.4,1068.5714285714287,242.47767857142856,3504.6,1068.5714285714287,242.47767857142856,3605,1068.5714285714287,242.47767857142856,3715.9,1068.5714285714287,242.47767857142856,3823,1068.5714285714287,242.47767857142856,3923,1068.5714285714287,242.47767857142856,4031.3,1068.5714285714287,242.47767857142856,4133.3,1068.5714285714287,242.47767857142856,4235.3,1068.5714285714287,242.47767857142856,4342.8,1068.5714285714287,242.47767857142856,4444.7,1068.5714285714287,242.47767857142856,4547.3,1068.5714285714287,242.47767857142856,4651.2,1068.5714285714287,242.47767857142856,4757,1068.5714285714287,242.47767857142856,4858.2,1068.5714285714287,242.47767857142856,4969.6]","[1419.3,1419.3,1000,0,419.3,""smooth"",""up"",""up"",""good_move"",4443.3,3023.4,2667.1,1419.9,356.3,""oops"",""right"",""right"",""good_move"",6891.1,2447.5,2115.3,4443.6,332.2,""smooth"",""up"",""up"",""good_move"",9059.7,2168.4,1830.2,6891.3,338.2,""smooth"",""right"",""right"",""good_move""]"
"1904","","<div style=""width:500px;"">
  <p>What determined the result of this run?</p>
  </div>","100","html-slider-response","64","972710","0.0-7.0-1.10","2","1","2025-07-30 08:37:22","36c45c0696341be0efffe67d72a12abb","85.246.21.29","Mozilla/5.0 (Windows NT 10.0; Win64; x64) AppleWebKit/537.36 (KHTML, like Gecko) Chrome/138.0.0.0 Safari/537.36","WebKit","Chrome","138.0.0.0","Windows","10.0","https://app.prolific.com/","pt-PT,pt;q=0.9,en-US;q=0.8,en;q=0.7","65a93241fc1ee8c40991a861","683dba9a53627eb9ab41b36a","6889d9bf078f3b5bbd8847ad","0","65a93241fc1ee8c40991a861","0","2025-07-30T08:53:34.539Z","","","","AttribQ","","","","","","","","","","","50","","","","","","","","","","","","","","","","","","","","","","","","","","",""
"1117","","<div style=""width:500px;"">
  <p>How much control did you have over the ball?</p>
  </div>","100","html-slider-response","65","973828","0.0-7.0-2.10","2","1","2025-07-30 08:37:22","36c45c0696341be0efffe67d72a12abb","85.246.21.29","Mozilla/5.0 (Windows NT 10.0; Win64; x64) AppleWebKit/537.36 (KHTML, like Gecko) Chrome/138.0.0.0 Safari/537.36","WebKit","Chrome","138.0.0.0","Windows","10.0","https://app.prolific.com/","pt-PT,pt;q=0.9,en-US;q=0.8,en;q=0.7","65a93241fc1ee8c40991a861","683dba9a53627eb9ab41b36a","6889d9bf078f3b5bbd8847ad","0","65a93241fc1ee8c40991a861","0","2025-07-30T08:53:35.657Z","","","","ControlQ","","","","","","","","","","","50","","","","","","","","","","","","","","","","","","","","","","","","","","",""
"1612","","<div style=""width:500px;"">
  <p>How would you describe your current emotional state?</p>
  </div>","100","html-slider-response","66","975441","0.0-7.0-3.10","2","1","2025-07-30 08:37:22","36c45c0696341be0efffe67d72a12abb","85.246.21.29","Mozilla/5.0 (Windows NT 10.0; Win64; x64) AppleWebKit/537.36 (KHTML, like Gecko) Chrome/138.0.0.0 Safari/537.36","WebKit","Chrome","138.0.0.0","Windows","10.0","https://app.prolific.com/","pt-PT,pt;q=0.9,en-US;q=0.8,en;q=0.7","65a93241fc1ee8c40991a861","683dba9a53627eb9ab41b36a","6889d9bf078f3b5bbd8847ad","0","65a93241fc1ee8c40991a861","0","2025-07-30T08:53:37.270Z","","","","StressQ","","","","","","","","","","","50","","","","","","","","","","","","","","","","","","","","","","","","","","",""
"1249","","<div style=""width:500px;"">
  <p>What best describes how you currently feel?</p>
  </div>","0","html-slider-response","67","976691","0.0-7.0-4.10","2","1","2025-07-30 08:37:22","36c45c0696341be0efffe67d72a12abb","85.246.21.29","Mozilla/5.0 (Windows NT 10.0; Win64; x64) AppleWebKit/537.36 (KHTML, like Gecko) Chrome/138.0.0.0 Safari/537.36","WebKit","Chrome","138.0.0.0","Windows","10.0","https://app.prolific.com/","pt-PT,pt;q=0.9,en-US;q=0.8,en;q=0.7","65a93241fc1ee8c40991a861","683dba9a53627eb9ab41b36a","6889d9bf078f3b5bbd8847ad","0","65a93241fc1ee8c40991a861","0","2025-07-30T08:53:38.520Z","","","","MotivationQ","","","","","","","","","","","50","","","","","","","","","","","","","","","","","","","","","","","","","","",""
"","","","","ctl-task-cpt","68","1009715","0.0-7.0-0.11","2","1","2025-07-30 08:37:22","36c45c0696341be0efffe67d72a12abb","85.246.21.29","Mozilla/5.0 (Windows NT 10.0; Win64; x64) AppleWebKit/537.36 (KHTML, like Gecko) Chrome/138.0.0.0 Safari/537.36","WebKit","Chrome","138.0.0.0","Windows","10.0","https://app.prolific.com/","pt-PT,pt;q=0.9,en-US;q=0.8,en;q=0.7","65a93241fc1ee8c40991a861","683dba9a53627eb9ab41b36a","6889d9bf078f3b5bbd8847ad","0","65a93241fc1ee8c40991a861","0","2025-07-30T08:54:11.544Z","","","","","","","","","","","","","","","","win-only","3","g1:SW,g2:NE","0.7","12","0","978022.7","524.2","5531.4","30008.3","1","4","4","6","2","4","4","10","6","0.07575757575757576","1066.6","3000","1905","[""up"",""right""]","{""num_key_presses"":8,""num_perfect"":5,""num_errors"":0,""num_randdir"":3,""num_randdir_good_moves"":2,""num_whilered"":0,""num_whileblue"":0,""num_blue"":0,""num_good_moves"":7}","[406.57142857142856,423.47767857142856,0.1,406.57142857142856,423.47767857142856,116.4,406.57142857142856,423.47767857142856,222.1,406.57142857142856,423.47767857142856,329.3,406.57142857142856,519.4776785714286,433.8,290.57142857142856,598.4776785714286,536.6,48.57142857142857,759.4776785714286,648.5,93.57142857142857,741.4776785714286,756,639.5714285714286,177.47767857142856,865.7,699.5714285714286,125.47767857142857,975.4,707.5714285714286,121.47767857142857,1082,710.5714285714286,119.47767857142857,1190.6,710.5714285714286,119.47767857142857,1298.4,710.5714285714286,119.47767857142857,1406.2,710.5714285714286,119.47767857142857,1515.6,710.5714285714286,119.47767857142857,1627.6,710.5714285714286,119.47767857142857,1736.4,710.5714285714286,119.47767857142857,1845,710.5714285714286,119.47767857142857,1953.2,710.5714285714286,119.47767857142857,2062.9,710.5714285714286,119.47767857142857,2168.8,710.5714285714286,119.47767857142857,2269.6,710.5714285714286,119.47767857142857,2373.4,710.5714285714286,119.47767857142857,2473.8,710.5714285714286,119.47767857142857,2580.9,710.5714285714286,119.47767857142857,2686.7,710.5714285714286,119.47767857142857,2796.7,710.5714285714286,119.47767857142857,2901.2,710.5714285714286,119.47767857142857,3009.2,710.5714285714286,119.47767857142857,3117.5,710.5714285714286,119.47767857142857,3223.5,710.5714285714286,119.47767857142857,3331.1,710.5714285714286,119.47767857142857,3434,710.5714285714286,119.47767857142857,3540.2,710.5714285714286,119.47767857142857,3650,710.5714285714286,119.47767857142857,3760.7,710.5714285714286,119.47767857142857,3863.6,710.5714285714286,119.47767857142857,3974.8,710.5714285714286,119.47767857142857,4076.6,710.5714285714286,119.47767857142857,4184,710.5714285714286,119.47767857142857,4285.9,710.5714285714286,119.47767857142857,4391.4,710.5714285714286,119.47767857142857,4501,710.5714285714286,119.47767857142857,4602.8,710.5714285714286,119.47767857142857,4714,710.5714285714286,119.47767857142857,4825.3,710.5714285714286,119.47767857142857,4925.6]","[1364,1364,1000,0,364,""smooth"",""up"",""up"",""good_move"",5059.4,3694.7,3297.4,1364.7,397.3,""smooth"",""right"",""right"",""good_move"",8604.5,3544.7,3144.9,5059.8,399.8,""oops"",""up"",""right"",""good_move"",11590.2,2985.4,2608.9,8604.8,376.5,""smooth"",""up"",""up"",""good_move"",14419,2828.5,2485.4,11590.5,343.1,""oops"",""right"",""up"",""good_move"",17547.7,3128.6,2772.7,14419.1,355.9,""oops"",""right"",""down"",""bad_move"",20931.3,3383.2,3035.4,17548.1,347.8,""smooth"",""right"",""right"",""good_move"",24275.9,3344.1,2936.6,20931.8,407.5,""smooth"",""up"",""up"",""good_move""]"
"42343","","<div style=""width:500px;"">
  <p>What determined the result of this run?</p>
  </div>","0","html-slider-response","69","1052059","0.0-7.0-1.11","2","1","2025-07-30 08:37:22","36c45c0696341be0efffe67d72a12abb","85.246.21.29","Mozilla/5.0 (Windows NT 10.0; Win64; x64) AppleWebKit/537.36 (KHTML, like Gecko) Chrome/138.0.0.0 Safari/537.36","WebKit","Chrome","138.0.0.0","Windows","10.0","https://app.prolific.com/","pt-PT,pt;q=0.9,en-US;q=0.8,en;q=0.7","65a93241fc1ee8c40991a861","683dba9a53627eb9ab41b36a","6889d9bf078f3b5bbd8847ad","0","65a93241fc1ee8c40991a861","0","2025-07-30T08:54:53.888Z","","","","AttribQ","","","","","","","","","","","50","","","","","","","","","","","","","","","","","","","","","","","","","","",""
"1264","","<div style=""width:500px;"">
  <p>How much control did you have over the ball?</p>
  </div>","0","html-slider-response","70","1053325","0.0-7.0-2.11","2","1","2025-07-30 08:37:22","36c45c0696341be0efffe67d72a12abb","85.246.21.29","Mozilla/5.0 (Windows NT 10.0; Win64; x64) AppleWebKit/537.36 (KHTML, like Gecko) Chrome/138.0.0.0 Safari/537.36","WebKit","Chrome","138.0.0.0","Windows","10.0","https://app.prolific.com/","pt-PT,pt;q=0.9,en-US;q=0.8,en;q=0.7","65a93241fc1ee8c40991a861","683dba9a53627eb9ab41b36a","6889d9bf078f3b5bbd8847ad","0","65a93241fc1ee8c40991a861","0","2025-07-30T08:54:55.154Z","","","","ControlQ","","","","","","","","","","","50","","","","","","","","","","","","","","","","","","","","","","","","","","",""
"1750","","<div style=""width:500px;"">
  <p>How would you describe your current emotional state?</p>
  </div>","0","html-slider-response","71","1055075","0.0-7.0-3.11","2","1","2025-07-30 08:37:22","36c45c0696341be0efffe67d72a12abb","85.246.21.29","Mozilla/5.0 (Windows NT 10.0; Win64; x64) AppleWebKit/537.36 (KHTML, like Gecko) Chrome/138.0.0.0 Safari/537.36","WebKit","Chrome","138.0.0.0","Windows","10.0","https://app.prolific.com/","pt-PT,pt;q=0.9,en-US;q=0.8,en;q=0.7","65a93241fc1ee8c40991a861","683dba9a53627eb9ab41b36a","6889d9bf078f3b5bbd8847ad","0","65a93241fc1ee8c40991a861","0","2025-07-30T08:54:56.904Z","","","","StressQ","","","","","","","","","","","50","","","","","","","","","","","","","","","","","","","","","","","","","","",""
"6477","","<div style=""width:500px;"">
  <p>What best describes how you currently feel?</p>
  </div>","0","html-slider-response","72","1061553","0.0-7.0-4.11","2","1","2025-07-30 08:37:22","36c45c0696341be0efffe67d72a12abb","85.246.21.29","Mozilla/5.0 (Windows NT 10.0; Win64; x64) AppleWebKit/537.36 (KHTML, like Gecko) Chrome/138.0.0.0 Safari/537.36","WebKit","Chrome","138.0.0.0","Windows","10.0","https://app.prolific.com/","pt-PT,pt;q=0.9,en-US;q=0.8,en;q=0.7","65a93241fc1ee8c40991a861","683dba9a53627eb9ab41b36a","6889d9bf078f3b5bbd8847ad","0","65a93241fc1ee8c40991a861","0","2025-07-30T08:55:03.382Z","","","","MotivationQ","","","","","","","","","","","50","","","","","","","","","","","","","","","","","","","","","","","","","","",""
"","","","","ctl-task-cpt","73","1092483","0.0-7.0-0.12","2","1","2025-07-30 08:37:22","36c45c0696341be0efffe67d72a12abb","85.246.21.29","Mozilla/5.0 (Windows NT 10.0; Win64; x64) AppleWebKit/537.36 (KHTML, like Gecko) Chrome/138.0.0.0 Safari/537.36","WebKit","Chrome","138.0.0.0","Windows","10.0","https://app.prolific.com/","pt-PT,pt;q=0.9,en-US;q=0.8,en;q=0.7","65a93241fc1ee8c40991a861","683dba9a53627eb9ab41b36a","6889d9bf078f3b5bbd8847ad","0","65a93241fc1ee8c40991a861","0","2025-07-30T08:55:34.312Z","","","","","","","","","","","","","","","","win-only","3","g1:SW,g2:NE","0.8","13","0","1062885.6","1654.2","6662.1","27912.6","1","4","4","6","1","1","1","11","10","0.08333333333333333","1735.6","3000","2130","[""down"",""left""]","{""num_key_presses"":6,""num_perfect"":4,""num_errors"":0,""num_randdir"":2,""num_randdir_good_moves"":1,""num_whilered"":0,""num_whileblue"":0,""num_blue"":1,""num_good_moves"":5}","[417.57142857142856,417.47767857142856,0.4,417.57142857142856,417.47767857142856,100.7,417.57142857142856,417.47767857142856,204.2,422.57142857142856,423.47767857142856,310.6,422.57142857142856,423.47767857142856,416.9,422.57142857142856,423.47767857142856,520.1,422.57142857142856,423.47767857142856,623.5,422.57142857142856,423.47767857142856,727.2,422.57142857142856,423.47767857142856,838.9,422.57142857142856,423.47767857142856,942.5,422.57142857142856,423.47767857142856,1045.9,422.57142857142856,423.47767857142856,1158.5,355.57142857142856,419.47767857142856,1258.6,179.57142857142856,540.4776785714286,1360.2,103.57142857142857,602.4776785714286,1475.7,73.57142857142857,690.4776785714286,1588.7,60.57142857142857,744.4776785714286,1691.5,60.57142857142857,748.4776785714286,1796.5,60.57142857142857,748.4776785714286,1901.1,-50.42857142857143,697.4776785714286,2010.8,-239.42857142857144,604.4776785714286,2124.7,-173.42857142857144,594.4776785714286,2240.4,-198.42857142857144,580.4776785714286,2349.2,-195.42857142857144,578.4776785714286,2457.1,-195.42857142857144,578.4776785714286,2568.9,-195.42857142857144,578.4776785714286,2677.6,-195.42857142857144,578.4776785714286,2779.6,-195.42857142857144,578.4776785714286,2889.7,-195.42857142857144,578.4776785714286,2993.4,-195.42857142857144,578.4776785714286,3102,-195.42857142857144,578.4776785714286,3202.4,-195.42857142857144,578.4776785714286,3310.3,-195.42857142857144,578.4776785714286,3415.7,-195.42857142857144,578.4776785714286,3526.3,-195.42857142857144,578.4776785714286,3636.7,-195.42857142857144,578.4776785714286,3748,-195.42857142857144,578.4776785714286,3857.7,-195.42857142857144,578.4776785714286,3967,-195.42857142857144,578.4776785714286,4079.3,-195.42857142857144,578.4776785714286,4191,-195.42857142857144,578.4776785714286,4293.3,-195.42857142857144,578.4776785714286,4394.4,-195.42857142857144,578.4776785714286,4500.4,-195.42857142857144,578.4776785714286,4602.4,-195.42857142857144,578.4776785714286,4708.2,-195.42857142857144,578.4776785714286,4810.2,-195.42857142857144,578.4776785714286,4913]","[1433.7,1433.7,1000,0,433.7,""smooth"",""left"",""left"",""good_move"",4466.1,3032.2,2294.9,1433.9,737.3,""smooth"",""down"",""down"",""good_move"",7809.2,3342.5,2974.3,4466.7,368.2,""oops"",""left"",""down"",""good_move"",11105.9,3296.4,2966.7,7809.5,329.7,""oops"",""left"",""right"",""bad_move"",17705.9,6599.1,2803.5,14471.1,431.3,""smooth"",""left"",""left"",""good_move"",21002.1,3295.8,2737.8,17706.3,558,""smooth"",""left"",""left"",""good_move""]"
"4606","","<div style=""width:500px;"">
  <p>What determined the result of this run?</p>
  </div>","0","html-slider-response","74","1097090","0.0-7.0-1.12","2","1","2025-07-30 08:37:22","36c45c0696341be0efffe67d72a12abb","85.246.21.29","Mozilla/5.0 (Windows NT 10.0; Win64; x64) AppleWebKit/537.36 (KHTML, like Gecko) Chrome/138.0.0.0 Safari/537.36","WebKit","Chrome","138.0.0.0","Windows","10.0","https://app.prolific.com/","pt-PT,pt;q=0.9,en-US;q=0.8,en;q=0.7","65a93241fc1ee8c40991a861","683dba9a53627eb9ab41b36a","6889d9bf078f3b5bbd8847ad","0","65a93241fc1ee8c40991a861","0","2025-07-30T08:55:38.919Z","","","","AttribQ","","","","","","","","","","","50","","","","","","","","","","","","","","","","","","","","","","","","","","",""
"1450","","<div style=""width:500px;"">
  <p>How much control did you have over the ball?</p>
  </div>","0","html-slider-response","75","1098541","0.0-7.0-2.12","2","1","2025-07-30 08:37:22","36c45c0696341be0efffe67d72a12abb","85.246.21.29","Mozilla/5.0 (Windows NT 10.0; Win64; x64) AppleWebKit/537.36 (KHTML, like Gecko) Chrome/138.0.0.0 Safari/537.36","WebKit","Chrome","138.0.0.0","Windows","10.0","https://app.prolific.com/","pt-PT,pt;q=0.9,en-US;q=0.8,en;q=0.7","65a93241fc1ee8c40991a861","683dba9a53627eb9ab41b36a","6889d9bf078f3b5bbd8847ad","0","65a93241fc1ee8c40991a861","0","2025-07-30T08:55:40.370Z","","","","ControlQ","","","","","","","","","","","50","","","","","","","","","","","","","","","","","","","","","","","","","","",""
"1376","","<div style=""width:500px;"">
  <p>How would you describe your current emotional state?</p>
  </div>","0","html-slider-response","76","1099919","0.0-7.0-3.12","2","1","2025-07-30 08:37:22","36c45c0696341be0efffe67d72a12abb","85.246.21.29","Mozilla/5.0 (Windows NT 10.0; Win64; x64) AppleWebKit/537.36 (KHTML, like Gecko) Chrome/138.0.0.0 Safari/537.36","WebKit","Chrome","138.0.0.0","Windows","10.0","https://app.prolific.com/","pt-PT,pt;q=0.9,en-US;q=0.8,en;q=0.7","65a93241fc1ee8c40991a861","683dba9a53627eb9ab41b36a","6889d9bf078f3b5bbd8847ad","0","65a93241fc1ee8c40991a861","0","2025-07-30T08:55:41.748Z","","","","StressQ","","","","","","","","","","","50","","","","","","","","","","","","","","","","","","","","","","","","","","",""
"1427","","<div style=""width:500px;"">
  <p>What best describes how you currently feel?</p>
  </div>","0","html-slider-response","77","1101347","0.0-7.0-4.12","2","1","2025-07-30 08:37:22","36c45c0696341be0efffe67d72a12abb","85.246.21.29","Mozilla/5.0 (Windows NT 10.0; Win64; x64) AppleWebKit/537.36 (KHTML, like Gecko) Chrome/138.0.0.0 Safari/537.36","WebKit","Chrome","138.0.0.0","Windows","10.0","https://app.prolific.com/","pt-PT,pt;q=0.9,en-US;q=0.8,en;q=0.7","65a93241fc1ee8c40991a861","683dba9a53627eb9ab41b36a","6889d9bf078f3b5bbd8847ad","0","65a93241fc1ee8c40991a861","0","2025-07-30T08:55:43.176Z","","","","MotivationQ","","","","","","","","","","","50","","","","","","","","","","","","","","","","","","","","","","","","","","",""
