"rt","response_timestamp","stimulus","response","trial_type","trial_index","time_elapsed","internal_node_id","run_id","condition","recorded_at","source_code_version","ip","user_agent","device","browser","browser_version","platform","platform_version","referer","accept_language","PROLIFIC_PID","STUDY_ID","SESSION_ID","BATCH","prolific_id","batch","realtime","success","question_order","question_id","eventType","responses","item_order","radio_event_ids","radio_event_times","key_event_times","mouse_event_times","straightlining","zigzagging","honeypot","view_history","slider_start","which_type","canvas_config","goals_layout","control_level","trial_number","tutorial_trial_number","trial_start_time","phase1_start_time","phase2_start_time","phase3_start_time","goal_1_value","goal_1_distance","goal_2_value","goal_2_distance","goal_selected","outcome","outcome_total","participant_final_score","participant_initial_score","participant_final_score_prop","goal_choice_rt","allocated_time","allocated_time_remaining","goal_direction","counts","mouse_movements","key_presses"
"2878","1754551276653","<p style='font-size:40px;line-height:1.25'><strong>Welcome to the experiment!</strong></p><p style='font-size:1.1em;line-height:1.25'>Thank you for participanting in our experiment again! You will be asked to play the Dysfunctional Ball Game again. We will briefly recap the rules before we start.</p><p style='font-size:1.1em;line-height:1.25'>Press <strong>Next</strong> to continue.</p>","0","custom-html-button-response","0","2880","0.0-0.0","225","1","2025-08-07 07:21:10","36c45c0696341be0efffe67d72a12abb","122.133.157.125","Mozilla/5.0 (Macintosh; Intel Mac OS X 10_15_7) AppleWebKit/537.36 (KHTML, like Gecko) Chrome/138.0.0.0 Safari/537.36","Macintosh","Chrome","138.0.0.0","OS X","10_15_7","https://app.prolific.com/","en-US,en;q=0.9","65cb0f21257c8a98f470bb5d","6877649eabb845cf142cd221","689453d59f55dde64ac425b1","1","65cb0f21257c8a98f470bb5d","1","2025-08-07T07:21:16.654Z","","","","","","","","","","","","","","","","","","","","","","","","","","","","","","","","","","","","","","","","","",""
"3323","","","","fullscreen","1","7205","0.0-1.0","225","1","2025-08-07 07:21:10","36c45c0696341be0efffe67d72a12abb","122.133.157.125","Mozilla/5.0 (Macintosh; Intel Mac OS X 10_15_7) AppleWebKit/537.36 (KHTML, like Gecko) Chrome/138.0.0.0 Safari/537.36","Macintosh","Chrome","138.0.0.0","OS X","10_15_7","https://app.prolific.com/","en-US,en;q=0.9","65cb0f21257c8a98f470bb5d","6877649eabb845cf142cd221","689453d59f55dde64ac425b1","1","65cb0f21257c8a98f470bb5d","1","","true","","","","","","","","","","","","","","","","","","","","","","","","","","","","","","","","","","","","","","","","",""
"4290","1754551285269"," <p style='font-size:1.1em;line-height:1.25'>Thank you for closing all other tabs.</p><p style='font-size:1.1em;line-height:1.25'>We will now invite you to fill in some questionnaires, before starting the game.<br>This will take about 5 minutes.<br></p><p style='font-size:1.1em;line-height:1.25'>Press the <strong>Next</strong> button to continue.</p>","0","custom-html-button-response","2","11495","0.0-2.0","225","1","2025-08-07 07:21:10","36c45c0696341be0efffe67d72a12abb","122.133.157.125","Mozilla/5.0 (Macintosh; Intel Mac OS X 10_15_7) AppleWebKit/537.36 (KHTML, like Gecko) Chrome/138.0.0.0 Safari/537.36","Macintosh","Chrome","138.0.0.0","OS X","10_15_7","https://app.prolific.com/","en-US,en;q=0.9","65cb0f21257c8a98f470bb5d","6877649eabb845cf142cd221","689453d59f55dde64ac425b1","1","65cb0f21257c8a98f470bb5d","1","2025-08-07T07:21:25.270Z","","","","","","","","","","","","","","","","","","","","","","","","","","","","","","","","","","","","","","","","","",""
"2736","","","{""assigned_sex"":""female""}","survey-multi-choice","3","14234","0.0-3.0-0.0","225","1","2025-08-07 07:21:10","36c45c0696341be0efffe67d72a12abb","122.133.157.125","Mozilla/5.0 (Macintosh; Intel Mac OS X 10_15_7) AppleWebKit/537.36 (KHTML, like Gecko) Chrome/138.0.0.0 Safari/537.36","Macintosh","Chrome","138.0.0.0","OS X","10_15_7","https://app.prolific.com/","en-US,en;q=0.9","65cb0f21257c8a98f470bb5d","6877649eabb845cf142cd221","689453d59f55dde64ac425b1","1","65cb0f21257c8a98f470bb5d","1","","","[0]","0","demographics","","","","","","","","","","","","","","","","","","","","","","","","","","","","","","","","","","","","","",""
"2368","1754551290376","<p style='font-size:1.1em;line-height:1.25'>In the following, we will perform a baseline assessment. This means that we will ask you a few questions relating to your experiences over the past month.<br></p><p style='font-size:1.1em;line-height:1.25'>Press the <strong>Next</strong> button to continue.</p>","0","custom-html-button-response","4","16603","0.0-4.0-0.0","225","1","2025-08-07 07:21:10","36c45c0696341be0efffe67d72a12abb","122.133.157.125","Mozilla/5.0 (Macintosh; Intel Mac OS X 10_15_7) AppleWebKit/537.36 (KHTML, like Gecko) Chrome/138.0.0.0 Safari/537.36","Macintosh","Chrome","138.0.0.0","OS X","10_15_7","https://app.prolific.com/","en-US,en;q=0.9","65cb0f21257c8a98f470bb5d","6877649eabb845cf142cd221","689453d59f55dde64ac425b1","1","65cb0f21257c8a98f470bb5d","1","2025-08-07T07:21:30.377Z","","","","","","","","","","","","","","","","","","","","","","","","","","","","","","","","","","","","","","","","","",""
"53752.5","","","","survey-template","5","70359","0.0-4.0-1.0","225","1","2025-08-07 07:21:10","36c45c0696341be0efffe67d72a12abb","122.133.157.125","Mozilla/5.0 (Macintosh; Intel Mac OS X 10_15_7) AppleWebKit/537.36 (KHTML, like Gecko) Chrome/138.0.0.0 Safari/537.36","Macintosh","Chrome","138.0.0.0","OS X","10_15_7","https://app.prolific.com/","en-US,en;q=0.9","65cb0f21257c8a98f470bb5d","6877649eabb845cf142cd221","689453d59f55dde64ac425b1","1","65cb0f21257c8a98f470bb5d","1","2025-08-07T07:22:24.133Z","","","","pss","{""Q01"":""2"",""Q02"":""2"",""Q03"":""3"",""Q04"":""1"",""Q05"":""2"",""Q06"":""3"",""Q07"":""1"",""Q08"":""2"",""Q09"":""2"",""Q10"":""2""}","[0,1,2,3,4,5,6,7,8,9]","[""Q01"",""Q02"",""Q03"",""Q04"",""Q05"",""Q06"",""Q08"",""Q09"",""Q10"",""Q07""]","[5897.800000011921,12122.699999988079,14736.800000011921,21168.100000023842,24087.5,30017,37313.69999998808,42086.60000002384,46973,52626.19999998808]","[]","[0,5897.800000011921,12122.699999988079,14736.800000011921,21168.100000023842,24087.5,30017,34474.69999998808,37313.69999998808,42086.60000002384,46973,48052.40000003576,52626.19999998808,53749.90000003576]","0.6","0.4444444444444444","0","","","","","","","","","","","","","","","","","","","","","","","","","","","","",""
"3362","1754551347496","<p style='font-size:1.1em;line-height:1.25'>Thank you for your answers! Now we will ask you a few more questions relating to your feelings in the last 24 hours.<br></p><p style='font-size:1.1em;line-height:1.25'>Press the <strong>Next</strong> button to continue.</p>","0","custom-html-button-response","6","73722","0.0-4.0-2.0","225","1","2025-08-07 07:21:10","36c45c0696341be0efffe67d72a12abb","122.133.157.125","Mozilla/5.0 (Macintosh; Intel Mac OS X 10_15_7) AppleWebKit/537.36 (KHTML, like Gecko) Chrome/138.0.0.0 Safari/537.36","Macintosh","Chrome","138.0.0.0","OS X","10_15_7","https://app.prolific.com/","en-US,en;q=0.9","65cb0f21257c8a98f470bb5d","6877649eabb845cf142cd221","689453d59f55dde64ac425b1","1","65cb0f21257c8a98f470bb5d","1","2025-08-07T07:22:27.496Z","","","","","","","","","","","","","","","","","","","","","","","","","","","","","","","","","","","","","","","","","",""
"72850.5","","","","survey-template","7","146576","0.0-4.0-3.0","225","1","2025-08-07 07:21:10","36c45c0696341be0efffe67d72a12abb","122.133.157.125","Mozilla/5.0 (Macintosh; Intel Mac OS X 10_15_7) AppleWebKit/537.36 (KHTML, like Gecko) Chrome/138.0.0.0 Safari/537.36","Macintosh","Chrome","138.0.0.0","OS X","10_15_7","https://app.prolific.com/","en-US,en;q=0.9","65cb0f21257c8a98f470bb5d","6877649eabb845cf142cd221","689453d59f55dde64ac425b1","1","65cb0f21257c8a98f470bb5d","1","2025-08-07T07:23:40.350Z","","","","drsp","{""Q01"":""1"",""Q02"":""1"",""Q03"":""2"",""Q04"":""2"",""Q05"":""1"",""Q06"":""1"",""Q07"":""2"",""Q08"":""1"",""Q09"":""1"",""Q10"":""3"",""Q11"":""4"",""Q12"":""2"",""Q13"":""5"",""Q14"":""3"",""Q15"":""4"",""Q16"":""2"",""Q17"":""2"",""Q18"":""1"",""Q19"":""0"",""Q20"":""3"",""Q21"":""1"",""Q22"":""0""}","[0,1,2,3,4,5,6,7,8,9,10,11,12,13,14,15,16,17,18,19,20,21]","[""Q01"",""Q02"",""Q03"",""Q04"",""Q05"",""Q06"",""Q07"",""Q08"",""Q09"",""Q10"",""Q11"",""Q12"",""Q13"",""Q14"",""Q15"",""Q16"",""Q17"",""Q18"",""Q19"",""Q20"",""Q21"",""Q22""]","[5978.5,7701.5,8931.199999988079,10912.699999988079,12539.899999976158,13981.199999988079,18888.100000023842,23037.80000001192,26847.600000023842,27778,30399.5,33370.80000001192,35465.39999997616,37707.30000001192,42408.89999997616,51674.80000001192,55294.39999997616,58606,61587.19999998808,64949.19999998808,68409.10000002384,71350.60000002384]","[]","[0,5978.5,7701.5,8931.199999988079,10912.699999988079,12539.899999976158,13981.199999988079,18888.100000023842,23037.80000001192,24631.19999998808,26176.69999998808,26847.600000023842,27778,30399.5,33370.80000001192,35465.39999997616,37707.30000001192,42408.89999997616,50550.19999998808,51674.80000001192,55294.39999997616,58606,61587.19999998808,64949.19999998808,68409.10000002384,71350.60000002384,72847.80000001192]","0.36363636363636365","0.42857142857142855","0","","","","","","","","","","","","","","","","","","","","","","","","","","","","",""
"11941.800000011921","","","","survey-template","8","158519","0.0-4.0-4.0","225","1","2025-08-07 07:21:10","36c45c0696341be0efffe67d72a12abb","122.133.157.125","Mozilla/5.0 (Macintosh; Intel Mac OS X 10_15_7) AppleWebKit/537.36 (KHTML, like Gecko) Chrome/138.0.0.0 Safari/537.36","Macintosh","Chrome","138.0.0.0","OS X","10_15_7","https://app.prolific.com/","en-US,en;q=0.9","65cb0f21257c8a98f470bb5d","6877649eabb845cf142cd221","689453d59f55dde64ac425b1","1","65cb0f21257c8a98f470bb5d","1","2025-08-07T07:23:52.294Z","","","","stress","{""Q01"":""2"",""Q02"":""3"",""Q03"":""2""}","[0,1,2]","[""Q01"",""Q02"",""Q03""]","[4389.400000035763,6357.400000035763,10580.800000011921]","[]","[4389.400000035763,6357.400000035763,10580.800000011921,11940.900000035763]","1","0","0","","","","","","","","","","","","","","","","","","","","","","","","","","","","",""
"8707","","","","instructions","9","167228","0.0-5.0-0.0","225","1","2025-08-07 07:21:10","36c45c0696341be0efffe67d72a12abb","122.133.157.125","Mozilla/5.0 (Macintosh; Intel Mac OS X 10_15_7) AppleWebKit/537.36 (KHTML, like Gecko) Chrome/138.0.0.0 Safari/537.36","Macintosh","Chrome","138.0.0.0","OS X","10_15_7","https://app.prolific.com/","en-US,en;q=0.9","65cb0f21257c8a98f470bb5d","6877649eabb845cf142cd221","689453d59f55dde64ac425b1","1","65cb0f21257c8a98f470bb5d","1","","","","","","","","","","","","","","","[{""page_index"":0,""viewing_time"":8707}]","","","","","","","","","","","","","","","","","","","","","","","","","","","",""
"2975","","<p>Before you start with this game please answer the following three questions yourself. </p>
  <p>Through this game, we measure several aspects of your cognitive performance, such as reaction times, multi-tasking capabilities </p>
  <p>and the ability to assess the situation you are in.</p>
  <p></p>
  <p><b>How good do you usually are in such tasks?</b></p>","70","html-slider-response","10","170204","0.0-6.0-0.0","225","1","2025-08-07 07:21:10","36c45c0696341be0efffe67d72a12abb","122.133.157.125","Mozilla/5.0 (Macintosh; Intel Mac OS X 10_15_7) AppleWebKit/537.36 (KHTML, like Gecko) Chrome/138.0.0.0 Safari/537.36","Macintosh","Chrome","138.0.0.0","OS X","10_15_7","https://app.prolific.com/","en-US,en;q=0.9","65cb0f21257c8a98f470bb5d","6877649eabb845cf142cd221","689453d59f55dde64ac425b1","1","65cb0f21257c8a98f470bb5d","1","2025-08-07T07:24:03.978Z","","","","PreSkillQ","","","","","","","","","","","50","","","","","","","","","","","","","","","","","","","","","","","","","","",""
"3124","","<div style=""width:500px;"">
  <p>How well do you think you will perform in this task compared to other participants?</p>
  </div>","68","html-slider-response","11","173329","0.0-6.0-1.0","225","1","2025-08-07 07:21:10","36c45c0696341be0efffe67d72a12abb","122.133.157.125","Mozilla/5.0 (Macintosh; Intel Mac OS X 10_15_7) AppleWebKit/537.36 (KHTML, like Gecko) Chrome/138.0.0.0 Safari/537.36","Macintosh","Chrome","138.0.0.0","OS X","10_15_7","https://app.prolific.com/","en-US,en;q=0.9","65cb0f21257c8a98f470bb5d","6877649eabb845cf142cd221","689453d59f55dde64ac425b1","1","65cb0f21257c8a98f470bb5d","1","2025-08-07T07:24:07.104Z","","","","PrePerfQ","","","","","","","","","","","50","","","","","","","","","","","","","","","","","","","","","","","","","","",""
"5160","","<div style=""width:500px;"">
  <p>What best describes how you currently feel?</p>
  </div>","50","html-slider-response","12","178491","0.0-6.0-2.0","225","1","2025-08-07 07:21:10","36c45c0696341be0efffe67d72a12abb","122.133.157.125","Mozilla/5.0 (Macintosh; Intel Mac OS X 10_15_7) AppleWebKit/537.36 (KHTML, like Gecko) Chrome/138.0.0.0 Safari/537.36","Macintosh","Chrome","138.0.0.0","OS X","10_15_7","https://app.prolific.com/","en-US,en;q=0.9","65cb0f21257c8a98f470bb5d","6877649eabb845cf142cd221","689453d59f55dde64ac425b1","1","65cb0f21257c8a98f470bb5d","1","2025-08-07T07:24:12.265Z","","","","PreMotivationQ","","","","","","","","","","","50","","","","","","","","","","","","","","","","","","","","","","","","","","",""
"","","","","ctl-task-cpt","13","209021","0.0-7.0-0.0","225","1","2025-08-07 07:21:10","36c45c0696341be0efffe67d72a12abb","122.133.157.125","Mozilla/5.0 (Macintosh; Intel Mac OS X 10_15_7) AppleWebKit/537.36 (KHTML, like Gecko) Chrome/138.0.0.0 Safari/537.36","Macintosh","Chrome","138.0.0.0","OS X","10_15_7","https://app.prolific.com/","en-US,en;q=0.9","65cb0f21257c8a98f470bb5d","6877649eabb845cf142cd221","689453d59f55dde64ac425b1","1","65cb0f21257c8a98f470bb5d","1","2025-08-07T07:24:42.795Z","","","","","","","","","","","","","","","","win-only","0","g1:NW,g2:SE","1","1","0","182500.2","1154.2","6156.5","27522.1","1","4","4","6","2","4","3","3","0","0.022727272727272728","1246.3","3000","1140","[""down"",""right""]","{""num_key_presses"":7,""num_perfect"":6,""num_errors"":1,""num_randdir"":0,""num_randdir_good_moves"":0,""num_whilered"":0,""num_whileblue"":0,""num_blue"":1,""num_good_moves"":6}","[830.6508928571428,841.4477678571428,0.2,830.6508928571428,841.4477678571428,101.5,830.6508928571428,841.4477678571428,202.1,830.6508928571428,841.4477678571428,306.3,830.6508928571428,841.4477678571428,407.1,830.6508928571428,841.4477678571428,507.3,830.6508928571428,841.4477678571428,607.3,794.6508928571428,825.4477678571428,712.4,1226.650892857143,1225.447767857143,816.2,1564.650892857143,1455.447767857143,917.1,1546.650892857143,1451.447767857143,1021.8,1546.650892857143,1471.447767857143,1127.3,1546.650892857143,1471.447767857143,1231.8,1546.650892857143,1471.447767857143,1331.9,1546.650892857143,1471.447767857143,1436.6,1562.650892857143,1457.447767857143,1536.8,1958.650892857143,1315.447767857143,1637,2042.650892857143,1319.447767857143,1737.2,2042.650892857143,1321.447767857143,1842.3,2042.650892857143,1321.447767857143,1942.3,2042.650892857143,1321.447767857143,2042.4,2042.650892857143,1321.447767857143,2147.1,2042.650892857143,1321.447767857143,2247.3,2042.650892857143,1321.447767857143,2351.6,2042.650892857143,1321.447767857143,2452,2042.650892857143,1321.447767857143,2556.8,2042.650892857143,1321.447767857143,2662.6,2042.650892857143,1321.447767857143,2766.2,2042.650892857143,1321.447767857143,2871.9,2042.650892857143,1321.447767857143,2976.7,2042.650892857143,1321.447767857143,3077.6,2042.650892857143,1321.447767857143,3181.1,2042.650892857143,1321.447767857143,3281.1,2042.650892857143,1321.447767857143,3381.5,2042.650892857143,1321.447767857143,3486.6,2042.650892857143,1321.447767857143,3592.5,2042.650892857143,1321.447767857143,3696.7,2042.650892857143,1321.447767857143,3796.8,2042.650892857143,1321.447767857143,3897,2042.650892857143,1321.447767857143,4001.5,2042.650892857143,1321.447767857143,4107.1,2042.650892857143,1321.447767857143,4211.7,2042.650892857143,1321.447767857143,4311.8,2042.650892857143,1321.447767857143,4411.9,2042.650892857143,1321.447767857143,4512.7,2042.650892857143,1321.447767857143,4616.4,2042.650892857143,1321.447767857143,4721.8,2042.650892857143,1321.447767857143,4822.5,2042.650892857143,1321.447767857143,4926.9]","[336.3,336.2,1000,0.1,-663.8,""error"",""-"",""-"",""no_move"",3529.2,3192.7,1890.6,1340.3,298.3,""smooth"",""right"",""right"",""good_move"",6277.2,2747.7,2449.9,3529.5,297.9,""smooth"",""down"",""down"",""good_move"",13252.2,6974.6,2468.4,10444.4,339.4,""smooth"",""right"",""right"",""good_move"",16381,3128.7,2775.2,13252.3,353.5,""smooth"",""down"",""down"",""good_move"",19033.2,2651.9,2341.3,16381.3,310.6,""smooth"",""right"",""right"",""good_move"",21278.6,2245.2,1951.8,19033.4,293.4,""smooth"",""down"",""down"",""good_move""]"
"2002","","<div style=""width:500px;"">
  <p>What determined the result of this run?</p>
  </div>","100","html-slider-response","14","211024","0.0-7.0-1.0","225","1","2025-08-07 07:21:10","36c45c0696341be0efffe67d72a12abb","122.133.157.125","Mozilla/5.0 (Macintosh; Intel Mac OS X 10_15_7) AppleWebKit/537.36 (KHTML, like Gecko) Chrome/138.0.0.0 Safari/537.36","Macintosh","Chrome","138.0.0.0","OS X","10_15_7","https://app.prolific.com/","en-US,en;q=0.9","65cb0f21257c8a98f470bb5d","6877649eabb845cf142cd221","689453d59f55dde64ac425b1","1","65cb0f21257c8a98f470bb5d","1","2025-08-07T07:24:44.798Z","","","","AttribQ","","","","","","","","","","","50","","","","","","","","","","","","","","","","","","","","","","","","","","",""
"1828","","<div style=""width:500px;"">
  <p>How much control did you have over the ball?</p>
  </div>","99","html-slider-response","15","212852","0.0-7.0-2.0","225","1","2025-08-07 07:21:10","36c45c0696341be0efffe67d72a12abb","122.133.157.125","Mozilla/5.0 (Macintosh; Intel Mac OS X 10_15_7) AppleWebKit/537.36 (KHTML, like Gecko) Chrome/138.0.0.0 Safari/537.36","Macintosh","Chrome","138.0.0.0","OS X","10_15_7","https://app.prolific.com/","en-US,en;q=0.9","65cb0f21257c8a98f470bb5d","6877649eabb845cf142cd221","689453d59f55dde64ac425b1","1","65cb0f21257c8a98f470bb5d","1","2025-08-07T07:24:46.626Z","","","","ControlQ","","","","","","","","","","","50","","","","","","","","","","","","","","","","","","","","","","","","","","",""
"5568","","<div style=""width:500px;"">
  <p>How would you describe your current emotional state?</p>
  </div>","32","html-slider-response","16","218421","0.0-7.0-3.0","225","1","2025-08-07 07:21:10","36c45c0696341be0efffe67d72a12abb","122.133.157.125","Mozilla/5.0 (Macintosh; Intel Mac OS X 10_15_7) AppleWebKit/537.36 (KHTML, like Gecko) Chrome/138.0.0.0 Safari/537.36","Macintosh","Chrome","138.0.0.0","OS X","10_15_7","https://app.prolific.com/","en-US,en;q=0.9","65cb0f21257c8a98f470bb5d","6877649eabb845cf142cd221","689453d59f55dde64ac425b1","1","65cb0f21257c8a98f470bb5d","1","2025-08-07T07:24:52.195Z","","","","StressQ","","","","","","","","","","","50","","","","","","","","","","","","","","","","","","","","","","","","","","",""
"5585","","<div style=""width:500px;"">
  <p>What best describes how you currently feel?</p>
  </div>","47","html-slider-response","17","224006","0.0-7.0-4.0","225","1","2025-08-07 07:21:10","36c45c0696341be0efffe67d72a12abb","122.133.157.125","Mozilla/5.0 (Macintosh; Intel Mac OS X 10_15_7) AppleWebKit/537.36 (KHTML, like Gecko) Chrome/138.0.0.0 Safari/537.36","Macintosh","Chrome","138.0.0.0","OS X","10_15_7","https://app.prolific.com/","en-US,en;q=0.9","65cb0f21257c8a98f470bb5d","6877649eabb845cf142cd221","689453d59f55dde64ac425b1","1","65cb0f21257c8a98f470bb5d","1","2025-08-07T07:24:57.781Z","","","","MotivationQ","","","","","","","","","","","50","","","","","","","","","","","","","","","","","","","","","","","","","","",""
"","","","","ctl-task-cpt","18","258685","0.0-7.0-0.1","225","1","2025-08-07 07:21:10","36c45c0696341be0efffe67d72a12abb","122.133.157.125","Mozilla/5.0 (Macintosh; Intel Mac OS X 10_15_7) AppleWebKit/537.36 (KHTML, like Gecko) Chrome/138.0.0.0 Safari/537.36","Macintosh","Chrome","138.0.0.0","OS X","10_15_7","https://app.prolific.com/","en-US,en;q=0.9","65cb0f21257c8a98f470bb5d","6877649eabb845cf142cd221","689453d59f55dde64ac425b1","1","65cb0f21257c8a98f470bb5d","1","2025-08-07T07:25:32.460Z","","","","","","","","","","","","","","","","win-only","2","g1:SE,g2:NW","0.9","2","0","228015","1022.5","6025.8","31675.4","1","4","8","6","2","8","8","11","3","0.08333333333333333","1050.1","3000","630","[""left"",""up""]","{""num_key_presses"":8,""num_perfect"":7,""num_errors"":0,""num_randdir"":1,""num_randdir_good_moves"":0,""num_whilered"":0,""num_whileblue"":0,""num_blue"":1,""num_good_moves"":7}","[826.6508928571428,803.4477678571428,0.2,826.6508928571428,803.4477678571428,104.1,826.6508928571428,803.4477678571428,208.7,826.6508928571428,803.4477678571428,314.2,826.6508928571428,803.4477678571428,418.4,826.6508928571428,803.4477678571428,518.6,766.6508928571428,763.4477678571428,623,192.65089285714285,173.44776785714285,723.5,166.65089285714285,155.44776785714285,827.9,168.65089285714285,161.44776785714285,927.9,168.65089285714285,161.44776785714285,1028.6,168.65089285714285,161.44776785714285,1133.3,168.65089285714285,161.44776785714285,1233.7,1062.650892857143,257.4477678571428,1333.7,1806.650892857143,513.4477678571428,1438,1792.650892857143,519.4477678571428,1539,1786.650892857143,521.4477678571428,1643.8,1786.650892857143,521.4477678571428,1744,1786.650892857143,521.4477678571428,1848.1,1786.650892857143,521.4477678571428,1948.2,1786.650892857143,521.4477678571428,2048.3,1786.650892857143,521.4477678571428,2153.1,1786.650892857143,521.4477678571428,2253.3,1786.650892857143,521.4477678571428,2353.3,1786.650892857143,521.4477678571428,2454,1786.650892857143,521.4477678571428,2559,1786.650892857143,521.4477678571428,2663.6,1786.650892857143,521.4477678571428,2763.8,1786.650892857143,521.4477678571428,2863.8,1786.650892857143,521.4477678571428,2968.4,1786.650892857143,521.4477678571428,3068.9,1786.650892857143,521.4477678571428,3173.5,1786.650892857143,521.4477678571428,3278.3,1786.650892857143,521.4477678571428,3382.8,1786.650892857143,521.4477678571428,3483.9,1786.650892857143,521.4477678571428,3589.1,1786.650892857143,521.4477678571428,3693.8,1786.650892857143,521.4477678571428,3798,1786.650892857143,521.4477678571428,3900,1786.650892857143,521.4477678571428,4003.5,1786.650892857143,521.4477678571428,4103.5,1786.650892857143,521.4477678571428,4208.2,1786.650892857143,521.4477678571428,4308.6,1786.650892857143,521.4477678571428,4408.8,1786.650892857143,521.4477678571428,4513.4,1786.650892857143,521.4477678571428,4613.4,1786.650892857143,521.4477678571428,4713.9,1786.650892857143,521.4477678571428,4820.5,1786.650892857143,521.4477678571428,4923]","[4121.6,4121.6,1812.8,2005.6,303.2,""smooth"",""left"",""left"",""good_move"",7136.6,3014.8,2699.9,4121.8,314.9,""smooth"",""up"",""up"",""good_move"",10546,3409.2,3131.8,7136.8,277.4,""smooth"",""left"",""left"",""good_move"",13693.3,3147.1,2835.7,10546.2,311.4,""oops"",""up"",""down"",""bad_move"",16429.3,2735.8,2426.4,13693.5,309.5,""smooth"",""left"",""left"",""good_move"",18898.4,2468.8,2181,16429.6,287.8,""smooth"",""up"",""up"",""good_move"",21968.2,3069.6,2774.9,18898.6,294.7,""smooth"",""up"",""up"",""good_move"",25546.6,3578.3,3266.1,21968.3,312.2,""smooth"",""up"",""up"",""good_move""]"
"3428","","<div style=""width:500px;"">
  <p>What determined the result of this run?</p>
  </div>","87","html-slider-response","19","262114","0.0-7.0-1.1","225","1","2025-08-07 07:21:10","36c45c0696341be0efffe67d72a12abb","122.133.157.125","Mozilla/5.0 (Macintosh; Intel Mac OS X 10_15_7) AppleWebKit/537.36 (KHTML, like Gecko) Chrome/138.0.0.0 Safari/537.36","Macintosh","Chrome","138.0.0.0","OS X","10_15_7","https://app.prolific.com/","en-US,en;q=0.9","65cb0f21257c8a98f470bb5d","6877649eabb845cf142cd221","689453d59f55dde64ac425b1","1","65cb0f21257c8a98f470bb5d","1","2025-08-07T07:25:35.888Z","","","","AttribQ","","","","","","","","","","","50","","","","","","","","","","","","","","","","","","","","","","","","","","",""
"2531","","<div style=""width:500px;"">
  <p>How much control did you have over the ball?</p>
  </div>","81","html-slider-response","20","264646","0.0-7.0-2.1","225","1","2025-08-07 07:21:10","36c45c0696341be0efffe67d72a12abb","122.133.157.125","Mozilla/5.0 (Macintosh; Intel Mac OS X 10_15_7) AppleWebKit/537.36 (KHTML, like Gecko) Chrome/138.0.0.0 Safari/537.36","Macintosh","Chrome","138.0.0.0","OS X","10_15_7","https://app.prolific.com/","en-US,en;q=0.9","65cb0f21257c8a98f470bb5d","6877649eabb845cf142cd221","689453d59f55dde64ac425b1","1","65cb0f21257c8a98f470bb5d","1","2025-08-07T07:25:38.420Z","","","","ControlQ","","","","","","","","","","","50","","","","","","","","","","","","","","","","","","","","","","","","","","",""
"3647","","<div style=""width:500px;"">
  <p>How would you describe your current emotional state?</p>
  </div>","33","html-slider-response","21","268294","0.0-7.0-3.1","225","1","2025-08-07 07:21:10","36c45c0696341be0efffe67d72a12abb","122.133.157.125","Mozilla/5.0 (Macintosh; Intel Mac OS X 10_15_7) AppleWebKit/537.36 (KHTML, like Gecko) Chrome/138.0.0.0 Safari/537.36","Macintosh","Chrome","138.0.0.0","OS X","10_15_7","https://app.prolific.com/","en-US,en;q=0.9","65cb0f21257c8a98f470bb5d","6877649eabb845cf142cd221","689453d59f55dde64ac425b1","1","65cb0f21257c8a98f470bb5d","1","2025-08-07T07:25:42.068Z","","","","StressQ","","","","","","","","","","","50","","","","","","","","","","","","","","","","","","","","","","","","","","",""
"3471","","<div style=""width:500px;"">
  <p>What best describes how you currently feel?</p>
  </div>","42","html-slider-response","22","271766","0.0-7.0-4.1","225","1","2025-08-07 07:21:10","36c45c0696341be0efffe67d72a12abb","122.133.157.125","Mozilla/5.0 (Macintosh; Intel Mac OS X 10_15_7) AppleWebKit/537.36 (KHTML, like Gecko) Chrome/138.0.0.0 Safari/537.36","Macintosh","Chrome","138.0.0.0","OS X","10_15_7","https://app.prolific.com/","en-US,en;q=0.9","65cb0f21257c8a98f470bb5d","6877649eabb845cf142cd221","689453d59f55dde64ac425b1","1","65cb0f21257c8a98f470bb5d","1","2025-08-07T07:25:45.540Z","","","","MotivationQ","","","","","","","","","","","50","","","","","","","","","","","","","","","","","","","","","","","","","","",""
"","","","","ctl-task-cpt","23","296811","0.0-7.0-0.2","225","1","2025-08-07 07:21:10","36c45c0696341be0efffe67d72a12abb","122.133.157.125","Mozilla/5.0 (Macintosh; Intel Mac OS X 10_15_7) AppleWebKit/537.36 (KHTML, like Gecko) Chrome/138.0.0.0 Safari/537.36","Macintosh","Chrome","138.0.0.0","OS X","10_15_7","https://app.prolific.com/","en-US,en;q=0.9","65cb0f21257c8a98f470bb5d","6877649eabb845cf142cd221","689453d59f55dde64ac425b1","1","65cb0f21257c8a98f470bb5d","1","2025-08-07T07:26:10.586Z","","","","","","","","","","","","","","","","win-only","1","g1:NE,g2:SW","0.8","3","0","275774.2","935.8","5940.7","22030.3","1","4","8","6","2","8","7","18","11","0.13636363636363635","1070.2","3000","1470","[""down"",""left""]","{""num_key_presses"":6,""num_perfect"":4,""num_errors"":1,""num_randdir"":1,""num_randdir_good_moves"":1,""num_whilered"":0,""num_whileblue"":1,""num_blue"":1,""num_good_moves"":6}","[848.6508928571428,821.4477678571428,0.1,848.6508928571428,821.4477678571428,104.9,848.6508928571428,821.4477678571428,205.2,848.6508928571428,821.4477678571428,310.6,848.6508928571428,821.4477678571428,410.6,848.6508928571428,821.4477678571428,510.7,620.6508928571428,1023.4477678571428,615.4,164.65089285714285,1447.447767857143,715.9,134.65089285714285,1455.447767857143,819.9,134.65089285714285,1455.447767857143,920.6,134.65089285714285,1455.447767857143,1025.2,134.65089285714285,1455.447767857143,1125.4,134.65089285714285,1455.447767857143,1230.4,764.6508928571428,1231.447767857143,1330.4,1688.650892857143,1015.4477678571428,1431,1702.650892857143,1009.4477678571428,1535.1,1870.650892857143,969.4477678571428,1635.1,1932.650892857143,953.4477678571428,1740.4,1932.650892857143,953.4477678571428,1845,1932.650892857143,953.4477678571428,1949.9,1932.650892857143,953.4477678571428,2050.7,1932.650892857143,953.4477678571428,2155,1932.650892857143,953.4477678571428,2255.4,1932.650892857143,953.4477678571428,2360.3,1932.650892857143,953.4477678571428,2464.8,1932.650892857143,953.4477678571428,2565.4,1932.650892857143,953.4477678571428,2670.7,1932.650892857143,953.4477678571428,2776.9,1932.650892857143,953.4477678571428,2880.4,1932.650892857143,953.4477678571428,2984.9,1932.650892857143,953.4477678571428,3085,1932.650892857143,953.4477678571428,3185.4,1932.650892857143,953.4477678571428,3285.7,1932.650892857143,953.4477678571428,3389.6,1932.650892857143,953.4477678571428,3490.3,1932.650892857143,953.4477678571428,3595.3,1932.650892857143,953.4477678571428,3700.7,1932.650892857143,953.4477678571428,3805,1932.650892857143,953.4477678571428,3905.7,1932.650892857143,953.4477678571428,4011.3,1932.650892857143,953.4477678571428,4115.4,1932.650892857143,953.4477678571428,4220.5,1932.650892857143,953.4477678571428,4320.5,1932.650892857143,953.4477678571428,4425.2,1932.650892857143,953.4477678571428,4530.7,1932.650892857143,953.4477678571428,4635.4,1932.650892857143,953.4477678571428,4735.6,1932.650892857143,953.4477678571428,4840.3,1932.650892857143,953.4477678571428,4940.6]","[1310.8,1310.8,1000,0,310.8,""smooth"",""left"",""left"",""good_move"",4584.5,3273.4,2938.9,1311.1,334.5,""smooth"",""down"",""down"",""good_move"",8188.4,3603.8,3301.1,4584.7,302.7,""smooth"",""left"",""left"",""good_move"",10985.8,2797.2,2469.5,8188.6,327.7,""smooth"",""down"",""down"",""good_move"",13839.8,2853.9,2571,10985.9,282.9,""oops"",""left"",""left"",""good_move"",15992.6,2152.6,1905.8,13840,246.8,""while_blue"",""down"",""down"",""good_move""]"
"2548","","<div style=""width:500px;"">
  <p>What determined the result of this run?</p>
  </div>","75","html-slider-response","24","299361","0.0-7.0-1.2","225","1","2025-08-07 07:21:10","36c45c0696341be0efffe67d72a12abb","122.133.157.125","Mozilla/5.0 (Macintosh; Intel Mac OS X 10_15_7) AppleWebKit/537.36 (KHTML, like Gecko) Chrome/138.0.0.0 Safari/537.36","Macintosh","Chrome","138.0.0.0","OS X","10_15_7","https://app.prolific.com/","en-US,en;q=0.9","65cb0f21257c8a98f470bb5d","6877649eabb845cf142cd221","689453d59f55dde64ac425b1","1","65cb0f21257c8a98f470bb5d","1","2025-08-07T07:26:13.135Z","","","","AttribQ","","","","","","","","","","","50","","","","","","","","","","","","","","","","","","","","","","","","","","",""
"1893","","<div style=""width:500px;"">
  <p>How much control did you have over the ball?</p>
  </div>","74","html-slider-response","25","301254","0.0-7.0-2.2","225","1","2025-08-07 07:21:10","36c45c0696341be0efffe67d72a12abb","122.133.157.125","Mozilla/5.0 (Macintosh; Intel Mac OS X 10_15_7) AppleWebKit/537.36 (KHTML, like Gecko) Chrome/138.0.0.0 Safari/537.36","Macintosh","Chrome","138.0.0.0","OS X","10_15_7","https://app.prolific.com/","en-US,en;q=0.9","65cb0f21257c8a98f470bb5d","6877649eabb845cf142cd221","689453d59f55dde64ac425b1","1","65cb0f21257c8a98f470bb5d","1","2025-08-07T07:26:15.028Z","","","","ControlQ","","","","","","","","","","","50","","","","","","","","","","","","","","","","","","","","","","","","","","",""
"3020","","<div style=""width:500px;"">
  <p>How would you describe your current emotional state?</p>
  </div>","30","html-slider-response","26","304275","0.0-7.0-3.2","225","1","2025-08-07 07:21:10","36c45c0696341be0efffe67d72a12abb","122.133.157.125","Mozilla/5.0 (Macintosh; Intel Mac OS X 10_15_7) AppleWebKit/537.36 (KHTML, like Gecko) Chrome/138.0.0.0 Safari/537.36","Macintosh","Chrome","138.0.0.0","OS X","10_15_7","https://app.prolific.com/","en-US,en;q=0.9","65cb0f21257c8a98f470bb5d","6877649eabb845cf142cd221","689453d59f55dde64ac425b1","1","65cb0f21257c8a98f470bb5d","1","2025-08-07T07:26:18.049Z","","","","StressQ","","","","","","","","","","","50","","","","","","","","","","","","","","","","","","","","","","","","","","",""
"2517","","<div style=""width:500px;"">
  <p>What best describes how you currently feel?</p>
  </div>","45","html-slider-response","27","306793","0.0-7.0-4.2","225","1","2025-08-07 07:21:10","36c45c0696341be0efffe67d72a12abb","122.133.157.125","Mozilla/5.0 (Macintosh; Intel Mac OS X 10_15_7) AppleWebKit/537.36 (KHTML, like Gecko) Chrome/138.0.0.0 Safari/537.36","Macintosh","Chrome","138.0.0.0","OS X","10_15_7","https://app.prolific.com/","en-US,en;q=0.9","65cb0f21257c8a98f470bb5d","6877649eabb845cf142cd221","689453d59f55dde64ac425b1","1","65cb0f21257c8a98f470bb5d","1","2025-08-07T07:26:20.567Z","","","","MotivationQ","","","","","","","","","","","50","","","","","","","","","","","","","","","","","","","","","","","","","","",""
"","","","","ctl-task-cpt","28","352914","0.0-7.0-0.3","225","1","2025-08-07 07:21:10","36c45c0696341be0efffe67d72a12abb","122.133.157.125","Mozilla/5.0 (Macintosh; Intel Mac OS X 10_15_7) AppleWebKit/537.36 (KHTML, like Gecko) Chrome/138.0.0.0 Safari/537.36","Macintosh","Chrome","138.0.0.0","OS X","10_15_7","https://app.prolific.com/","en-US,en;q=0.9","65cb0f21257c8a98f470bb5d","6877649eabb845cf142cd221","689453d59f55dde64ac425b1","1","65cb0f21257c8a98f470bb5d","1","2025-08-07T07:27:06.688Z","","","","","","","","","","","","","","","","win-only","2","g1:SE,g2:NW","0.7","4","0","310801","974.8","5976.3","43112","1","4","4","6","2","-4","-4","14","18","0.10606060606060606","1117","3000","-2935","[""left"",""up""]","{""num_key_presses"":11,""num_perfect"":8,""num_errors"":0,""num_randdir"":3,""num_randdir_good_moves"":0,""num_whilered"":0,""num_whileblue"":0,""num_blue"":1,""num_good_moves"":8}","[822.6508928571428,809.4477678571428,0,822.6508928571428,809.4477678571428,100.7,822.6508928571428,809.4477678571428,201.1,822.6508928571428,809.4477678571428,301.4,822.6508928571428,809.4477678571428,401.9,822.6508928571428,809.4477678571428,506.3,836.6508928571428,873.4477678571428,606.8,164.65089285714285,301.4477678571428,710.8,98.65089285714285,225.44776785714285,815.5,116.65089285714285,229.44776785714285,915.6,144.65089285714285,207.44776785714285,1016.5,144.65089285714285,207.44776785714285,1126.7,144.65089285714285,207.44776785714285,1233.1,206.65089285714285,207.44776785714285,1336,1496.650892857143,575.4477678571428,1436.2,1702.650892857143,669.4477678571428,1541,1702.650892857143,669.4477678571428,1645.1,1702.650892857143,669.4477678571428,1747.7,1702.650892857143,669.4477678571428,1851.9,1702.650892857143,669.4477678571428,1956.3,1702.650892857143,669.4477678571428,2056.4,1702.650892857143,669.4477678571428,2161.1,1702.650892857143,669.4477678571428,2262.3,1702.650892857143,669.4477678571428,2364.1,1702.650892857143,669.4477678571428,2464.5,1702.650892857143,669.4477678571428,2566.1,1702.650892857143,669.4477678571428,2670.6,1702.650892857143,669.4477678571428,2775.9,1702.650892857143,669.4477678571428,2877.4,1702.650892857143,669.4477678571428,2982.4,1702.650892857143,669.4477678571428,3086.9,1702.650892857143,669.4477678571428,3187.2,1702.650892857143,669.4477678571428,3290.8,1702.650892857143,669.4477678571428,3391.1,1702.650892857143,669.4477678571428,3493.1,1702.650892857143,669.4477678571428,3594.8,1702.650892857143,669.4477678571428,3696.6,1702.650892857143,669.4477678571428,3797.2,1702.650892857143,669.4477678571428,3901.3,1702.650892857143,669.4477678571428,4005.9,1702.650892857143,669.4477678571428,4110.2,1702.650892857143,669.4477678571428,4212.9,1702.650892857143,669.4477678571428,4314.1,1702.650892857143,669.4477678571428,4414.7,1702.650892857143,669.4477678571428,4515.4,1702.650892857143,669.4477678571428,4616.5,1702.650892857143,669.4477678571428,4721.7,1702.650892857143,669.4477678571428,4821.9,1702.650892857143,669.4477678571428,4926.5]","[1329.5,1329.5,1000,0,329.5,""smooth"",""left"",""left"",""good_move"",4293.9,2964.2,2629.8,1329.7,334.4,""smooth"",""up"",""up"",""good_move"",7194.3,2900.4,2556.1,4294,344.3,""oops"",""left"",""down"",""bad_move"",9753.8,2559.3,2278.9,7194.6,280.3,""oops"",""left"",""down"",""bad_move"",12415,2661.1,2381,9753.9,280.1,""smooth"",""left"",""left"",""good_move"",15009.3,2594.3,2317.4,12415,276.9,""smooth"",""up"",""up"",""good_move"",18055.3,3045.8,2800,15009.5,245.8,""smooth"",""up"",""up"",""good_move"",25358,7302.6,2984.7,22108.9,264.4,""smooth"",""left"",""left"",""good_move"",28924.9,3566.8,3281.1,25358.1,285.7,""oops"",""up"",""down"",""bad_move"",31927.4,3002.4,2739.6,28925,262.8,""smooth"",""up"",""up"",""good_move"",34913.9,2986.3,2750.8,31927.6,235.5,""smooth"",""up"",""up"",""good_move""]"
"4241","","<div style=""width:500px;"">
  <p>What determined the result of this run?</p>
  </div>","19","html-slider-response","29","357155","0.0-7.0-1.3","225","1","2025-08-07 07:21:10","36c45c0696341be0efffe67d72a12abb","122.133.157.125","Mozilla/5.0 (Macintosh; Intel Mac OS X 10_15_7) AppleWebKit/537.36 (KHTML, like Gecko) Chrome/138.0.0.0 Safari/537.36","Macintosh","Chrome","138.0.0.0","OS X","10_15_7","https://app.prolific.com/","en-US,en;q=0.9","65cb0f21257c8a98f470bb5d","6877649eabb845cf142cd221","689453d59f55dde64ac425b1","1","65cb0f21257c8a98f470bb5d","1","2025-08-07T07:27:10.929Z","","","","AttribQ","","","","","","","","","","","50","","","","","","","","","","","","","","","","","","","","","","","","","","",""
"2362","","<div style=""width:500px;"">
  <p>How much control did you have over the ball?</p>
  </div>","34","html-slider-response","30","359518","0.0-7.0-2.3","225","1","2025-08-07 07:21:10","36c45c0696341be0efffe67d72a12abb","122.133.157.125","Mozilla/5.0 (Macintosh; Intel Mac OS X 10_15_7) AppleWebKit/537.36 (KHTML, like Gecko) Chrome/138.0.0.0 Safari/537.36","Macintosh","Chrome","138.0.0.0","OS X","10_15_7","https://app.prolific.com/","en-US,en;q=0.9","65cb0f21257c8a98f470bb5d","6877649eabb845cf142cd221","689453d59f55dde64ac425b1","1","65cb0f21257c8a98f470bb5d","1","2025-08-07T07:27:13.292Z","","","","ControlQ","","","","","","","","","","","50","","","","","","","","","","","","","","","","","","","","","","","","","","",""
"3026","","<div style=""width:500px;"">
  <p>How would you describe your current emotional state?</p>
  </div>","41","html-slider-response","31","362544","0.0-7.0-3.3","225","1","2025-08-07 07:21:10","36c45c0696341be0efffe67d72a12abb","122.133.157.125","Mozilla/5.0 (Macintosh; Intel Mac OS X 10_15_7) AppleWebKit/537.36 (KHTML, like Gecko) Chrome/138.0.0.0 Safari/537.36","Macintosh","Chrome","138.0.0.0","OS X","10_15_7","https://app.prolific.com/","en-US,en;q=0.9","65cb0f21257c8a98f470bb5d","6877649eabb845cf142cd221","689453d59f55dde64ac425b1","1","65cb0f21257c8a98f470bb5d","1","2025-08-07T07:27:16.318Z","","","","StressQ","","","","","","","","","","","50","","","","","","","","","","","","","","","","","","","","","","","","","","",""
"2297","","<div style=""width:500px;"">
  <p>What best describes how you currently feel?</p>
  </div>","41","html-slider-response","32","364842","0.0-7.0-4.3","225","1","2025-08-07 07:21:10","36c45c0696341be0efffe67d72a12abb","122.133.157.125","Mozilla/5.0 (Macintosh; Intel Mac OS X 10_15_7) AppleWebKit/537.36 (KHTML, like Gecko) Chrome/138.0.0.0 Safari/537.36","Macintosh","Chrome","138.0.0.0","OS X","10_15_7","https://app.prolific.com/","en-US,en;q=0.9","65cb0f21257c8a98f470bb5d","6877649eabb845cf142cd221","689453d59f55dde64ac425b1","1","65cb0f21257c8a98f470bb5d","1","2025-08-07T07:27:18.616Z","","","","MotivationQ","","","","","","","","","","","50","","","","","","","","","","","","","","","","","","","","","","","","","","",""
"","","","","ctl-task-cpt","33","389915","0.0-7.0-0.4","225","1","2025-08-07 07:21:10","36c45c0696341be0efffe67d72a12abb","122.133.157.125","Mozilla/5.0 (Macintosh; Intel Mac OS X 10_15_7) AppleWebKit/537.36 (KHTML, like Gecko) Chrome/138.0.0.0 Safari/537.36","Macintosh","Chrome","138.0.0.0","OS X","10_15_7","https://app.prolific.com/","en-US,en;q=0.9","65cb0f21257c8a98f470bb5d","6877649eabb845cf142cd221","689453d59f55dde64ac425b1","1","65cb0f21257c8a98f470bb5d","1","2025-08-07T07:27:43.689Z","","","","","","","","","","","","","","","","win-only","3","g1:SW,g2:NE","0.6","5","0","368849.5","881.5","5886.1","22061.4","1","4","4","6","2","4","3","17","14","0.12878787878787878","1051.1","3000","1720","[""up"",""right""]","{""num_key_presses"":6,""num_perfect"":5,""num_errors"":1,""num_randdir"":0,""num_randdir_good_moves"":0,""num_whilered"":0,""num_whileblue"":1,""num_blue"":1,""num_good_moves"":6}","[818.6508928571428,827.4477678571428,0.1,818.6508928571428,827.4477678571428,104.6,818.6508928571428,827.4477678571428,211.1,818.6508928571428,827.4477678571428,315,818.6508928571428,827.4477678571428,415.2,818.6508928571428,825.4477678571428,519.6,1260.650892857143,111.44776785714285,619.6,1516.650892857143,137.44776785714285,719.9,1524.650892857143,175.44776785714285,822.5,1506.650892857143,171.44776785714285,924.5,1506.650892857143,171.44776785714285,1030.1,1506.650892857143,171.44776785714285,1134.3,1538.650892857143,161.44776785714285,1234.7,1996.650892857143,301.4477678571428,1334.7,2120.650892857143,393.4477678571428,1435.4,2120.650892857143,393.4477678571428,1540.3,2120.650892857143,393.4477678571428,1642.5,2120.650892857143,393.4477678571428,1745.1,2120.650892857143,393.4477678571428,1849.1,2120.650892857143,393.4477678571428,1949.1,2120.650892857143,393.4477678571428,2049.4,2120.650892857143,393.4477678571428,2149.5,2120.650892857143,393.4477678571428,2249.5,2120.650892857143,393.4477678571428,2349.6,2120.650892857143,393.4477678571428,2449.8,2120.650892857143,393.4477678571428,2549.8,2120.650892857143,393.4477678571428,2654,2120.650892857143,393.4477678571428,2755.2,2120.650892857143,393.4477678571428,2860.3,2120.650892857143,393.4477678571428,2963.1,2120.650892857143,393.4477678571428,3064.3,2120.650892857143,393.4477678571428,3164.6,2120.650892857143,393.4477678571428,3265,2120.650892857143,393.4477678571428,3369.8,2120.650892857143,393.4477678571428,3474.9,2120.650892857143,393.4477678571428,3579.8,2120.650892857143,393.4477678571428,3684.3,2120.650892857143,393.4477678571428,3784.6,2120.650892857143,393.4477678571428,3889.1,2120.650892857143,393.4477678571428,3991.1,2120.650892857143,393.4477678571428,4095.3,2120.650892857143,393.4477678571428,4200,2120.650892857143,393.4477678571428,4304.3,2120.650892857143,393.4477678571428,4404.4,2120.650892857143,393.4477678571428,4504.7,2120.650892857143,393.4477678571428,4610.4,2120.650892857143,393.4477678571428,4712.8,2120.650892857143,393.4477678571428,4815.3,2120.650892857143,393.4477678571428,4919.9]","[1304.7,1304.7,1000,0,304.7,""smooth"",""right"",""right"",""good_move"",4075.5,2770.5,2497.3,1305,273.2,""smooth"",""up"",""up"",""good_move"",7265.2,3189.6,2913,4075.6,276.6,""smooth"",""right"",""right"",""good_move"",9778.7,2513.3,2213.9,7265.4,299.4,""while_blue"",""up"",""up"",""good_move"",12597.8,2818.9,2536.2,9778.9,282.7,""smooth"",""right"",""right"",""good_move"",16084.9,3487,3244.9,12597.9,242.1,""smooth"",""up"",""up"",""good_move""]"
"1639","","<div style=""width:500px;"">
  <p>What determined the result of this run?</p>
  </div>","71","html-slider-response","34","391554","0.0-7.0-1.4","225","1","2025-08-07 07:21:10","36c45c0696341be0efffe67d72a12abb","122.133.157.125","Mozilla/5.0 (Macintosh; Intel Mac OS X 10_15_7) AppleWebKit/537.36 (KHTML, like Gecko) Chrome/138.0.0.0 Safari/537.36","Macintosh","Chrome","138.0.0.0","OS X","10_15_7","https://app.prolific.com/","en-US,en;q=0.9","65cb0f21257c8a98f470bb5d","6877649eabb845cf142cd221","689453d59f55dde64ac425b1","1","65cb0f21257c8a98f470bb5d","1","2025-08-07T07:27:45.328Z","","","","AttribQ","","","","","","","","","","","50","","","","","","","","","","","","","","","","","","","","","","","","","","",""
"2945","","<div style=""width:500px;"">
  <p>How much control did you have over the ball?</p>
  </div>","94","html-slider-response","35","394500","0.0-7.0-2.4","225","1","2025-08-07 07:21:10","36c45c0696341be0efffe67d72a12abb","122.133.157.125","Mozilla/5.0 (Macintosh; Intel Mac OS X 10_15_7) AppleWebKit/537.36 (KHTML, like Gecko) Chrome/138.0.0.0 Safari/537.36","Macintosh","Chrome","138.0.0.0","OS X","10_15_7","https://app.prolific.com/","en-US,en;q=0.9","65cb0f21257c8a98f470bb5d","6877649eabb845cf142cd221","689453d59f55dde64ac425b1","1","65cb0f21257c8a98f470bb5d","1","2025-08-07T07:27:48.274Z","","","","ControlQ","","","","","","","","","","","50","","","","","","","","","","","","","","","","","","","","","","","","","","",""
"2541","","<div style=""width:500px;"">
  <p>How would you describe your current emotional state?</p>
  </div>","34","html-slider-response","36","397041","0.0-7.0-3.4","225","1","2025-08-07 07:21:10","36c45c0696341be0efffe67d72a12abb","122.133.157.125","Mozilla/5.0 (Macintosh; Intel Mac OS X 10_15_7) AppleWebKit/537.36 (KHTML, like Gecko) Chrome/138.0.0.0 Safari/537.36","Macintosh","Chrome","138.0.0.0","OS X","10_15_7","https://app.prolific.com/","en-US,en;q=0.9","65cb0f21257c8a98f470bb5d","6877649eabb845cf142cd221","689453d59f55dde64ac425b1","1","65cb0f21257c8a98f470bb5d","1","2025-08-07T07:27:50.815Z","","","","StressQ","","","","","","","","","","","50","","","","","","","","","","","","","","","","","","","","","","","","","","",""
"3108","","<div style=""width:500px;"">
  <p>What best describes how you currently feel?</p>
  </div>","44","html-slider-response","37","400149","0.0-7.0-4.4","225","1","2025-08-07 07:21:10","36c45c0696341be0efffe67d72a12abb","122.133.157.125","Mozilla/5.0 (Macintosh; Intel Mac OS X 10_15_7) AppleWebKit/537.36 (KHTML, like Gecko) Chrome/138.0.0.0 Safari/537.36","Macintosh","Chrome","138.0.0.0","OS X","10_15_7","https://app.prolific.com/","en-US,en;q=0.9","65cb0f21257c8a98f470bb5d","6877649eabb845cf142cd221","689453d59f55dde64ac425b1","1","65cb0f21257c8a98f470bb5d","1","2025-08-07T07:27:53.923Z","","","","MotivationQ","","","","","","","","","","","50","","","","","","","","","","","","","","","","","","","","","","","","","","",""
"","","","","ctl-task-cpt","38","463602","0.0-7.0-0.5","225","1","2025-08-07 07:21:10","36c45c0696341be0efffe67d72a12abb","122.133.157.125","Mozilla/5.0 (Macintosh; Intel Mac OS X 10_15_7) AppleWebKit/537.36 (KHTML, like Gecko) Chrome/138.0.0.0 Safari/537.36","Macintosh","Chrome","138.0.0.0","OS X","10_15_7","https://app.prolific.com/","en-US,en;q=0.9","65cb0f21257c8a98f470bb5d","6877649eabb845cf142cd221","689453d59f55dde64ac425b1","1","65cb0f21257c8a98f470bb5d","1","2025-08-07T07:28:57.376Z","","","","","","","","","","","","","","","","win-only","2","g1:SE,g2:NW","0.5","6","0","404156.2","800.6","5805.7","60440.2","1","4","8","6","2","-8","-12","5","17","0.03787878787878788","1034.9","3000","-2650","[""left"",""up""]","{""num_key_presses"":15,""num_perfect"":5,""num_errors"":4,""num_randdir"":6,""num_randdir_good_moves"":2,""num_whilered"":0,""num_whileblue"":4,""num_blue"":8,""num_good_moves"":8}","[826.6508928571428,817.4477678571428,0,826.6508928571428,817.4477678571428,100.1,826.6508928571428,817.4477678571428,201.7,826.6508928571428,817.4477678571428,302.4,826.6508928571428,817.4477678571428,407.2,848.6508928571428,827.4477678571428,510.5,264.6508928571428,177.44776785714285,613.3,126.65089285714285,33.44776785714285,717.3,164.65089285714285,103.44776785714285,822.2,196.65089285714285,149.44776785714285,926.5,196.65089285714285,149.44776785714285,1028,196.65089285714285,149.44776785714285,1130.9,196.65089285714285,149.44776785714285,1232.6,1216.650892857143,195.44776785714285,1335.4,2210.650892857143,635.4477678571428,1438.5,1998.650892857143,615.4477678571428,1542.4,1878.650892857143,601.4477678571428,1647.2,1848.650892857143,599.4477678571428,1752.1,1848.650892857143,599.4477678571428,1854.7,1848.650892857143,599.4477678571428,1955.4,1848.650892857143,599.4477678571428,2064,1848.650892857143,599.4477678571428,2170.8,1848.650892857143,599.4477678571428,2272.1,1848.650892857143,599.4477678571428,2374.8,1848.650892857143,599.4477678571428,2480.3,1848.650892857143,599.4477678571428,2585.3,1848.650892857143,599.4477678571428,2688.7,1848.650892857143,599.4477678571428,2791.6,1848.650892857143,599.4477678571428,2897.1,1848.650892857143,599.4477678571428,3000.3,1848.650892857143,599.4477678571428,3105.2,1848.650892857143,599.4477678571428,3205.4,1848.650892857143,599.4477678571428,3314,1848.650892857143,599.4477678571428,3421.3,1848.650892857143,599.4477678571428,3522.5,1848.650892857143,599.4477678571428,3626.2,1848.650892857143,599.4477678571428,3731.7,1848.650892857143,599.4477678571428,3835.2,1848.650892857143,599.4477678571428,3943.8,1848.650892857143,599.4477678571428,4046.7,1848.650892857143,599.4477678571428,4151.1,1848.650892857143,599.4477678571428,4251.7,1848.650892857143,599.4477678571428,4354.7,1848.650892857143,599.4477678571428,4454.9,1848.650892857143,599.4477678571428,4555.1,1848.650892857143,599.4477678571428,4657.3,1848.650892857143,599.4477678571428,4761.8,1848.650892857143,599.4477678571428,4862,1848.650892857143,599.4477678571428,4966.3]","[1348.4,1348.4,1000,0,348.4,""oops"",""left"",""right"",""bad_move"",3520.7,2172.1,1880.3,1348.6,291.8,""smooth"",""up"",""up"",""good_move"",6081.1,2560.2,2273.7,3520.9,286.5,""oops"",""up"",""up"",""good_move"",8875.8,2794.5,2520.4,6081.3,274.1,""oops"",""up"",""down"",""bad_move"",11562.8,2686.8,2438.7,8876,248.1,""while_blue"",""up"",""right"",""bad_move"",14005.7,2442.7,2124.1,11563,318.6,""while_blue"",""up"",""down"",""bad_move"",21346.4,7340.6,3098.9,17947.5,300,""smooth"",""up"",""up"",""good_move"",24185.6,2839.2,2531.6,21346.4,307.6,""oops"",""up"",""up"",""good_move"",29813,5627.4,2119.9,27394.9,298.2,""while_blue"",""up"",""up"",""good_move"",39464.6,9651.5,2135.2,36965.2,364.2,""smooth"",""left"",""left"",""good_move"",42402.3,2937.5,2659.8,39464.8,277.7,""smooth"",""left"",""left"",""good_move"",44952.1,2549.6,2220.8,42402.5,328.8,""smooth"",""left"",""left"",""good_move"",46972.6,2020.4,1679.7,44952.2,340.7,""oops"",""left"",""down"",""bad_move"",49612,2639.1,2464.3,46972.9,174.8,""while_blue"",""left"",""right"",""bad_move"",52226.8,2614.6,2258.4,49612.2,356.2,""oops"",""left"",""down"",""bad_move""]"
"2752","","<div style=""width:500px;"">
  <p>What determined the result of this run?</p>
  </div>","76","html-slider-response","39","466354","0.0-7.0-1.5","225","1","2025-08-07 07:21:10","36c45c0696341be0efffe67d72a12abb","122.133.157.125","Mozilla/5.0 (Macintosh; Intel Mac OS X 10_15_7) AppleWebKit/537.36 (KHTML, like Gecko) Chrome/138.0.0.0 Safari/537.36","Macintosh","Chrome","138.0.0.0","OS X","10_15_7","https://app.prolific.com/","en-US,en;q=0.9","65cb0f21257c8a98f470bb5d","6877649eabb845cf142cd221","689453d59f55dde64ac425b1","1","65cb0f21257c8a98f470bb5d","1","2025-08-07T07:29:00.128Z","","","","AttribQ","","","","","","","","","","","50","","","","","","","","","","","","","","","","","","","","","","","","","","",""
"2086","","<div style=""width:500px;"">
  <p>How much control did you have over the ball?</p>
  </div>","28","html-slider-response","40","468441","0.0-7.0-2.5","225","1","2025-08-07 07:21:10","36c45c0696341be0efffe67d72a12abb","122.133.157.125","Mozilla/5.0 (Macintosh; Intel Mac OS X 10_15_7) AppleWebKit/537.36 (KHTML, like Gecko) Chrome/138.0.0.0 Safari/537.36","Macintosh","Chrome","138.0.0.0","OS X","10_15_7","https://app.prolific.com/","en-US,en;q=0.9","65cb0f21257c8a98f470bb5d","6877649eabb845cf142cd221","689453d59f55dde64ac425b1","1","65cb0f21257c8a98f470bb5d","1","2025-08-07T07:29:02.215Z","","","","ControlQ","","","","","","","","","","","50","","","","","","","","","","","","","","","","","","","","","","","","","","",""
"3026","","<div style=""width:500px;"">
  <p>How would you describe your current emotional state?</p>
  </div>","68","html-slider-response","41","471467","0.0-7.0-3.5","225","1","2025-08-07 07:21:10","36c45c0696341be0efffe67d72a12abb","122.133.157.125","Mozilla/5.0 (Macintosh; Intel Mac OS X 10_15_7) AppleWebKit/537.36 (KHTML, like Gecko) Chrome/138.0.0.0 Safari/537.36","Macintosh","Chrome","138.0.0.0","OS X","10_15_7","https://app.prolific.com/","en-US,en;q=0.9","65cb0f21257c8a98f470bb5d","6877649eabb845cf142cd221","689453d59f55dde64ac425b1","1","65cb0f21257c8a98f470bb5d","1","2025-08-07T07:29:05.241Z","","","","StressQ","","","","","","","","","","","50","","","","","","","","","","","","","","","","","","","","","","","","","","",""
"2703","","<div style=""width:500px;"">
  <p>What best describes how you currently feel?</p>
  </div>","42","html-slider-response","42","474171","0.0-7.0-4.5","225","1","2025-08-07 07:21:10","36c45c0696341be0efffe67d72a12abb","122.133.157.125","Mozilla/5.0 (Macintosh; Intel Mac OS X 10_15_7) AppleWebKit/537.36 (KHTML, like Gecko) Chrome/138.0.0.0 Safari/537.36","Macintosh","Chrome","138.0.0.0","OS X","10_15_7","https://app.prolific.com/","en-US,en;q=0.9","65cb0f21257c8a98f470bb5d","6877649eabb845cf142cd221","689453d59f55dde64ac425b1","1","65cb0f21257c8a98f470bb5d","1","2025-08-07T07:29:07.945Z","","","","MotivationQ","","","","","","","","","","","50","","","","","","","","","","","","","","","","","","","","","","","","","","",""
"","","","","ctl-task-cpt","43","526700","0.0-7.0-0.6","225","1","2025-08-07 07:21:10","36c45c0696341be0efffe67d72a12abb","122.133.157.125","Mozilla/5.0 (Macintosh; Intel Mac OS X 10_15_7) AppleWebKit/537.36 (KHTML, like Gecko) Chrome/138.0.0.0 Safari/537.36","Macintosh","Chrome","138.0.0.0","OS X","10_15_7","https://app.prolific.com/","en-US,en;q=0.9","65cb0f21257c8a98f470bb5d","6877649eabb845cf142cd221","689453d59f55dde64ac425b1","1","65cb0f21257c8a98f470bb5d","1","2025-08-07T07:30:00.474Z","","","","","","","","","","","","","","","","win-only","3","g1:SW,g2:NE","0.4","7","0","478177.8","798.2","5798.3","49522.3","1","4","8","6","2","-8","-8","0","5","0","981.1","3000","-2670","[""up"",""right""]","{""num_key_presses"":11,""num_perfect"":4,""num_errors"":0,""num_randdir"":7,""num_randdir_good_moves"":2,""num_whilered"":0,""num_whileblue"":0,""num_blue"":3,""num_good_moves"":6}","[840.6508928571428,813.4477678571428,0.1,840.6508928571428,813.4477678571428,103,840.6508928571428,813.4477678571428,210.2,840.6508928571428,813.4477678571428,310.8,840.6508928571428,813.4477678571428,415.5,854.6508928571428,803.4477678571428,516,1394.650892857143,315.4477678571428,617.9,1484.650892857143,219.44776785714285,722.9,1484.650892857143,219.44776785714285,823.1,1484.650892857143,219.44776785714285,926.1,1484.650892857143,219.44776785714285,1029.8,1484.650892857143,219.44776785714285,1137.3,1710.650892857143,147.44776785714285,1237.5,2146.650892857143,131.44776785714285,1337.7,2146.650892857143,131.44776785714285,1438,2146.650892857143,131.44776785714285,1542.3,2146.650892857143,131.44776785714285,1650.8,2146.650892857143,131.44776785714285,1755.5,2146.650892857143,131.44776785714285,1860.1,2146.650892857143,131.44776785714285,1963.4,2146.650892857143,131.44776785714285,2067.6,2146.650892857143,131.44776785714285,2172.6,2146.650892857143,131.44776785714285,2275.4,2146.650892857143,131.44776785714285,2379.4,2146.650892857143,131.44776785714285,2481,2146.650892857143,131.44776785714285,2582.1,2146.650892857143,131.44776785714285,2682.4,2146.650892857143,131.44776785714285,2786,2146.650892857143,131.44776785714285,2888.7,2146.650892857143,131.44776785714285,2989.4,2146.650892857143,131.44776785714285,3089.9,2146.650892857143,131.44776785714285,3192.7,2146.650892857143,131.44776785714285,3297.6,2146.650892857143,131.44776785714285,3397.7,2146.650892857143,131.44776785714285,3499.8,2146.650892857143,131.44776785714285,3604.6,2146.650892857143,131.44776785714285,3704.6,2146.650892857143,131.44776785714285,3810.9,2146.650892857143,131.44776785714285,3912.5,2146.650892857143,131.44776785714285,4020.2,2146.650892857143,131.44776785714285,4121.3,2146.650892857143,131.44776785714285,4223.7,2146.650892857143,131.44776785714285,4328.4,2146.650892857143,131.44776785714285,4429.6,2146.650892857143,131.44776785714285,4532.3,2146.650892857143,131.44776785714285,4633.1,2146.650892857143,131.44776785714285,4735.7,2146.650892857143,131.44776785714285,4839,2146.650892857143,131.44776785714285,4939.6]","[5540.6,5540.6,3206.1,2007.8,326.7,""smooth"",""right"",""right"",""good_move"",8162.3,2621.6,2341.3,5540.7,280.3,""oops"",""up"",""left"",""bad_move"",10628.6,2466,2160,8162.6,306,""oops"",""right"",""down"",""bad_move"",20509,9880.2,2386,17790.4,332.6,""oops"",""right"",""right"",""good_move"",23446.2,2937.1,2581.8,20509.1,355.3,""smooth"",""right"",""right"",""good_move"",26442.6,2996.3,2693.3,23446.3,303,""oops"",""right"",""down"",""bad_move"",29834.4,3391.6,3109,26442.8,282.6,""smooth"",""right"",""right"",""good_move"",31973.8,2139.2,1838.5,29834.6,300.7,""smooth"",""up"",""up"",""good_move"",34764.7,2790.8,2487.4,31973.9,303.4,""oops"",""up"",""down"",""bad_move"",37556.6,2791.8,2480.5,34764.9,311.2,""oops"",""up"",""up"",""good_move"",41059.8,3503,3261.4,37556.8,241.6,""oops"",""up"",""left"",""bad_move""]"
"4158","","<div style=""width:500px;"">
  <p>What determined the result of this run?</p>
  </div>","10","html-slider-response","44","530859","0.0-7.0-1.6","225","1","2025-08-07 07:21:10","36c45c0696341be0efffe67d72a12abb","122.133.157.125","Mozilla/5.0 (Macintosh; Intel Mac OS X 10_15_7) AppleWebKit/537.36 (KHTML, like Gecko) Chrome/138.0.0.0 Safari/537.36","Macintosh","Chrome","138.0.0.0","OS X","10_15_7","https://app.prolific.com/","en-US,en;q=0.9","65cb0f21257c8a98f470bb5d","6877649eabb845cf142cd221","689453d59f55dde64ac425b1","1","65cb0f21257c8a98f470bb5d","1","2025-08-07T07:30:04.633Z","","","","AttribQ","","","","","","","","","","","50","","","","","","","","","","","","","","","","","","","","","","","","","","",""
"2087","","<div style=""width:500px;"">
  <p>How much control did you have over the ball?</p>
  </div>","8","html-slider-response","45","532946","0.0-7.0-2.6","225","1","2025-08-07 07:21:10","36c45c0696341be0efffe67d72a12abb","122.133.157.125","Mozilla/5.0 (Macintosh; Intel Mac OS X 10_15_7) AppleWebKit/537.36 (KHTML, like Gecko) Chrome/138.0.0.0 Safari/537.36","Macintosh","Chrome","138.0.0.0","OS X","10_15_7","https://app.prolific.com/","en-US,en;q=0.9","65cb0f21257c8a98f470bb5d","6877649eabb845cf142cd221","689453d59f55dde64ac425b1","1","65cb0f21257c8a98f470bb5d","1","2025-08-07T07:30:06.720Z","","","","ControlQ","","","","","","","","","","","50","","","","","","","","","","","","","","","","","","","","","","","","","","",""
"2880","","<div style=""width:500px;"">
  <p>How would you describe your current emotional state?</p>
  </div>","72","html-slider-response","46","535827","0.0-7.0-3.6","225","1","2025-08-07 07:21:10","36c45c0696341be0efffe67d72a12abb","122.133.157.125","Mozilla/5.0 (Macintosh; Intel Mac OS X 10_15_7) AppleWebKit/537.36 (KHTML, like Gecko) Chrome/138.0.0.0 Safari/537.36","Macintosh","Chrome","138.0.0.0","OS X","10_15_7","https://app.prolific.com/","en-US,en;q=0.9","65cb0f21257c8a98f470bb5d","6877649eabb845cf142cd221","689453d59f55dde64ac425b1","1","65cb0f21257c8a98f470bb5d","1","2025-08-07T07:30:09.601Z","","","","StressQ","","","","","","","","","","","50","","","","","","","","","","","","","","","","","","","","","","","","","","",""
"2452","","<div style=""width:500px;"">
  <p>What best describes how you currently feel?</p>
  </div>","43","html-slider-response","47","538279","0.0-7.0-4.6","225","1","2025-08-07 07:21:10","36c45c0696341be0efffe67d72a12abb","122.133.157.125","Mozilla/5.0 (Macintosh; Intel Mac OS X 10_15_7) AppleWebKit/537.36 (KHTML, like Gecko) Chrome/138.0.0.0 Safari/537.36","Macintosh","Chrome","138.0.0.0","OS X","10_15_7","https://app.prolific.com/","en-US,en;q=0.9","65cb0f21257c8a98f470bb5d","6877649eabb845cf142cd221","689453d59f55dde64ac425b1","1","65cb0f21257c8a98f470bb5d","1","2025-08-07T07:30:12.053Z","","","","MotivationQ","","","","","","","","","","","50","","","","","","","","","","","","","","","","","","","","","","","","","","",""
"","","","","ctl-task-cpt","48","593701","0.0-7.0-0.7","225","1","2025-08-07 07:21:10","36c45c0696341be0efffe67d72a12abb","122.133.157.125","Mozilla/5.0 (Macintosh; Intel Mac OS X 10_15_7) AppleWebKit/537.36 (KHTML, like Gecko) Chrome/138.0.0.0 Safari/537.36","Macintosh","Chrome","138.0.0.0","OS X","10_15_7","https://app.prolific.com/","en-US,en;q=0.9","65cb0f21257c8a98f470bb5d","6877649eabb845cf142cd221","689453d59f55dde64ac425b1","1","65cb0f21257c8a98f470bb5d","1","2025-08-07T07:31:07.475Z","","","","","","","","","","","","","","","","win-only","1","g1:NE,g2:SW","0.3","8","0","542285.9","815.7","5816.1","52410.8","1","4","4","6","2","-4","-5","0","0","0","947.8","3000","-2465","[""down"",""left""]","{""num_key_presses"":14,""num_perfect"":3,""num_errors"":1,""num_randdir"":10,""num_randdir_good_moves"":4,""num_whilered"":0,""num_whileblue"":1,""num_blue"":3,""num_good_moves"":8}","[838.6508928571428,813.4477678571428,0.2,838.6508928571428,813.4477678571428,102.2,838.6508928571428,813.4477678571428,207.7,838.6508928571428,813.4477678571428,308.4,836.6508928571428,813.4477678571428,412.4,296.6508928571428,1267.447767857143,514.3,88.65089285714285,1407.447767857143,615.1,78.65089285714285,1509.447767857143,719.6,96.65089285714285,1519.447767857143,819.8,96.65089285714285,1519.447767857143,920.2,96.65089285714285,1519.447767857143,1025.6,96.65089285714285,1519.447767857143,1129.1,1324.650892857143,1111.447767857143,1230.4,2154.650892857143,985.4477678571428,1330.4,2138.650892857143,999.4477678571428,1434.6,2110.650892857143,1017.4477678571428,1537.5,2110.650892857143,1017.4477678571428,1642.3,2110.650892857143,1017.4477678571428,1743.1,2110.650892857143,1017.4477678571428,1844.8,2110.650892857143,1017.4477678571428,1945.4,2110.650892857143,1017.4477678571428,2050.1,2110.650892857143,1017.4477678571428,2151.7,2110.650892857143,1017.4477678571428,2258.5,2110.650892857143,1017.4477678571428,2363.5,2110.650892857143,1017.4477678571428,2464.7,2110.650892857143,1017.4477678571428,2565.4,2110.650892857143,1017.4477678571428,2669.9,2110.650892857143,1017.4477678571428,2780.2,2110.650892857143,1017.4477678571428,2883.9,2110.650892857143,1017.4477678571428,2988.2,2110.650892857143,1017.4477678571428,3089.5,2110.650892857143,1017.4477678571428,3189.6,2110.650892857143,1017.4477678571428,3290.1,2110.650892857143,1017.4477678571428,3392.7,2110.650892857143,1017.4477678571428,3494.7,2110.650892857143,1017.4477678571428,3599.1,2110.650892857143,1017.4477678571428,3703.1,2110.650892857143,1017.4477678571428,3805.5,2110.650892857143,1017.4477678571428,3910.4,2110.650892857143,1017.4477678571428,4016,2110.650892857143,1017.4477678571428,4116.7,2110.650892857143,1017.4477678571428,4217.1,2110.650892857143,1017.4477678571428,4318.9,2110.650892857143,1017.4477678571428,4420.6,2110.650892857143,1017.4477678571428,4522.1,2110.650892857143,1017.4477678571428,4624.2,2110.650892857143,1017.4477678571428,4724.6,2110.650892857143,1017.4477678571428,4829.1,2110.650892857143,1017.4477678571428,4932.2]","[4485.6,4485.6,2174.6,2009.9,301.1,""smooth"",""left"",""left"",""good_move"",7081.1,2595.4,2266.5,4485.7,328.9,""oops"",""down"",""down"",""good_move"",9955.4,2874.2,2595.5,7081.2,278.7,""smooth"",""left"",""left"",""good_move"",13501.3,3545.9,3296.3,9955.4,249.6,""while_blue"",""down"",""left"",""good_move"",16441.8,2940.4,2641,13501.4,299.4,""oops"",""down"",""right"",""bad_move"",19613.4,3171.4,2868.5,16442,302.9,""oops"",""down"",""up"",""bad_move"",22690.8,3077.2,2816.9,19613.6,260.4,""oops"",""down"",""left"",""good_move"",25732.9,3041.9,2811.9,22691,230,""smooth"",""down"",""down"",""good_move"",28074.8,2341.6,2056.1,25733.3,285.4,""oops"",""down"",""up"",""bad_move"",31236.8,3161.9,2898.7,28074.9,263.2,""oops"",""down"",""down"",""good_move"",33084.7,1847.8,1530.2,31236.9,317.6,""oops"",""down"",""up"",""bad_move"",36000.6,2915.8,2643.2,33084.8,272.6,""oops"",""down"",""down"",""good_move"",38804.5,2803.8,2552.9,36000.7,250.9,""oops"",""down"",""up"",""bad_move"",41328.4,2523.8,2297.7,38804.6,226.1,""oops"",""down"",""up"",""bad_move""]"
"2231","","<div style=""width:500px;"">
  <p>What determined the result of this run?</p>
  </div>","2","html-slider-response","49","595932","0.0-7.0-1.7","225","1","2025-08-07 07:21:10","36c45c0696341be0efffe67d72a12abb","122.133.157.125","Mozilla/5.0 (Macintosh; Intel Mac OS X 10_15_7) AppleWebKit/537.36 (KHTML, like Gecko) Chrome/138.0.0.0 Safari/537.36","Macintosh","Chrome","138.0.0.0","OS X","10_15_7","https://app.prolific.com/","en-US,en;q=0.9","65cb0f21257c8a98f470bb5d","6877649eabb845cf142cd221","689453d59f55dde64ac425b1","1","65cb0f21257c8a98f470bb5d","1","2025-08-07T07:31:09.706Z","","","","AttribQ","","","","","","","","","","","50","","","","","","","","","","","","","","","","","","","","","","","","","","",""
"3527","","<div style=""width:500px;"">
  <p>How much control did you have over the ball?</p>
  </div>","16","html-slider-response","50","599460","0.0-7.0-2.7","225","1","2025-08-07 07:21:10","36c45c0696341be0efffe67d72a12abb","122.133.157.125","Mozilla/5.0 (Macintosh; Intel Mac OS X 10_15_7) AppleWebKit/537.36 (KHTML, like Gecko) Chrome/138.0.0.0 Safari/537.36","Macintosh","Chrome","138.0.0.0","OS X","10_15_7","https://app.prolific.com/","en-US,en;q=0.9","65cb0f21257c8a98f470bb5d","6877649eabb845cf142cd221","689453d59f55dde64ac425b1","1","65cb0f21257c8a98f470bb5d","1","2025-08-07T07:31:13.234Z","","","","ControlQ","","","","","","","","","","","50","","","","","","","","","","","","","","","","","","","","","","","","","","",""
"1764","","<div style=""width:500px;"">
  <p>How would you describe your current emotional state?</p>
  </div>","78","html-slider-response","51","601224","0.0-7.0-3.7","225","1","2025-08-07 07:21:10","36c45c0696341be0efffe67d72a12abb","122.133.157.125","Mozilla/5.0 (Macintosh; Intel Mac OS X 10_15_7) AppleWebKit/537.36 (KHTML, like Gecko) Chrome/138.0.0.0 Safari/537.36","Macintosh","Chrome","138.0.0.0","OS X","10_15_7","https://app.prolific.com/","en-US,en;q=0.9","65cb0f21257c8a98f470bb5d","6877649eabb845cf142cd221","689453d59f55dde64ac425b1","1","65cb0f21257c8a98f470bb5d","1","2025-08-07T07:31:14.998Z","","","","StressQ","","","","","","","","","","","50","","","","","","","","","","","","","","","","","","","","","","","","","","",""
"1926","","<div style=""width:500px;"">
  <p>What best describes how you currently feel?</p>
  </div>","29","html-slider-response","52","603150","0.0-7.0-4.7","225","1","2025-08-07 07:21:10","36c45c0696341be0efffe67d72a12abb","122.133.157.125","Mozilla/5.0 (Macintosh; Intel Mac OS X 10_15_7) AppleWebKit/537.36 (KHTML, like Gecko) Chrome/138.0.0.0 Safari/537.36","Macintosh","Chrome","138.0.0.0","OS X","10_15_7","https://app.prolific.com/","en-US,en;q=0.9","65cb0f21257c8a98f470bb5d","6877649eabb845cf142cd221","689453d59f55dde64ac425b1","1","65cb0f21257c8a98f470bb5d","1","2025-08-07T07:31:16.925Z","","","","MotivationQ","","","","","","","","","","","50","","","","","","","","","","","","","","","","","","","","","","","","","","",""
"","","","","ctl-task-cpt","53","653051","0.0-7.0-0.8","225","1","2025-08-07 07:21:10","36c45c0696341be0efffe67d72a12abb","122.133.157.125","Mozilla/5.0 (Macintosh; Intel Mac OS X 10_15_7) AppleWebKit/537.36 (KHTML, like Gecko) Chrome/138.0.0.0 Safari/537.36","Macintosh","Chrome","138.0.0.0","OS X","10_15_7","https://app.prolific.com/","en-US,en;q=0.9","65cb0f21257c8a98f470bb5d","6877649eabb845cf142cd221","689453d59f55dde64ac425b1","1","65cb0f21257c8a98f470bb5d","1","2025-08-07T07:32:06.825Z","","","","","","","","","","","","","","","","win-only","3","g1:SW,g2:NE","0.4","9","0","607157.3","847.6","5848.5","46884.9","1","4","8","6","2","-8","-8","0","0","0","745.5","3000","-2480","[""up"",""right""]","{""num_key_presses"":11,""num_perfect"":4,""num_errors"":0,""num_randdir"":7,""num_randdir_good_moves"":1,""num_whilered"":0,""num_whileblue"":0,""num_blue"":3,""num_good_moves"":5}","[834.6508928571428,839.4477678571428,0.1,834.6508928571428,839.4477678571428,102.1,834.6508928571428,839.4477678571428,203,834.6508928571428,839.4477678571428,306.9,1372.650892857143,291.4477678571428,408.2,1524.650892857143,191.44776785714285,508.4,1506.650892857143,213.44776785714285,613.2,1506.650892857143,213.44776785714285,715.3,1506.650892857143,213.44776785714285,816.8,1506.650892857143,213.44776785714285,922.2,1894.650892857143,361.4477678571428,1024.1,2102.650892857143,601.4477678571428,1128,2102.650892857143,601.4477678571428,1228.1,2102.650892857143,601.4477678571428,1328.3,2102.650892857143,601.4477678571428,1432.8,2102.650892857143,601.4477678571428,1533.2,2102.650892857143,601.4477678571428,1639.9,2102.650892857143,601.4477678571428,1742.6,2102.650892857143,601.4477678571428,1843.2,2102.650892857143,601.4477678571428,1947.2,2102.650892857143,601.4477678571428,2048.5,2102.650892857143,601.4477678571428,2156.3,2102.650892857143,601.4477678571428,2261.6,2102.650892857143,601.4477678571428,2362.7,2102.650892857143,601.4477678571428,2462.7,2102.650892857143,601.4477678571428,2567.6,2102.650892857143,601.4477678571428,2670.8,2102.650892857143,601.4477678571428,2776.2,2102.650892857143,601.4477678571428,2881.3,2102.650892857143,601.4477678571428,2983.3,2102.650892857143,601.4477678571428,3085,2102.650892857143,601.4477678571428,3192.9,2102.650892857143,601.4477678571428,3293.2,2102.650892857143,601.4477678571428,3397.5,2102.650892857143,601.4477678571428,3503,2102.650892857143,601.4477678571428,3603.3,2102.650892857143,601.4477678571428,3708.2,2102.650892857143,601.4477678571428,3813.1,2102.650892857143,601.4477678571428,3915.7,2102.650892857143,601.4477678571428,4015.8,2102.650892857143,601.4477678571428,4116.4,2102.650892857143,601.4477678571428,4218.6,2102.650892857143,601.4477678571428,4322.9,2102.650892857143,601.4477678571428,4430.2,2102.650892857143,601.4477678571428,4530.3,2102.650892857143,601.4477678571428,4631.4,2102.650892857143,601.4477678571428,4732.7,2102.650892857143,601.4477678571428,4838.3,2102.650892857143,601.4477678571428,4938.4]","[1393.4,1393.4,1000,0,393.4,""oops"",""right"",""left"",""bad_move"",4475.5,3082,2770.4,1393.5,311.6,""smooth"",""up"",""up"",""good_move"",7475.2,2999.5,2698.7,4475.7,300.8,""oops"",""right"",""left"",""bad_move"",10383.3,2907.9,2635.5,7475.4,272.5,""oops"",""up"",""down"",""bad_move"",12724.7,2341.1,2085.5,10383.6,255.6,""oops"",""up"",""down"",""bad_move"",21561.6,8836.8,2173.2,19089.8,298.6,""oops"",""up"",""right"",""good_move"",24610.7,3049,2778.3,21561.7,270.7,""smooth"",""up"",""up"",""good_move"",26528.7,1917.7,1596.9,24611,320.8,""oops"",""up"",""down"",""bad_move"",29498.4,2969.5,2701.7,26528.9,267.8,""smooth"",""up"",""up"",""good_move"",36147.2,6648.7,2465.4,33377.6,304.2,""smooth"",""up"",""up"",""good_move"",38997.5,2850.2,2523.5,36147.3,326.7,""oops"",""up"",""left"",""bad_move""]"
"4212","","<div style=""width:500px;"">
  <p>What determined the result of this run?</p>
  </div>","0","html-slider-response","54","657264","0.0-7.0-1.8","225","1","2025-08-07 07:21:10","36c45c0696341be0efffe67d72a12abb","122.133.157.125","Mozilla/5.0 (Macintosh; Intel Mac OS X 10_15_7) AppleWebKit/537.36 (KHTML, like Gecko) Chrome/138.0.0.0 Safari/537.36","Macintosh","Chrome","138.0.0.0","OS X","10_15_7","https://app.prolific.com/","en-US,en;q=0.9","65cb0f21257c8a98f470bb5d","6877649eabb845cf142cd221","689453d59f55dde64ac425b1","1","65cb0f21257c8a98f470bb5d","1","2025-08-07T07:32:11.038Z","","","","AttribQ","","","","","","","","","","","50","","","","","","","","","","","","","","","","","","","","","","","","","","",""
"1610","","<div style=""width:500px;"">
  <p>How much control did you have over the ball?</p>
  </div>","3","html-slider-response","55","658875","0.0-7.0-2.8","225","1","2025-08-07 07:21:10","36c45c0696341be0efffe67d72a12abb","122.133.157.125","Mozilla/5.0 (Macintosh; Intel Mac OS X 10_15_7) AppleWebKit/537.36 (KHTML, like Gecko) Chrome/138.0.0.0 Safari/537.36","Macintosh","Chrome","138.0.0.0","OS X","10_15_7","https://app.prolific.com/","en-US,en;q=0.9","65cb0f21257c8a98f470bb5d","6877649eabb845cf142cd221","689453d59f55dde64ac425b1","1","65cb0f21257c8a98f470bb5d","1","2025-08-07T07:32:12.649Z","","","","ControlQ","","","","","","","","","","","50","","","","","","","","","","","","","","","","","","","","","","","","","","",""
"2463","","<div style=""width:500px;"">
  <p>How would you describe your current emotional state?</p>
  </div>","86","html-slider-response","56","661338","0.0-7.0-3.8","225","1","2025-08-07 07:21:10","36c45c0696341be0efffe67d72a12abb","122.133.157.125","Mozilla/5.0 (Macintosh; Intel Mac OS X 10_15_7) AppleWebKit/537.36 (KHTML, like Gecko) Chrome/138.0.0.0 Safari/537.36","Macintosh","Chrome","138.0.0.0","OS X","10_15_7","https://app.prolific.com/","en-US,en;q=0.9","65cb0f21257c8a98f470bb5d","6877649eabb845cf142cd221","689453d59f55dde64ac425b1","1","65cb0f21257c8a98f470bb5d","1","2025-08-07T07:32:15.112Z","","","","StressQ","","","","","","","","","","","50","","","","","","","","","","","","","","","","","","","","","","","","","","",""
"2605","","<div style=""width:500px;"">
  <p>What best describes how you currently feel?</p>
  </div>","11","html-slider-response","57","663943","0.0-7.0-4.8","225","1","2025-08-07 07:21:10","36c45c0696341be0efffe67d72a12abb","122.133.157.125","Mozilla/5.0 (Macintosh; Intel Mac OS X 10_15_7) AppleWebKit/537.36 (KHTML, like Gecko) Chrome/138.0.0.0 Safari/537.36","Macintosh","Chrome","138.0.0.0","OS X","10_15_7","https://app.prolific.com/","en-US,en;q=0.9","65cb0f21257c8a98f470bb5d","6877649eabb845cf142cd221","689453d59f55dde64ac425b1","1","65cb0f21257c8a98f470bb5d","1","2025-08-07T07:32:17.718Z","","","","MotivationQ","","","","","","","","","","","50","","","","","","","","","","","","","","","","","","","","","","","","","","",""
"","","","","ctl-task-cpt","58","716144","0.0-7.0-0.9","225","1","2025-08-07 07:21:10","36c45c0696341be0efffe67d72a12abb","122.133.157.125","Mozilla/5.0 (Macintosh; Intel Mac OS X 10_15_7) AppleWebKit/537.36 (KHTML, like Gecko) Chrome/138.0.0.0 Safari/537.36","Macintosh","Chrome","138.0.0.0","OS X","10_15_7","https://app.prolific.com/","en-US,en;q=0.9","65cb0f21257c8a98f470bb5d","6877649eabb845cf142cd221","689453d59f55dde64ac425b1","1","65cb0f21257c8a98f470bb5d","1","2025-08-07T07:33:09.918Z","","","","","","","","","","","","","","","","win-only","3","g1:SW,g2:NE","0.5","10","0","667949.8","926.8","5931.3","49190.5","1","4","4","6","2","-4","-4","0","0","0","1079.7","3000","-2410","[""up"",""right""]","{""num_key_presses"":12,""num_perfect"":6,""num_errors"":0,""num_randdir"":6,""num_randdir_good_moves"":1,""num_whilered"":0,""num_whileblue"":0,""num_blue"":3,""num_good_moves"":7}","[836.6508928571428,821.4477678571428,0.1,836.6508928571428,821.4477678571428,103.9,836.6508928571428,821.4477678571428,212.4,836.6508928571428,821.4477678571428,314.7,908.6508928571428,763.4477678571428,417.9,1654.650892857143,155.44776785714285,518.4,1668.650892857143,133.44776785714285,619,1668.650892857143,133.44776785714285,719.4,1668.650892857143,133.44776785714285,826.4,1656.650892857143,133.44776785714285,927.4,1648.650892857143,133.44776785714285,1029.4,1648.650892857143,133.44776785714285,1133.9,1648.650892857143,133.44776785714285,1239,1648.650892857143,133.44776785714285,1346.9,1648.650892857143,133.44776785714285,1450,1800.650892857143,245.44776785714285,1550,1904.650892857143,379.4477678571428,1657,1904.650892857143,379.4477678571428,1758.8,1904.650892857143,379.4477678571428,1867,1904.650892857143,379.4477678571428,1969.2,1904.650892857143,379.4477678571428,2069.3,1904.650892857143,379.4477678571428,2173.9,1904.650892857143,379.4477678571428,2279,1904.650892857143,379.4477678571428,2380.8,1904.650892857143,379.4477678571428,2484.4,1904.650892857143,379.4477678571428,2589.1,1904.650892857143,379.4477678571428,2697.4,1904.650892857143,379.4477678571428,2803,1904.650892857143,379.4477678571428,2903.7,1904.650892857143,379.4477678571428,3003.8,1904.650892857143,379.4477678571428,3111.6,1904.650892857143,379.4477678571428,3213.7,1904.650892857143,379.4477678571428,3317.2,1904.650892857143,379.4477678571428,3418.5,1904.650892857143,379.4477678571428,3519,1904.650892857143,379.4477678571428,3619.2,1904.650892857143,379.4477678571428,3726.7,1904.650892857143,379.4477678571428,3828.9,1904.650892857143,379.4477678571428,3929.6,1904.650892857143,379.4477678571428,4035.7,1904.650892857143,379.4477678571428,4136.8,1904.650892857143,379.4477678571428,4239.2,1904.650892857143,379.4477678571428,4343.5,1904.650892857143,379.4477678571428,4447.5,1904.650892857143,379.4477678571428,4552.5,1904.650892857143,379.4477678571428,4655.4,1904.650892857143,379.4477678571428,4761.7,1904.650892857143,379.4477678571428,4867.2,1904.650892857143,379.4477678571428,4968.9]","[4492.6,4492.6,2177.2,2003.8,311.6,""smooth"",""right"",""right"",""good_move"",13872.7,9380,1615.2,11940.9,316.6,""smooth"",""up"",""up"",""good_move"",16993.7,3120.8,2822.6,13872.9,298.2,""oops"",""right"",""down"",""bad_move"",20774.3,3780.4,3494.8,16993.9,285.6,""smooth"",""right"",""right"",""good_move"",23418.7,2644,2335.4,20774.7,308.6,""smooth"",""right"",""right"",""good_move"",25853.6,2434.8,2164.6,23418.8,270.2,""oops"",""up"",""down"",""bad_move"",28620.4,2766.6,2508.7,25853.8,257.9,""smooth"",""up"",""up"",""good_move"",30815.7,2195.1,1793.5,28620.6,401.6,""oops"",""up"",""left"",""bad_move"",33422.5,2606.6,2354.8,30815.9,251.8,""oops"",""up"",""up"",""good_move"",35711.4,2288.8,2031.5,33422.6,257.3,""oops"",""up"",""down"",""bad_move"",38221.1,2509.4,2257.4,35711.7,252,""smooth"",""right"",""right"",""good_move"",40438.6,2217.3,1968.8,38221.3,248.5,""oops"",""up"",""down"",""bad_move""]"
"3409","","<div style=""width:500px;"">
  <p>What determined the result of this run?</p>
  </div>","6","html-slider-response","59","719553","0.0-7.0-1.9","225","1","2025-08-07 07:21:10","36c45c0696341be0efffe67d72a12abb","122.133.157.125","Mozilla/5.0 (Macintosh; Intel Mac OS X 10_15_7) AppleWebKit/537.36 (KHTML, like Gecko) Chrome/138.0.0.0 Safari/537.36","Macintosh","Chrome","138.0.0.0","OS X","10_15_7","https://app.prolific.com/","en-US,en;q=0.9","65cb0f21257c8a98f470bb5d","6877649eabb845cf142cd221","689453d59f55dde64ac425b1","1","65cb0f21257c8a98f470bb5d","1","2025-08-07T07:33:13.327Z","","","","AttribQ","","","","","","","","","","","50","","","","","","","","","","","","","","","","","","","","","","","","","","",""
"1950","","<div style=""width:500px;"">
  <p>How much control did you have over the ball?</p>
  </div>","21","html-slider-response","60","721503","0.0-7.0-2.9","225","1","2025-08-07 07:21:10","36c45c0696341be0efffe67d72a12abb","122.133.157.125","Mozilla/5.0 (Macintosh; Intel Mac OS X 10_15_7) AppleWebKit/537.36 (KHTML, like Gecko) Chrome/138.0.0.0 Safari/537.36","Macintosh","Chrome","138.0.0.0","OS X","10_15_7","https://app.prolific.com/","en-US,en;q=0.9","65cb0f21257c8a98f470bb5d","6877649eabb845cf142cd221","689453d59f55dde64ac425b1","1","65cb0f21257c8a98f470bb5d","1","2025-08-07T07:33:15.278Z","","","","ControlQ","","","","","","","","","","","50","","","","","","","","","","","","","","","","","","","","","","","","","","",""
"2663","","<div style=""width:500px;"">
  <p>How would you describe your current emotional state?</p>
  </div>","91","html-slider-response","61","724167","0.0-7.0-3.9","225","1","2025-08-07 07:21:10","36c45c0696341be0efffe67d72a12abb","122.133.157.125","Mozilla/5.0 (Macintosh; Intel Mac OS X 10_15_7) AppleWebKit/537.36 (KHTML, like Gecko) Chrome/138.0.0.0 Safari/537.36","Macintosh","Chrome","138.0.0.0","OS X","10_15_7","https://app.prolific.com/","en-US,en;q=0.9","65cb0f21257c8a98f470bb5d","6877649eabb845cf142cd221","689453d59f55dde64ac425b1","1","65cb0f21257c8a98f470bb5d","1","2025-08-07T07:33:17.941Z","","","","StressQ","","","","","","","","","","","50","","","","","","","","","","","","","","","","","","","","","","","","","","",""
"2119","","<div style=""width:500px;"">
  <p>What best describes how you currently feel?</p>
  </div>","13","html-slider-response","62","726286","0.0-7.0-4.9","225","1","2025-08-07 07:21:10","36c45c0696341be0efffe67d72a12abb","122.133.157.125","Mozilla/5.0 (Macintosh; Intel Mac OS X 10_15_7) AppleWebKit/537.36 (KHTML, like Gecko) Chrome/138.0.0.0 Safari/537.36","Macintosh","Chrome","138.0.0.0","OS X","10_15_7","https://app.prolific.com/","en-US,en;q=0.9","65cb0f21257c8a98f470bb5d","6877649eabb845cf142cd221","689453d59f55dde64ac425b1","1","65cb0f21257c8a98f470bb5d","1","2025-08-07T07:33:20.060Z","","","","MotivationQ","","","","","","","","","","","50","","","","","","","","","","","","","","","","","","","","","","","","","","",""
"","","","","ctl-task-cpt","63","765543","0.0-7.0-0.10","225","1","2025-08-07 07:21:10","36c45c0696341be0efffe67d72a12abb","122.133.157.125","Mozilla/5.0 (Macintosh; Intel Mac OS X 10_15_7) AppleWebKit/537.36 (KHTML, like Gecko) Chrome/138.0.0.0 Safari/537.36","Macintosh","Chrome","138.0.0.0","OS X","10_15_7","https://app.prolific.com/","en-US,en;q=0.9","65cb0f21257c8a98f470bb5d","6877649eabb845cf142cd221","689453d59f55dde64ac425b1","1","65cb0f21257c8a98f470bb5d","1","2025-08-07T07:33:59.317Z","","","","","","","","","","","","","","","","win-only","3","g1:SW,g2:NE","0.6","11","0","730292.4","864.8","5865.7","36240.6","1","4","4","6","2","4","4","4","0","0.030303030303030304","825.3","3000","905","[""up"",""right""]","{""num_key_presses"":10,""num_perfect"":6,""num_errors"":0,""num_randdir"":4,""num_randdir_good_moves"":2,""num_whilered"":0,""num_whileblue"":0,""num_blue"":1,""num_good_moves"":8}","[830.6508928571428,837.4477678571428,0.1,830.6508928571428,837.4477678571428,107,830.6508928571428,837.4477678571428,212.7,830.6508928571428,837.4477678571428,319.7,926.6508928571428,675.4477678571428,420.5,1390.650892857143,267.4477678571428,525.6,1414.650892857143,253.44776785714285,630.6,1414.650892857143,253.44776785714285,739.4,1414.650892857143,253.44776785714285,844.7,1414.650892857143,253.44776785714285,951.1,1426.650892857143,253.44776785714285,1056.4,1974.650892857143,225.44776785714285,1164.3,2006.650892857143,241.44776785714285,1265.9,2006.650892857143,241.44776785714285,1369.3,2006.650892857143,241.44776785714285,1473.1,2006.650892857143,241.44776785714285,1579.3,2006.650892857143,241.44776785714285,1680.8,2006.650892857143,241.44776785714285,1781.5,2006.650892857143,241.44776785714285,1886.2,2006.650892857143,241.44776785714285,1987.5,2006.650892857143,241.44776785714285,2089.1,2006.650892857143,241.44776785714285,2197.9,2006.650892857143,241.44776785714285,2299.7,2006.650892857143,241.44776785714285,2400.8,2006.650892857143,241.44776785714285,2505.4,2006.650892857143,241.44776785714285,2609.6,2006.650892857143,241.44776785714285,2714.4,2006.650892857143,241.44776785714285,2816.7,2006.650892857143,241.44776785714285,2918.2,2006.650892857143,241.44776785714285,3021,2006.650892857143,241.44776785714285,3125.8,2006.650892857143,241.44776785714285,3230.1,2006.650892857143,241.44776785714285,3332,2006.650892857143,241.44776785714285,3432.9,2006.650892857143,241.44776785714285,3536,2006.650892857143,241.44776785714285,3641.1,2006.650892857143,241.44776785714285,3746.1,2006.650892857143,241.44776785714285,3852.6,2006.650892857143,241.44776785714285,3959.6,2006.650892857143,241.44776785714285,4063.8,2006.650892857143,241.44776785714285,4165.5,2006.650892857143,241.44776785714285,4265.8,2006.650892857143,241.44776785714285,4366.3,2006.650892857143,241.44776785714285,4469.6,2006.650892857143,241.44776785714285,4571.5,2006.650892857143,241.44776785714285,4682.8,2006.650892857143,241.44776785714285,4785.5,2006.650892857143,241.44776785714285,4885.8,2006.650892857143,241.44776785714285,4990.5]","[1318.1,1318.1,1000,0,318.1,""smooth"",""right"",""right"",""good_move"",4082.9,2764.7,2501.7,1318.2,263,""smooth"",""up"",""up"",""good_move"",6365.4,2282.4,1975.3,4083.1,307,""smooth"",""right"",""right"",""good_move"",9056.1,2690.6,2426.7,6365.5,263.9,""oops"",""up"",""left"",""bad_move"",12122.9,3066.6,2806,9056.3,260.6,""smooth"",""up"",""up"",""good_move"",14795.5,2672.5,2409.8,12123,262.7,""oops"",""right"",""right"",""good_move"",17266.3,2470.6,2158.9,14795.7,311.7,""oops"",""up"",""right"",""good_move"",19999.4,2733,2496.1,17266.4,236.9,""oops"",""up"",""down"",""bad_move"",23023.5,3024,2800.7,19999.6,223.3,""smooth"",""up"",""up"",""good_move"",30224.5,7200.7,2565.9,27361.4,297.2,""smooth"",""up"",""up"",""good_move""]"
"5043","","<div style=""width:500px;"">
  <p>What determined the result of this run?</p>
  </div>","48","html-slider-response","64","770586","0.0-7.0-1.10","225","1","2025-08-07 07:21:10","36c45c0696341be0efffe67d72a12abb","122.133.157.125","Mozilla/5.0 (Macintosh; Intel Mac OS X 10_15_7) AppleWebKit/537.36 (KHTML, like Gecko) Chrome/138.0.0.0 Safari/537.36","Macintosh","Chrome","138.0.0.0","OS X","10_15_7","https://app.prolific.com/","en-US,en;q=0.9","65cb0f21257c8a98f470bb5d","6877649eabb845cf142cd221","689453d59f55dde64ac425b1","1","65cb0f21257c8a98f470bb5d","1","2025-08-07T07:34:04.360Z","","","","AttribQ","","","","","","","","","","","50","","","","","","","","","","","","","","","","","","","","","","","","","","",""
"2387","","<div style=""width:500px;"">
  <p>How much control did you have over the ball?</p>
  </div>","51","html-slider-response","65","772974","0.0-7.0-2.10","225","1","2025-08-07 07:21:10","36c45c0696341be0efffe67d72a12abb","122.133.157.125","Mozilla/5.0 (Macintosh; Intel Mac OS X 10_15_7) AppleWebKit/537.36 (KHTML, like Gecko) Chrome/138.0.0.0 Safari/537.36","Macintosh","Chrome","138.0.0.0","OS X","10_15_7","https://app.prolific.com/","en-US,en;q=0.9","65cb0f21257c8a98f470bb5d","6877649eabb845cf142cd221","689453d59f55dde64ac425b1","1","65cb0f21257c8a98f470bb5d","1","2025-08-07T07:34:06.748Z","","","","ControlQ","","","","","","","","","","","50","","","","","","","","","","","","","","","","","","","","","","","","","","",""
"4215","","<div style=""width:500px;"">
  <p>How would you describe your current emotional state?</p>
  </div>","82","html-slider-response","66","777189","0.0-7.0-3.10","225","1","2025-08-07 07:21:10","36c45c0696341be0efffe67d72a12abb","122.133.157.125","Mozilla/5.0 (Macintosh; Intel Mac OS X 10_15_7) AppleWebKit/537.36 (KHTML, like Gecko) Chrome/138.0.0.0 Safari/537.36","Macintosh","Chrome","138.0.0.0","OS X","10_15_7","https://app.prolific.com/","en-US,en;q=0.9","65cb0f21257c8a98f470bb5d","6877649eabb845cf142cd221","689453d59f55dde64ac425b1","1","65cb0f21257c8a98f470bb5d","1","2025-08-07T07:34:10.963Z","","","","StressQ","","","","","","","","","","","50","","","","","","","","","","","","","","","","","","","","","","","","","","",""
"2576","","<div style=""width:500px;"">
  <p>What best describes how you currently feel?</p>
  </div>","10","html-slider-response","67","779766","0.0-7.0-4.10","225","1","2025-08-07 07:21:10","36c45c0696341be0efffe67d72a12abb","122.133.157.125","Mozilla/5.0 (Macintosh; Intel Mac OS X 10_15_7) AppleWebKit/537.36 (KHTML, like Gecko) Chrome/138.0.0.0 Safari/537.36","Macintosh","Chrome","138.0.0.0","OS X","10_15_7","https://app.prolific.com/","en-US,en;q=0.9","65cb0f21257c8a98f470bb5d","6877649eabb845cf142cd221","689453d59f55dde64ac425b1","1","65cb0f21257c8a98f470bb5d","1","2025-08-07T07:34:13.540Z","","","","MotivationQ","","","","","","","","","","","50","","","","","","","","","","","","","","","","","","","","","","","","","","",""
"","","","","ctl-task-cpt","68","826922","0.0-7.0-0.11","225","1","2025-08-07 07:21:10","36c45c0696341be0efffe67d72a12abb","122.133.157.125","Mozilla/5.0 (Macintosh; Intel Mac OS X 10_15_7) AppleWebKit/537.36 (KHTML, like Gecko) Chrome/138.0.0.0 Safari/537.36","Macintosh","Chrome","138.0.0.0","OS X","10_15_7","https://app.prolific.com/","en-US,en;q=0.9","65cb0f21257c8a98f470bb5d","6877649eabb845cf142cd221","689453d59f55dde64ac425b1","1","65cb0f21257c8a98f470bb5d","1","2025-08-07T07:35:00.696Z","","","","","","","","","","","","","","","","win-only","2","g1:SE,g2:NW","0.7","12","0","783771.8","910.4","5912.6","44146.1","1","4","8","6","2","8","8","12","4","0.09090909090909091","966.9","3000","255","[""left"",""up""]","{""num_key_presses"":12,""num_perfect"":9,""num_errors"":0,""num_randdir"":3,""num_randdir_good_moves"":0,""num_whilered"":0,""num_whileblue"":0,""num_blue"":2,""num_good_moves"":9}","[834.6508928571428,835.4477678571428,0.2,834.6508928571428,835.4477678571428,107.4,834.6508928571428,835.4477678571428,218.5,834.6508928571428,835.4477678571428,320.1,834.6508928571428,835.4477678571428,425.7,806.6508928571428,787.4477678571428,530,234.65089285714285,179.44776785714285,630.4,204.65089285714285,157.44776785714285,735.7,204.65089285714285,157.44776785714285,844.1,204.65089285714285,157.44776785714285,945.2,204.65089285714285,157.44776785714285,1045.3,204.65089285714285,157.44776785714285,1145.5,534.6508928571428,217.44776785714285,1247.7,1998.650892857143,983.4477678571428,1353.9,1674.650892857143,659.4477678571428,1462.6,1658.650892857143,561.4477678571428,1564.7,1658.650892857143,561.4477678571428,1665.3,1658.650892857143,561.4477678571428,1765.3,1782.650892857143,571.4477678571428,1869.5,1782.650892857143,571.4477678571428,1974.8,1782.650892857143,571.4477678571428,2076.7,1782.650892857143,571.4477678571428,2180.4,1782.650892857143,571.4477678571428,2285.6,1782.650892857143,571.4477678571428,2390,1782.650892857143,571.4477678571428,2495.6,1782.650892857143,571.4477678571428,2596.1,1782.650892857143,571.4477678571428,2703.6,1782.650892857143,571.4477678571428,2805,1782.650892857143,571.4477678571428,2906.5,1782.650892857143,571.4477678571428,3010.3,1782.650892857143,571.4477678571428,3112.4,1782.650892857143,571.4477678571428,3214.1,1782.650892857143,571.4477678571428,3319.7,1782.650892857143,571.4477678571428,3425.3,1782.650892857143,571.4477678571428,3525.5,1782.650892857143,571.4477678571428,3630,1782.650892857143,571.4477678571428,3730.2,1782.650892857143,571.4477678571428,3830.8,1782.650892857143,571.4477678571428,3933.7,1782.650892857143,571.4477678571428,4035,1782.650892857143,571.4477678571428,4135.1,1782.650892857143,571.4477678571428,4240.5,1782.650892857143,571.4477678571428,4348.8,1782.650892857143,571.4477678571428,4458.1,1782.650892857143,571.4477678571428,4566.1,1782.650892857143,571.4477678571428,4670.7,1782.650892857143,571.4477678571428,4775.5,1782.650892857143,571.4477678571428,4880.1,1782.650892857143,571.4477678571428,4983.7]","[4170.3,4170.3,1773.2,2005.9,391.2,""smooth"",""left"",""left"",""good_move"",10830.7,6660.2,3182.1,7332.8,315.8,""smooth"",""up"",""up"",""good_move"",13088.2,2257.4,1711.1,10830.8,546.3,""oops"",""left"",""down"",""bad_move"",15905,2816.5,2555.9,13088.5,260.6,""smooth"",""left"",""left"",""good_move"",18282,2376.8,2117.5,15905.2,259.3,""oops"",""up"",""down"",""bad_move"",20888.6,2606.4,2346.2,18282.2,260.2,""smooth"",""left"",""left"",""good_move"",23853.2,2964.5,2686.3,20888.7,278.2,""smooth"",""up"",""up"",""good_move"",26189.7,2336.3,2015.9,23853.4,320.4,""smooth"",""up"",""up"",""good_move"",29322.2,3132.4,2847.2,26189.8,285.2,""smooth"",""up"",""up"",""good_move"",32573.4,3251.1,2994.4,29322.3,256.7,""oops"",""up"",""right"",""bad_move"",35529.2,2955.6,2637,32573.6,318.6,""smooth"",""up"",""up"",""good_move"",38145.2,2615.7,2365.2,35529.5,250.5,""smooth"",""left"",""left"",""good_move""]"
"4176","","<div style=""width:500px;"">
  <p>What determined the result of this run?</p>
  </div>","66","html-slider-response","69","831098","0.0-7.0-1.11","225","1","2025-08-07 07:21:10","36c45c0696341be0efffe67d72a12abb","122.133.157.125","Mozilla/5.0 (Macintosh; Intel Mac OS X 10_15_7) AppleWebKit/537.36 (KHTML, like Gecko) Chrome/138.0.0.0 Safari/537.36","Macintosh","Chrome","138.0.0.0","OS X","10_15_7","https://app.prolific.com/","en-US,en;q=0.9","65cb0f21257c8a98f470bb5d","6877649eabb845cf142cd221","689453d59f55dde64ac425b1","1","65cb0f21257c8a98f470bb5d","1","2025-08-07T07:35:04.872Z","","","","AttribQ","","","","","","","","","","","50","","","","","","","","","","","","","","","","","","","","","","","","","","",""
"2364","","<div style=""width:500px;"">
  <p>How much control did you have over the ball?</p>
  </div>","52","html-slider-response","70","833462","0.0-7.0-2.11","225","1","2025-08-07 07:21:10","36c45c0696341be0efffe67d72a12abb","122.133.157.125","Mozilla/5.0 (Macintosh; Intel Mac OS X 10_15_7) AppleWebKit/537.36 (KHTML, like Gecko) Chrome/138.0.0.0 Safari/537.36","Macintosh","Chrome","138.0.0.0","OS X","10_15_7","https://app.prolific.com/","en-US,en;q=0.9","65cb0f21257c8a98f470bb5d","6877649eabb845cf142cd221","689453d59f55dde64ac425b1","1","65cb0f21257c8a98f470bb5d","1","2025-08-07T07:35:07.236Z","","","","ControlQ","","","","","","","","","","","50","","","","","","","","","","","","","","","","","","","","","","","","","","",""
"2800","","<div style=""width:500px;"">
  <p>How would you describe your current emotional state?</p>
  </div>","70","html-slider-response","71","836262","0.0-7.0-3.11","225","1","2025-08-07 07:21:10","36c45c0696341be0efffe67d72a12abb","122.133.157.125","Mozilla/5.0 (Macintosh; Intel Mac OS X 10_15_7) AppleWebKit/537.36 (KHTML, like Gecko) Chrome/138.0.0.0 Safari/537.36","Macintosh","Chrome","138.0.0.0","OS X","10_15_7","https://app.prolific.com/","en-US,en;q=0.9","65cb0f21257c8a98f470bb5d","6877649eabb845cf142cd221","689453d59f55dde64ac425b1","1","65cb0f21257c8a98f470bb5d","1","2025-08-07T07:35:10.036Z","","","","StressQ","","","","","","","","","","","50","","","","","","","","","","","","","","","","","","","","","","","","","","",""
"2873","","<div style=""width:500px;"">
  <p>What best describes how you currently feel?</p>
  </div>","18","html-slider-response","72","839135","0.0-7.0-4.11","225","1","2025-08-07 07:21:10","36c45c0696341be0efffe67d72a12abb","122.133.157.125","Mozilla/5.0 (Macintosh; Intel Mac OS X 10_15_7) AppleWebKit/537.36 (KHTML, like Gecko) Chrome/138.0.0.0 Safari/537.36","Macintosh","Chrome","138.0.0.0","OS X","10_15_7","https://app.prolific.com/","en-US,en;q=0.9","65cb0f21257c8a98f470bb5d","6877649eabb845cf142cd221","689453d59f55dde64ac425b1","1","65cb0f21257c8a98f470bb5d","1","2025-08-07T07:35:12.909Z","","","","MotivationQ","","","","","","","","","","","50","","","","","","","","","","","","","","","","","","","","","","","","","","",""
"","","","","ctl-task-cpt","73","864416","0.0-7.0-0.12","225","1","2025-08-07 07:21:10","36c45c0696341be0efffe67d72a12abb","122.133.157.125","Mozilla/5.0 (Macintosh; Intel Mac OS X 10_15_7) AppleWebKit/537.36 (KHTML, like Gecko) Chrome/138.0.0.0 Safari/537.36","Macintosh","Chrome","138.0.0.0","OS X","10_15_7","https://app.prolific.com/","en-US,en;q=0.9","65cb0f21257c8a98f470bb5d","6877649eabb845cf142cd221","689453d59f55dde64ac425b1","1","65cb0f21257c8a98f470bb5d","1","2025-08-07T07:35:38.190Z","","","","","","","","","","","","","","","","win-only","0","g1:NW,g2:SE","0.8","13","0","843140.9","977.8","5980.9","22262.3","1","4","8","6","2","8","7","19","12","0.14393939393939395","1100.1","3000","1845","[""down"",""right""]","{""num_key_presses"":6,""num_perfect"":5,""num_errors"":1,""num_randdir"":0,""num_randdir_good_moves"":0,""num_whilered"":0,""num_whileblue"":1,""num_blue"":1,""num_good_moves"":6}","[824.6508928571428,825.4477678571428,0.1,824.6508928571428,825.4477678571428,102.7,824.6508928571428,825.4477678571428,209.2,810.6508928571428,823.4477678571428,313.3,516.6508928571428,555.4477678571428,414.6,1146.650892857143,1117.447767857143,517.9,1564.650892857143,1683.447767857143,618.2,1570.650892857143,1689.447767857143,722.8,1564.650892857143,1629.447767857143,831.7,1554.650892857143,1513.447767857143,931.8,1552.650892857143,1509.447767857143,1038.7,1552.650892857143,1509.447767857143,1139.5,1552.650892857143,1509.447767857143,1242.5,1606.650892857143,1463.447767857143,1343.8,2012.650892857143,1251.447767857143,1451.8,2020.650892857143,1249.447767857143,1557.4,2020.650892857143,1249.447767857143,1660.8,2020.650892857143,1249.447767857143,1763.3,2020.650892857143,1249.447767857143,1868.4,2020.650892857143,1249.447767857143,1968.4,2020.650892857143,1249.447767857143,2076.2,2020.650892857143,1249.447767857143,2183.4,2020.650892857143,1249.447767857143,2289.6,2020.650892857143,1249.447767857143,2394.9,2020.650892857143,1249.447767857143,2498.2,2020.650892857143,1249.447767857143,2598.3,2020.650892857143,1249.447767857143,2707.6,2020.650892857143,1249.447767857143,2810.5,2020.650892857143,1249.447767857143,2919.1,2020.650892857143,1249.447767857143,3022.8,2020.650892857143,1249.447767857143,3123.1,2020.650892857143,1249.447767857143,3223.3,2020.650892857143,1249.447767857143,3330.6,2020.650892857143,1249.447767857143,3433,2020.650892857143,1249.447767857143,3542.1,2020.650892857143,1249.447767857143,3644,2020.650892857143,1249.447767857143,3747.9,2020.650892857143,1249.447767857143,3853,2020.650892857143,1249.447767857143,3961.9,2020.650892857143,1249.447767857143,4063.8,2020.650892857143,1249.447767857143,4173.2,2020.650892857143,1249.447767857143,4282,2020.650892857143,1249.447767857143,4382.5,2020.650892857143,1249.447767857143,4482.6,2020.650892857143,1249.447767857143,4583.4,2020.650892857143,1249.447767857143,4687.4,2020.650892857143,1249.447767857143,4787.8,2020.650892857143,1249.447767857143,4892.9,2020.650892857143,1249.447767857143,4997.3]","[1354.1,1354.1,1000,0,354.1,""smooth"",""right"",""right"",""good_move"",4614.3,3259.9,2996.4,1354.4,263.5,""smooth"",""down"",""down"",""good_move"",6904,2289.4,2006.3,4614.6,283.1,""smooth"",""right"",""right"",""good_move"",10311.9,3407.7,3189.8,6904.2,217.9,""smooth"",""down"",""down"",""good_move"",13382,3070,3017.4,10312,52.6,""while_blue"",""right"",""down"",""good_move"",16147.5,2765,2362.6,13382.5,402.4,""smooth"",""right"",""right"",""good_move""]"
"3415","","<div style=""width:500px;"">
  <p>What determined the result of this run?</p>
  </div>","93","html-slider-response","74","867831","0.0-7.0-1.12","225","1","2025-08-07 07:21:10","36c45c0696341be0efffe67d72a12abb","122.133.157.125","Mozilla/5.0 (Macintosh; Intel Mac OS X 10_15_7) AppleWebKit/537.36 (KHTML, like Gecko) Chrome/138.0.0.0 Safari/537.36","Macintosh","Chrome","138.0.0.0","OS X","10_15_7","https://app.prolific.com/","en-US,en;q=0.9","65cb0f21257c8a98f470bb5d","6877649eabb845cf142cd221","689453d59f55dde64ac425b1","1","65cb0f21257c8a98f470bb5d","1","2025-08-07T07:35:41.605Z","","","","AttribQ","","","","","","","","","","","50","","","","","","","","","","","","","","","","","","","","","","","","","","",""
"1699","","<div style=""width:500px;"">
  <p>How much control did you have over the ball?</p>
  </div>","92","html-slider-response","75","869531","0.0-7.0-2.12","225","1","2025-08-07 07:21:10","36c45c0696341be0efffe67d72a12abb","122.133.157.125","Mozilla/5.0 (Macintosh; Intel Mac OS X 10_15_7) AppleWebKit/537.36 (KHTML, like Gecko) Chrome/138.0.0.0 Safari/537.36","Macintosh","Chrome","138.0.0.0","OS X","10_15_7","https://app.prolific.com/","en-US,en;q=0.9","65cb0f21257c8a98f470bb5d","6877649eabb845cf142cd221","689453d59f55dde64ac425b1","1","65cb0f21257c8a98f470bb5d","1","2025-08-07T07:35:43.305Z","","","","ControlQ","","","","","","","","","","","50","","","","","","","","","","","","","","","","","","","","","","","","","","",""
"3302","","<div style=""width:500px;"">
  <p>How would you describe your current emotional state?</p>
