"rt","response_timestamp","stimulus","response","trial_type","trial_index","time_elapsed","internal_node_id","run_id","condition","recorded_at","source_code_version","ip","user_agent","device","browser","browser_version","platform","platform_version","referer","accept_language","PROLIFIC_PID","STUDY_ID","SESSION_ID","BATCH","prolific_id","batch","realtime","success","question_order","question_id","eventType","responses","item_order","radio_event_ids","radio_event_times","key_event_times","mouse_event_times","straightlining","zigzagging","honeypot","view_history","slider_start","which_type","canvas_config","goals_layout","control_level","trial_number","tutorial_trial_number","trial_start_time","phase1_start_time","phase2_start_time","phase3_start_time","goal_1_value","goal_1_distance","goal_2_value","goal_2_distance","goal_selected","outcome","outcome_total","participant_final_score","participant_initial_score","participant_final_score_prop","goal_choice_rt","allocated_time","allocated_time_remaining","goal_direction","counts","mouse_movements","key_presses"
"2872","1753864843011","<p style='font-size:40px;line-height:1.25'><strong>Welcome to the experiment!</strong></p><p style='font-size:1.1em;line-height:1.25'>Thank you for participanting in our experiment again! You will be asked to play the Dysfunctional Ball Game again. We will briefly recap the rules before we start.</p><p style='font-size:1.1em;line-height:1.25'>Press <strong>Next</strong> to continue.</p>","0","custom-html-button-response","0","2873","0.0-0.0","27","1","2025-07-30 08:40:40","36c45c0696341be0efffe67d72a12abb","51.36.170.158","Mozilla/5.0 (Windows NT 10.0; Win64; x64) AppleWebKit/537.36 (KHTML, like Gecko) Chrome/138.0.0.0 Safari/537.36","WebKit","Chrome","138.0.0.0","Windows","10.0","https://app.prolific.com/","en-US,en;q=0.9","65f19a1fe38352676f83d5f0","683dba9a53627eb9ab41b36a","6889da5c09bcb099cce45741","0","65f19a1fe38352676f83d5f0","0","2025-07-30T08:40:43.012Z","","","","","","","","","","","","","","","","","","","","","","","","","","","","","","","","","","","","","","","","","",""
"2511","","","","fullscreen","1","6399","0.0-1.0","27","1","2025-07-30 08:40:40","36c45c0696341be0efffe67d72a12abb","51.36.170.158","Mozilla/5.0 (Windows NT 10.0; Win64; x64) AppleWebKit/537.36 (KHTML, like Gecko) Chrome/138.0.0.0 Safari/537.36","WebKit","Chrome","138.0.0.0","Windows","10.0","https://app.prolific.com/","en-US,en;q=0.9","65f19a1fe38352676f83d5f0","683dba9a53627eb9ab41b36a","6889da5c09bcb099cce45741","0","65f19a1fe38352676f83d5f0","0","","true","","","","","","","","","","","","","","","","","","","","","","","","","","","","","","","","","","","","","","","","",""
"4278","1753864850817"," <p style='font-size:1.1em;line-height:1.25'>Thank you for closing all other tabs.</p><p style='font-size:1.1em;line-height:1.25'>We will now invite you to fill in some questionnaires, before starting the game.<br>This will take about 5 minutes.<br></p><p style='font-size:1.1em;line-height:1.25'>Press the <strong>Next</strong> button to continue.</p>","0","custom-html-button-response","2","10679","0.0-2.0","27","1","2025-07-30 08:40:40","36c45c0696341be0efffe67d72a12abb","51.36.170.158","Mozilla/5.0 (Windows NT 10.0; Win64; x64) AppleWebKit/537.36 (KHTML, like Gecko) Chrome/138.0.0.0 Safari/537.36","WebKit","Chrome","138.0.0.0","Windows","10.0","https://app.prolific.com/","en-US,en;q=0.9","65f19a1fe38352676f83d5f0","683dba9a53627eb9ab41b36a","6889da5c09bcb099cce45741","0","65f19a1fe38352676f83d5f0","0","2025-07-30T08:40:50.818Z","","","","","","","","","","","","","","","","","","","","","","","","","","","","","","","","","","","","","","","","","",""
"3510","","","{""assigned_sex"":""female""}","survey-multi-choice","3","14193","0.0-3.0-0.0","27","1","2025-07-30 08:40:40","36c45c0696341be0efffe67d72a12abb","51.36.170.158","Mozilla/5.0 (Windows NT 10.0; Win64; x64) AppleWebKit/537.36 (KHTML, like Gecko) Chrome/138.0.0.0 Safari/537.36","WebKit","Chrome","138.0.0.0","Windows","10.0","https://app.prolific.com/","en-US,en;q=0.9","65f19a1fe38352676f83d5f0","683dba9a53627eb9ab41b36a","6889da5c09bcb099cce45741","0","65f19a1fe38352676f83d5f0","0","","","[0]","0","demographics","","","","","","","","","","","","","","","","","","","","","","","","","","","","","","","","","","","","","",""
"4769","1753864859101","<p style='font-size:1.1em;line-height:1.25'>In the following, we will perform a baseline assessment. This means that we will ask you a few questions relating to your experiences over the past month.<br></p><p style='font-size:1.1em;line-height:1.25'>Press the <strong>Next</strong> button to continue.</p>","0","custom-html-button-response","4","18964","0.0-4.0-0.0","27","1","2025-07-30 08:40:40","36c45c0696341be0efffe67d72a12abb","51.36.170.158","Mozilla/5.0 (Windows NT 10.0; Win64; x64) AppleWebKit/537.36 (KHTML, like Gecko) Chrome/138.0.0.0 Safari/537.36","WebKit","Chrome","138.0.0.0","Windows","10.0","https://app.prolific.com/","en-US,en;q=0.9","65f19a1fe38352676f83d5f0","683dba9a53627eb9ab41b36a","6889da5c09bcb099cce45741","0","65f19a1fe38352676f83d5f0","0","2025-07-30T08:40:59.102Z","","","","","","","","","","","","","","","","","","","","","","","","","","","","","","","","","","","","","","","","","",""
"51246.59999999986","","","","survey-template","5","70217","0.0-4.0-1.0","27","1","2025-07-30 08:40:40","36c45c0696341be0efffe67d72a12abb","51.36.170.158","Mozilla/5.0 (Windows NT 10.0; Win64; x64) AppleWebKit/537.36 (KHTML, like Gecko) Chrome/138.0.0.0 Safari/537.36","WebKit","Chrome","138.0.0.0","Windows","10.0","https://app.prolific.com/","en-US,en;q=0.9","65f19a1fe38352676f83d5f0","683dba9a53627eb9ab41b36a","6889da5c09bcb099cce45741","0","65f19a1fe38352676f83d5f0","0","2025-07-30T08:41:50.355Z","","","","pss","{""Q01"":""3"",""Q02"":""4"",""Q03"":""4"",""Q04"":""3"",""Q05"":""3"",""Q06"":""3"",""Q07"":""1"",""Q08"":""3"",""Q09"":""3"",""Q10"":""4""}","[0,1,2,3,4,5,6,7,8,9]","[""Q01"",""Q02"",""Q03"",""Q04"",""Q05"",""Q06"",""Q07"",""Q08"",""Q09"",""Q10""]","[5252.09999999986,15641,18945.59999999986,23826.199999999953,28094.799999999814,33373.19999999995,36179.09999999986,39916.89999999991,44578.89999999991,49978.19999999995]","[]","[0.19999999995343387,5252.09999999986,13369.199999999953,15641,16964.5,18945.59999999986,23826.199999999953,28094.799999999814,33373.19999999995,36179.09999999986,39916.89999999991,44578.89999999991,48961.59999999986,49978.19999999995,51239]","0.4","0.2222222222222222","0","","","","","","","","","","","","","","","","","","","","","","","","","","","","",""
"3553","1753864913910","<p style='font-size:1.1em;line-height:1.25'>Thank you for your answers! Now we will ask you a few more questions relating to your feelings in the last 24 hours.<br></p><p style='font-size:1.1em;line-height:1.25'>Press the <strong>Next</strong> button to continue.</p>","0","custom-html-button-response","6","73773","0.0-4.0-2.0","27","1","2025-07-30 08:40:40","36c45c0696341be0efffe67d72a12abb","51.36.170.158","Mozilla/5.0 (Windows NT 10.0; Win64; x64) AppleWebKit/537.36 (KHTML, like Gecko) Chrome/138.0.0.0 Safari/537.36","WebKit","Chrome","138.0.0.0","Windows","10.0","https://app.prolific.com/","en-US,en;q=0.9","65f19a1fe38352676f83d5f0","683dba9a53627eb9ab41b36a","6889da5c09bcb099cce45741","0","65f19a1fe38352676f83d5f0","0","2025-07-30T08:41:53.911Z","","","","","","","","","","","","","","","","","","","","","","","","","","","","","","","","","","","","","","","","","",""
"62503.30000000005","","","","survey-template","7","136281","0.0-4.0-3.0","27","1","2025-07-30 08:40:40","36c45c0696341be0efffe67d72a12abb","51.36.170.158","Mozilla/5.0 (Windows NT 10.0; Win64; x64) AppleWebKit/537.36 (KHTML, like Gecko) Chrome/138.0.0.0 Safari/537.36","WebKit","Chrome","138.0.0.0","Windows","10.0","https://app.prolific.com/","en-US,en;q=0.9","65f19a1fe38352676f83d5f0","683dba9a53627eb9ab41b36a","6889da5c09bcb099cce45741","0","65f19a1fe38352676f83d5f0","0","2025-07-30T08:42:56.419Z","","","","drsp","{""Q01"":""3"",""Q02"":""5"",""Q03"":""5"",""Q04"":""4"",""Q05"":""4"",""Q06"":""3"",""Q07"":""3"",""Q08"":""3"",""Q09"":""2"",""Q10"":""3"",""Q11"":""3"",""Q12"":""3"",""Q13"":""5"",""Q14"":""3"",""Q15"":""2"",""Q16"":""2"",""Q17"":""3"",""Q18"":""3"",""Q19"":""0"",""Q20"":""3"",""Q21"":""3"",""Q22"":""3""}","[0,1,2,3,4,5,6,7,8,9,10,11,12,13,14,15,16,17,18,19,20,21]","[""Q01"",""Q02"",""Q03"",""Q04"",""Q05"",""Q06"",""Q07"",""Q08"",""Q09"",""Q10"",""Q11"",""Q12"",""Q13"",""Q12"",""Q14"",""Q15"",""Q16"",""Q17"",""Q18"",""Q19"",""Q20"",""Q21"",""Q22""]","[4147.300000000047,6575,7812.399999999907,11496.800000000047,14465,15544.100000000093,17081.899999999907,18512.100000000093,20804,23185.699999999953,26594,28834.600000000093,32412.800000000047,33695,35181.69999999995,39416.80000000005,40792,44394.39999999991,45283.30000000005,47518,51545.60000000009,54188.39999999991,57401.39999999991]","[]","[0.10000000009313226,4147.300000000047,6575,7812.399999999907,11496.800000000047,12875.399999999907,14465,15544.100000000093,17081.899999999907,18512.100000000093,20804,23185.699999999953,26594,28834.600000000093,32412.800000000047,33695,35181.69999999995,39416.80000000005,40792,43631.89999999991,44394.39999999991,45283.30000000005,47518,51545.60000000009,54188.39999999991,56559.10000000009,57401.39999999991,62496.5]","0.5909090909090909","0.2857142857142857","0","","","","","","","","","","","","","","","","","","","","","","","","","","","","",""
"9084.399999999907","","","","survey-template","8","145367","0.0-4.0-4.0","27","1","2025-07-30 08:40:40","36c45c0696341be0efffe67d72a12abb","51.36.170.158","Mozilla/5.0 (Windows NT 10.0; Win64; x64) AppleWebKit/537.36 (KHTML, like Gecko) Chrome/138.0.0.0 Safari/537.36","WebKit","Chrome","138.0.0.0","Windows","10.0","https://app.prolific.com/","en-US,en;q=0.9","65f19a1fe38352676f83d5f0","683dba9a53627eb9ab41b36a","6889da5c09bcb099cce45741","0","65f19a1fe38352676f83d5f0","0","2025-07-30T08:43:05.506Z","","","","stress","{""Q01"":""4"",""Q02"":""4"",""Q03"":""3""}","[0,1,2]","[""Q01"",""Q02"",""Q03""]","[4247.199999999953,5833.5,8064.09999999986]","[]","[4247.199999999953,5833.5,8064.09999999986,9082.299999999814]","0.3333333333333333","0","0","","","","","","","","","","","","","","","","","","","","","","","","","","","","",""
"3109","","","","instructions","9","148479","0.0-5.0-0.0","27","1","2025-07-30 08:40:40","36c45c0696341be0efffe67d72a12abb","51.36.170.158","Mozilla/5.0 (Windows NT 10.0; Win64; x64) AppleWebKit/537.36 (KHTML, like Gecko) Chrome/138.0.0.0 Safari/537.36","WebKit","Chrome","138.0.0.0","Windows","10.0","https://app.prolific.com/","en-US,en;q=0.9","65f19a1fe38352676f83d5f0","683dba9a53627eb9ab41b36a","6889da5c09bcb099cce45741","0","65f19a1fe38352676f83d5f0","0","","","","","","","","","","","","","","","[{""page_index"":0,""viewing_time"":3108}]","","","","","","","","","","","","","","","","","","","","","","","","","","","",""
"2870","","<p>Before you start with this game please answer the following three questions yourself. </p>
  <p>Through this game, we measure several aspects of your cognitive performance, such as reaction times, multi-tasking capabilities </p>
  <p>and the ability to assess the situation you are in.</p>
  <p></p>
  <p><b>How good do you usually are in such tasks?</b></p>","54","html-slider-response","10","151353","0.0-6.0-0.0","27","1","2025-07-30 08:40:40","36c45c0696341be0efffe67d72a12abb","51.36.170.158","Mozilla/5.0 (Windows NT 10.0; Win64; x64) AppleWebKit/537.36 (KHTML, like Gecko) Chrome/138.0.0.0 Safari/537.36","WebKit","Chrome","138.0.0.0","Windows","10.0","https://app.prolific.com/","en-US,en;q=0.9","65f19a1fe38352676f83d5f0","683dba9a53627eb9ab41b36a","6889da5c09bcb099cce45741","0","65f19a1fe38352676f83d5f0","0","2025-07-30T08:43:11.491Z","","","","PreSkillQ","","","","","","","","","","","50","","","","","","","","","","","","","","","","","","","","","","","","","","",""
"2733","","<div style=""width:500px;"">
  <p>How well do you think you will perform in this task compared to other participants?</p>
  </div>","52","html-slider-response","11","154088","0.0-6.0-1.0","27","1","2025-07-30 08:40:40","36c45c0696341be0efffe67d72a12abb","51.36.170.158","Mozilla/5.0 (Windows NT 10.0; Win64; x64) AppleWebKit/537.36 (KHTML, like Gecko) Chrome/138.0.0.0 Safari/537.36","WebKit","Chrome","138.0.0.0","Windows","10.0","https://app.prolific.com/","en-US,en;q=0.9","65f19a1fe38352676f83d5f0","683dba9a53627eb9ab41b36a","6889da5c09bcb099cce45741","0","65f19a1fe38352676f83d5f0","0","2025-07-30T08:43:14.226Z","","","","PrePerfQ","","","","","","","","","","","50","","","","","","","","","","","","","","","","","","","","","","","","","","",""
"3457","","<div style=""width:500px;"">
  <p>What best describes how you currently feel?</p>
  </div>","54","html-slider-response","12","157546","0.0-6.0-2.0","27","1","2025-07-30 08:40:40","36c45c0696341be0efffe67d72a12abb","51.36.170.158","Mozilla/5.0 (Windows NT 10.0; Win64; x64) AppleWebKit/537.36 (KHTML, like Gecko) Chrome/138.0.0.0 Safari/537.36","WebKit","Chrome","138.0.0.0","Windows","10.0","https://app.prolific.com/","en-US,en;q=0.9","65f19a1fe38352676f83d5f0","683dba9a53627eb9ab41b36a","6889da5c09bcb099cce45741","0","65f19a1fe38352676f83d5f0","0","2025-07-30T08:43:17.684Z","","","","PreMotivationQ","","","","","","","","","","","50","","","","","","","","","","","","","","","","","","","","","","","","","","",""
"","","","","ctl-task-cpt","13","179497","0.0-7.0-0.0","27","1","2025-07-30 08:40:40","36c45c0696341be0efffe67d72a12abb","51.36.170.158","Mozilla/5.0 (Windows NT 10.0; Win64; x64) AppleWebKit/537.36 (KHTML, like Gecko) Chrome/138.0.0.0 Safari/537.36","WebKit","Chrome","138.0.0.0","Windows","10.0","https://app.prolific.com/","en-US,en;q=0.9","65f19a1fe38352676f83d5f0","683dba9a53627eb9ab41b36a","6889da5c09bcb099cce45741","0","65f19a1fe38352676f83d5f0","0","2025-07-30T08:43:39.635Z","","","","","","","","","","","","","","","","win-only","0","g1:NW,g2:SE","1","1","0","159814.4","1963.2","6966.6","18944.9","1","4","8","6","1","1","1","1","0","0.007575757575757576","1208.4","3000","1280","[""left"",""up""]","{""num_key_presses"":4,""num_perfect"":4,""num_errors"":0,""num_randdir"":0,""num_randdir_good_moves"":0,""num_whilered"":0,""num_whileblue"":0,""num_blue"":0,""num_good_moves"":4}","[416.5714133126395,412.82142761775424,0.2,416.5714133126395,412.82142761775424,102.9,416.5714133126395,412.82142761775424,207.5,416.5714133126395,412.82142761775424,307.8,416.5714133126395,412.82142761775424,412.8,405.3214133126395,404.07142761775424,513.6,170.3214133126395,181.57142761775424,618.1,156.5714133126395,154.07142761775424,723.9,156.5714133126395,154.07142761775424,827.6,156.5714133126395,154.07142761775424,928.7,81.5714133126395,76.57142761775425,1028.7,67.8214133126395,57.82142761775425,1129.6,67.8214133126395,57.82142761775425,1232.8,67.8214133126395,57.82142761775425,1338.9,67.8214133126395,57.82142761775425,1442.5,67.8214133126395,57.82142761775425,1544.4,-148.4285866873605,109.07142761775425,1647.9,-233.4285866873605,151.57142761775424,1748.6,-233.4285866873605,151.57142761775424,1854,-233.4285866873605,151.57142761775424,1957.9,-233.4285866873605,151.57142761775424,2058.1,-233.4285866873605,151.57142761775424,2163.3,-233.4285866873605,151.57142761775424,2268.2,-233.4285866873605,151.57142761775424,2372.5,-233.4285866873605,151.57142761775424,2478.3,-233.4285866873605,151.57142761775424,2582.7,-233.4285866873605,151.57142761775424,2688.9,-233.4285866873605,151.57142761775424,2792.7,-233.4285866873605,151.57142761775424,2898.3,-233.4285866873605,151.57142761775424,3002.8,-233.4285866873605,151.57142761775424,3102.9,-233.4285866873605,151.57142761775424,3203.1,-233.4285866873605,151.57142761775424,3303.1,-233.4285866873605,151.57142761775424,3408.1,-233.4285866873605,151.57142761775424,3512.6,-233.4285866873605,151.57142761775424,3613.2,-233.4285866873605,151.57142761775424,3717.4,-233.4285866873605,151.57142761775424,3817.9,-233.4285866873605,151.57142761775424,3919.5,-233.4285866873605,151.57142761775424,4022.8,-233.4285866873605,151.57142761775424,4123,-233.4285866873605,151.57142761775424,4224.1,-233.4285866873605,151.57142761775424,4327.7,-233.4285866873605,151.57142761775424,4427.8,-233.4285866873605,151.57142761775424,4532.8,-233.4285866873605,151.57142761775424,4633.3,-233.4285866873605,151.57142761775424,4737.4,-233.4285866873605,151.57142761775424,4838.4,-233.4285866873605,151.57142761775424,4938.4]","[1647,1647,1000,0,647,""smooth"",""up"",""up"",""good_move"",5712.7,4065.1,3657.3,1647.7,407.7,""smooth"",""up"",""up"",""good_move"",8607.5,2894.4,2505.3,5713.2,389,""smooth"",""left"",""left"",""good_move"",11879.3,3271.2,2946.3,8608.1,324.9,""smooth"",""left"",""left"",""good_move""]"
"2860","","<div style=""width:500px;"">
  <p>What determined the result of this run?</p>
  </div>","14","html-slider-response","14","182358","0.0-7.0-1.0","27","1","2025-07-30 08:40:40","36c45c0696341be0efffe67d72a12abb","51.36.170.158","Mozilla/5.0 (Windows NT 10.0; Win64; x64) AppleWebKit/537.36 (KHTML, like Gecko) Chrome/138.0.0.0 Safari/537.36","WebKit","Chrome","138.0.0.0","Windows","10.0","https://app.prolific.com/","en-US,en;q=0.9","65f19a1fe38352676f83d5f0","683dba9a53627eb9ab41b36a","6889da5c09bcb099cce45741","0","65f19a1fe38352676f83d5f0","0","2025-07-30T08:43:42.496Z","","","","AttribQ","","","","","","","","","","","50","","","","","","","","","","","","","","","","","","","","","","","","","","",""
"5148","","<div style=""width:500px;"">
  <p>How much control did you have over the ball?</p>
  </div>","51","html-slider-response","15","187507","0.0-7.0-2.0","27","1","2025-07-30 08:40:40","36c45c0696341be0efffe67d72a12abb","51.36.170.158","Mozilla/5.0 (Windows NT 10.0; Win64; x64) AppleWebKit/537.36 (KHTML, like Gecko) Chrome/138.0.0.0 Safari/537.36","WebKit","Chrome","138.0.0.0","Windows","10.0","https://app.prolific.com/","en-US,en;q=0.9","65f19a1fe38352676f83d5f0","683dba9a53627eb9ab41b36a","6889da5c09bcb099cce45741","0","65f19a1fe38352676f83d5f0","0","2025-07-30T08:43:47.645Z","","","","ControlQ","","","","","","","","","","","50","","","","","","","","","","","","","","","","","","","","","","","","","","",""
"17125","","<div style=""width:500px;"">
  <p>How would you describe your current emotional state?</p>
  </div>","30","html-slider-response","16","204633","0.0-7.0-3.0","27","1","2025-07-30 08:40:40","36c45c0696341be0efffe67d72a12abb","51.36.170.158","Mozilla/5.0 (Windows NT 10.0; Win64; x64) AppleWebKit/537.36 (KHTML, like Gecko) Chrome/138.0.0.0 Safari/537.36","WebKit","Chrome","138.0.0.0","Windows","10.0","https://app.prolific.com/","en-US,en;q=0.9","65f19a1fe38352676f83d5f0","683dba9a53627eb9ab41b36a","6889da5c09bcb099cce45741","0","65f19a1fe38352676f83d5f0","0","2025-07-30T08:44:04.772Z","","","","StressQ","","","","","","","","","","","50","","","","","","","","","","","","","","","","","","","","","","","","","","",""
"4146","","<div style=""width:500px;"">
  <p>What best describes how you currently feel?</p>
  </div>","54","html-slider-response","17","208781","0.0-7.0-4.0","27","1","2025-07-30 08:40:40","36c45c0696341be0efffe67d72a12abb","51.36.170.158","Mozilla/5.0 (Windows NT 10.0; Win64; x64) AppleWebKit/537.36 (KHTML, like Gecko) Chrome/138.0.0.0 Safari/537.36","WebKit","Chrome","138.0.0.0","Windows","10.0","https://app.prolific.com/","en-US,en;q=0.9","65f19a1fe38352676f83d5f0","683dba9a53627eb9ab41b36a","6889da5c09bcb099cce45741","0","65f19a1fe38352676f83d5f0","0","2025-07-30T08:44:08.919Z","","","","MotivationQ","","","","","","","","","","","50","","","","","","","","","","","","","","","","","","","","","","","","","","",""
"","","","","ctl-task-cpt","18","235455","0.0-7.0-0.1","27","1","2025-07-30 08:40:40","36c45c0696341be0efffe67d72a12abb","51.36.170.158","Mozilla/5.0 (Windows NT 10.0; Win64; x64) AppleWebKit/537.36 (KHTML, like Gecko) Chrome/138.0.0.0 Safari/537.36","WebKit","Chrome","138.0.0.0","Windows","10.0","https://app.prolific.com/","en-US,en;q=0.9","65f19a1fe38352676f83d5f0","683dba9a53627eb9ab41b36a","6889da5c09bcb099cce45741","0","65f19a1fe38352676f83d5f0","0","2025-07-30T08:44:35.593Z","","","","","","","","","","","","","","","","win-only","0","g1:NW,g2:SE","0.9","2","0","211047","1117.4","6121.4","23655.9","1","4","4","6","1","1","0","1","1","0.007575757575757576","838.2","3000","920","[""left"",""up""]","{""num_key_presses"":6,""num_perfect"":4,""num_errors"":1,""num_randdir"":1,""num_randdir_good_moves"":0,""num_whilered"":0,""num_whileblue"":1,""num_blue"":1,""num_good_moves"":5}","[412.8214133126395,415.32142761775424,0.2,412.8214133126395,415.32142761775424,103.7,412.8214133126395,415.32142761775424,203.7,412.8214133126395,415.32142761775424,303.9,412.8214133126395,415.32142761775424,408.3,177.8214133126395,196.57142761775424,512.9,72.8214133126395,96.57142761775425,614.3,66.5714133126395,86.57142761775425,718.7,66.5714133126395,86.57142761775425,818.7,66.5714133126395,86.57142761775425,923.3,66.5714133126395,86.57142761775425,1023.8,66.5714133126395,86.57142761775425,1128.4,66.5714133126395,86.57142761775425,1229.2,-275.9285866873605,204.07142761775424,1333,-275.9285866873605,205.32142761775424,1433.4,-275.9285866873605,205.32142761775424,1538.9,-275.9285866873605,205.32142761775424,1643.5,-275.9285866873605,205.32142761775424,1749,-275.9285866873605,205.32142761775424,1853.3,-275.9285866873605,205.32142761775424,1954,-275.9285866873605,205.32142761775424,2058.9,-275.9285866873605,205.32142761775424,2164.5,-275.9285866873605,205.32142761775424,2268.6,-275.9285866873605,205.32142761775424,2368.7,-275.9285866873605,205.32142761775424,2473.5,-275.9285866873605,205.32142761775424,2573.5,-275.9285866873605,205.32142761775424,2673.7,-275.9285866873605,205.32142761775424,2778.6,-275.9285866873605,205.32142761775424,2878.7,-275.9285866873605,205.32142761775424,2979.2,-275.9285866873605,205.32142761775424,3083,-275.9285866873605,205.32142761775424,3183.3,-275.9285866873605,205.32142761775424,3283.3,-275.9285866873605,205.32142761775424,3384,-275.9285866873605,205.32142761775424,3488.9,-275.9285866873605,205.32142761775424,3593.7,-275.9285866873605,205.32142761775424,3698.4,-275.9285866873605,205.32142761775424,3804.5,-275.9285866873605,205.32142761775424,3909.3,-275.9285866873605,205.32142761775424,4013.3,-275.9285866873605,205.32142761775424,4113.8,-275.9285866873605,205.32142761775424,4218.2,-275.9285866873605,205.32142761775424,4318.2,-275.9285866873605,205.32142761775424,4418.5,-275.9285866873605,205.32142761775424,4523,-275.9285866873605,205.32142761775424,4623.6,-275.9285866873605,205.32142761775424,4723.9,-275.9285866873605,205.32142761775424,4828.9,-275.9285866873605,205.32142761775424,4929.5]","[1447.7,1447.7,1000,0,447.7,""smooth"",""left"",""left"",""good_move"",4265.7,2817.9,2501.5,1447.8,316.4,""while_blue"",""left"",""left"",""good_move"",7943.8,3677.9,3193.9,4266,483.9,""oops"",""up"",""down"",""bad_move"",10881,2937,2500.4,7944,436.6,""smooth"",""up"",""up"",""good_move"",13798.8,2917.5,2547.8,10881.3,369.7,""smooth"",""up"",""up"",""good_move"",17447.2,3648.3,3272.6,13798.9,375.7,""smooth"",""up"",""up"",""good_move""]"
"4925","","<div style=""width:500px;"">
  <p>What determined the result of this run?</p>
  </div>","34","html-slider-response","19","240381","0.0-7.0-1.1","27","1","2025-07-30 08:40:40","36c45c0696341be0efffe67d72a12abb","51.36.170.158","Mozilla/5.0 (Windows NT 10.0; Win64; x64) AppleWebKit/537.36 (KHTML, like Gecko) Chrome/138.0.0.0 Safari/537.36","WebKit","Chrome","138.0.0.0","Windows","10.0","https://app.prolific.com/","en-US,en;q=0.9","65f19a1fe38352676f83d5f0","683dba9a53627eb9ab41b36a","6889da5c09bcb099cce45741","0","65f19a1fe38352676f83d5f0","0","2025-07-30T08:44:40.519Z","","","","AttribQ","","","","","","","","","","","50","","","","","","","","","","","","","","","","","","","","","","","","","","",""
"3288","","<div style=""width:500px;"">
  <p>How much control did you have over the ball?</p>
  </div>","45","html-slider-response","20","243670","0.0-7.0-2.1","27","1","2025-07-30 08:40:40","36c45c0696341be0efffe67d72a12abb","51.36.170.158","Mozilla/5.0 (Windows NT 10.0; Win64; x64) AppleWebKit/537.36 (KHTML, like Gecko) Chrome/138.0.0.0 Safari/537.36","WebKit","Chrome","138.0.0.0","Windows","10.0","https://app.prolific.com/","en-US,en;q=0.9","65f19a1fe38352676f83d5f0","683dba9a53627eb9ab41b36a","6889da5c09bcb099cce45741","0","65f19a1fe38352676f83d5f0","0","2025-07-30T08:44:43.809Z","","","","ControlQ","","","","","","","","","","","50","","","","","","","","","","","","","","","","","","","","","","","","","","",""
"2925","","<div style=""width:500px;"">
  <p>How would you describe your current emotional state?</p>
  </div>","45","html-slider-response","21","246596","0.0-7.0-3.1","27","1","2025-07-30 08:40:40","36c45c0696341be0efffe67d72a12abb","51.36.170.158","Mozilla/5.0 (Windows NT 10.0; Win64; x64) AppleWebKit/537.36 (KHTML, like Gecko) Chrome/138.0.0.0 Safari/537.36","WebKit","Chrome","138.0.0.0","Windows","10.0","https://app.prolific.com/","en-US,en;q=0.9","65f19a1fe38352676f83d5f0","683dba9a53627eb9ab41b36a","6889da5c09bcb099cce45741","0","65f19a1fe38352676f83d5f0","0","2025-07-30T08:44:46.734Z","","","","StressQ","","","","","","","","","","","50","","","","","","","","","","","","","","","","","","","","","","","","","","",""
"3408","","<div style=""width:500px;"">
  <p>What best describes how you currently feel?</p>
  </div>","55","html-slider-response","22","250005","0.0-7.0-4.1","27","1","2025-07-30 08:40:40","36c45c0696341be0efffe67d72a12abb","51.36.170.158","Mozilla/5.0 (Windows NT 10.0; Win64; x64) AppleWebKit/537.36 (KHTML, like Gecko) Chrome/138.0.0.0 Safari/537.36","WebKit","Chrome","138.0.0.0","Windows","10.0","https://app.prolific.com/","en-US,en;q=0.9","65f19a1fe38352676f83d5f0","683dba9a53627eb9ab41b36a","6889da5c09bcb099cce45741","0","65f19a1fe38352676f83d5f0","0","2025-07-30T08:44:50.143Z","","","","MotivationQ","","","","","","","","","","","50","","","","","","","","","","","","","","","","","","","","","","","","","","",""
"","","","","ctl-task-cpt","23","272575","0.0-7.0-0.2","27","1","2025-07-30 08:40:40","36c45c0696341be0efffe67d72a12abb","51.36.170.158","Mozilla/5.0 (Windows NT 10.0; Win64; x64) AppleWebKit/537.36 (KHTML, like Gecko) Chrome/138.0.0.0 Safari/537.36","WebKit","Chrome","138.0.0.0","Windows","10.0","https://app.prolific.com/","en-US,en;q=0.9","65f19a1fe38352676f83d5f0","683dba9a53627eb9ab41b36a","6889da5c09bcb099cce45741","0","65f19a1fe38352676f83d5f0","0","2025-07-30T08:45:12.713Z","","","","","","","","","","","","","","","","win-only","2","g1:SE,g2:NW","0.8","3","0","252270.7","744.2","5746.1","19550.6","1","4","8","6","1","1","1","2","1","0.015151515151515152","1230.8","3000","1470","[""down"",""right""]","{""num_key_presses"":4,""num_perfect"":3,""num_errors"":0,""num_randdir"":1,""num_randdir_good_moves"":1,""num_whilered"":0,""num_whileblue"":0,""num_blue"":1,""num_good_moves"":4}","[409.0714133126395,414.07142761775424,0.2,409.0714133126395,414.07142761775424,102.3,409.0714133126395,414.07142761775424,206.8,409.0714133126395,414.07142761775424,311.5,409.0714133126395,414.07142761775424,416.3,402.8214133126395,405.32142761775424,516.6,686.5714133126395,687.8214276177542,621.6,800.3214133126395,794.0714276177542,726.4,831.5714133126395,824.0714276177542,831.5,831.5714133126395,824.0714276177542,936.4,795.3214133126395,787.8214276177542,1041.4,776.5714133126395,776.5714276177542,1146.6,776.5714133126395,776.5714276177542,1251.4,776.5714133126395,776.5714276177542,1351.4,776.5714133126395,776.5714276177542,1456.3,776.5714133126395,776.5714276177542,1557.2,776.5714133126395,776.5714276177542,1661.9,10.321413312639507,611.5714276177542,1767.3,-85.9285866873605,594.0714276177542,1871.8,-83.4285866873605,592.8214276177542,1976.7,-83.4285866873605,592.8214276177542,2076.9,-83.4285866873605,592.8214276177542,2181.3,-83.4285866873605,592.8214276177542,2281.6,-83.4285866873605,592.8214276177542,2386.5,-83.4285866873605,592.8214276177542,2487,-83.4285866873605,592.8214276177542,2591.4,-83.4285866873605,592.8214276177542,2696.9,-83.4285866873605,592.8214276177542,2801.9,-83.4285866873605,592.8214276177542,2906.4,-83.4285866873605,592.8214276177542,3011.2,-83.4285866873605,592.8214276177542,3112.2,-83.4285866873605,592.8214276177542,3216.7,-83.4285866873605,592.8214276177542,3321.8,-83.4285866873605,592.8214276177542,3421.8,-83.4285866873605,592.8214276177542,3526.4,-83.4285866873605,592.8214276177542,3631.8,-83.4285866873605,592.8214276177542,3736.2,-83.4285866873605,592.8214276177542,3836.5,-83.4285866873605,592.8214276177542,3937,-83.4285866873605,592.8214276177542,4041,-83.4285866873605,592.8214276177542,4141.6,-83.4285866873605,592.8214276177542,4246.1,-83.4285866873605,592.8214276177542,4346.2,-83.4285866873605,592.8214276177542,4446.2,-83.4285866873605,592.8214276177542,4546.2,-83.4285866873605,592.8214276177542,4646.2,-83.4285866873605,592.8214276177542,4746.2,-83.4285866873605,592.8214276177542,4851.1,-83.4285866873605,592.8214276177542,4951.2]","[4966.7,4966.7,2518.7,2009.4,438.6,""smooth"",""down"",""down"",""good_move"",7712.4,2745.4,2331.5,4967,413.9,""smooth"",""down"",""down"",""good_move"",10684.7,2972.1,2610.4,7712.6,361.7,""smooth"",""right"",""right"",""good_move"",13718,3033,2693.3,10685,339.7,""oops"",""right"",""right"",""good_move""]"
"3924","","<div style=""width:500px;"">
  <p>What determined the result of this run?</p>
  </div>","40","html-slider-response","24","276499","0.0-7.0-1.2","27","1","2025-07-30 08:40:40","36c45c0696341be0efffe67d72a12abb","51.36.170.158","Mozilla/5.0 (Windows NT 10.0; Win64; x64) AppleWebKit/537.36 (KHTML, like Gecko) Chrome/138.0.0.0 Safari/537.36","WebKit","Chrome","138.0.0.0","Windows","10.0","https://app.prolific.com/","en-US,en;q=0.9","65f19a1fe38352676f83d5f0","683dba9a53627eb9ab41b36a","6889da5c09bcb099cce45741","0","65f19a1fe38352676f83d5f0","0","2025-07-30T08:45:16.637Z","","","","AttribQ","","","","","","","","","","","50","","","","","","","","","","","","","","","","","","","","","","","","","","",""
"2894","","<div style=""width:500px;"">
  <p>How much control did you have over the ball?</p>
  </div>","43","html-slider-response","25","279394","0.0-7.0-2.2","27","1","2025-07-30 08:40:40","36c45c0696341be0efffe67d72a12abb","51.36.170.158","Mozilla/5.0 (Windows NT 10.0; Win64; x64) AppleWebKit/537.36 (KHTML, like Gecko) Chrome/138.0.0.0 Safari/537.36","WebKit","Chrome","138.0.0.0","Windows","10.0","https://app.prolific.com/","en-US,en;q=0.9","65f19a1fe38352676f83d5f0","683dba9a53627eb9ab41b36a","6889da5c09bcb099cce45741","0","65f19a1fe38352676f83d5f0","0","2025-07-30T08:45:19.532Z","","","","ControlQ","","","","","","","","","","","50","","","","","","","","","","","","","","","","","","","","","","","","","","",""
"2317","","<div style=""width:500px;"">
  <p>How would you describe your current emotional state?</p>
  </div>","42","html-slider-response","26","281711","0.0-7.0-3.2","27","1","2025-07-30 08:40:40","36c45c0696341be0efffe67d72a12abb","51.36.170.158","Mozilla/5.0 (Windows NT 10.0; Win64; x64) AppleWebKit/537.36 (KHTML, like Gecko) Chrome/138.0.0.0 Safari/537.36","WebKit","Chrome","138.0.0.0","Windows","10.0","https://app.prolific.com/","en-US,en;q=0.9","65f19a1fe38352676f83d5f0","683dba9a53627eb9ab41b36a","6889da5c09bcb099cce45741","0","65f19a1fe38352676f83d5f0","0","2025-07-30T08:45:21.849Z","","","","StressQ","","","","","","","","","","","50","","","","","","","","","","","","","","","","","","","","","","","","","","",""
"2213","","<div style=""width:500px;"">
  <p>What best describes how you currently feel?</p>
  </div>","55","html-slider-response","27","283926","0.0-7.0-4.2","27","1","2025-07-30 08:40:40","36c45c0696341be0efffe67d72a12abb","51.36.170.158","Mozilla/5.0 (Windows NT 10.0; Win64; x64) AppleWebKit/537.36 (KHTML, like Gecko) Chrome/138.0.0.0 Safari/537.36","WebKit","Chrome","138.0.0.0","Windows","10.0","https://app.prolific.com/","en-US,en;q=0.9","65f19a1fe38352676f83d5f0","683dba9a53627eb9ab41b36a","6889da5c09bcb099cce45741","0","65f19a1fe38352676f83d5f0","0","2025-07-30T08:45:24.064Z","","","","MotivationQ","","","","","","","","","","","50","","","","","","","","","","","","","","","","","","","","","","","","","","",""
"","","","","ctl-task-cpt","28","302665","0.0-7.0-0.3","27","1","2025-07-30 08:40:40","36c45c0696341be0efffe67d72a12abb","51.36.170.158","Mozilla/5.0 (Windows NT 10.0; Win64; x64) AppleWebKit/537.36 (KHTML, like Gecko) Chrome/138.0.0.0 Safari/537.36","WebKit","Chrome","138.0.0.0","Windows","10.0","https://app.prolific.com/","en-US,en;q=0.9","65f19a1fe38352676f83d5f0","683dba9a53627eb9ab41b36a","6889da5c09bcb099cce45741","0","65f19a1fe38352676f83d5f0","0","2025-07-30T08:45:42.803Z","","","","","","","","","","","","","","","","win-only","2","g1:SE,g2:NW","0.7","4","0","286192.5","1084.5","6085.2","15720.5","1","4","4","6","1","1","1","3","2","0.022727272727272728","1119.6","3000","1205","[""down"",""right""]","{""num_key_presses"":4,""num_perfect"":2,""num_errors"":0,""num_randdir"":2,""num_randdir_good_moves"":2,""num_whilered"":0,""num_whileblue"":0,""num_blue"":0,""num_good_moves"":4}","[421.5714133126395,411.57142761775424,0.1,421.5714133126395,411.57142761775424,101.4,421.5714133126395,411.57142761775424,205.8,421.5714133126395,411.57142761775424,305.9,421.5714133126395,411.57142761775424,406.8,285.3214133126395,301.57142761775424,511.1,162.8214133126395,205.32142761775424,611.3,444.0714133126395,452.82142761775424,716.4,719.0714133126395,806.5714276177542,816.6,734.0714133126395,786.5714276177542,920.7,739.0714133126395,776.5714276177542,1021.1,739.0714133126395,776.5714276177542,1126.3,739.0714133126395,776.5714276177542,1231.3,739.0714133126395,776.5714276177542,1331.4,739.0714133126395,776.5714276177542,1435.8,272.8214133126395,686.5714276177542,1537.5,-259.6785866873605,659.0714276177542,1641.1,-260.9285866873605,657.8214276177542,1741.2,-260.9285866873605,657.8214276177542,1841.9,-260.9285866873605,657.8214276177542,1945.8,-260.9285866873605,657.8214276177542,2046.5,-260.9285866873605,657.8214276177542,2151.1,-260.9285866873605,657.8214276177542,2251.9,-260.9285866873605,657.8214276177542,2356.4,-260.9285866873605,657.8214276177542,2457.5,-260.9285866873605,657.8214276177542,2561.6,-260.9285866873605,657.8214276177542,2661.6,-260.9285866873605,657.8214276177542,2766.2,-260.9285866873605,657.8214276177542,2871.1,-260.9285866873605,657.8214276177542,2975.8,-260.9285866873605,657.8214276177542,3076.1,-260.9285866873605,657.8214276177542,3182.5,-260.9285866873605,657.8214276177542,3285.8,-260.9285866873605,657.8214276177542,3386.4,-260.9285866873605,657.8214276177542,3490.7,-260.9285866873605,657.8214276177542,3590.9,-260.9285866873605,657.8214276177542,3691.3,-260.9285866873605,657.8214276177542,3791.3,-260.9285866873605,657.8214276177542,3896.3,-260.9285866873605,657.8214276177542,4001.1,-260.9285866873605,657.8214276177542,4106.8,-260.9285866873605,657.8214276177542,4211.5,-260.9285866873605,657.8214276177542,4312.3,-260.9285866873605,657.8214276177542,4416,-260.9285866873605,657.8214276177542,4516.6,-260.9285866873605,657.8214276177542,4621,-260.9285866873605,657.8214276177542,4722.5,-260.9285866873605,657.8214276177542,4825.9,-260.9285866873605,657.8214276177542,4926.9]","[1581.8,1581.8,1000,0,581.8,""smooth"",""down"",""down"",""good_move"",3992.1,2410,1992.1,1582.1,417.9,""oops"",""down"",""down"",""good_move"",7203.6,3211.4,2757.9,3992.2,453.5,""oops"",""right"",""right"",""good_move"",9547.3,2343.7,1972.9,7203.7,370.8,""smooth"",""right"",""right"",""good_move""]"
"2441","","<div style=""width:500px;"">
  <p>What determined the result of this run?</p>
  </div>","38","html-slider-response","29","305107","0.0-7.0-1.3","27","1","2025-07-30 08:40:40","36c45c0696341be0efffe67d72a12abb","51.36.170.158","Mozilla/5.0 (Windows NT 10.0; Win64; x64) AppleWebKit/537.36 (KHTML, like Gecko) Chrome/138.0.0.0 Safari/537.36","WebKit","Chrome","138.0.0.0","Windows","10.0","https://app.prolific.com/","en-US,en;q=0.9","65f19a1fe38352676f83d5f0","683dba9a53627eb9ab41b36a","6889da5c09bcb099cce45741","0","65f19a1fe38352676f83d5f0","0","2025-07-30T08:45:45.245Z","","","","AttribQ","","","","","","","","","","","50","","","","","","","","","","","","","","","","","","","","","","","","","","",""
"2587","","<div style=""width:500px;"">
  <p>How much control did you have over the ball?</p>
  </div>","43","html-slider-response","30","307695","0.0-7.0-2.3","27","1","2025-07-30 08:40:40","36c45c0696341be0efffe67d72a12abb","51.36.170.158","Mozilla/5.0 (Windows NT 10.0; Win64; x64) AppleWebKit/537.36 (KHTML, like Gecko) Chrome/138.0.0.0 Safari/537.36","WebKit","Chrome","138.0.0.0","Windows","10.0","https://app.prolific.com/","en-US,en;q=0.9","65f19a1fe38352676f83d5f0","683dba9a53627eb9ab41b36a","6889da5c09bcb099cce45741","0","65f19a1fe38352676f83d5f0","0","2025-07-30T08:45:47.833Z","","","","ControlQ","","","","","","","","","","","50","","","","","","","","","","","","","","","","","","","","","","","","","","",""
"2583","","<div style=""width:500px;"">
  <p>How would you describe your current emotional state?</p>
  </div>","43","html-slider-response","31","310278","0.0-7.0-3.3","27","1","2025-07-30 08:40:40","36c45c0696341be0efffe67d72a12abb","51.36.170.158","Mozilla/5.0 (Windows NT 10.0; Win64; x64) AppleWebKit/537.36 (KHTML, like Gecko) Chrome/138.0.0.0 Safari/537.36","WebKit","Chrome","138.0.0.0","Windows","10.0","https://app.prolific.com/","en-US,en;q=0.9","65f19a1fe38352676f83d5f0","683dba9a53627eb9ab41b36a","6889da5c09bcb099cce45741","0","65f19a1fe38352676f83d5f0","0","2025-07-30T08:45:50.416Z","","","","StressQ","","","","","","","","","","","50","","","","","","","","","","","","","","","","","","","","","","","","","","",""
"1920","","<div style=""width:500px;"">
  <p>What best describes how you currently feel?</p>
  </div>","56","html-slider-response","32","312199","0.0-7.0-4.3","27","1","2025-07-30 08:40:40","36c45c0696341be0efffe67d72a12abb","51.36.170.158","Mozilla/5.0 (Windows NT 10.0; Win64; x64) AppleWebKit/537.36 (KHTML, like Gecko) Chrome/138.0.0.0 Safari/537.36","WebKit","Chrome","138.0.0.0","Windows","10.0","https://app.prolific.com/","en-US,en;q=0.9","65f19a1fe38352676f83d5f0","683dba9a53627eb9ab41b36a","6889da5c09bcb099cce45741","0","65f19a1fe38352676f83d5f0","0","2025-07-30T08:45:52.337Z","","","","MotivationQ","","","","","","","","","","","50","","","","","","","","","","","","","","","","","","","","","","","","","","",""
"","","","","ctl-task-cpt","33","348427","0.0-7.0-0.4","27","1","2025-07-30 08:40:40","36c45c0696341be0efffe67d72a12abb","51.36.170.158","Mozilla/5.0 (Windows NT 10.0; Win64; x64) AppleWebKit/537.36 (KHTML, like Gecko) Chrome/138.0.0.0 Safari/537.36","WebKit","Chrome","138.0.0.0","Windows","10.0","https://app.prolific.com/","en-US,en;q=0.9","65f19a1fe38352676f83d5f0","683dba9a53627eb9ab41b36a","6889da5c09bcb099cce45741","0","65f19a1fe38352676f83d5f0","0","2025-07-30T08:46:28.565Z","","","","","","","","","","","","","","","","win-only","1","g1:NE,g2:SW","0.6","5","0","314464.6","808.9","5810.9","33210.2","1","4","8","6","1","1","1","4","3","0.030303030303030304","803.1","3000","365","[""up"",""right""]","{""num_key_presses"":6,""num_perfect"":4,""num_errors"":0,""num_randdir"":2,""num_randdir_good_moves"":1,""num_whilered"":0,""num_whileblue"":0,""num_blue"":3,""num_good_moves"":5}","[414.0714133126395,417.82142761775424,0.2,414.0714133126395,417.82142761775424,102.3,414.0714133126395,417.82142761775424,203.3,414.0714133126395,417.82142761775424,307.2,532.8214133126395,310.32142761775424,412,701.5714133126395,96.57142761775425,512.5,764.0714133126395,69.07142761775425,615,775.3214133126395,70.32142761775425,717,775.3214133126395,70.32142761775425,821.8,775.3214133126395,70.32142761775425,921.9,775.3214133126395,70.32142761775425,1028.5,775.3214133126395,70.32142761775425,1132.7,181.5714133126395,144.07142761775424,1237.4,-188.4285866873605,259.07142761775424,1337.6,-188.4285866873605,259.07142761775424,1443.4,-188.4285866873605,259.07142761775424,1546.5,-188.4285866873605,259.07142761775424,1647.2,-188.4285866873605,259.07142761775424,1751.7,-188.4285866873605,259.07142761775424,1851.7,-188.4285866873605,259.07142761775424,1953,-188.4285866873605,259.07142761775424,2056.8,-188.4285866873605,259.07142761775424,2161.6,-188.4285866873605,259.07142761775424,2262.5,-188.4285866873605,259.07142761775424,2367.3,-188.4285866873605,259.07142761775424,2472.2,-188.4285866873605,259.07142761775424,2576.5,-188.4285866873605,259.07142761775424,2676.6,-188.4285866873605,259.07142761775424,2776.8,-188.4285866873605,259.07142761775424,2881.8,-188.4285866873605,259.07142761775424,2981.9,-188.4285866873605,259.07142761775424,3082.7,-188.4285866873605,259.07142761775424,3186.8,-188.4285866873605,259.07142761775424,3291.5,-188.4285866873605,259.07142761775424,3391.7,-188.4285866873605,259.07142761775424,3491.9,-188.4285866873605,259.07142761775424,3592.8,-188.4285866873605,259.07142761775424,3696.7,-188.4285866873605,259.07142761775424,3796.7,-188.4285866873605,259.07142761775424,3897.1,-188.4285866873605,259.07142761775424,3998.8,-188.4285866873605,259.07142761775424,4101.5,-188.4285866873605,259.07142761775424,4202.1,-188.4285866873605,259.07142761775424,4302.9,-188.4285866873605,259.07142761775424,4406.6,-188.4285866873605,259.07142761775424,4507.5,-188.4285866873605,259.07142761775424,4611.6,-188.4285866873605,259.07142761775424,4713.2,-188.4285866873605,259.07142761775424,4814.3,-188.4285866873605,259.07142761775424,4916.5]","[5427.4,5427.4,2887.3,2004.6,535.5,""oops"",""up"",""right"",""good_move"",12741.1,7313.5,2462.6,9860,418.5,""smooth"",""up"",""up"",""good_move"",19188.7,6447.2,2857.4,15920.4,410.9,""smooth"",""up"",""up"",""good_move"",21884.2,2695.4,2338.9,19188.8,356.5,""oops"",""right"",""down"",""bad_move"",25117,3232.5,2661.7,21884.5,570.8,""smooth"",""up"",""up"",""good_move"",27314.9,2197.9,1804.8,25117,393.1,""smooth"",""right"",""right"",""good_move""]"
"2392","","<div style=""width:500px;"">
  <p>What determined the result of this run?</p>
  </div>","37","html-slider-response","34","350820","0.0-7.0-1.4","27","1","2025-07-30 08:40:40","36c45c0696341be0efffe67d72a12abb","51.36.170.158","Mozilla/5.0 (Windows NT 10.0; Win64; x64) AppleWebKit/537.36 (KHTML, like Gecko) Chrome/138.0.0.0 Safari/537.36","WebKit","Chrome","138.0.0.0","Windows","10.0","https://app.prolific.com/","en-US,en;q=0.9","65f19a1fe38352676f83d5f0","683dba9a53627eb9ab41b36a","6889da5c09bcb099cce45741","0","65f19a1fe38352676f83d5f0","0","2025-07-30T08:46:30.959Z","","","","AttribQ","","","","","","","","","","","50","","","","","","","","","","","","","","","","","","","","","","","","","","",""
"2992","","<div style=""width:500px;"">
  <p>How much control did you have over the ball?</p>
  </div>","44","html-slider-response","35","353813","0.0-7.0-2.4","27","1","2025-07-30 08:40:40","36c45c0696341be0efffe67d72a12abb","51.36.170.158","Mozilla/5.0 (Windows NT 10.0; Win64; x64) AppleWebKit/537.36 (KHTML, like Gecko) Chrome/138.0.0.0 Safari/537.36","WebKit","Chrome","138.0.0.0","Windows","10.0","https://app.prolific.com/","en-US,en;q=0.9","65f19a1fe38352676f83d5f0","683dba9a53627eb9ab41b36a","6889da5c09bcb099cce45741","0","65f19a1fe38352676f83d5f0","0","2025-07-30T08:46:33.951Z","","","","ControlQ","","","","","","","","","","","50","","","","","","","","","","","","","","","","","","","","","","","","","","",""
"2776","","<div style=""width:500px;"">
  <p>How would you describe your current emotional state?</p>
  </div>","44","html-slider-response","36","356590","0.0-7.0-3.4","27","1","2025-07-30 08:40:40","36c45c0696341be0efffe67d72a12abb","51.36.170.158","Mozilla/5.0 (Windows NT 10.0; Win64; x64) AppleWebKit/537.36 (KHTML, like Gecko) Chrome/138.0.0.0 Safari/537.36","WebKit","Chrome","138.0.0.0","Windows","10.0","https://app.prolific.com/","en-US,en;q=0.9","65f19a1fe38352676f83d5f0","683dba9a53627eb9ab41b36a","6889da5c09bcb099cce45741","0","65f19a1fe38352676f83d5f0","0","2025-07-30T08:46:36.728Z","","","","StressQ","","","","","","","","","","","50","","","","","","","","","","","","","","","","","","","","","","","","","","",""
"2147","","<div style=""width:500px;"">
  <p>What best describes how you currently feel?</p>
  </div>","56","html-slider-response","37","358738","0.0-7.0-4.4","27","1","2025-07-30 08:40:40","36c45c0696341be0efffe67d72a12abb","51.36.170.158","Mozilla/5.0 (Windows NT 10.0; Win64; x64) AppleWebKit/537.36 (KHTML, like Gecko) Chrome/138.0.0.0 Safari/537.36","WebKit","Chrome","138.0.0.0","Windows","10.0","https://app.prolific.com/","en-US,en;q=0.9","65f19a1fe38352676f83d5f0","683dba9a53627eb9ab41b36a","6889da5c09bcb099cce45741","0","65f19a1fe38352676f83d5f0","0","2025-07-30T08:46:38.876Z","","","","MotivationQ","","","","","","","","","","","50","","","","","","","","","","","","","","","","","","","","","","","","","","",""
"","","","","ctl-task-cpt","38","385871","0.0-7.0-0.5","27","1","2025-07-30 08:40:40","36c45c0696341be0efffe67d72a12abb","51.36.170.158","Mozilla/5.0 (Windows NT 10.0; Win64; x64) AppleWebKit/537.36 (KHTML, like Gecko) Chrome/138.0.0.0 Safari/537.36","WebKit","Chrome","138.0.0.0","Windows","10.0","https://app.prolific.com/","en-US,en;q=0.9","65f19a1fe38352676f83d5f0","683dba9a53627eb9ab41b36a","6889da5c09bcb099cce45741","0","65f19a1fe38352676f83d5f0","0","2025-07-30T08:47:06.009Z","","","","","","","","","","","","","","","","win-only","0","g1:NW,g2:SE","0.5","6","0","361003.9","757.1","5761","24123.3","1","4","4","6","1","-1","-1","3","4","0.022727272727272728","1096.9","3000","-3005","[""left"",""up""]","{""num_key_presses"":6,""num_perfect"":3,""num_errors"":0,""num_randdir"":3,""num_randdir_good_moves"":1,""num_whilered"":0,""num_whileblue"":0,""num_blue"":0,""num_good_moves"":4}","[416.5714133126395,419.07142761775424,0.1,416.5714133126395,419.07142761775424,103,416.5714133126395,419.07142761775424,203.6,416.5714133126395,419.07142761775424,308.7,346.5714133126395,377.82142761775424,413.8,159.0714133126395,190.32142761775424,513.8,129.0714133126395,134.07142761775424,618.3,129.0714133126395,134.07142761775424,719,129.0714133126395,134.07142761775424,823.8,45.32141331263951,66.57142761775425,926,41.57141331263951,62.82142761775425,1026.2,41.57141331263951,62.82142761775425,1128.3,41.57141331263951,62.82142761775425,1228.8,41.57141331263951,62.82142761775425,1333.8,41.57141331263951,62.82142761775425,1433.9,-119.6785866873605,156.57142761775424,1538.9,-174.6785866873605,186.57142761775424,1639.7,-174.6785866873605,186.57142761775424,1743.6,-174.6785866873605,186.57142761775424,1848.4,-174.6785866873605,186.57142761775424,1948.7,-174.6785866873605,186.57142761775424,2053.3,-174.6785866873605,186.57142761775424,2153.4,-174.6785866873605,186.57142761775424,2253.4,-174.6785866873605,186.57142761775424,2353.4,-174.6785866873605,186.57142761775424,2454.3,-174.6785866873605,186.57142761775424,2554.5,-174.6785866873605,186.57142761775424,2660.4,-174.6785866873605,186.57142761775424,2763.1,-174.6785866873605,186.57142761775424,2864.1,-174.6785866873605,186.57142761775424,2968.2,-174.6785866873605,186.57142761775424,3068.9,-174.6785866873605,186.57142761775424,3174.1,-174.6785866873605,186.57142761775424,3278.2,-174.6785866873605,186.57142761775424,3378.9,-174.6785866873605,186.57142761775424,3484.1,-174.6785866873605,186.57142761775424,3591.7,-174.6785866873605,186.57142761775424,3693.3,-174.6785866873605,186.57142761775424,3793.4,-174.6785866873605,186.57142761775424,3893.6,-174.6785866873605,186.57142761775424,3999.6,-174.6785866873605,186.57142761775424,4103.9,-174.6785866873605,186.57142761775424,4208.7,-174.6785866873605,186.57142761775424,4313.2,-174.6785866873605,186.57142761775424,4413.9,-174.6785866873605,186.57142761775424,4514.3,-174.6785866873605,186.57142761775424,4618.3,-174.6785866873605,186.57142761775424,4718.4,-174.6785866873605,186.57142761775424,4823.9,-174.6785866873605,186.57142761775424,4923.9]","[1573,1573,1000,0,573,""oops"",""up"",""up"",""good_move"",4595.4,3022.2,2516.6,1573.2,505.6,""smooth"",""up"",""up"",""good_move"",7197.6,2602,2219.7,4595.6,382.4,""oops"",""left"",""right"",""bad_move"",10187.2,2988.9,2631.3,7198.3,357.6,""smooth"",""left"",""left"",""good_move"",13208.5,3021.1,2597.2,10187.4,423.9,""smooth"",""left"",""left"",""good_move"",16015.2,2806.5,2440.9,13208.7,365.6,""oops"",""left"",""down"",""bad_move""]"
"2410","","<div style=""width:500px;"">
  <p>What determined the result of this run?</p>
  </div>","22","html-slider-response","39","388282","0.0-7.0-1.5","27","1","2025-07-30 08:40:40","36c45c0696341be0efffe67d72a12abb","51.36.170.158","Mozilla/5.0 (Windows NT 10.0; Win64; x64) AppleWebKit/537.36 (KHTML, like Gecko) Chrome/138.0.0.0 Safari/537.36","WebKit","Chrome","138.0.0.0","Windows","10.0","https://app.prolific.com/","en-US,en;q=0.9","65f19a1fe38352676f83d5f0","683dba9a53627eb9ab41b36a","6889da5c09bcb099cce45741","0","65f19a1fe38352676f83d5f0","0","2025-07-30T08:47:08.420Z","","","","AttribQ","","","","","","","","","","","50","","","","","","","","","","","","","","","","","","","","","","","","","","",""
"2951","","<div style=""width:500px;"">
  <p>How much control did you have over the ball?</p>
  </div>","28","html-slider-response","40","391233","0.0-7.0-2.5","27","1","2025-07-30 08:40:40","36c45c0696341be0efffe67d72a12abb","51.36.170.158","Mozilla/5.0 (Windows NT 10.0; Win64; x64) AppleWebKit/537.36 (KHTML, like Gecko) Chrome/138.0.0.0 Safari/537.36","WebKit","Chrome","138.0.0.0","Windows","10.0","https://app.prolific.com/","en-US,en;q=0.9","65f19a1fe38352676f83d5f0","683dba9a53627eb9ab41b36a","6889da5c09bcb099cce45741","0","65f19a1fe38352676f83d5f0","0","2025-07-30T08:47:11.371Z","","","","ControlQ","","","","","","","","","","","50","","","","","","","","","","","","","","","","","","","","","","","","","","",""
"3052","","<div style=""width:500px;"">
  <p>How would you describe your current emotional state?</p>
  </div>","46","html-slider-response","41","394286","0.0-7.0-3.5","27","1","2025-07-30 08:40:40","36c45c0696341be0efffe67d72a12abb","51.36.170.158","Mozilla/5.0 (Windows NT 10.0; Win64; x64) AppleWebKit/537.36 (KHTML, like Gecko) Chrome/138.0.0.0 Safari/537.36","WebKit","Chrome","138.0.0.0","Windows","10.0","https://app.prolific.com/","en-US,en;q=0.9","65f19a1fe38352676f83d5f0","683dba9a53627eb9ab41b36a","6889da5c09bcb099cce45741","0","65f19a1fe38352676f83d5f0","0","2025-07-30T08:47:14.424Z","","","","StressQ","","","","","","","","","","","50","","","","","","","","","","","","","","","","","","","","","","","","","","",""
"1991","","<div style=""width:500px;"">
  <p>What best describes how you currently feel?</p>
  </div>","52","html-slider-response","42","396278","0.0-7.0-4.5","27","1","2025-07-30 08:40:40","36c45c0696341be0efffe67d72a12abb","51.36.170.158","Mozilla/5.0 (Windows NT 10.0; Win64; x64) AppleWebKit/537.36 (KHTML, like Gecko) Chrome/138.0.0.0 Safari/537.36","WebKit","Chrome","138.0.0.0","Windows","10.0","https://app.prolific.com/","en-US,en;q=0.9","65f19a1fe38352676f83d5f0","683dba9a53627eb9ab41b36a","6889da5c09bcb099cce45741","0","65f19a1fe38352676f83d5f0","0","2025-07-30T08:47:16.416Z","","","","MotivationQ","","","","","","","","","","","50","","","","","","","","","","","","","","","","","","","","","","","","","","",""
"","","","","ctl-task-cpt","43","433786","0.0-7.0-0.6","27","1","2025-07-30 08:40:40","36c45c0696341be0efffe67d72a12abb","51.36.170.158","Mozilla/5.0 (Windows NT 10.0; Win64; x64) AppleWebKit/537.36 (KHTML, like Gecko) Chrome/138.0.0.0 Safari/537.36","WebKit","Chrome","138.0.0.0","Windows","10.0","https://app.prolific.com/","en-US,en;q=0.9","65f19a1fe38352676f83d5f0","683dba9a53627eb9ab41b36a","6889da5c09bcb099cce45741","0","65f19a1fe38352676f83d5f0","0","2025-07-30T08:47:53.924Z","","","","","","","","","","","","","","","","win-only","0","g1:NW,g2:SE","0.4","7","0","398545.3","692.9","5695.8","34485.4","1","4","8","6","1","-1","-1","2","3","0.015151515151515152","733.7","3000","-3010","[""left"",""up""]","{""num_key_presses"":6,""num_perfect"":3,""num_errors"":0,""num_randdir"":3,""num_randdir_good_moves"":1,""num_whilered"":0,""num_whileblue"":0,""num_blue"":2,""num_good_moves"":4}","[420.3214133126395,410.32142761775424,0.2,420.3214133126395,410.32142761775424,103.4,420.3214133126395,410.32142761775424,208,420.3214133126395,410.32142761775424,313.7,271.5714133126395,291.57142761775424,417.3,116.5714133126395,136.57142761775424,517.5,96.5714133126395,109.07142761775425,617.6,96.5714133126395,109.07142761775425,717.6,96.5714133126395,109.07142761775425,818.4,96.5714133126395,109.07142761775425,922.7,96.5714133126395,109.07142761775425,1022.9,96.5714133126395,109.07142761775425,1127.6,96.5714133126395,109.07142761775425,1232.7,-88.4285866873605,117.82142761775425,1333.3,-128.4285866873605,130.32142761775424,1438.7,-128.4285866873605,130.32142761775424,1546.2,-128.4285866873605,130.32142761775424,1647.8,-128.4285866873605,130.32142761775424,1748.3,-128.4285866873605,130.32142761775424,1848.3,-128.4285866873605,130.32142761775424,1953,-128.4285866873605,130.32142761775424,2057.9,-128.4285866873605,130.32142761775424,2166.1,-128.4285866873605,130.32142761775424,2268.9,-128.4285866873605,130.32142761775424,2373.2,-128.4285866873605,130.32142761775424,2481.1,-128.4285866873605,130.32142761775424,2583.3,-128.4285866873605,130.32142761775424,2687.8,-128.4285866873605,130.32142761775424,2796.5,-128.4285866873605,130.32142761775424,2897.8,-128.4285866873605,130.32142761775424,2997.8,-128.4285866873605,130.32142761775424,3102.2,-128.4285866873605,130.32142761775424,3202.8,-128.4285866873605,130.32142761775424,3307.9,-128.4285866873605,130.32142761775424,3409.3,-128.4285866873605,130.32142761775424,3513.1,-128.4285866873605,130.32142761775424,3613.5,-128.4285866873605,130.32142761775424,3718.3,-128.4285866873605,130.32142761775424,3818.3,-128.4285866873605,130.32142761775424,3922.6,-128.4285866873605,130.32142761775424,4023.9,-128.4285866873605,130.32142761775424,4131.3,-128.4285866873605,130.32142761775424,4232.6,-128.4285866873605,130.32142761775424,4333.3,-128.4285866873605,130.32142761775424,4437.9,-128.4285866873605,130.32142761775424,4537.9,-128.4285866873605,130.32142761775424,4642.8,-128.4285866873605,130.32142761775424,4745.2,-128.4285866873605,130.32142761775424,4847.7,-128.4285866873605,130.32142761775424,4952.5]","[1523.9,1523.9,1000,0,523.9,""oops"",""up"",""left"",""good_move"",5495.2,3970.9,3377.3,1524.3,593.6,""oops"",""up"",""right"",""bad_move"",8455.2,2959.8,2557.5,5495.4,402.3,""smooth"",""left"",""left"",""good_move"",15175.9,6720.4,2651.6,12129.9,394.4,""smooth"",""left"",""left"",""good_move"",21985.3,6809.2,2952.1,18654.6,378.6,""smooth"",""up"",""up"",""good_move"",25153.2,3167.7,2812.7,21985.5,355,""oops"",""up"",""right"",""bad_move""]"
"2460","","<div style=""width:500px;"">
  <p>What determined the result of this run?</p>
  </div>","21","html-slider-response","44","436247","0.0-7.0-1.6","27","1","2025-07-30 08:40:40","36c45c0696341be0efffe67d72a12abb","51.36.170.158","Mozilla/5.0 (Windows NT 10.0; Win64; x64) AppleWebKit/537.36 (KHTML, like Gecko) Chrome/138.0.0.0 Safari/537.36","WebKit","Chrome","138.0.0.0","Windows","10.0","https://app.prolific.com/","en-US,en;q=0.9","65f19a1fe38352676f83d5f0","683dba9a53627eb9ab41b36a","6889da5c09bcb099cce45741","0","65f19a1fe38352676f83d5f0","0","2025-07-30T08:47:56.385Z","","","","AttribQ","","","","","","","","","","","50","","","","","","","","","","","","","","","","","","","","","","","","","","",""
"2425","","<div style=""width:500px;"">
  <p>How much control did you have over the ball?</p>
  </div>","22","html-slider-response","45","438673","0.0-7.0-2.6","27","1","2025-07-30 08:40:40","36c45c0696341be0efffe67d72a12abb","51.36.170.158","Mozilla/5.0 (Windows NT 10.0; Win64; x64) AppleWebKit/537.36 (KHTML, like Gecko) Chrome/138.0.0.0 Safari/537.36","WebKit","Chrome","138.0.0.0","Windows","10.0","https://app.prolific.com/","en-US,en;q=0.9","65f19a1fe38352676f83d5f0","683dba9a53627eb9ab41b36a","6889da5c09bcb099cce45741","0","65f19a1fe38352676f83d5f0","0","2025-07-30T08:47:58.811Z","","","","ControlQ","","","","","","","","","","","50","","","","","","","","","","","","","","","","","","","","","","","","","","",""
"2497","","<div style=""width:500px;"">
  <p>How would you describe your current emotional state?</p>
  </div>","48","html-slider-response","46","441171","0.0-7.0-3.6","27","1","2025-07-30 08:40:40","36c45c0696341be0efffe67d72a12abb","51.36.170.158","Mozilla/5.0 (Windows NT 10.0; Win64; x64) AppleWebKit/537.36 (KHTML, like Gecko) Chrome/138.0.0.0 Safari/537.36","WebKit","Chrome","138.0.0.0","Windows","10.0","https://app.prolific.com/","en-US,en;q=0.9","65f19a1fe38352676f83d5f0","683dba9a53627eb9ab41b36a","6889da5c09bcb099cce45741","0","65f19a1fe38352676f83d5f0","0","2025-07-30T08:48:01.309Z","","","","StressQ","","","","","","","","","","","50","","","","","","","","","","","","","","","","","","","","","","","","","","",""
"2324","","<div style=""width:500px;"">
  <p>What best describes how you currently feel?</p>
  </div>","53","html-slider-response","47","443496","0.0-7.0-4.6","27","1","2025-07-30 08:40:40","36c45c0696341be0efffe67d72a12abb","51.36.170.158","Mozilla/5.0 (Windows NT 10.0; Win64; x64) AppleWebKit/537.36 (KHTML, like Gecko) Chrome/138.0.0.0 Safari/537.36","WebKit","Chrome","138.0.0.0","Windows","10.0","https://app.prolific.com/","en-US,en;q=0.9","65f19a1fe38352676f83d5f0","683dba9a53627eb9ab41b36a","6889da5c09bcb099cce45741","0","65f19a1fe38352676f83d5f0","0","2025-07-30T08:48:03.634Z","","","","MotivationQ","","","","","","","","","","","50","","","","","","","","","","","","","","","","","","","","","","","","","","",""
"","","","","ctl-task-cpt","48","474987","0.0-7.0-0.7","27","1","2025-07-30 08:40:40","36c45c0696341be0efffe67d72a12abb","51.36.170.158","Mozilla/5.0 (Windows NT 10.0; Win64; x64) AppleWebKit/537.36 (KHTML, like Gecko) Chrome/138.0.0.0 Safari/537.36","WebKit","Chrome","138.0.0.0","Windows","10.0","https://app.prolific.com/","en-US,en;q=0.9","65f19a1fe38352676f83d5f0","683dba9a53627eb9ab41b36a","6889da5c09bcb099cce45741","0","65f19a1fe38352676f83d5f0","0","2025-07-30T08:48:35.125Z","","","","","","","","","","","","","","","","win-only","1","g1:NE,g2:SW","0.3","8","0","445761.4","859.3","5861.4","28485.5","1","4","4","6","1","-1","-1","1","2","0.007575757575757576","809","3000","-2970","[""up"",""right""]","{""num_key_presses"":6,""num_perfect"":3,""num_errors"":0,""num_randdir"":3,""num_randdir_good_moves"":0,""num_whilered"":0,""num_whileblue"":0,""num_blue"":1,""num_good_moves"":3}","[416.5714133126395,416.57142761775424,0.2,416.5714133126395,416.57142761775424,101.1,416.5714133126395,416.57142761775424,201.1,416.5714133126395,416.57142761775424,301.1,431.5714133126395,407.82142761775424,407.8,660.3214133126395,96.57142761775425,511.3,721.5714133126395,49.07142761775425,611.4,726.5714133126395,49.07142761775425,716,726.5714133126395,49.07142761775425,816.5,726.5714133126395,49.07142761775425,921.6,726.5714133126395,49.07142761775425,1024.1,726.5714133126395,49.07142761775425,1126,-23.428586687360493,191.57142761775424,1229.2,-393.4285866873605,330.32142761775424,1330.5,-393.4285866873605,330.32142761775424,1431.8,-393.4285866873605,330.32142761775424,1536.2,-393.4285866873605,330.32142761775424,1636.2,-393.4285866873605,330.32142761775424,1741.2,-393.4285866873605,330.32142761775424,1844.7,-393.4285866873605,330.32142761775424,1946.3,-393.4285866873605,330.32142761775424,2051.3,-393.4285866873605,330.32142761775424,2156.9,-393.4285866873605,330.32142761775424,2257.1,-393.4285866873605,330.32142761775424,2360.9,-393.4285866873605,330.32142761775424,2461.6,-393.4285866873605,330.32142761775424,2561.7,-393.4285866873605,330.32142761775424,2666.6,-393.4285866873605,330.32142761775424,2767.3,-393.4285866873605,330.32142761775424,2871.1,-393.4285866873605,330.32142761775424,2972.5,-393.4285866873605,330.32142761775424,3073.9,-393.4285866873605,330.32142761775424,3179.6,-393.4285866873605,330.32142761775424,3280.8,-393.4285866873605,330.32142761775424,3381.6,-393.4285866873605,330.32142761775424,3487,-393.4285866873605,330.32142761775424,3591.4,-393.4285866873605,330.32142761775424,3696.5,-393.4285866873605,330.32142761775424,3801.3,-393.4285866873605,330.32142761775424,3901.7,-393.4285866873605,330.32142761775424,4005.9,-393.4285866873605,330.32142761775424,4106.2,-393.4285866873605,330.32142761775424,4208.4,-393.4285866873605,330.32142761775424,4311.3,-393.4285866873605,330.32142761775424,4411.5,-393.4285866873605,330.32142761775424,4511.7,-393.4285866873605,330.32142761775424,4616.5,-393.4285866873605,330.32142761775424,4725.5,-393.4285866873605,330.32142761775424,4825.8,-393.4285866873605,330.32142761775424,4926.9]","[4925.4,4925.4,2191.7,2007.2,726.5,""smooth"",""up"",""up"",""good_move"",8123.5,3198,2760.5,4925.5,437.5,""smooth"",""right"",""right"",""good_move"",11039.9,2916.2,2509.3,8123.7,406.9,""oops"",""right"",""left"",""bad_move"",13895.5,2855.2,2430.7,11040.3,424.5,""oops"",""up"",""left"",""bad_move"",17117.3,3221.6,2636.2,13895.7,585.4,""smooth"",""up"",""up"",""good_move"",19795.4,2678,2194.9,17117.4,483.1,""oops"",""right"",""left"",""bad_move""]"
"3738","","<div style=""width:500px;"">
  <p>What determined the result of this run?</p>
  </div>","21","html-slider-response","49","478725","0.0-7.0-1.7","27","1","2025-07-30 08:40:40","36c45c0696341be0efffe67d72a12abb","51.36.170.158","Mozilla/5.0 (Windows NT 10.0; Win64; x64) AppleWebKit/537.36 (KHTML, like Gecko) Chrome/138.0.0.0 Safari/537.36","WebKit","Chrome","138.0.0.0","Windows","10.0","https://app.prolific.com/","en-US,en;q=0.9","65f19a1fe38352676f83d5f0","683dba9a53627eb9ab41b36a","6889da5c09bcb099cce45741","0","65f19a1fe38352676f83d5f0","0","2025-07-30T08:48:38.863Z","","","","AttribQ","","","","","","","","","","","50","","","","","","","","","","","","","","","","","","","","","","","","","","",""
"2543","","<div style=""width:500px;"">
  <p>How much control did you have over the ball?</p>
  </div>","24","html-slider-response","50","481269","0.0-7.0-2.7","27","1","2025-07-30 08:40:40","36c45c0696341be0efffe67d72a12abb","51.36.170.158","Mozilla/5.0 (Windows NT 10.0; Win64; x64) AppleWebKit/537.36 (KHTML, like Gecko) Chrome/138.0.0.0 Safari/537.36","WebKit","Chrome","138.0.0.0","Windows","10.0","https://app.prolific.com/","en-US,en;q=0.9","65f19a1fe38352676f83d5f0","683dba9a53627eb9ab41b36a","6889da5c09bcb099cce45741","0","65f19a1fe38352676f83d5f0","0","2025-07-30T08:48:41.407Z","","","","ControlQ","","","","","","","","","","","50","","","","","","","","","","","","","","","","","","","","","","","","","","",""
"4060","","<div style=""width:500px;"">
  <p>How would you describe your current emotional state?</p>
  </div>","50","html-slider-response","51","485329","0.0-7.0-3.7","27","1","2025-07-30 08:40:40","36c45c0696341be0efffe67d72a12abb","51.36.170.158","Mozilla/5.0 (Windows NT 10.0; Win64; x64) AppleWebKit/537.36 (KHTML, like Gecko) Chrome/138.0.0.0 Safari/537.36","WebKit","Chrome","138.0.0.0","Windows","10.0","https://app.prolific.com/","en-US,en;q=0.9","65f19a1fe38352676f83d5f0","683dba9a53627eb9ab41b36a","6889da5c09bcb099cce45741","0","65f19a1fe38352676f83d5f0","0","2025-07-30T08:48:45.467Z","","","","StressQ","","","","","","","","","","","50","","","","","","","","","","","","","","","","","","","","","","","","","","",""
"3503","","<div style=""width:500px;"">
  <p>What best describes how you currently feel?</p>
  </div>","51","html-slider-response","52","488833","0.0-7.0-4.7","27","1","2025-07-30 08:40:40","36c45c0696341be0efffe67d72a12abb","51.36.170.158","Mozilla/5.0 (Windows NT 10.0; Win64; x64) AppleWebKit/537.36 (KHTML, like Gecko) Chrome/138.0.0.0 Safari/537.36","WebKit","Chrome","138.0.0.0","Windows","10.0","https://app.prolific.com/","en-US,en;q=0.9","65f19a1fe38352676f83d5f0","683dba9a53627eb9ab41b36a","6889da5c09bcb099cce45741","0","65f19a1fe38352676f83d5f0","0","2025-07-30T08:48:48.971Z","","","","MotivationQ","","","","","","","","","","","50","","","","","","","","","","","","","","","","","","","","","","","","","","",""
"","","","","ctl-task-cpt","53","522426","0.0-7.0-0.8","27","1","2025-07-30 08:40:40","36c45c0696341be0efffe67d72a12abb","51.36.170.158","Mozilla/5.0 (Windows NT 10.0; Win64; x64) AppleWebKit/537.36 (KHTML, like Gecko) Chrome/138.0.0.0 Safari/537.36","WebKit","Chrome","138.0.0.0","Windows","10.0","https://app.prolific.com/","en-US,en;q=0.9","65f19a1fe38352676f83d5f0","683dba9a53627eb9ab41b36a","6889da5c09bcb099cce45741","0","65f19a1fe38352676f83d5f0","0","2025-07-30T08:49:22.564Z","","","","","","","","","","","","","","","","win-only","3","g1:SW,g2:NE","0.4","9","0","491098.3","802.6","5805.4","30575.5","1","4","8","6","1","-1","-1","0","1","0","957.4","3000","-2985","[""down"",""left""]","{""num_key_presses"":6,""num_perfect"":3,""num_errors"":0,""num_randdir"":3,""num_randdir_good_moves"":1,""num_whilered"":0,""num_whileblue"":0,""num_blue"":2,""num_good_moves"":4}","[419.0714133126395,417.82142761775424,0.1,419.0714133126395,417.82142761775424,103.5,419.0714133126395,417.82142761775424,208.9,419.0714133126395,417.82142761775424,309.8,419.0714133126395,417.82142761775424,410,416.5714133126395,406.57142761775424,513.4,150.3214133126395,630.3214276177542,617.8,111.5714133126395,699.0714276177542,722.6,111.5714133126395,699.0714276177542,822.8,111.5714133126395,699.0714276177542,928,111.5714133126395,699.0714276177542,1028.4,111.5714133126395,699.0714276177542,1128.8,111.5714133126395,699.0714276177542,1233.2,111.5714133126395,699.0714276177542,1333.2,-195.9285866873605,634.0714276177542,1438.8,-198.4285866873605,634.0714276177542,1546.6,-198.4285866873605,634.0714276177542,1647.8,-198.4285866873605,634.0714276177542,1748.2,-198.4285866873605,634.0714276177542,1852.6,-198.4285866873605,634.0714276177542,1953.1,-198.4285866873605,634.0714276177542,2053.2,-198.4285866873605,634.0714276177542,2158,-198.4285866873605,634.0714276177542,2260.4,-198.4285866873605,634.0714276177542,2363.3,-198.4285866873605,634.0714276177542,2463.6,-198.4285866873605,634.0714276177542,2567.8,-198.4285866873605,634.0714276177542,2667.8,-198.4285866873605,634.0714276177542,2768.1,-198.4285866873605,634.0714276177542,2873.5,-198.4285866873605,634.0714276177542,2973.5,-198.4285866873605,634.0714276177542,3078.2,-198.4285866873605,634.0714276177542,3182.7,-198.4285866873605,634.0714276177542,3282.7,-198.4285866873605,634.0714276177542,3383.2,-198.4285866873605,634.0714276177542,3487.9,-198.4285866873605,634.0714276177542,3593.6,-198.4285866873605,634.0714276177542,3698.9,-198.4285866873605,634.0714276177542,3802.8,-198.4285866873605,634.0714276177542,3903.1,-198.4285866873605,634.0714276177542,4003.8,-198.4285866873605,634.0714276177542,4110.6,-198.4285866873605,634.0714276177542,4213.5,-198.4285866873605,634.0714276177542,4317.9,-198.4285866873605,634.0714276177542,4418.5,-198.4285866873605,634.0714276177542,4518.5,-198.4285866873605,634.0714276177542,4622.9,-198.4285866873605,634.0714276177542,4728.5,-198.4285866873605,634.0714276177542,4828.8,-198.4285866873605,634.0714276177542,4933.7]","[1452.2,1452.3,1000,0,452.3,""smooth"",""down"",""down"",""good_move"",3840.8,2388.1,1973.9,1452.7,414.2,""smooth"",""down"",""down"",""good_move"",6209.5,2368.7,1964,3840.9,404.7,""oops"",""left"",""up"",""bad_move"",12655,6445.2,1992.7,10275.1,387.2,""smooth"",""down"",""down"",""good_move"",16027.5,3372.3,3026.1,12655.2,346.2,""oops"",""left"",""left"",""good_move"",18282.6,2254.7,1844.8,16027.9,409.9,""oops"",""left"",""up"",""bad_move""]"
"5617","","<div style=""width:500px;"">
  <p>What determined the result of this run?</p>
  </div>","13","html-slider-response","54","528044","0.0-7.0-1.8","27","1","2025-07-30 08:40:40","36c45c0696341be0efffe67d72a12abb","51.36.170.158","Mozilla/5.0 (Windows NT 10.0; Win64; x64) AppleWebKit/537.36 (KHTML, like Gecko) Chrome/138.0.0.0 Safari/537.36","WebKit","Chrome","138.0.0.0","Windows","10.0","https://app.prolific.com/","en-US,en;q=0.9","65f19a1fe38352676f83d5f0","683dba9a53627eb9ab41b36a","6889da5c09bcb099cce45741","0","65f19a1fe38352676f83d5f0","0","2025-07-30T08:49:28.182Z","","","","AttribQ","","","","","","","","","","","50","","","","","","","","","","","","","","","","","","","","","","","","","","",""
"2815","","<div style=""width:500px;"">
  <p>How much control did you have over the ball?</p>
  </div>","9","html-slider-response","55","530860","0.0-7.0-2.8","27","1","2025-07-30 08:40:40","36c45c0696341be0efffe67d72a12abb","51.36.170.158","Mozilla/5.0 (Windows NT 10.0; Win64; x64) AppleWebKit/537.36 (KHTML, like Gecko) Chrome/138.0.0.0 Safari/537.36","WebKit","Chrome","138.0.0.0","Windows","10.0","https://app.prolific.com/","en-US,en;q=0.9","65f19a1fe38352676f83d5f0","683dba9a53627eb9ab41b36a","6889da5c09bcb099cce45741","0","65f19a1fe38352676f83d5f0","0","2025-07-30T08:49:30.998Z","","","","ControlQ","","","","","","","","","","","50","","","","","","","","","","","","","","","","","","","","","","","","","","",""
"2863","","<div style=""width:500px;"">
  <p>How would you describe your current emotional state?</p>
  </div>","53","html-slider-response","56","533724","0.0-7.0-3.8","27","1","2025-07-30 08:40:40","36c45c0696341be0efffe67d72a12abb","51.36.170.158","Mozilla/5.0 (Windows NT 10.0; Win64; x64) AppleWebKit/537.36 (KHTML, like Gecko) Chrome/138.0.0.0 Safari/537.36","WebKit","Chrome","138.0.0.0","Windows","10.0","https://app.prolific.com/","en-US,en;q=0.9","65f19a1fe38352676f83d5f0","683dba9a53627eb9ab41b36a","6889da5c09bcb099cce45741","0","65f19a1fe38352676f83d5f0","0","2025-07-30T08:49:33.862Z","","","","StressQ","","","","","","","","","","","50","","","","","","","","","","","","","","","","","","","","","","","","","","",""
"2054","","<div style=""width:500px;"">
  <p>What best describes how you currently feel?</p>
  </div>","46","html-slider-response","57","535778","0.0-7.0-4.8","27","1","2025-07-30 08:40:40","36c45c0696341be0efffe67d72a12abb","51.36.170.158","Mozilla/5.0 (Windows NT 10.0; Win64; x64) AppleWebKit/537.36 (KHTML, like Gecko) Chrome/138.0.0.0 Safari/537.36","WebKit","Chrome","138.0.0.0","Windows","10.0","https://app.prolific.com/","en-US,en;q=0.9","65f19a1fe38352676f83d5f0","683dba9a53627eb9ab41b36a","6889da5c09bcb099cce45741","0","65f19a1fe38352676f83d5f0","0","2025-07-30T08:49:35.916Z","","","","MotivationQ","","","","","","","","","","","50","","","","","","","","","","","","","","","","","","","","","","","","","","",""
"","","","","ctl-task-cpt","58","556570","0.0-7.0-0.9","27","1","2025-07-30 08:40:40","36c45c0696341be0efffe67d72a12abb","51.36.170.158","Mozilla/5.0 (Windows NT 10.0; Win64; x64) AppleWebKit/537.36 (KHTML, like Gecko) Chrome/138.0.0.0 Safari/537.36","WebKit","Chrome","138.0.0.0","Windows","10.0","https://app.prolific.com/","en-US,en;q=0.9","65f19a1fe38352676f83d5f0","683dba9a53627eb9ab41b36a","6889da5c09bcb099cce45741","0","65f19a1fe38352676f83d5f0","0","2025-07-30T08:49:56.708Z","","","","","","","","","","","","","","","","win-only","2","g1:SE,g2:NW","0.5","10","0","538043.6","653.9","5656","17774.1","1","4","4","6","1","1","1","1","0","0.007575757575757576","986.8","3000","980","[""down"",""right""]","{""num_key_presses"":4,""num_perfect"":2,""num_errors"":0,""num_randdir"":2,""num_randdir_good_moves"":2,""num_whilered"":0,""num_whileblue"":0,""num_blue"":0,""num_good_moves"":4}","[411.5714133126395,412.82142761775424,0.2,411.5714133126395,412.82142761775424,103,411.5714133126395,412.82142761775424,207.7,411.5714133126395,412.82142761775424,310.3,299.0714133126395,281.57142761775424,411.5,226.5714133126395,216.57142761775424,512.3,532.8214133126395,545.3214276177542,616.5,761.5714133126395,761.5714276177542,716.8,791.5714133126395,775.3214276177542,821.8,792.8214133126395,770.3214276177542,922.1,792.8214133126395,770.3214276177542,1027.6,792.8214133126395,770.3214276177542,1127.7,792.8214133126395,770.3214276177542,1227.9,730.3214133126395,734.0714276177542,1331.8,92.8214133126395,616.5714276177542,1431.8,34.07141331263951,611.5714276177542,1536.8,34.07141331263951,611.5714276177542,1637.4,34.07141331263951,611.5714276177542,1745.4,12.821413312639507,607.8214276177542,1846.2,-114.6785866873605,589.0714276177542,1946.4,-114.6785866873605,589.0714276177542,2046.5,-114.6785866873605,589.0714276177542,2146.7,-114.6785866873605,589.0714276177542,2246.9,-114.6785866873605,589.0714276177542,2347.1,-114.6785866873605,589.0714276177542,2452.6,-114.6785866873605,589.0714276177542,2561.1,-114.6785866873605,589.0714276177542,2662,-114.6785866873605,589.0714276177542,2762.4,-114.6785866873605,589.0714276177542,2866.3,-114.6785866873605,589.0714276177542,2967.2,-114.6785866873605,589.0714276177542,3067.6,-114.6785866873605,589.0714276177542,3173.3,-114.6785866873605,589.0714276177542,3277,-114.6785866873605,589.0714276177542,3377,-114.6785866873605,589.0714276177542,3481.6,-114.6785866873605,589.0714276177542,3581.7,-114.6785866873605,589.0714276177542,3682,-114.6785866873605,589.0714276177542,3782,-114.6785866873605,589.0714276177542,3886.6,-114.6785866873605,589.0714276177542,3989.1,-114.6785866873605,589.0714276177542,4094.5,-114.6785866873605,589.0714276177542,4196.3,-114.6785866873605,589.0714276177542,4296.9,-114.6785866873605,589.0714276177542,4396.9,-114.6785866873605,589.0714276177542,4502.1,-114.6785866873605,589.0714276177542,4606.8,-114.6785866873605,589.0714276177542,4708.8,-114.6785866873605,589.0714276177542,4811.6,-114.6785866873605,589.0714276177542,4911.9]","[1638.5,1638.5,1000,0,638.5,""smooth"",""down"",""down"",""good_move"",5292.3,3653.6,3142.1,1638.7,511.5,""smooth"",""right"",""right"",""good_move"",9039.4,3746.8,3197,5292.6,549.8,""oops"",""down"",""down"",""good_move"",12029.4,2989.8,2611.6,9039.6,378.3,""oops"",""right"",""right"",""good_move""]"
"2288","","<div style=""width:500px;"">
  <p>What determined the result of this run?</p>
  </div>","12","html-slider-response","59","558858","0.0-7.0-1.9","27","1","2025-07-30 08:40:40","36c45c0696341be0efffe67d72a12abb","51.36.170.158","Mozilla/5.0 (Windows NT 10.0; Win64; x64) AppleWebKit/537.36 (KHTML, like Gecko) Chrome/138.0.0.0 Safari/537.36","WebKit","Chrome","138.0.0.0","Windows","10.0","https://app.prolific.com/","en-US,en;q=0.9","65f19a1fe38352676f83d5f0","683dba9a53627eb9ab41b36a","6889da5c09bcb099cce45741","0","65f19a1fe38352676f83d5f0","0","2025-07-30T08:49:58.996Z","","","","AttribQ","","","","","","","","","","","50","","","","","","","","","","","","","","","","","","","","","","","","","","",""
"2403","","<div style=""width:500px;"">
  <p>How much control did you have over the ball?</p>
  </div>","24","html-slider-response","60","561262","0.0-7.0-2.9","27","1","2025-07-30 08:40:40","36c45c0696341be0efffe67d72a12abb","51.36.170.158","Mozilla/5.0 (Windows NT 10.0; Win64; x64) AppleWebKit/537.36 (KHTML, like Gecko) Chrome/138.0.0.0 Safari/537.36","WebKit","Chrome","138.0.0.0","Windows","10.0","https://app.prolific.com/","en-US,en;q=0.9","65f19a1fe38352676f83d5f0","683dba9a53627eb9ab41b36a","6889da5c09bcb099cce45741","0","65f19a1fe38352676f83d5f0","0","2025-07-30T08:50:01.400Z","","","","ControlQ","","","","","","","","","","","50","","","","","","","","","","","","","","","","","","","","","","","","","","",""
"3752","","<div style=""width:500px;"">
  <p>How would you describe your current emotional state?</p>
  </div>","52","html-slider-response","61","565015","0.0-7.0-3.9","27","1","2025-07-30 08:40:40","36c45c0696341be0efffe67d72a12abb","51.36.170.158","Mozilla/5.0 (Windows NT 10.0; Win64; x64) AppleWebKit/537.36 (KHTML, like Gecko) Chrome/138.0.0.0 Safari/537.36","WebKit","Chrome","138.0.0.0","Windows","10.0","https://app.prolific.com/","en-US,en;q=0.9","65f19a1fe38352676f83d5f0","683dba9a53627eb9ab41b36a","6889da5c09bcb099cce45741","0","65f19a1fe38352676f83d5f0","0","2025-07-30T08:50:05.153Z","","","","StressQ","","","","","","","","","","","50","","","","","","","","","","","","","","","","","","","","","","","","","","",""
"1658","","<div style=""width:500px;"">
  <p>What best describes how you currently feel?</p>
  </div>","45","html-slider-response","62","566673","0.0-7.0-4.9","27","1","2025-07-30 08:40:40","36c45c0696341be0efffe67d72a12abb","51.36.170.158","Mozilla/5.0 (Windows NT 10.0; Win64; x64) AppleWebKit/537.36 (KHTML, like Gecko) Chrome/138.0.0.0 Safari/537.36","WebKit","Chrome","138.0.0.0","Windows","10.0","https://app.prolific.com/","en-US,en;q=0.9","65f19a1fe38352676f83d5f0","683dba9a53627eb9ab41b36a","6889da5c09bcb099cce45741","0","65f19a1fe38352676f83d5f0","0","2025-07-30T08:50:06.811Z","","","","MotivationQ","","","","","","","","","","","50","","","","","","","","","","","","","","","","","","","","","","","","","","",""
"","","","","ctl-task-cpt","63","591596","0.0-7.0-0.10","27","1","2025-07-30 08:40:40","36c45c0696341be0efffe67d72a12abb","51.36.170.158","Mozilla/5.0 (Windows NT 10.0; Win64; x64) AppleWebKit/537.36 (KHTML, like Gecko) Chrome/138.0.0.0 Safari/537.36","WebKit","Chrome","138.0.0.0","Windows","10.0","https://app.prolific.com/","en-US,en;q=0.9","65f19a1fe38352676f83d5f0","683dba9a53627eb9ab41b36a","6889da5c09bcb099cce45741","0","65f19a1fe38352676f83d5f0","0","2025-07-30T08:50:31.734Z","","","","","","","","","","","","","","","","win-only","0","g1:NW,g2:SE","0.6","11","0","568938.5","1016.2","6021.7","21905.4","1","4","8","6","1","-1","-1","0","1","0","762.8","3000","-2870","[""left"",""up""]","{""num_key_presses"":5,""num_perfect"":3,""num_errors"":0,""num_randdir"":2,""num_randdir_good_moves"":1,""num_whilered"":0,""num_whileblue"":0,""num_blue"":0,""num_good_moves"":4}","[426.5714133126395,416.57142761775424,0.2,426.5714133126395,416.57142761775424,110.3,426.5714133126395,416.57142761775424,215.2,426.5714133126395,416.57142761775424,322.8,426.5714133126395,416.57142761775424,424.8,106.5714133126395,140.32142761775424,525.6,61.57141331263951,86.57142761775425,630,61.57141331263951,86.57142761775425,735.5,61.57141331263951,86.57142761775425,835.6,61.57141331263951,86.57142761775425,938.9,61.57141331263951,86.57142761775425,1044.6,-235.9285866873605,110.32142761775425,1145.1,-409.6785866873605,160.32142761775424,1252.4,-409.6785866873605,160.32142761775424,1354,-409.6785866873605,160.32142761775424,1455.1,-409.6785866873605,160.32142761775424,1557.4,-409.6785866873605,160.32142761775424,1659,-409.6785866873605,160.32142761775424,1759.8,-409.6785866873605,160.32142761775424,1864.4,-409.6785866873605,160.32142761775424,1964.4,-409.6785866873605,160.32142761775424,2073.9,-409.6785866873605,160.32142761775424,2175.3,-409.6785866873605,160.32142761775424,2279.4,-409.6785866873605,160.32142761775424,2379.7,-409.6785866873605,160.32142761775424,2479.8,-409.6785866873605,160.32142761775424,2585.9,-409.6785866873605,160.32142761775424,2689.9,-409.6785866873605,160.32142761775424,2794,-409.6785866873605,160.32142761775424,2894.5,-409.6785866873605,160.32142761775424,2995.3,-409.6785866873605,160.32142761775424,3099.3,-409.6785866873605,160.32142761775424,3199.4,-409.6785866873605,160.32142761775424,3299.9,-409.6785866873605,160.32142761775424,3405.9,-409.6785866873605,160.32142761775424,3509.3,-409.6785866873605,160.32142761775424,3614.6,-409.6785866873605,160.32142761775424,3719.5,-409.6785866873605,160.32142761775424,3820.4,-409.6785866873605,160.32142761775424,3924.5,-409.6785866873605,160.32142761775424,4025.5,-409.6785866873605,160.32142761775424,4129,-409.6785866873605,160.32142761775424,4229.4,-409.6785866873605,160.32142761775424,4329.7,-409.6785866873605,160.32142761775424,4434.8,-409.6785866873605,160.32142761775424,4540.2,-409.6785866873605,160.32142761775424,4644.9,-409.6785866873605,160.32142761775424,4752.5,-409.6785866873605,160.32142761775424,4854.3,-409.6785866873605,160.32142761775424,4954.4]","[1842.3,1842.3,1000,0,842.3,""oops"",""left"",""up"",""good_move"",5038.1,3195.4,2675.7,1842.7,519.7,""smooth"",""left"",""left"",""good_move"",8032.8,2994.4,2538.1,5038.4,456.3,""smooth"",""left"",""left"",""good_move"",10602.1,2569.3,2202.1,8032.8,367.2,""oops"",""up"",""right"",""bad_move"",13395,2792.7,2408.7,10602.3,384,""smooth"",""left"",""left"",""good_move""]"
"1905","","<div style=""width:500px;"">
  <p>What determined the result of this run?</p>
  </div>","17","html-slider-response","64","593502","0.0-7.0-1.10","27","1","2025-07-30 08:40:40","36c45c0696341be0efffe67d72a12abb","51.36.170.158","Mozilla/5.0 (Windows NT 10.0; Win64; x64) AppleWebKit/537.36 (KHTML, like Gecko) Chrome/138.0.0.0 Safari/537.36","WebKit","Chrome","138.0.0.0","Windows","10.0","https://app.prolific.com/","en-US,en;q=0.9","65f19a1fe38352676f83d5f0","683dba9a53627eb9ab41b36a","6889da5c09bcb099cce45741","0","65f19a1fe38352676f83d5f0","0","2025-07-30T08:50:33.640Z","","","","AttribQ","","","","","","","","","","","50","","","","","","","","","","","","","","","","","","","","","","","","","","",""
"2043","","<div style=""width:500px;"">
  <p>How much control did you have over the ball?</p>
  </div>","26","html-slider-response","65","595546","0.0-7.0-2.10","27","1","2025-07-30 08:40:40","36c45c0696341be0efffe67d72a12abb","51.36.170.158","Mozilla/5.0 (Windows NT 10.0; Win64; x64) AppleWebKit/537.36 (KHTML, like Gecko) Chrome/138.0.0.0 Safari/537.36","WebKit","Chrome","138.0.0.0","Windows","10.0","https://app.prolific.com/","en-US,en;q=0.9","65f19a1fe38352676f83d5f0","683dba9a53627eb9ab41b36a","6889da5c09bcb099cce45741","0","65f19a1fe38352676f83d5f0","0","2025-07-30T08:50:35.684Z","","","","ControlQ","","","","","","","","","","","50","","","","","","","","","","","","","","","","","","","","","","","","","","",""
"2795","","<div style=""width:500px;"">
  <p>How would you describe your current emotional state?</p>
  </div>","55","html-slider-response","66","598341","0.0-7.0-3.10","27","1","2025-07-30 08:40:40","36c45c0696341be0efffe67d72a12abb","51.36.170.158","Mozilla/5.0 (Windows NT 10.0; Win64; x64) AppleWebKit/537.36 (KHTML, like Gecko) Chrome/138.0.0.0 Safari/537.36","WebKit","Chrome","138.0.0.0","Windows","10.0","https://app.prolific.com/","en-US,en;q=0.9","65f19a1fe38352676f83d5f0","683dba9a53627eb9ab41b36a","6889da5c09bcb099cce45741","0","65f19a1fe38352676f83d5f0","0","2025-07-30T08:50:38.479Z","","","","StressQ","","","","","","","","","","","50","","","","","","","","","","","","","","","","","","","","","","","","","","",""
"4000","","<div style=""width:500px;"">
  <p>What best describes how you currently feel?</p>
  </div>","43","html-slider-response","67","602341","0.0-7.0-4.10","27","1","2025-07-30 08:40:40","36c45c0696341be0efffe67d72a12abb","51.36.170.158","Mozilla/5.0 (Windows NT 10.0; Win64; x64) AppleWebKit/537.36 (KHTML, like Gecko) Chrome/138.0.0.0 Safari/537.36","WebKit","Chrome","138.0.0.0","Windows","10.0","https://app.prolific.com/","en-US,en;q=0.9","65f19a1fe38352676f83d5f0","683dba9a53627eb9ab41b36a","6889da5c09bcb099cce45741","0","65f19a1fe38352676f83d5f0","0","2025-07-30T08:50:42.479Z","","","","MotivationQ","","","","","","","","","","","50","","","","","","","","","","","","","","","","","","","","","","","","","","",""
"","","","","ctl-task-cpt","68","625411","0.0-7.0-0.11","27","1","2025-07-30 08:40:40","36c45c0696341be0efffe67d72a12abb","51.36.170.158","Mozilla/5.0 (Windows NT 10.0; Win64; x64) AppleWebKit/537.36 (KHTML, like Gecko) Chrome/138.0.0.0 Safari/537.36","WebKit","Chrome","138.0.0.0","Windows","10.0","https://app.prolific.com/","en-US,en;q=0.9","65f19a1fe38352676f83d5f0","683dba9a53627eb9ab41b36a","6889da5c09bcb099cce45741","0","65f19a1fe38352676f83d5f0","0","2025-07-30T08:51:05.549Z","","","","","","","","","","","","","","","","win-only","1","g1:NE,g2:SW","0.7","12","0","604606.6","782.5","5786.1","20052","1","4","4","6","1","1","1","1","0","0.007575757575757576","962.5","3000","1015","[""up"",""right""]","{""num_key_presses"":4,""num_perfect"":4,""num_errors"":0,""num_randdir"":0,""num_randdir_good_moves"":0,""num_whilered"":0,""num_whileblue"":0,""num_blue"":1,""num_good_moves"":4}","[419.0714133126395,424.07142761775424,0.2,419.0714133126395,424.07142761775424,102.6,419.0714133126395,424.07142761775424,206.8,419.0714133126395,424.07142761775424,307.9,420.3214133126395,421.57142761775424,408.4,426.5714133126395,391.57142761775424,513,476.5714133126395,301.57142761775424,613,669.0714133126395,87.82142761775425,713,736.5714133126395,70.32142761775425,818.1,736.5714133126395,70.32142761775425,918.2,736.5714133126395,70.32142761775425,1023.1,736.5714133126395,70.32142761775425,1123.7,736.5714133126395,70.32142761775425,1228.5,626.5714133126395,66.57142761775425,1332.9,-179.6785866873605,276.57142761775424,1432.9,-189.6785866873605,281.57142761775424,1533.1,-189.6785866873605,281.57142761775424,1635.9,-189.6785866873605,281.57142761775424,1739.1,-189.6785866873605,281.57142761775424,1843.6,-189.6785866873605,281.57142761775424,1947.8,-189.6785866873605,281.57142761775424,2048,-189.6785866873605,281.57142761775424,2148.7,-189.6785866873605,281.57142761775424,2258.3,-189.6785866873605,281.57142761775424,2359,-189.6785866873605,281.57142761775424,2463,-189.6785866873605,281.57142761775424,2570.7,-189.6785866873605,281.57142761775424,2671.4,-189.6785866873605,281.57142761775424,2773.4,-189.6785866873605,281.57142761775424,2873.5,-189.6785866873605,281.57142761775424,2977.8,-189.6785866873605,281.57142761775424,3078.8,-189.6785866873605,281.57142761775424,3183.6,-189.6785866873605,281.57142761775424,3283.6,-189.6785866873605,281.57142761775424,3391.5,-189.6785866873605,281.57142761775424,3493.4,-189.6785866873605,281.57142761775424,3599.1,-189.6785866873605,281.57142761775424,3703.1,-189.6785866873605,281.57142761775424,3803.3,-189.6785866873605,281.57142761775424,3908,-189.6785866873605,281.57142761775424,4009,-189.6785866873605,281.57142761775424,4109.8,-189.6785866873605,281.57142761775424,4212.8,-189.6785866873605,281.57142761775424,4313.6,-189.6785866873605,281.57142761775424,4413.7,-189.6785866873605,281.57142761775424,4517.8,-189.6785866873605,281.57142761775424,4617.9,-189.6785866873605,281.57142761775424,4721,-189.6785866873605,281.57142761775424,4821.6,-189.6785866873605,281.57142761775424,4922.9]","[1538.4,1538.4,1000,0,538.4,""smooth"",""up"",""up"",""good_move"",8327.7,6789,2900.3,4869.1,558.3,""smooth"",""up"",""up"",""good_move"",11290.7,2962.6,2314.7,8328.1,647.9,""smooth"",""right"",""right"",""good_move"",14167,2876,2534.7,11291,341.3,""smooth"",""right"",""right"",""good_move""]"
"2439","","<div style=""width:500px;"">
  <p>What determined the result of this run?</p>
  </div>","20","html-slider-response","69","627852","0.0-7.0-1.11","27","1","2025-07-30 08:40:40","36c45c0696341be0efffe67d72a12abb","51.36.170.158","Mozilla/5.0 (Windows NT 10.0; Win64; x64) AppleWebKit/537.36 (KHTML, like Gecko) Chrome/138.0.0.0 Safari/537.36","WebKit","Chrome","138.0.0.0","Windows","10.0","https://app.prolific.com/","en-US,en;q=0.9","65f19a1fe38352676f83d5f0","683dba9a53627eb9ab41b36a","6889da5c09bcb099cce45741","0","65f19a1fe38352676f83d5f0","0","2025-07-30T08:51:07.990Z","","","","AttribQ","","","","","","","","","","","50","","","","","","","","","","","","","","","","","","","","","","","","","","",""
"2309","","<div style=""width:500px;"">
  <p>How much control did you have over the ball?</p>
  </div>","16","html-slider-response","70","630162","0.0-7.0-2.11","27","1","2025-07-30 08:40:40","36c45c0696341be0efffe67d72a12abb","51.36.170.158","Mozilla/5.0 (Windows NT 10.0; Win64; x64) AppleWebKit/537.36 (KHTML, like Gecko) Chrome/138.0.0.0 Safari/537.36","WebKit","Chrome","138.0.0.0","Windows","10.0","https://app.prolific.com/","en-US,en;q=0.9","65f19a1fe38352676f83d5f0","683dba9a53627eb9ab41b36a","6889da5c09bcb099cce45741","0","65f19a1fe38352676f83d5f0","0","2025-07-30T08:51:10.300Z","","","","ControlQ","","","","","","","","","","","50","","","","","","","","","","","","","","","","","","","","","","","","","","",""
"2413","","<div style=""width:500px;"">
  <p>How would you describe your current emotional state?</p>
  </div>","52","html-slider-response","71","632576","0.0-7.0-3.11","27","1","2025-07-30 08:40:40","36c45c0696341be0efffe67d72a12abb","51.36.170.158","Mozilla/5.0 (Windows NT 10.0; Win64; x64) AppleWebKit/537.36 (KHTML, like Gecko) Chrome/138.0.0.0 Safari/537.36","WebKit","Chrome","138.0.0.0","Windows","10.0","https://app.prolific.com/","en-US,en;q=0.9","65f19a1fe38352676f83d5f0","683dba9a53627eb9ab41b36a","6889da5c09bcb099cce45741","0","65f19a1fe38352676f83d5f0","0","2025-07-30T08:51:12.714Z","","","","StressQ","","","","","","","","","","","50","","","","","","","","","","","","","","","","","","","","","","","","","","",""
"2391","","<div style=""width:500px;"">
  <p>What best describes how you currently feel?</p>
  </div>","47","html-slider-response","72","634968","0.0-7.0-4.11","27","1","2025-07-30 08:40:40","36c45c0696341be0efffe67d72a12abb","51.36.170.158","Mozilla/5.0 (Windows NT 10.0; Win64; x64) AppleWebKit/537.36 (KHTML, like Gecko) Chrome/138.0.0.0 Safari/537.36","WebKit","Chrome","138.0.0.0","Windows","10.0","https://app.prolific.com/","en-US,en;q=0.9","65f19a1fe38352676f83d5f0","683dba9a53627eb9ab41b36a","6889da5c09bcb099cce45741","0","65f19a1fe38352676f83d5f0","0","2025-07-30T08:51:15.106Z","","","","MotivationQ","","","","","","","","","","","50","","","","","","","","","","","","","","","","","","","","","","","","","","",""
"","","","","ctl-task-cpt","73","655096","0.0-7.0-0.12","27","1","2025-07-30 08:40:40","36c45c0696341be0efffe67d72a12abb","51.36.170.158","Mozilla/5.0 (Windows NT 10.0; Win64; x64) AppleWebKit/537.36 (KHTML, like Gecko) Chrome/138.0.0.0 Safari/537.36","WebKit","Chrome","138.0.0.0","Windows","10.0","https://app.prolific.com/","en-US,en;q=0.9","65f19a1fe38352676f83d5f0","683dba9a53627eb9ab41b36a","6889da5c09bcb099cce45741","0","65f19a1fe38352676f83d5f0","0","2025-07-30T08:51:35.234Z","","","","","","","","","","","","","","","","win-only","2","g1:SE,g2:NW","0.8","13","0","637233.3","1477.4","6481","17111","1","4","4","6","1","1","1","2","1","0.015151515151515152","921.2","3000","1225","[""down"",""right""]","{""num_key_presses"":4,""num_perfect"":4,""num_errors"":0,""num_randdir"":0,""num_randdir_good_moves"":0,""num_whilered"":0,""num_whileblue"":0,""num_blue"":0,""num_good_moves"":4}","[421.5714133126395,407.82142761775424,0.4,421.5714133126395,407.82142761775424,103,421.5714133126395,407.82142761775424,204.4,421.5714133126395,407.82142761775424,308.3,421.5714133126395,407.82142761775424,408.5,570.3214133126395,536.5714276177542,509.6,796.5714133126395,752.8214276177542,615.5,796.5714133126395,752.8214276177542,719,796.5714133126395,752.8214276177542,823.1,796.5714133126395,752.8214276177542,923.7,796.5714133126395,752.8214276177542,1024,796.5714133126395,752.8214276177542,1128.1,796.5714133126395,752.8214276177542,1236.3,331.5714133126395,589.0714276177542,1339.8,-174.6785866873605,454.07142761775424,1443.1,-210.9285866873605,451.57142761775424,1543.6,-210.9285866873605,451.57142761775424,1644.5,-210.9285866873605,451.57142761775424,1748.4,-210.9285866873605,451.57142761775424,1851.6,-210.9285866873605,451.57142761775424,1954.1,-210.9285866873605,451.57142761775424,2058.2,-210.9285866873605,451.57142761775424,2162.8,-210.9285866873605,451.57142761775424,2262.9,-210.9285866873605,451.57142761775424,2364.6,-210.9285866873605,451.57142761775424,2470.8,-210.9285866873605,451.57142761775424,2573.6,-210.9285866873605,451.57142761775424,2678.6,-210.9285866873605,451.57142761775424,2783.6,-210.9285866873605,451.57142761775424,2884.5,-210.9285866873605,451.57142761775424,2986.9,-210.9285866873605,451.57142761775424,3088.3,-210.9285866873605,451.57142761775424,3188.4,-210.9285866873605,451.57142761775424,3288.5,-210.9285866873605,451.57142761775424,3388.5,-210.9285866873605,451.57142761775424,3488.6,-210.9285866873605,451.57142761775424,3593,-210.9285866873605,451.57142761775424,3695.1,-210.9285866873605,451.57142761775424,3798.4,-210.9285866873605,451.57142761775424,3902.1,-210.9285866873605,451.57142761775424,4003.7,-210.9285866873605,451.57142761775424,4103.7,-210.9285866873605,451.57142761775424,4208.6,-210.9285866873605,451.57142761775424,4308.9,-210.9285866873605,451.57142761775424,4408.9,-210.9285866873605,451.57142761775424,4513,-210.9285866873605,451.57142761775424,4618.5,-210.9285866873605,451.57142761775424,4724,-210.9285866873605,451.57142761775424,4824.2,-210.9285866873605,451.57142761775424,4924.4]","[1487.8,1487.8,1000,0,487.8,""smooth"",""right"",""right"",""good_move"",4094.4,2606.3,2067.7,1488.1,538.6,""smooth"",""right"",""right"",""good_move"",7599.7,3505.2,3099.6,4094.5,405.6,""smooth"",""down"",""down"",""good_move"",10532.6,2932.4,2523.9,7600.2,408.5,""smooth"",""down"",""down"",""good_move""]"
"4101","","<div style=""width:500px;"">
  <p>What determined the result of this run?</p>
  </div>","23","html-slider-response","74","659198","0.0-7.0-1.12","27","1","2025-07-30 08:40:40","36c45c0696341be0efffe67d72a12abb","51.36.170.158","Mozilla/5.0 (Windows NT 10.0; Win64; x64) AppleWebKit/537.36 (KHTML, like Gecko) Chrome/138.0.0.0 Safari/537.36","WebKit","Chrome","138.0.0.0","Windows","10.0","https://app.prolific.com/","en-US,en;q=0.9","65f19a1fe38352676f83d5f0","683dba9a53627eb9ab41b36a","6889da5c09bcb099cce45741","0","65f19a1fe38352676f83d5f0","0","2025-07-30T08:51:39.336Z","","","","AttribQ","","","","","","","","","","","50","","","","","","","","","","","","","","","","","","","","","","","","","","",""
"2742","","<div style=""width:500px;"">
  <p>How much control did you have over the ball?</p>
  </div>","20","html-slider-response","75","661941","0.0-7.0-2.12","27","1","2025-07-30 08:40:40","36c45c0696341be0efffe67d72a12abb","51.36.170.158","Mozilla/5.0 (Windows NT 10.0; Win64; x64) AppleWebKit/537.36 (KHTML, like Gecko) Chrome/138.0.0.0 Safari/537.36","WebKit","Chrome","138.0.0.0","Windows","10.0","https://app.prolific.com/","en-US,en;q=0.9","65f19a1fe38352676f83d5f0","683dba9a53627eb9ab41b36a","6889da5c09bcb099cce45741","0","65f19a1fe38352676f83d5f0","0","2025-07-30T08:51:42.079Z","","","","ControlQ","","","","","","","","","","","50","","","","","","","","","","","","","","","","","","","","","","","","","","",""
"3074","","<div style=""width:500px;"">
  <p>How would you describe your current emotional state?</p>
  </div>","52","html-slider-response","76","665015","0.0-7.0-3.12","27","1","2025-07-30 08:40:40","36c45c0696341be0efffe67d72a12abb","51.36.170.158","Mozilla/5.0 (Windows NT 10.0; Win64; x64) AppleWebKit/537.36 (KHTML, like Gecko) Chrome/138.0.0.0 Safari/537.36","WebKit","Chrome","138.0.0.0","Windows","10.0","https://app.prolific.com/","en-US,en;q=0.9","65f19a1fe38352676f83d5f0","683dba9a53627eb9ab41b36a","6889da5c09bcb099cce45741","0","65f19a1fe38352676f83d5f0","0","2025-07-30T08:51:45.153Z","","","","StressQ","","","","","","","","","","","50","","","","","","","","","","","","","","","","","","","","","","","","","","",""
"1926","","<div style=""width:500px;"">
  <p>What best describes how you currently feel?</p>
  </div>","46","html-slider-response","77","666942","0.0-7.0-4.12","27","1","2025-07-30 08:40:40","36c45c0696341be0efffe67d72a12abb","51.36.170.158","Mozilla/5.0 (Windows NT 10.0; Win64; x64) AppleWebKit/537.36 (KHTML, like Gecko) Chrome/138.0.0.0 Safari/537.36","WebKit","Chrome","138.0.0.0","Windows","10.0","https://app.prolific.com/","en-US,en;q=0.9","65f19a1fe38352676f83d5f0","683dba9a53627eb9ab41b36a","6889da5c09bcb099cce45741","0","65f19a1fe38352676f83d5f0","0","2025-07-30T08:51:47.080Z","","","","MotivationQ","","","","","","","","","","","50","","","","","","","","","","","","","","","","","","","","","","","","","","",""
"","","","","ctl-task-cpt","78","686372","0.0-7.0-0.13","27","1","2025-07-30 08:40:40","36c45c0696341be0efffe67d72a12abb","51.36.170.158","Mozilla/5.0 (Windows NT 10.0; Win64; x64) AppleWebKit/537.36 (KHTML, like Gecko) Chrome/138.0.0.0 Safari/537.36","WebKit","Chrome","138.0.0.0","Windows","10.0","https://app.prolific.com/","en-US,en;q=0.9","65f19a1fe38352676f83d5f0","683dba9a53627eb9ab41b36a","6889da5c09bcb099cce45741","0","65f19a1fe38352676f83d5f0","0","2025-07-30T08:52:06.510Z","","","","","","","","","","","","","","","","win-only","0","g1:NW,g2:SE","0.9","14","0","669207.3","1154.5","6156.4","16405.6","1","4","8","6","1","1","1","3","2","0.022727272727272728","976.1","3000","1395","[""left"",""up""]","{""num_key_presses"":4,""num_perfect"":4,""num_errors"":0,""num_randdir"":0,""num_randdir_good_moves"":0,""num_whilered"":0,""num_whileblue"":0,""num_blue"":0,""num_good_moves"":4}","[419.0714133126395,409.07142761775424,0.2,419.0714133126395,409.07142761775424,101.1,419.0714133126395,409.07142761775424,203.1,419.0714133126395,409.07142761775424,307.9,419.0714133126395,409.07142761775424,411.5,192.8214133126395,240.32142761775424,517.2,12.821413312639507,121.57142761775425,622.4,32.82141331263951,72.82142761775425,726.1,36.57141331263951,66.57142761775425,826.1,36.57141331263951,66.57142761775425,926.2,36.57141331263951,66.57142761775425,1026.2,36.57141331263951,66.57142761775425,1126.2,36.57141331263951,66.57142761775425,1230.7,-8.428586687360493,80.32142761775425,1330.8,-263.4285866873605,224.07142761775424,1431,-263.4285866873605,224.07142761775424,1535.9,-263.4285866873605,224.07142761775424,1641.1,-263.4285866873605,224.07142761775424,1744.5,-263.4285866873605,224.07142761775424,1845.7,-263.4285866873605,224.07142761775424,1946.3,-263.4285866873605,224.07142761775424,2052.1,-263.4285866873605,224.07142761775424,2155.7,-263.4285866873605,224.07142761775424,2256.3,-263.4285866873605,224.07142761775424,2356.5,-263.4285866873605,224.07142761775424,2461.2,-263.4285866873605,224.07142761775424,2568.8,-263.4285866873605,224.07142761775424,2671.9,-263.4285866873605,224.07142761775424,2777.4,-263.4285866873605,224.07142761775424,2878,-263.4285866873605,224.07142761775424,2981.7,-263.4285866873605,224.07142761775424,3091.1,-263.4285866873605,224.07142761775424,3197.5,-263.4285866873605,224.07142761775424,3301,-263.4285866873605,224.07142761775424,3402.3,-263.4285866873605,224.07142761775424,3506.4,-263.4285866873605,224.07142761775424,3610.9,-263.4285866873605,224.07142761775424,3715.9,-263.4285866873605,224.07142761775424,3816.8,-263.4285866873605,224.07142761775424,3920.9,-263.4285866873605,224.07142761775424,4021.7,-263.4285866873605,224.07142761775424,4121.7,-263.4285866873605,224.07142761775424,4225.8,-263.4285866873605,224.07142761775424,4326.4,-263.4285866873605,224.07142761775424,4426.7,-263.4285866873605,224.07142761775424,4535.7,-263.4285866873605,224.07142761775424,4636.2,-263.4285866873605,224.07142761775424,4741.5,-263.4285866873605,224.07142761775424,4850.4,-263.4285866873605,224.07142761775424,4950.9]","[1652.5,1652.5,1000,0,652.5,""smooth"",""up"",""up"",""good_move"",4533.6,2880.8,2459,1652.8,421.8,""smooth"",""up"",""up"",""good_move"",7363.4,2829.6,2474.1,4533.8,355.5,""smooth"",""left"",""left"",""good_move"",10147.9,2784,2465,7363.9,319,""smooth"",""left"",""left"",""good_move""]"
"2631","","<div style=""width:500px;"">
  <p>What determined the result of this run?</p>
  </div>","25","html-slider-response","79","689004","0.0-7.0-1.13","27","1","2025-07-30 08:40:40","36c45c0696341be0efffe67d72a12abb","51.36.170.158","Mozilla/5.0 (Windows NT 10.0; Win64; x64) AppleWebKit/537.36 (KHTML, like Gecko) Chrome/138.0.0.0 Safari/537.36","WebKit","Chrome","138.0.0.0","Windows","10.0","https://app.prolific.com/","en-US,en;q=0.9","65f19a1fe38352676f83d5f0","683dba9a53627eb9ab41b36a","6889da5c09bcb099cce45741","0","65f19a1fe38352676f83d5f0","0","2025-07-30T08:52:09.142Z","","","","AttribQ","","","","","","","","","","","50","","","","","","","","","","","","","","","","","","","","","","","","","","",""
"2490","","<div style=""width:500px;"">
  <p>How much control did you have over the ball?</p>
