"rt","response_timestamp","stimulus","response","trial_type","trial_index","time_elapsed","internal_node_id","run_id","condition","recorded_at","source_code_version","ip","user_agent","device","browser","browser_version","platform","platform_version","referer","accept_language","PROLIFIC_PID","STUDY_ID","SESSION_ID","BATCH","prolific_id","batch","realtime","success","question_order","question_id","eventType","responses","item_order","radio_event_ids","radio_event_times","key_event_times","mouse_event_times","straightlining","zigzagging","honeypot","view_history","slider_start","which_type","canvas_config","goals_layout","control_level","trial_number","tutorial_trial_number","trial_start_time","phase1_start_time","phase2_start_time","phase3_start_time","goal_1_value","goal_1_distance","goal_2_value","goal_2_distance","goal_selected","outcome","outcome_total","participant_final_score","participant_initial_score","participant_final_score_prop","goal_choice_rt","allocated_time","allocated_time_remaining","goal_direction","counts","mouse_movements","key_presses"
"7757","1754478739828","<p style='font-size:40px;line-height:1.25'><strong>Welcome to the experiment!</strong></p><p style='font-size:1.1em;line-height:1.25'>Thank you for participanting in our experiment again! You will be asked to play the Dysfunctional Ball Game again. We will briefly recap the rules before we start.</p><p style='font-size:1.1em;line-height:1.25'>Press <strong>Next</strong> to continue.</p>","0","custom-html-button-response","0","7761","0.0-0.0","184","1","2025-08-06 11:12:09","36c45c0696341be0efffe67d72a12abb","102.216.154.101","Mozilla/5.0 (Windows NT 10.0; Win64; x64) AppleWebKit/537.36 (KHTML, like Gecko) Chrome/138.0.0.0 Safari/537.36","WebKit","Chrome","138.0.0.0","Windows","10.0","https://app.prolific.com/","en-US,en;q=0.9","65faedca7e439b344f133fdb","687a1a965b9f5b85a264363e","689338771ce8d14a3032b180","1","65faedca7e439b344f133fdb","1","2025-08-06T11:12:19.831Z","","","","","","","","","","","","","","","","","","","","","","","","","","","","","","","","","","","","","","","","","",""
"15335","","","","fullscreen","1","24117","0.0-1.0","184","1","2025-08-06 11:12:09","36c45c0696341be0efffe67d72a12abb","102.216.154.101","Mozilla/5.0 (Windows NT 10.0; Win64; x64) AppleWebKit/537.36 (KHTML, like Gecko) Chrome/138.0.0.0 Safari/537.36","WebKit","Chrome","138.0.0.0","Windows","10.0","https://app.prolific.com/","en-US,en;q=0.9","65faedca7e439b344f133fdb","687a1a965b9f5b85a264363e","689338771ce8d14a3032b180","1","65faedca7e439b344f133fdb","1","","true","","","","","","","","","","","","","","","","","","","","","","","","","","","","","","","","","","","","","","","","",""
"5949","1754478762137"," <p style='font-size:1.1em;line-height:1.25'>Thank you for closing all other tabs.</p><p style='font-size:1.1em;line-height:1.25'>We will now invite you to fill in some questionnaires, before starting the game.<br>This will take about 5 minutes.<br></p><p style='font-size:1.1em;line-height:1.25'>Press the <strong>Next</strong> button to continue.</p>","0","custom-html-button-response","2","30069","0.0-2.0","184","1","2025-08-06 11:12:09","36c45c0696341be0efffe67d72a12abb","102.216.154.101","Mozilla/5.0 (Windows NT 10.0; Win64; x64) AppleWebKit/537.36 (KHTML, like Gecko) Chrome/138.0.0.0 Safari/537.36","WebKit","Chrome","138.0.0.0","Windows","10.0","https://app.prolific.com/","en-US,en;q=0.9","65faedca7e439b344f133fdb","687a1a965b9f5b85a264363e","689338771ce8d14a3032b180","1","65faedca7e439b344f133fdb","1","2025-08-06T11:12:42.138Z","","","","","","","","","","","","","","","","","","","","","","","","","","","","","","","","","","","","","","","","","",""
"5000","","","{""assigned_sex"":""female""}","survey-multi-choice","3","35071","0.0-3.0-0.0","184","1","2025-08-06 11:12:09","36c45c0696341be0efffe67d72a12abb","102.216.154.101","Mozilla/5.0 (Windows NT 10.0; Win64; x64) AppleWebKit/537.36 (KHTML, like Gecko) Chrome/138.0.0.0 Safari/537.36","WebKit","Chrome","138.0.0.0","Windows","10.0","https://app.prolific.com/","en-US,en;q=0.9","65faedca7e439b344f133fdb","687a1a965b9f5b85a264363e","689338771ce8d14a3032b180","1","65faedca7e439b344f133fdb","1","","","[0]","0","demographics","","","","","","","","","","","","","","","","","","","","","","","","","","","","","","","","","","","","","",""
"7165","1754478774305","<p style='font-size:1.1em;line-height:1.25'>In the following, we will perform a baseline assessment. This means that we will ask you a few questions relating to your experiences over the past month.<br></p><p style='font-size:1.1em;line-height:1.25'>Press the <strong>Next</strong> button to continue.</p>","0","custom-html-button-response","4","42237","0.0-4.0-0.0","184","1","2025-08-06 11:12:09","36c45c0696341be0efffe67d72a12abb","102.216.154.101","Mozilla/5.0 (Windows NT 10.0; Win64; x64) AppleWebKit/537.36 (KHTML, like Gecko) Chrome/138.0.0.0 Safari/537.36","WebKit","Chrome","138.0.0.0","Windows","10.0","https://app.prolific.com/","en-US,en;q=0.9","65faedca7e439b344f133fdb","687a1a965b9f5b85a264363e","689338771ce8d14a3032b180","1","65faedca7e439b344f133fdb","1","2025-08-06T11:12:54.306Z","","","","","","","","","","","","","","","","","","","","","","","","","","","","","","","","","","","","","","","","","",""
"89728.90000000037","","","","survey-template","5","131969","0.0-4.0-1.0","184","1","2025-08-06 11:12:09","36c45c0696341be0efffe67d72a12abb","102.216.154.101","Mozilla/5.0 (Windows NT 10.0; Win64; x64) AppleWebKit/537.36 (KHTML, like Gecko) Chrome/138.0.0.0 Safari/537.36","WebKit","Chrome","138.0.0.0","Windows","10.0","https://app.prolific.com/","en-US,en;q=0.9","65faedca7e439b344f133fdb","687a1a965b9f5b85a264363e","689338771ce8d14a3032b180","1","65faedca7e439b344f133fdb","1","2025-08-06T11:14:24.038Z","","","","pss","{""Q01"":""2"",""Q02"":""4"",""Q03"":""3"",""Q04"":""1"",""Q05"":""1"",""Q06"":""2"",""Q07"":""1"",""Q08"":""2"",""Q09"":""4"",""Q10"":""2""}","[0,1,2,3,4,5,6,7,8,9]","[""Q01"",""Q02"",""Q03"",""Q05"",""Q06"",""Q07"",""Q08"",""Q09"",""Q10"",""Q04""]","[12573.200000000186,22540.700000000186,26357.599999999627,31134.299999999814,36526.700000000186,40253.40000000037,44365.200000000186,64397.200000000186,77405.09999999963,87285.20000000019]","[]","[0.09999999962747097,12573.200000000186,22540.700000000186,26357.599999999627,31134.299999999814,36526.700000000186,40253.40000000037,44365.200000000186,64397.200000000186,77405.09999999963,78749.29999999981,80189.09999999963,87285.20000000019,89725]","0.4","0.4444444444444444","0","","","","","","","","","","","","","","","","","","","","","","","","","","","","",""
"144834","1754479008873","<p style='font-size:1.1em;line-height:1.25'>Thank you for your answers! Now we will ask you a few more questions relating to your feelings in the last 24 hours.<br></p><p style='font-size:1.1em;line-height:1.25'>Press the <strong>Next</strong> button to continue.</p>","0","custom-html-button-response","6","276804","0.0-4.0-2.0","184","1","2025-08-06 11:12:09","36c45c0696341be0efffe67d72a12abb","102.216.154.101","Mozilla/5.0 (Windows NT 10.0; Win64; x64) AppleWebKit/537.36 (KHTML, like Gecko) Chrome/138.0.0.0 Safari/537.36","WebKit","Chrome","138.0.0.0","Windows","10.0","https://app.prolific.com/","en-US,en;q=0.9","65faedca7e439b344f133fdb","687a1a965b9f5b85a264363e","689338771ce8d14a3032b180","1","65faedca7e439b344f133fdb","1","2025-08-06T11:16:48.874Z","","","","","","","","","","","","","","","","","","","","","","","","","","","","","","","","","","","","","","","","","",""
"106858","","","","survey-template","7","383667","0.0-4.0-3.0","184","1","2025-08-06 11:12:09","36c45c0696341be0efffe67d72a12abb","102.216.154.101","Mozilla/5.0 (Windows NT 10.0; Win64; x64) AppleWebKit/537.36 (KHTML, like Gecko) Chrome/138.0.0.0 Safari/537.36","WebKit","Chrome","138.0.0.0","Windows","10.0","https://app.prolific.com/","en-US,en;q=0.9","65faedca7e439b344f133fdb","687a1a965b9f5b85a264363e","689338771ce8d14a3032b180","1","65faedca7e439b344f133fdb","1","2025-08-06T11:18:35.736Z","","","","drsp","{""Q01"":""3"",""Q02"":""3"",""Q03"":""0"",""Q04"":""5"",""Q05"":""1"",""Q06"":""0"",""Q07"":""4"",""Q08"":""0"",""Q09"":""1"",""Q10"":""0"",""Q11"":""1"",""Q12"":""4"",""Q13"":""5"",""Q14"":""3"",""Q15"":""0"",""Q16"":""1"",""Q17"":""4"",""Q18"":""1"",""Q19"":""0"",""Q20"":""1"",""Q21"":""1"",""Q22"":""1""}","[0,1,2,3,4,5,6,7,8,9,10,11,12,13,14,15,16,17,18,19,20,21]","[""Q01"",""Q02"",""Q03"",""Q04"",""Q06"",""Q07"",""Q08"",""Q09"",""Q10"",""Q11"",""Q12"",""Q13"",""Q14"",""Q15"",""Q16"",""Q17"",""Q18"",""Q19"",""Q20"",""Q21"",""Q22"",""Q05""]","[3260.899999999441,5772.700000000186,10556.799999999814,12780.799999999814,18772.799999999814,21548.89999999944,24501,29381.099999999627,49828.59999999963,51716.59999999963,54205.5,57148.39999999944,60084.700000000186,62364.59999999963,66476.5,68956.70000000019,70956.29999999981,74349,79996.59999999963,90044.59999999963,95188.39999999944,103868.59999999963]","[]","[0,3260.899999999441,5772.700000000186,10556.799999999814,12780.799999999814,16428.89999999944,18772.799999999814,21548.89999999944,24501,29381.099999999627,49828.59999999963,51716.59999999963,54205.5,57148.39999999944,60084.700000000186,62364.59999999963,66476.5,68956.70000000019,70956.29999999981,74349,78300.79999999981,79348.39999999944,79996.59999999963,90044.59999999963,95188.39999999944,96652.70000000019,102212.70000000019,103868.59999999963,106852.59999999963]","0.36363636363636365","0.42857142857142855","0","","","","","","","","","","","","","","","","","","","","","","","","","","","","",""
"14200.400000000373","","","","survey-template","8","397869","0.0-4.0-4.0","184","1","2025-08-06 11:12:09","36c45c0696341be0efffe67d72a12abb","102.216.154.101","Mozilla/5.0 (Windows NT 10.0; Win64; x64) AppleWebKit/537.36 (KHTML, like Gecko) Chrome/138.0.0.0 Safari/537.36","WebKit","Chrome","138.0.0.0","Windows","10.0","https://app.prolific.com/","en-US,en;q=0.9","65faedca7e439b344f133fdb","687a1a965b9f5b85a264363e","689338771ce8d14a3032b180","1","65faedca7e439b344f133fdb","1","2025-08-06T11:18:49.938Z","","","","stress","{""Q01"":""1"",""Q02"":""3"",""Q03"":""1""}","[0,1,2]","[""Q01"",""Q02"",""Q03""]","[4575.199999999255,8415.099999999627,13063.299999998882]","[]","[4575.199999999255,8415.099999999627,13063.299999998882,14199.199999999255]","0.6666666666666666","1","0","","","","","","","","","","","","","","","","","","","","","","","","","","","","",""
"17270","","","","instructions","9","415140","0.0-5.0-0.0","184","1","2025-08-06 11:12:09","36c45c0696341be0efffe67d72a12abb","102.216.154.101","Mozilla/5.0 (Windows NT 10.0; Win64; x64) AppleWebKit/537.36 (KHTML, like Gecko) Chrome/138.0.0.0 Safari/537.36","WebKit","Chrome","138.0.0.0","Windows","10.0","https://app.prolific.com/","en-US,en;q=0.9","65faedca7e439b344f133fdb","687a1a965b9f5b85a264363e","689338771ce8d14a3032b180","1","65faedca7e439b344f133fdb","1","","","","","","","","","","","","","","","[{""page_index"":0,""viewing_time"":17270}]","","","","","","","","","","","","","","","","","","","","","","","","","","","",""
"10542","","<p>Before you start with this game please answer the following three questions yourself. </p>
  <p>Through this game, we measure several aspects of your cognitive performance, such as reaction times, multi-tasking capabilities </p>
  <p>and the ability to assess the situation you are in.</p>
  <p></p>
  <p><b>How good do you usually are in such tasks?</b></p>","72","html-slider-response","10","425684","0.0-6.0-0.0","184","1","2025-08-06 11:12:09","36c45c0696341be0efffe67d72a12abb","102.216.154.101","Mozilla/5.0 (Windows NT 10.0; Win64; x64) AppleWebKit/537.36 (KHTML, like Gecko) Chrome/138.0.0.0 Safari/537.36","WebKit","Chrome","138.0.0.0","Windows","10.0","https://app.prolific.com/","en-US,en;q=0.9","65faedca7e439b344f133fdb","687a1a965b9f5b85a264363e","689338771ce8d14a3032b180","1","65faedca7e439b344f133fdb","1","2025-08-06T11:19:17.753Z","","","","PreSkillQ","","","","","","","","","","","50","","","","","","","","","","","","","","","","","","","","","","","","","","",""
"6214","","<div style=""width:500px;"">
  <p>How well do you think you will perform in this task compared to other participants?</p>
  </div>","75","html-slider-response","11","431900","0.0-6.0-1.0","184","1","2025-08-06 11:12:09","36c45c0696341be0efffe67d72a12abb","102.216.154.101","Mozilla/5.0 (Windows NT 10.0; Win64; x64) AppleWebKit/537.36 (KHTML, like Gecko) Chrome/138.0.0.0 Safari/537.36","WebKit","Chrome","138.0.0.0","Windows","10.0","https://app.prolific.com/","en-US,en;q=0.9","65faedca7e439b344f133fdb","687a1a965b9f5b85a264363e","689338771ce8d14a3032b180","1","65faedca7e439b344f133fdb","1","2025-08-06T11:19:23.969Z","","","","PrePerfQ","","","","","","","","","","","50","","","","","","","","","","","","","","","","","","","","","","","","","","",""
"7063","","<div style=""width:500px;"">
  <p>What best describes how you currently feel?</p>
  </div>","31","html-slider-response","12","438964","0.0-6.0-2.0","184","1","2025-08-06 11:12:09","36c45c0696341be0efffe67d72a12abb","102.216.154.101","Mozilla/5.0 (Windows NT 10.0; Win64; x64) AppleWebKit/537.36 (KHTML, like Gecko) Chrome/138.0.0.0 Safari/537.36","WebKit","Chrome","138.0.0.0","Windows","10.0","https://app.prolific.com/","en-US,en;q=0.9","65faedca7e439b344f133fdb","687a1a965b9f5b85a264363e","689338771ce8d14a3032b180","1","65faedca7e439b344f133fdb","1","2025-08-06T11:19:31.033Z","","","","PreMotivationQ","","","","","","","","","","","50","","","","","","","","","","","","","","","","","","","","","","","","","","",""
"","","","","ctl-task-cpt","13","478668","0.0-7.0-0.0","184","1","2025-08-06 11:12:09","36c45c0696341be0efffe67d72a12abb","102.216.154.101","Mozilla/5.0 (Windows NT 10.0; Win64; x64) AppleWebKit/537.36 (KHTML, like Gecko) Chrome/138.0.0.0 Safari/537.36","WebKit","Chrome","138.0.0.0","Windows","10.0","https://app.prolific.com/","en-US,en;q=0.9","65faedca7e439b344f133fdb","687a1a965b9f5b85a264363e","689338771ce8d14a3032b180","1","65faedca7e439b344f133fdb","1","2025-08-06T11:20:10.737Z","","","","","","","","","","","","","","","","win-only","3","g1:SW,g2:NE","1","1","0","442409.9","8585.9","13593.2","36690.5","1","4","8","6","2","-8","-9","0","0","0","5007.1","3000","-1725","[""up"",""right""]","{""num_key_presses"":5,""num_perfect"":4,""num_errors"":1,""num_randdir"":0,""num_randdir_good_moves"":0,""num_whilered"":0,""num_whileblue"":0,""num_blue"":1,""num_good_moves"":0}","[294.22232142857143,294.12857142857143,0.9,294.22232142857143,294.12857142857143,108.5,294.22232142857143,294.12857142857143,213.2,294.22232142857143,294.12857142857143,321.6,294.22232142857143,294.12857142857143,430.1,294.22232142857143,294.12857142857143,534.5,294.22232142857143,294.12857142857143,636.7,294.22232142857143,297.12857142857143,737.8,295.22232142857143,297.12857142857143,846,296.22232142857143,297.12857142857143,947.9,303.22232142857143,314.12857142857143,1054.9,318.22232142857143,353.12857142857143,1158.6,328.22232142857143,438.12857142857143,1263.3,330.22232142857143,447.12857142857143,1365.3,330.22232142857143,447.12857142857143,1466.7,330.22232142857143,447.12857142857143,1567.3,330.22232142857143,447.12857142857143,1667.6,330.22232142857143,447.12857142857143,1777,330.22232142857143,447.12857142857143,1877.4,330.22232142857143,447.12857142857143,1986.2,330.22232142857143,447.12857142857143,2087.6,330.22232142857143,447.12857142857143,2197.9,330.22232142857143,447.12857142857143,2303.6,330.22232142857143,447.12857142857143,2406.9,330.22232142857143,447.12857142857143,2508.7,330.22232142857143,447.12857142857143,2615.6,330.22232142857143,447.12857142857143,2716.8,330.22232142857143,447.12857142857143,2816.8,330.22232142857143,447.12857142857143,2917.2,330.22232142857143,447.12857142857143,3028.7,330.22232142857143,447.12857142857143,3136,330.22232142857143,447.12857142857143,3237.1,330.22232142857143,447.12857142857143,3344.2,330.22232142857143,447.12857142857143,3448,330.22232142857143,447.12857142857143,3558.4,330.22232142857143,447.12857142857143,3668.2,330.22232142857143,447.12857142857143,3778.5,330.22232142857143,447.12857142857143,3886.2,330.22232142857143,447.12857142857143,3989.5,330.22232142857143,447.12857142857143,4094.2,330.22232142857143,447.12857142857143,4198.4,330.22232142857143,447.12857142857143,4303.5,330.22232142857143,447.12857142857143,4406.7,330.22232142857143,447.12857142857143,4508,330.22232142857143,447.12857142857143,4608.2,330.22232142857143,447.12857142857143,4708.2,330.22232142857143,447.12857142857143,4816.9,330.22232142857143,447.12857142857143,4917.8]","[1394.3,1394.3,1000,0,394.3,""smooth"",""left"",""left"",""bad_move"",3738.2,2343.2,2578.6,1395,-235.4,""error"",""-"",""-"",""no_move"",10945.7,7206.8,2710.6,7700.2,534.9,""smooth"",""down"",""down"",""bad_move"",14284.1,3337.2,2901.7,10946.9,435.5,""smooth"",""down"",""down"",""bad_move"",17393.8,3108.8,2402.1,14285,706.7,""smooth"",""left"",""left"",""bad_move""]"
"6934","","<div style=""width:500px;"">
  <p>What determined the result of this run?</p>
  </div>","100","html-slider-response","14","485604","0.0-7.0-1.0","184","1","2025-08-06 11:12:09","36c45c0696341be0efffe67d72a12abb","102.216.154.101","Mozilla/5.0 (Windows NT 10.0; Win64; x64) AppleWebKit/537.36 (KHTML, like Gecko) Chrome/138.0.0.0 Safari/537.36","WebKit","Chrome","138.0.0.0","Windows","10.0","https://app.prolific.com/","en-US,en;q=0.9","65faedca7e439b344f133fdb","687a1a965b9f5b85a264363e","689338771ce8d14a3032b180","1","65faedca7e439b344f133fdb","1","2025-08-06T11:20:17.673Z","","","","AttribQ","","","","","","","","","","","50","","","","","","","","","","","","","","","","","","","","","","","","","","",""
"4375","","<div style=""width:500px;"">
  <p>How much control did you have over the ball?</p>
  </div>","1","html-slider-response","15","489980","0.0-7.0-2.0","184","1","2025-08-06 11:12:09","36c45c0696341be0efffe67d72a12abb","102.216.154.101","Mozilla/5.0 (Windows NT 10.0; Win64; x64) AppleWebKit/537.36 (KHTML, like Gecko) Chrome/138.0.0.0 Safari/537.36","WebKit","Chrome","138.0.0.0","Windows","10.0","https://app.prolific.com/","en-US,en;q=0.9","65faedca7e439b344f133fdb","687a1a965b9f5b85a264363e","689338771ce8d14a3032b180","1","65faedca7e439b344f133fdb","1","2025-08-06T11:20:22.049Z","","","","ControlQ","","","","","","","","","","","50","","","","","","","","","","","","","","","","","","","","","","","","","","",""
"5543","","<div style=""width:500px;"">
  <p>How would you describe your current emotional state?</p>
  </div>","93","html-slider-response","16","495524","0.0-7.0-3.0","184","1","2025-08-06 11:12:09","36c45c0696341be0efffe67d72a12abb","102.216.154.101","Mozilla/5.0 (Windows NT 10.0; Win64; x64) AppleWebKit/537.36 (KHTML, like Gecko) Chrome/138.0.0.0 Safari/537.36","WebKit","Chrome","138.0.0.0","Windows","10.0","https://app.prolific.com/","en-US,en;q=0.9","65faedca7e439b344f133fdb","687a1a965b9f5b85a264363e","689338771ce8d14a3032b180","1","65faedca7e439b344f133fdb","1","2025-08-06T11:20:27.593Z","","","","StressQ","","","","","","","","","","","50","","","","","","","","","","","","","","","","","","","","","","","","","","",""
"6766","","<div style=""width:500px;"">
  <p>What best describes how you currently feel?</p>
  </div>","100","html-slider-response","17","502292","0.0-7.0-4.0","184","1","2025-08-06 11:12:09","36c45c0696341be0efffe67d72a12abb","102.216.154.101","Mozilla/5.0 (Windows NT 10.0; Win64; x64) AppleWebKit/537.36 (KHTML, like Gecko) Chrome/138.0.0.0 Safari/537.36","WebKit","Chrome","138.0.0.0","Windows","10.0","https://app.prolific.com/","en-US,en;q=0.9","65faedca7e439b344f133fdb","687a1a965b9f5b85a264363e","689338771ce8d14a3032b180","1","65faedca7e439b344f133fdb","1","2025-08-06T11:20:34.361Z","","","","MotivationQ","","","","","","","","","","","50","","","","","","","","","","","","","","","","","","","","","","","","","","",""
"","","","","ctl-task-cpt","18","532905","0.0-7.0-0.1","184","1","2025-08-06 11:12:09","36c45c0696341be0efffe67d72a12abb","102.216.154.101","Mozilla/5.0 (Windows NT 10.0; Win64; x64) AppleWebKit/537.36 (KHTML, like Gecko) Chrome/138.0.0.0 Safari/537.36","WebKit","Chrome","138.0.0.0","Windows","10.0","https://app.prolific.com/","en-US,en;q=0.9","65faedca7e439b344f133fdb","687a1a965b9f5b85a264363e","689338771ce8d14a3032b180","1","65faedca7e439b344f133fdb","1","2025-08-06T11:21:04.975Z","","","","","","","","","","","","","","","","win-only","1","g1:NE,g2:SW","0.9","2","0","505737.9","5151.7","10153.4","27607.7","1","4","4","6","1","1","1","1","0","0.007575757575757576","1219.1","3000","1770","[""up"",""right""]","{""num_key_presses"":4,""num_perfect"":3,""num_errors"":0,""num_randdir"":1,""num_randdir_good_moves"":1,""num_whilered"":0,""num_whileblue"":0,""num_blue"":2,""num_good_moves"":4}","[303.22232142857143,296.12857142857143,0.7,303.22232142857143,296.12857142857143,101.8,303.22232142857143,296.12857142857143,211,303.22232142857143,296.12857142857143,311.8,303.22232142857143,296.12857142857143,421.3,300.22232142857143,296.12857142857143,524.7,299.22232142857143,295.12857142857143,630.8,311.22232142857143,278.12857142857143,733.6,425.22232142857143,177.12857142857143,837.5,479.22232142857143,106.12857142857143,942.2,534.2223214285714,54.128571428571426,1050.4,547.2223214285714,44.128571428571426,1160.4,548.2223214285714,43.128571428571426,1268.4,548.2223214285714,43.128571428571426,1371.2,548.2223214285714,42.128571428571426,1480.5,548.2223214285714,42.128571428571426,1581.5,547.2223214285714,42.128571428571426,1693.3,541.2223214285714,50.128571428571426,1802.1,539.2223214285714,63.128571428571426,1910.7,541.2223214285714,166.12857142857143,2012.6,586.2223214285714,505.12857142857143,2114.3,628.2223214285714,683.1285714285714,2215.2,628.2223214285714,683.1285714285714,2315.9,628.2223214285714,683.1285714285714,2419,628.2223214285714,683.1285714285714,2526.8,628.2223214285714,683.1285714285714,2628.8,628.2223214285714,683.1285714285714,2730.7,628.2223214285714,683.1285714285714,2831,628.2223214285714,683.1285714285714,2931.1,628.2223214285714,683.1285714285714,3040.9,628.2223214285714,683.1285714285714,3141.6,628.2223214285714,683.1285714285714,3251,628.2223214285714,683.1285714285714,3359,628.2223214285714,683.1285714285714,3460.5,628.2223214285714,683.1285714285714,3560.5,628.2223214285714,683.1285714285714,3660.8,628.2223214285714,683.1285714285714,3770.1,628.2223214285714,683.1285714285714,3870.2,628.2223214285714,683.1285714285714,3970.9,628.2223214285714,683.1285714285714,4071.1,628.2223214285714,683.1285714285714,4171.7,628.2223214285714,683.1285714285714,4274.9,628.2223214285714,683.1285714285714,4378.2,628.2223214285714,683.1285714285714,4481,628.2223214285714,683.1285714285714,4588.2,628.2223214285714,683.1285714285714,4690.2,628.2223214285714,683.1285714285714,4791.1,628.2223214285714,683.1285714285714,4891.2,628.2223214285714,683.1285714285714,4991.4]","[1542.5,1542.4,1000,0.1,542.4,""smooth"",""up"",""up"",""good_move"",4046.1,2502.4,2093.5,1543.7,408.9,""smooth"",""up"",""up"",""good_move"",14189.3,10142.6,3048.6,10680.7,460,""oops"",""right"",""right"",""good_move"",17320.5,3129.9,2570.2,14190.6,559.7,""smooth"",""right"",""right"",""good_move""]"
"13693","","<div style=""width:500px;"">
  <p>What determined the result of this run?</p>
  </div>","92","html-slider-response","19","546600","0.0-7.0-1.1","184","1","2025-08-06 11:12:09","36c45c0696341be0efffe67d72a12abb","102.216.154.101","Mozilla/5.0 (Windows NT 10.0; Win64; x64) AppleWebKit/537.36 (KHTML, like Gecko) Chrome/138.0.0.0 Safari/537.36","WebKit","Chrome","138.0.0.0","Windows","10.0","https://app.prolific.com/","en-US,en;q=0.9","65faedca7e439b344f133fdb","687a1a965b9f5b85a264363e","689338771ce8d14a3032b180","1","65faedca7e439b344f133fdb","1","2025-08-06T11:21:18.669Z","","","","AttribQ","","","","","","","","","","","50","","","","","","","","","","","","","","","","","","","","","","","","","","",""
"9728","","<div style=""width:500px;"">
  <p>How much control did you have over the ball?</p>
  </div>","26","html-slider-response","20","556330","0.0-7.0-2.1","184","1","2025-08-06 11:12:09","36c45c0696341be0efffe67d72a12abb","102.216.154.101","Mozilla/5.0 (Windows NT 10.0; Win64; x64) AppleWebKit/537.36 (KHTML, like Gecko) Chrome/138.0.0.0 Safari/537.36","WebKit","Chrome","138.0.0.0","Windows","10.0","https://app.prolific.com/","en-US,en;q=0.9","65faedca7e439b344f133fdb","687a1a965b9f5b85a264363e","689338771ce8d14a3032b180","1","65faedca7e439b344f133fdb","1","2025-08-06T11:21:28.399Z","","","","ControlQ","","","","","","","","","","","50","","","","","","","","","","","","","","","","","","","","","","","","","","",""
"4260","","<div style=""width:500px;"">
  <p>How would you describe your current emotional state?</p>
  </div>","77","html-slider-response","21","560592","0.0-7.0-3.1","184","1","2025-08-06 11:12:09","36c45c0696341be0efffe67d72a12abb","102.216.154.101","Mozilla/5.0 (Windows NT 10.0; Win64; x64) AppleWebKit/537.36 (KHTML, like Gecko) Chrome/138.0.0.0 Safari/537.36","WebKit","Chrome","138.0.0.0","Windows","10.0","https://app.prolific.com/","en-US,en;q=0.9","65faedca7e439b344f133fdb","687a1a965b9f5b85a264363e","689338771ce8d14a3032b180","1","65faedca7e439b344f133fdb","1","2025-08-06T11:21:32.661Z","","","","StressQ","","","","","","","","","","","50","","","","","","","","","","","","","","","","","","","","","","","","","","",""
"10126","","<div style=""width:500px;"">
  <p>What best describes how you currently feel?</p>
  </div>","16","html-slider-response","22","570720","0.0-7.0-4.1","184","1","2025-08-06 11:12:09","36c45c0696341be0efffe67d72a12abb","102.216.154.101","Mozilla/5.0 (Windows NT 10.0; Win64; x64) AppleWebKit/537.36 (KHTML, like Gecko) Chrome/138.0.0.0 Safari/537.36","WebKit","Chrome","138.0.0.0","Windows","10.0","https://app.prolific.com/","en-US,en;q=0.9","65faedca7e439b344f133fdb","687a1a965b9f5b85a264363e","689338771ce8d14a3032b180","1","65faedca7e439b344f133fdb","1","2025-08-06T11:21:42.789Z","","","","MotivationQ","","","","","","","","","","","50","","","","","","","","","","","","","","","","","","","","","","","","","","",""
"","","","","ctl-task-cpt","23","593233","0.0-7.0-0.2","184","1","2025-08-06 11:12:09","36c45c0696341be0efffe67d72a12abb","102.216.154.101","Mozilla/5.0 (Windows NT 10.0; Win64; x64) AppleWebKit/537.36 (KHTML, like Gecko) Chrome/138.0.0.0 Safari/537.36","WebKit","Chrome","138.0.0.0","Windows","10.0","https://app.prolific.com/","en-US,en;q=0.9","65faedca7e439b344f133fdb","687a1a965b9f5b85a264363e","689338771ce8d14a3032b180","1","65faedca7e439b344f133fdb","1","2025-08-06T11:22:05.302Z","","","","","","","","","","","","","","","","win-only","0","g1:NW,g2:SE","0.8","3","0","574166","3225.6","8231.5","19501.5","1","4","8","6","1","1","1","2","1","0.015151515151515152","2546.4","3000","1780","[""left"",""up""]","{""num_key_presses"":4,""num_perfect"":3,""num_errors"":0,""num_randdir"":1,""num_randdir_good_moves"":1,""num_whilered"":0,""num_whileblue"":0,""num_blue"":0,""num_good_moves"":4}","[294.22232142857143,297.12857142857143,0.5,294.22232142857143,297.12857142857143,105.6,294.22232142857143,297.12857142857143,211.1,294.22232142857143,297.12857142857143,311.6,294.22232142857143,297.12857142857143,422.6,294.22232142857143,297.12857142857143,525.2,294.22232142857143,297.12857142857143,628.2,294.22232142857143,297.12857142857143,735.9,294.22232142857143,297.12857142857143,838.5,294.22232142857143,297.12857142857143,944.7,294.22232142857143,297.12857142857143,1045.6,294.22232142857143,297.12857142857143,1146.5,294.22232142857143,297.12857142857143,1255,294.22232142857143,297.12857142857143,1356.1,294.22232142857143,297.12857142857143,1464.8,294.22232142857143,297.12857142857143,1565,294.22232142857143,297.12857142857143,1665.1,248.22232142857143,279.12857142857143,1772.1,8.222321428571426,70.12857142857143,1878.8,13.222321428571426,37.128571428571426,1979.2,13.222321428571426,37.128571428571426,2085,13.222321428571426,37.128571428571426,2195.5,13.222321428571426,37.128571428571426,2295.6,13.222321428571426,37.128571428571426,2417.5,13.222321428571426,37.128571428571426,2520.8,13.222321428571426,37.128571428571426,2624.5,13.222321428571426,37.128571428571426,2727.9,13.222321428571426,37.128571428571426,2835.6,13.222321428571426,37.128571428571426,2938.7,13.222321428571426,37.128571428571426,3043.8,13.222321428571426,37.128571428571426,3144.6,13.222321428571426,37.128571428571426,3254,13.222321428571426,37.128571428571426,3354,13.222321428571426,37.128571428571426,3454.8,13.222321428571426,37.128571428571426,3555.4,13.222321428571426,37.128571428571426,3657.2,13.222321428571426,37.128571428571426,3763.1,13.222321428571426,37.128571428571426,3865.9,13.222321428571426,37.128571428571426,3972,13.222321428571426,37.128571428571426,4082,27.222321428571426,40.128571428571426,4187.9,38.222321428571426,45.128571428571426,4294.9,59.222321428571426,53.128571428571426,4395.7,112.22232142857143,71.12857142857143,4496.5,167.22232142857143,88.12857142857143,4607.4,183.22232142857143,94.12857142857143,4708.1,183.22232142857143,94.12857142857143,4814.3,183.22232142857143,94.12857142857143,4917.2]","[1830.2,1830.2,1000,0,830.2,""smooth"",""up"",""up"",""good_move"",5226.7,3396.1,2954.8,1830.6,441.3,""smooth"",""left"",""left"",""good_move"",8409.7,3181.5,2753,5228.3,428.5,""oops"",""up"",""left"",""good_move"",11140.4,2729.3,2301.5,8411.2,427.7,""smooth"",""up"",""up"",""good_move""]"
"7256","","<div style=""width:500px;"">
  <p>What determined the result of this run?</p>
  </div>","67","html-slider-response","24","600492","0.0-7.0-1.2","184","1","2025-08-06 11:12:09","36c45c0696341be0efffe67d72a12abb","102.216.154.101","Mozilla/5.0 (Windows NT 10.0; Win64; x64) AppleWebKit/537.36 (KHTML, like Gecko) Chrome/138.0.0.0 Safari/537.36","WebKit","Chrome","138.0.0.0","Windows","10.0","https://app.prolific.com/","en-US,en;q=0.9","65faedca7e439b344f133fdb","687a1a965b9f5b85a264363e","689338771ce8d14a3032b180","1","65faedca7e439b344f133fdb","1","2025-08-06T11:22:12.561Z","","","","AttribQ","","","","","","","","","","","50","","","","","","","","","","","","","","","","","","","","","","","","","","",""
"4607","","<div style=""width:500px;"">
  <p>How much control did you have over the ball?</p>
  </div>","23","html-slider-response","25","605100","0.0-7.0-2.2","184","1","2025-08-06 11:12:09","36c45c0696341be0efffe67d72a12abb","102.216.154.101","Mozilla/5.0 (Windows NT 10.0; Win64; x64) AppleWebKit/537.36 (KHTML, like Gecko) Chrome/138.0.0.0 Safari/537.36","WebKit","Chrome","138.0.0.0","Windows","10.0","https://app.prolific.com/","en-US,en;q=0.9","65faedca7e439b344f133fdb","687a1a965b9f5b85a264363e","689338771ce8d14a3032b180","1","65faedca7e439b344f133fdb","1","2025-08-06T11:22:17.169Z","","","","ControlQ","","","","","","","","","","","50","","","","","","","","","","","","","","","","","","","","","","","","","","",""
"5169","","<div style=""width:500px;"">
  <p>How would you describe your current emotional state?</p>
  </div>","69","html-slider-response","26","610270","0.0-7.0-3.2","184","1","2025-08-06 11:12:09","36c45c0696341be0efffe67d72a12abb","102.216.154.101","Mozilla/5.0 (Windows NT 10.0; Win64; x64) AppleWebKit/537.36 (KHTML, like Gecko) Chrome/138.0.0.0 Safari/537.36","WebKit","Chrome","138.0.0.0","Windows","10.0","https://app.prolific.com/","en-US,en;q=0.9","65faedca7e439b344f133fdb","687a1a965b9f5b85a264363e","689338771ce8d14a3032b180","1","65faedca7e439b344f133fdb","1","2025-08-06T11:22:22.339Z","","","","StressQ","","","","","","","","","","","50","","","","","","","","","","","","","","","","","","","","","","","","","","",""
"4820","","<div style=""width:500px;"">
  <p>What best describes how you currently feel?</p>
  </div>","22","html-slider-response","27","615092","0.0-7.0-4.2","184","1","2025-08-06 11:12:09","36c45c0696341be0efffe67d72a12abb","102.216.154.101","Mozilla/5.0 (Windows NT 10.0; Win64; x64) AppleWebKit/537.36 (KHTML, like Gecko) Chrome/138.0.0.0 Safari/537.36","WebKit","Chrome","138.0.0.0","Windows","10.0","https://app.prolific.com/","en-US,en;q=0.9","65faedca7e439b344f133fdb","687a1a965b9f5b85a264363e","689338771ce8d14a3032b180","1","65faedca7e439b344f133fdb","1","2025-08-06T11:22:27.161Z","","","","MotivationQ","","","","","","","","","","","50","","","","","","","","","","","","","","","","","","","","","","","","","","",""
"","","","","ctl-task-cpt","28","641434","0.0-7.0-0.3","184","1","2025-08-06 11:12:09","36c45c0696341be0efffe67d72a12abb","102.216.154.101","Mozilla/5.0 (Windows NT 10.0; Win64; x64) AppleWebKit/537.36 (KHTML, like Gecko) Chrome/138.0.0.0 Safari/537.36","WebKit","Chrome","138.0.0.0","Windows","10.0","https://app.prolific.com/","en-US,en;q=0.9","65faedca7e439b344f133fdb","687a1a965b9f5b85a264363e","689338771ce8d14a3032b180","1","65faedca7e439b344f133fdb","1","2025-08-06T11:22:53.503Z","","","","","","","","","","","","","","","","win-only","0","g1:NW,g2:SE","0.7","4","0","618538.1","1804","6806.5","23332.3","1","4","4","6","1","1","1","3","2","0.022727272727272728","2775.3","3000","1950","[""left"",""up""]","{""num_key_presses"":4,""num_perfect"":2,""num_errors"":0,""num_randdir"":2,""num_randdir_good_moves"":2,""num_whilered"":0,""num_whileblue"":0,""num_blue"":1,""num_good_moves"":4}","[292.22232142857143,295.12857142857143,0.4,292.22232142857143,295.12857142857143,101.4,292.22232142857143,295.12857142857143,201.9,292.22232142857143,295.12857142857143,315.7,292.22232142857143,295.12857142857143,418.4,292.22232142857143,295.12857142857143,524.2,292.22232142857143,295.12857142857143,629,292.22232142857143,295.12857142857143,729.3,292.22232142857143,295.12857142857143,834.6,292.22232142857143,295.12857142857143,938.9,292.22232142857143,295.12857142857143,1042.7,292.22232142857143,295.12857142857143,1143.6,292.22232142857143,295.12857142857143,1245.2,292.22232142857143,295.12857142857143,1359.9,292.22232142857143,295.12857142857143,1462.8,279.22232142857143,284.12857142857143,1570.7,173.22232142857143,137.12857142857143,1670.8,168.22232142857143,125.12857142857143,1777,167.22232142857143,125.12857142857143,1880,167.22232142857143,125.12857142857143,1981.2,165.22232142857143,125.12857142857143,2088,11.222321428571426,13.128571428571426,2198.4,18.222321428571426,22.128571428571426,2306.5,24.222321428571426,35.128571428571426,2409.8,33.222321428571426,46.128571428571426,2526.1,33.222321428571426,46.128571428571426,2640.2,33.222321428571426,46.128571428571426,2752,33.222321428571426,46.128571428571426,2859.1,33.222321428571426,46.128571428571426,2960.7,33.222321428571426,46.128571428571426,3068.5,33.222321428571426,46.128571428571426,3169.9,33.222321428571426,46.128571428571426,3277.4,33.222321428571426,46.128571428571426,3379.5,33.222321428571426,46.128571428571426,3489.5,33.222321428571426,46.128571428571426,3598.3,35.222321428571426,46.128571428571426,3698.5,49.222321428571426,48.128571428571426,3798.8,62.222321428571426,48.128571428571426,3900,79.22232142857143,52.128571428571426,4014.6,127.22232142857143,88.12857142857143,4129.5,180.22232142857143,153.12857142857143,4229.5,202.22232142857143,184.12857142857143,4335.3,202.22232142857143,184.12857142857143,4436.4,202.22232142857143,184.12857142857143,4542.2,207.22232142857143,186.12857142857143,4643.8,219.22232142857143,189.12857142857143,4753.3,241.22232142857143,185.12857142857143,4853.8,245.22232142857143,181.12857142857143,4963.2]","[1540.7,1540.7,1000,0,540.7,""smooth"",""up"",""up"",""good_move"",4854.4,3313,2892.9,1541.4,420.1,""oops"",""left"",""left"",""good_move"",8571.2,3716.3,3306,4855,410.3,""oops"",""left"",""left"",""good_move"",16361.8,7789.9,2952.4,12877.1,532.3,""smooth"",""up"",""up"",""good_move""]"
"4745","","<div style=""width:500px;"">
  <p>What determined the result of this run?</p>
  </div>","74","html-slider-response","29","646181","0.0-7.0-1.3","184","1","2025-08-06 11:12:09","36c45c0696341be0efffe67d72a12abb","102.216.154.101","Mozilla/5.0 (Windows NT 10.0; Win64; x64) AppleWebKit/537.36 (KHTML, like Gecko) Chrome/138.0.0.0 Safari/537.36","WebKit","Chrome","138.0.0.0","Windows","10.0","https://app.prolific.com/","en-US,en;q=0.9","65faedca7e439b344f133fdb","687a1a965b9f5b85a264363e","689338771ce8d14a3032b180","1","65faedca7e439b344f133fdb","1","2025-08-06T11:22:58.251Z","","","","AttribQ","","","","","","","","","","","50","","","","","","","","","","","","","","","","","","","","","","","","","","",""
"8005","","<div style=""width:500px;"">
  <p>How much control did you have over the ball?</p>
  </div>","88","html-slider-response","30","654190","0.0-7.0-2.3","184","1","2025-08-06 11:12:09","36c45c0696341be0efffe67d72a12abb","102.216.154.101","Mozilla/5.0 (Windows NT 10.0; Win64; x64) AppleWebKit/537.36 (KHTML, like Gecko) Chrome/138.0.0.0 Safari/537.36","WebKit","Chrome","138.0.0.0","Windows","10.0","https://app.prolific.com/","en-US,en;q=0.9","65faedca7e439b344f133fdb","687a1a965b9f5b85a264363e","689338771ce8d14a3032b180","1","65faedca7e439b344f133fdb","1","2025-08-06T11:23:06.260Z","","","","ControlQ","","","","","","","","","","","50","","","","","","","","","","","","","","","","","","","","","","","","","","",""
"5510","","<div style=""width:500px;"">
  <p>How would you describe your current emotional state?</p>
  </div>","81","html-slider-response","31","659704","0.0-7.0-3.3","184","1","2025-08-06 11:12:09","36c45c0696341be0efffe67d72a12abb","102.216.154.101","Mozilla/5.0 (Windows NT 10.0; Win64; x64) AppleWebKit/537.36 (KHTML, like Gecko) Chrome/138.0.0.0 Safari/537.36","WebKit","Chrome","138.0.0.0","Windows","10.0","https://app.prolific.com/","en-US,en;q=0.9","65faedca7e439b344f133fdb","687a1a965b9f5b85a264363e","689338771ce8d14a3032b180","1","65faedca7e439b344f133fdb","1","2025-08-06T11:23:11.773Z","","","","StressQ","","","","","","","","","","","50","","","","","","","","","","","","","","","","","","","","","","","","","","",""
"9757","","<div style=""width:500px;"">
  <p>What best describes how you currently feel?</p>
  </div>","15","html-slider-response","32","669462","0.0-7.0-4.3","184","1","2025-08-06 11:12:09","36c45c0696341be0efffe67d72a12abb","102.216.154.101","Mozilla/5.0 (Windows NT 10.0; Win64; x64) AppleWebKit/537.36 (KHTML, like Gecko) Chrome/138.0.0.0 Safari/537.36","WebKit","Chrome","138.0.0.0","Windows","10.0","https://app.prolific.com/","en-US,en;q=0.9","65faedca7e439b344f133fdb","687a1a965b9f5b85a264363e","689338771ce8d14a3032b180","1","65faedca7e439b344f133fdb","1","2025-08-06T11:23:21.531Z","","","","MotivationQ","","","","","","","","","","","50","","","","","","","","","","","","","","","","","","","","","","","","","","",""
"","","","","ctl-task-cpt","33","690606","0.0-7.0-0.4","184","1","2025-08-06 11:12:09","36c45c0696341be0efffe67d72a12abb","102.216.154.101","Mozilla/5.0 (Windows NT 10.0; Win64; x64) AppleWebKit/537.36 (KHTML, like Gecko) Chrome/138.0.0.0 Safari/537.36","WebKit","Chrome","138.0.0.0","Windows","10.0","https://app.prolific.com/","en-US,en;q=0.9","65faedca7e439b344f133fdb","687a1a965b9f5b85a264363e","689338771ce8d14a3032b180","1","65faedca7e439b344f133fdb","1","2025-08-06T11:23:42.675Z","","","","","","","","","","","","","","","","win-only","0","g1:NW,g2:SE","0.6","5","0","672907.5","1954.8","6961.4","18126.2","1","4","8","6","1","1","1","4","3","0.030303030303030304","5006.4","3000","1660","[""left"",""up""]","{""num_key_presses"":4,""num_perfect"":4,""num_errors"":0,""num_randdir"":0,""num_randdir_good_moves"":0,""num_whilered"":0,""num_whileblue"":0,""num_blue"":0,""num_good_moves"":4}","[289.22232142857143,297.12857142857143,0.3,289.22232142857143,297.12857142857143,105,289.22232142857143,297.12857142857143,216,289.22232142857143,297.12857142857143,318.4,289.22232142857143,297.12857142857143,421.3,289.22232142857143,297.12857142857143,522.4,289.22232142857143,297.12857142857143,624,289.22232142857143,297.12857142857143,738,289.22232142857143,297.12857142857143,848.7,289.22232142857143,297.12857142857143,950.8,289.22232142857143,297.12857142857143,1053.3,289.22232142857143,297.12857142857143,1161.8,289.22232142857143,297.12857142857143,1275.9,289.22232142857143,297.12857142857143,1377.5,289.22232142857143,297.12857142857143,1477.7,289.22232142857143,297.12857142857143,1586.6,289.22232142857143,297.12857142857143,1686.9,289.22232142857143,297.12857142857143,1787.2,289.22232142857143,297.12857142857143,1896.3,289.22232142857143,297.12857142857143,2014.4,289.22232142857143,297.12857142857143,2115.8,289.22232142857143,297.12857142857143,2225.8,289.22232142857143,297.12857142857143,2329.3,289.22232142857143,297.12857142857143,2445.4,289.22232142857143,297.12857142857143,2549.3,289.22232142857143,297.12857142857143,2652.6,289.22232142857143,297.12857142857143,2752.5,289.22232142857143,297.12857142857143,2852.5,289.22232142857143,297.12857142857143,2963,289.22232142857143,297.12857142857143,3067.7,289.22232142857143,297.12857142857143,3179.1,289.22232142857143,297.12857142857143,3281,289.22232142857143,297.12857142857143,3390.5,289.22232142857143,297.12857142857143,3496.4,289.22232142857143,297.12857142857143,3604.7,289.22232142857143,297.12857142857143,3705.1,289.22232142857143,297.12857142857143,3805.4,289.22232142857143,297.12857142857143,3905.8,289.22232142857143,297.12857142857143,4006.6,289.22232142857143,297.12857142857143,4117.4,289.22232142857143,297.12857142857143,4218,289.22232142857143,297.12857142857143,4326.6,289.22232142857143,297.12857142857143,4430.3,289.22232142857143,297.12857142857143,4538.5,289.22232142857143,297.12857142857143,4640,289.22232142857143,297.12857142857143,4741.6,289.22232142857143,297.12857142857143,4846.7,289.22232142857143,297.12857142857143,4951.3]","[2150.8,2150.8,1000,0,1150.8,""smooth"",""up"",""up"",""good_move"",4944.2,2791.5,2362.3,2152.7,429.2,""smooth"",""left"",""left"",""good_move"",7906.6,2960.9,2568.4,4945.8,392.4,""smooth"",""left"",""left"",""good_move"",11008.7,3101.7,2690.4,7907,411.3,""smooth"",""up"",""up"",""good_move""]"
"6674","","<div style=""width:500px;"">
  <p>What determined the result of this run?</p>
  </div>","90","html-slider-response","34","697282","0.0-7.0-1.4","184","1","2025-08-06 11:12:09","36c45c0696341be0efffe67d72a12abb","102.216.154.101","Mozilla/5.0 (Windows NT 10.0; Win64; x64) AppleWebKit/537.36 (KHTML, like Gecko) Chrome/138.0.0.0 Safari/537.36","WebKit","Chrome","138.0.0.0","Windows","10.0","https://app.prolific.com/","en-US,en;q=0.9","65faedca7e439b344f133fdb","687a1a965b9f5b85a264363e","689338771ce8d14a3032b180","1","65faedca7e439b344f133fdb","1","2025-08-06T11:23:49.351Z","","","","AttribQ","","","","","","","","","","","50","","","","","","","","","","","","","","","","","","","","","","","","","","",""
"17006","","<div style=""width:500px;"">
  <p>How much control did you have over the ball?</p>
  </div>","11","html-slider-response","35","714289","0.0-7.0-2.4","184","1","2025-08-06 11:12:09","36c45c0696341be0efffe67d72a12abb","102.216.154.101","Mozilla/5.0 (Windows NT 10.0; Win64; x64) AppleWebKit/537.36 (KHTML, like Gecko) Chrome/138.0.0.0 Safari/537.36","WebKit","Chrome","138.0.0.0","Windows","10.0","https://app.prolific.com/","en-US,en;q=0.9","65faedca7e439b344f133fdb","687a1a965b9f5b85a264363e","689338771ce8d14a3032b180","1","65faedca7e439b344f133fdb","1","2025-08-06T11:24:06.358Z","","","","ControlQ","","","","","","","","","","","50","","","","","","","","","","","","","","","","","","","","","","","","","","",""
"5358","","<div style=""width:500px;"">
  <p>How would you describe your current emotional state?</p>
  </div>","76","html-slider-response","36","719650","0.0-7.0-3.4","184","1","2025-08-06 11:12:09","36c45c0696341be0efffe67d72a12abb","102.216.154.101","Mozilla/5.0 (Windows NT 10.0; Win64; x64) AppleWebKit/537.36 (KHTML, like Gecko) Chrome/138.0.0.0 Safari/537.36","WebKit","Chrome","138.0.0.0","Windows","10.0","https://app.prolific.com/","en-US,en;q=0.9","65faedca7e439b344f133fdb","687a1a965b9f5b85a264363e","689338771ce8d14a3032b180","1","65faedca7e439b344f133fdb","1","2025-08-06T11:24:11.719Z","","","","StressQ","","","","","","","","","","","50","","","","","","","","","","","","","","","","","","","","","","","","","","",""
"4838","","<div style=""width:500px;"">
  <p>What best describes how you currently feel?</p>
  </div>","0","html-slider-response","37","724491","0.0-7.0-4.4","184","1","2025-08-06 11:12:09","36c45c0696341be0efffe67d72a12abb","102.216.154.101","Mozilla/5.0 (Windows NT 10.0; Win64; x64) AppleWebKit/537.36 (KHTML, like Gecko) Chrome/138.0.0.0 Safari/537.36","WebKit","Chrome","138.0.0.0","Windows","10.0","https://app.prolific.com/","en-US,en;q=0.9","65faedca7e439b344f133fdb","687a1a965b9f5b85a264363e","689338771ce8d14a3032b180","1","65faedca7e439b344f133fdb","1","2025-08-06T11:24:16.560Z","","","","MotivationQ","","","","","","","","","","","50","","","","","","","","","","","","","","","","","","","","","","","","","","",""
"","","","","ctl-task-cpt","38","745238","0.0-7.0-0.5","184","1","2025-08-06 11:12:09","36c45c0696341be0efffe67d72a12abb","102.216.154.101","Mozilla/5.0 (Windows NT 10.0; Win64; x64) AppleWebKit/537.36 (KHTML, like Gecko) Chrome/138.0.0.0 Safari/537.36","WebKit","Chrome","138.0.0.0","Windows","10.0","https://app.prolific.com/","en-US,en;q=0.9","65faedca7e439b344f133fdb","687a1a965b9f5b85a264363e","689338771ce8d14a3032b180","1","65faedca7e439b344f133fdb","1","2025-08-06T11:24:37.307Z","","","","","","","","","","","","","","","","win-only","3","g1:SW,g2:NE","0.5","6","0","727943.6","2375.3","7379.6","17730.5","1","4","4","6","1","1","1","5","4","0.03787878787878788","2076.9","3000","2000","[""down"",""left""]","{""num_key_presses"":4,""num_perfect"":3,""num_errors"":0,""num_randdir"":1,""num_randdir_good_moves"":1,""num_whilered"":0,""num_whileblue"":0,""num_blue"":0,""num_good_moves"":4}","[298.22232142857143,298.12857142857143,2.1,298.22232142857143,298.12857142857143,107,298.22232142857143,298.12857142857143,215.5,298.22232142857143,298.12857142857143,320.5,298.22232142857143,298.12857142857143,427.3,298.22232142857143,298.12857142857143,531.5,298.22232142857143,298.12857142857143,643.3,298.22232142857143,298.12857142857143,748.5,298.22232142857143,298.12857142857143,854.9,298.22232142857143,298.12857142857143,961.1,298.22232142857143,298.12857142857143,1067,298.22232142857143,298.12857142857143,1182.8,164.22232142857143,357.12857142857143,1297.1,59.222321428571426,430.12857142857143,1412.3,59.222321428571426,466.12857142857143,1514.7,59.222321428571426,511.12857142857143,1615.9,63.222321428571426,521.1285714285714,1720,61.222321428571426,538.1285714285714,1832.1,61.222321428571426,538.1285714285714,1940,61.222321428571426,538.1285714285714,2043.4,61.222321428571426,538.1285714285714,2150.5,61.222321428571426,538.1285714285714,2251.5,61.222321428571426,538.1285714285714,2352.3,61.222321428571426,538.1285714285714,2474.6,61.222321428571426,538.1285714285714,2575.3,61.222321428571426,538.1285714285714,2676,61.222321428571426,538.1285714285714,2782.8,61.222321428571426,538.1285714285714,2885.6,61.222321428571426,538.1285714285714,2985.8,61.222321428571426,538.1285714285714,3097.5,61.222321428571426,538.1285714285714,3198.6,61.222321428571426,538.1285714285714,3306.9,61.222321428571426,538.1285714285714,3414.6,61.222321428571426,538.1285714285714,3514.7,61.222321428571426,538.1285714285714,3616.9,61.222321428571426,538.1285714285714,3717.7,61.222321428571426,538.1285714285714,3824.2,61.222321428571426,538.1285714285714,3927.2,61.222321428571426,538.1285714285714,4036.8,61.222321428571426,538.1285714285714,4152.4,61.222321428571426,538.1285714285714,4252.4,61.222321428571426,538.1285714285714,4354,61.222321428571426,538.1285714285714,4458.4,61.222321428571426,538.1285714285714,4561.5,61.222321428571426,538.1285714285714,4664.4,61.222321428571426,538.1285714285714,4773.1,61.222321428571426,538.1285714285714,4886.2,61.222321428571426,538.1285714285714,4995.2]","[1535,1535,1000,0,535,""smooth"",""down"",""down"",""good_move"",4350.8,2814.1,2325.3,1536.7,488.8,""smooth"",""down"",""down"",""good_move"",7390.1,3038.8,2640.7,4351.3,398.1,""smooth"",""left"",""left"",""good_move"",10188.1,2796.6,2362.4,7391.5,434.2,""oops"",""left"",""left"",""good_move""]"
"4023","","<div style=""width:500px;"">
  <p>What determined the result of this run?</p>
  </div>","100","html-slider-response","39","749263","0.0-7.0-1.5","184","1","2025-08-06 11:12:09","36c45c0696341be0efffe67d72a12abb","102.216.154.101","Mozilla/5.0 (Windows NT 10.0; Win64; x64) AppleWebKit/537.36 (KHTML, like Gecko) Chrome/138.0.0.0 Safari/537.36","WebKit","Chrome","138.0.0.0","Windows","10.0","https://app.prolific.com/","en-US,en;q=0.9","65faedca7e439b344f133fdb","687a1a965b9f5b85a264363e","689338771ce8d14a3032b180","1","65faedca7e439b344f133fdb","1","2025-08-06T11:24:41.332Z","","","","AttribQ","","","","","","","","","","","50","","","","","","","","","","","","","","","","","","","","","","","","","","",""
"3368","","<div style=""width:500px;"">
  <p>How much control did you have over the ball?</p>
  </div>","0","html-slider-response","40","752632","0.0-7.0-2.5","184","1","2025-08-06 11:12:09","36c45c0696341be0efffe67d72a12abb","102.216.154.101","Mozilla/5.0 (Windows NT 10.0; Win64; x64) AppleWebKit/537.36 (KHTML, like Gecko) Chrome/138.0.0.0 Safari/537.36","WebKit","Chrome","138.0.0.0","Windows","10.0","https://app.prolific.com/","en-US,en;q=0.9","65faedca7e439b344f133fdb","687a1a965b9f5b85a264363e","689338771ce8d14a3032b180","1","65faedca7e439b344f133fdb","1","2025-08-06T11:24:44.701Z","","","","ControlQ","","","","","","","","","","","50","","","","","","","","","","","","","","","","","","","","","","","","","","",""
"2989","","<div style=""width:500px;"">
  <p>How would you describe your current emotional state?</p>
  </div>","100","html-slider-response","41","755623","0.0-7.0-3.5","184","1","2025-08-06 11:12:09","36c45c0696341be0efffe67d72a12abb","102.216.154.101","Mozilla/5.0 (Windows NT 10.0; Win64; x64) AppleWebKit/537.36 (KHTML, like Gecko) Chrome/138.0.0.0 Safari/537.36","WebKit","Chrome","138.0.0.0","Windows","10.0","https://app.prolific.com/","en-US,en;q=0.9","65faedca7e439b344f133fdb","687a1a965b9f5b85a264363e","689338771ce8d14a3032b180","1","65faedca7e439b344f133fdb","1","2025-08-06T11:24:47.693Z","","","","StressQ","","","","","","","","","","","50","","","","","","","","","","","","","","","","","","","","","","","","","","",""
"5127","","<div style=""width:500px;"">
  <p>What best describes how you currently feel?</p>
  </div>","0","html-slider-response","42","760752","0.0-7.0-4.5","184","1","2025-08-06 11:12:09","36c45c0696341be0efffe67d72a12abb","102.216.154.101","Mozilla/5.0 (Windows NT 10.0; Win64; x64) AppleWebKit/537.36 (KHTML, like Gecko) Chrome/138.0.0.0 Safari/537.36","WebKit","Chrome","138.0.0.0","Windows","10.0","https://app.prolific.com/","en-US,en;q=0.9","65faedca7e439b344f133fdb","687a1a965b9f5b85a264363e","689338771ce8d14a3032b180","1","65faedca7e439b344f133fdb","1","2025-08-06T11:24:52.821Z","","","","MotivationQ","","","","","","","","","","","50","","","","","","","","","","","","","","","","","","","","","","","","","","",""
"","","","","ctl-task-cpt","43","799420","0.0-7.0-0.6","184","1","2025-08-06 11:12:09","36c45c0696341be0efffe67d72a12abb","102.216.154.101","Mozilla/5.0 (Windows NT 10.0; Win64; x64) AppleWebKit/537.36 (KHTML, like Gecko) Chrome/138.0.0.0 Safari/537.36","WebKit","Chrome","138.0.0.0","Windows","10.0","https://app.prolific.com/","en-US,en;q=0.9","65faedca7e439b344f133fdb","687a1a965b9f5b85a264363e","689338771ce8d14a3032b180","1","65faedca7e439b344f133fdb","1","2025-08-06T11:25:31.489Z","","","","","","","","","","","","","","","","win-only","1","g1:NE,g2:SW","0.4","7","0","764199.9","2019.5","7039.2","35642.1","1","4","4","6","1","1","1","6","5","0.045454545454545456","2084.3","3000","935","[""up"",""right""]","{""num_key_presses"":8,""num_perfect"":4,""num_errors"":0,""num_randdir"":4,""num_randdir_good_moves"":2,""num_whilered"":0,""num_whileblue"":0,""num_blue"":2,""num_good_moves"":6}","[294.22232142857143,288.12857142857143,1.5,294.22232142857143,288.12857142857143,102.4,294.22232142857143,288.12857142857143,211.2,294.22232142857143,288.12857142857143,314,294.22232142857143,288.12857142857143,417.6,294.22232142857143,288.12857142857143,521.7,294.22232142857143,288.12857142857143,629.5,294.22232142857143,288.12857142857143,750.6,294.22232142857143,288.12857142857143,857,294.22232142857143,288.12857142857143,958.2,294.22232142857143,288.12857142857143,1058.6,446.22232142857143,54.128571428571426,1167.4,477.22232142857143,16.128571428571426,1268.4,477.22232142857143,16.128571428571426,1373.9,477.22232142857143,16.128571428571426,1474.1,481.22232142857143,18.128571428571426,1584.7,515.2223214285714,38.128571428571426,1685,518.2223214285714,56.128571428571426,1792.4,518.2223214285714,56.128571428571426,1895.9,518.2223214285714,56.128571428571426,2003.1,518.2223214285714,56.128571428571426,2103.1,518.2223214285714,56.128571428571426,2208.3,518.2223214285714,56.128571428571426,2312.4,518.2223214285714,56.128571428571426,2415,518.2223214285714,56.128571428571426,2515,518.2223214285714,56.128571428571426,2621.7,518.2223214285714,56.128571428571426,2726.5,518.2223214285714,56.128571428571426,2831.1,518.2223214285714,56.128571428571426,2933.7,518.2223214285714,56.128571428571426,3047.4,518.2223214285714,56.128571428571426,3162.1,518.2223214285714,56.128571428571426,3267.9,518.2223214285714,56.128571428571426,3373.2,518.2223214285714,56.128571428571426,3478.5,518.2223214285714,56.128571428571426,3585.4,518.2223214285714,56.128571428571426,3687.9,518.2223214285714,56.128571428571426,3789,518.2223214285714,56.128571428571426,3890.1,518.2223214285714,56.128571428571426,3990.5,518.2223214285714,56.128571428571426,4092.1,518.2223214285714,56.128571428571426,4201.5,518.2223214285714,56.128571428571426,4318.7,518.2223214285714,56.128571428571426,4426.4,518.2223214285714,56.128571428571426,4530.2,518.2223214285714,56.128571428571426,4635.7,518.2223214285714,56.128571428571426,4745.4,518.2223214285714,56.128571428571426,4846.9,518.2223214285714,56.128571428571426,4953.3]","[1431.3,1431.3,1000,0,431.3,""smooth"",""up"",""up"",""good_move"",4635.8,3203.8,2765,1432,438.8,""smooth"",""up"",""up"",""good_move"",7497.6,2860.6,2361.9,4637,498.7,""oops"",""right"",""left"",""bad_move"",10641.4,3142.4,2768,7499,374.4,""oops"",""right"",""left"",""bad_move"",17060,6417.7,2830.6,13808.2,421.2,""oops"",""right"",""right"",""good_move"",22916.1,5854.6,2133.7,20323.2,459.2,""smooth"",""right"",""right"",""good_move"",25348.7,2431.7,1914,22917,517.7,""oops"",""right"",""right"",""good_move"",28454.3,3105.1,2496,25349.2,609.1,""smooth"",""right"",""right"",""good_move""]"
"5050","","<div style=""width:500px;"">
  <p>What determined the result of this run?</p>
  </div>","100","html-slider-response","44","804473","0.0-7.0-1.6","184","1","2025-08-06 11:12:09","36c45c0696341be0efffe67d72a12abb","102.216.154.101","Mozilla/5.0 (Windows NT 10.0; Win64; x64) AppleWebKit/537.36 (KHTML, like Gecko) Chrome/138.0.0.0 Safari/537.36","WebKit","Chrome","138.0.0.0","Windows","10.0","https://app.prolific.com/","en-US,en;q=0.9","65faedca7e439b344f133fdb","687a1a965b9f5b85a264363e","689338771ce8d14a3032b180","1","65faedca7e439b344f133fdb","1","2025-08-06T11:25:36.542Z","","","","AttribQ","","","","","","","","","","","50","","","","","","","","","","","","","","","","","","","","","","","","","","",""
"3404","","<div style=""width:500px;"">
  <p>How much control did you have over the ball?</p>
  </div>","2","html-slider-response","45","807879","0.0-7.0-2.6","184","1","2025-08-06 11:12:09","36c45c0696341be0efffe67d72a12abb","102.216.154.101","Mozilla/5.0 (Windows NT 10.0; Win64; x64) AppleWebKit/537.36 (KHTML, like Gecko) Chrome/138.0.0.0 Safari/537.36","WebKit","Chrome","138.0.0.0","Windows","10.0","https://app.prolific.com/","en-US,en;q=0.9","65faedca7e439b344f133fdb","687a1a965b9f5b85a264363e","689338771ce8d14a3032b180","1","65faedca7e439b344f133fdb","1","2025-08-06T11:25:39.948Z","","","","ControlQ","","","","","","","","","","","50","","","","","","","","","","","","","","","","","","","","","","","","","","",""
"6909","","<div style=""width:500px;"">
  <p>How would you describe your current emotional state?</p>
  </div>","100","html-slider-response","46","814791","0.0-7.0-3.6","184","1","2025-08-06 11:12:09","36c45c0696341be0efffe67d72a12abb","102.216.154.101","Mozilla/5.0 (Windows NT 10.0; Win64; x64) AppleWebKit/537.36 (KHTML, like Gecko) Chrome/138.0.0.0 Safari/537.36","WebKit","Chrome","138.0.0.0","Windows","10.0","https://app.prolific.com/","en-US,en;q=0.9","65faedca7e439b344f133fdb","687a1a965b9f5b85a264363e","689338771ce8d14a3032b180","1","65faedca7e439b344f133fdb","1","2025-08-06T11:25:46.860Z","","","","StressQ","","","","","","","","","","","50","","","","","","","","","","","","","","","","","","","","","","","","","","",""
"3653","","<div style=""width:500px;"">
  <p>What best describes how you currently feel?</p>
  </div>","0","html-slider-response","47","818447","0.0-7.0-4.6","184","1","2025-08-06 11:12:09","36c45c0696341be0efffe67d72a12abb","102.216.154.101","Mozilla/5.0 (Windows NT 10.0; Win64; x64) AppleWebKit/537.36 (KHTML, like Gecko) Chrome/138.0.0.0 Safari/537.36","WebKit","Chrome","138.0.0.0","Windows","10.0","https://app.prolific.com/","en-US,en;q=0.9","65faedca7e439b344f133fdb","687a1a965b9f5b85a264363e","689338771ce8d14a3032b180","1","65faedca7e439b344f133fdb","1","2025-08-06T11:25:50.517Z","","","","MotivationQ","","","","","","","","","","","50","","","","","","","","","","","","","","","","","","","","","","","","","","",""
"","","","","ctl-task-cpt","48","864745","0.0-7.0-0.7","184","1","2025-08-06 11:12:09","36c45c0696341be0efffe67d72a12abb","102.216.154.101","Mozilla/5.0 (Windows NT 10.0; Win64; x64) AppleWebKit/537.36 (KHTML, like Gecko) Chrome/138.0.0.0 Safari/537.36","WebKit","Chrome","138.0.0.0","Windows","10.0","https://app.prolific.com/","en-US,en;q=0.9","65faedca7e439b344f133fdb","687a1a965b9f5b85a264363e","689338771ce8d14a3032b180","1","65faedca7e439b344f133fdb","1","2025-08-06T11:26:36.814Z","","","","","","","","","","","","","","","","win-only","2","g1:SE,g2:NW","0.3","8","0","821894.3","2192.2","7196.5","43270.2","1","4","8","6","1","-1","-2","4","6","0.030303030303030304","5004.3","3000","-1475","[""down"",""right""]","{""num_key_presses"":9,""num_perfect"":2,""num_errors"":1,""num_randdir"":6,""num_randdir_good_moves"":3,""num_whilered"":0,""num_whileblue"":1,""num_blue"":3,""num_good_moves"":5}","[295.22232142857143,295.12857142857143,0.8,295.22232142857143,295.12857142857143,102.2,295.22232142857143,295.12857142857143,202.8,295.22232142857143,295.12857142857143,310.4,295.22232142857143,295.12857142857143,416.7,295.22232142857143,295.12857142857143,543.2,295.22232142857143,295.12857142857143,649.5,282.22232142857143,295.12857142857143,758,271.22232142857143,295.12857142857143,860.2,240.22232142857143,289.12857142857143,965.5,217.22232142857143,278.12857142857143,1077.8,217.22232142857143,278.12857142857143,1177.9,217.22232142857143,277.12857142857143,1279.5,217.22232142857143,277.12857142857143,1380.7,217.22232142857143,275.12857142857143,1490.4,217.22232142857143,274.12857142857143,1593.9,217.22232142857143,274.12857142857143,1721.6,219.22232142857143,273.12857142857143,1828.7,219.22232142857143,273.12857142857143,1932.2,219.22232142857143,273.12857142857143,2040.3,219.22232142857143,273.12857142857143,2149,219.22232142857143,273.12857142857143,2254.2,219.22232142857143,273.12857142857143,2357.2,219.22232142857143,273.12857142857143,2463.4,219.22232142857143,273.12857142857143,2564.6,219.22232142857143,273.12857142857143,2667,219.22232142857143,273.12857142857143,2769.5,219.22232142857143,273.12857142857143,2874.8,219.22232142857143,273.12857142857143,2991.4,219.22232142857143,273.12857142857143,3104.5,219.22232142857143,273.12857142857143,3205.4,219.22232142857143,273.12857142857143,3321.2,219.22232142857143,273.12857142857143,3424.1,219.22232142857143,273.12857142857143,3525.8,219.22232142857143,273.12857142857143,3626.3,219.22232142857143,273.12857142857143,3727.9,219.22232142857143,273.12857142857143,3840.3,219.22232142857143,273.12857142857143,3941.2,219.22232142857143,273.12857142857143,4047.7,219.22232142857143,273.12857142857143,4148.1,219.22232142857143,273.12857142857143,4258.5,219.22232142857143,273.12857142857143,4360.6,219.22232142857143,273.12857142857143,4463,219.22232142857143,273.12857142857143,4564.7,219.22232142857143,273.12857142857143,4671,219.22232142857143,273.12857142857143,4774.8,219.22232142857143,273.12857142857143,4884.6,219.22232142857143,273.12857142857143,4996]","[2595.4,2595.4,1000,0,1595.4,""oops"",""right"",""up"",""bad_move"",5057.7,2460.5,1842.9,2597.2,617.6,""oops"",""right"",""down"",""good_move"",7984.3,2925.2,2545.3,5059.1,379.9,""while_blue"",""right"",""up"",""bad_move"",10305.4,2319.6,1798.3,7985.9,521.4,""smooth"",""right"",""right"",""good_move"",13673.3,3366.8,2862.6,10306.6,504.2,""smooth"",""right"",""right"",""good_move"",16846.7,3172,2623.5,13674.7,548.5,""oops"",""down"",""down"",""good_move"",19797.3,2949.2,2465.7,16848.1,483.5,""oops"",""down"",""up"",""bad_move"",26677.3,6879,2841.7,23275.4,560.3,""oops"",""down"",""left"",""bad_move"",33154.5,6475.9,2601.3,30042.6,510.6,""oops"",""down"",""down"",""good_move""]"
"97431","","<div style=""width:500px;"">
  <p>What determined the result of this run?</p>
  </div>","100","html-slider-response","49","962178","0.0-7.0-1.7","184","1","2025-08-06 11:12:09","36c45c0696341be0efffe67d72a12abb","102.216.154.101","Mozilla/5.0 (Windows NT 10.0; Win64; x64) AppleWebKit/537.36 (KHTML, like Gecko) Chrome/138.0.0.0 Safari/537.36","WebKit","Chrome","138.0.0.0","Windows","10.0","https://app.prolific.com/","en-US,en;q=0.9","65faedca7e439b344f133fdb","687a1a965b9f5b85a264363e","689338771ce8d14a3032b180","1","65faedca7e439b344f133fdb","1","2025-08-06T11:28:14.247Z","","","","AttribQ","","","","","","","","","","","50","","","","","","","","","","","","","","","","","","","","","","","","","","",""
"3948","","<div style=""width:500px;"">
  <p>How much control did you have over the ball?</p>
  </div>","17","html-slider-response","50","966128","0.0-7.0-2.7","184","1","2025-08-06 11:12:09","36c45c0696341be0efffe67d72a12abb","102.216.154.101","Mozilla/5.0 (Windows NT 10.0; Win64; x64) AppleWebKit/537.36 (KHTML, like Gecko) Chrome/138.0.0.0 Safari/537.36","WebKit","Chrome","138.0.0.0","Windows","10.0","https://app.prolific.com/","en-US,en;q=0.9","65faedca7e439b344f133fdb","687a1a965b9f5b85a264363e","689338771ce8d14a3032b180","1","65faedca7e439b344f133fdb","1","2025-08-06T11:28:18.198Z","","","","ControlQ","","","","","","","","","","","50","","","","","","","","","","","","","","","","","","","","","","","","","","",""
"3793","","<div style=""width:500px;"">
  <p>How would you describe your current emotional state?</p>
  </div>","100","html-slider-response","51","969923","0.0-7.0-3.7","184","1","2025-08-06 11:12:09","36c45c0696341be0efffe67d72a12abb","102.216.154.101","Mozilla/5.0 (Windows NT 10.0; Win64; x64) AppleWebKit/537.36 (KHTML, like Gecko) Chrome/138.0.0.0 Safari/537.36","WebKit","Chrome","138.0.0.0","Windows","10.0","https://app.prolific.com/","en-US,en;q=0.9","65faedca7e439b344f133fdb","687a1a965b9f5b85a264363e","689338771ce8d14a3032b180","1","65faedca7e439b344f133fdb","1","2025-08-06T11:28:21.992Z","","","","StressQ","","","","","","","","","","","50","","","","","","","","","","","","","","","","","","","","","","","","","","",""
"7794","","<div style=""width:500px;"">
  <p>What best describes how you currently feel?</p>
  </div>","0","html-slider-response","52","977718","0.0-7.0-4.7","184","1","2025-08-06 11:12:09","36c45c0696341be0efffe67d72a12abb","102.216.154.101","Mozilla/5.0 (Windows NT 10.0; Win64; x64) AppleWebKit/537.36 (KHTML, like Gecko) Chrome/138.0.0.0 Safari/537.36","WebKit","Chrome","138.0.0.0","Windows","10.0","https://app.prolific.com/","en-US,en;q=0.9","65faedca7e439b344f133fdb","687a1a965b9f5b85a264363e","689338771ce8d14a3032b180","1","65faedca7e439b344f133fdb","1","2025-08-06T11:28:29.787Z","","","","MotivationQ","","","","","","","","","","","50","","","","","","","","","","","","","","","","","","","","","","","","","","",""
"","","","","ctl-task-cpt","53","1019978","0.0-7.0-0.8","184","1","2025-08-06 11:12:09","36c45c0696341be0efffe67d72a12abb","102.216.154.101","Mozilla/5.0 (Windows NT 10.0; Win64; x64) AppleWebKit/537.36 (KHTML, like Gecko) Chrome/138.0.0.0 Safari/537.36","WebKit","Chrome","138.0.0.0","Windows","10.0","https://app.prolific.com/","en-US,en;q=0.9","65faedca7e439b344f133fdb","687a1a965b9f5b85a264363e","689338771ce8d14a3032b180","1","65faedca7e439b344f133fdb","1","2025-08-06T11:29:12.047Z","","","","","","","","","","","","","","","","win-only","2","g1:SE,g2:NW","0.4","9","0","981164.5","16664.7","21671.3","39232.5","1","4","8","6","1","1","0","4","4","0.030303030303030304","1656.7","3000","2215","[""down"",""right""]","{""num_key_presses"":5,""num_perfect"":2,""num_errors"":1,""num_randdir"":2,""num_randdir_good_moves"":2,""num_whilered"":0,""num_whileblue"":0,""num_blue"":1,""num_good_moves"":4}","[295.22232142857143,292.12857142857143,0.4,295.22232142857143,292.12857142857143,100,295.22232142857143,292.12857142857143,217.4,295.22232142857143,292.12857142857143,318.7,295.22232142857143,292.12857142857143,431.2,295.22232142857143,292.12857142857143,533.5,295.22232142857143,292.12857142857143,640.6,295.22232142857143,292.12857142857143,760.9,296.22232142857143,292.12857142857143,865.1,542.2223214285714,460.12857142857143,977.5,594.2223214285714,541.1285714285714,1084.9,590.2223214285714,538.1285714285714,1191.7,541.2223214285714,537.1285714285714,1300.8,539.2223214285714,537.1285714285714,1402.2,539.2223214285714,537.1285714285714,1524.2,539.2223214285714,537.1285714285714,1626.6,539.2223214285714,537.1285714285714,1727.9,539.2223214285714,537.1285714285714,1832.5,539.2223214285714,537.1285714285714,1937.9,539.2223214285714,537.1285714285714,2039,539.2223214285714,537.1285714285714,2139.2,539.2223214285714,537.1285714285714,2245.8,539.2223214285714,537.1285714285714,2351.2,539.2223214285714,537.1285714285714,2454.2,539.2223214285714,537.1285714285714,2559,539.2223214285714,537.1285714285714,2679.9,539.2223214285714,537.1285714285714,2791.5,539.2223214285714,537.1285714285714,2902,539.2223214285714,537.1285714285714,3018.7,539.2223214285714,537.1285714285714,3124.1,539.2223214285714,537.1285714285714,3248.2,539.2223214285714,537.1285714285714,3348.7,539.2223214285714,537.1285714285714,3462.7,539.2223214285714,537.1285714285714,3564.8,539.2223214285714,537.1285714285714,3669.7,539.2223214285714,537.1285714285714,3772,539.2223214285714,537.1285714285714,3877.6,539.2223214285714,537.1285714285714,3989.7,539.2223214285714,537.1285714285714,4103,539.2223214285714,537.1285714285714,4203.1,539.2223214285714,537.1285714285714,4310.5,539.2223214285714,537.1285714285714,4412.7,539.2223214285714,537.1285714285714,4518.2,539.2223214285714,537.1285714285714,4626.2,539.2223214285714,537.1285714285714,4729.7,539.2223214285714,537.1285714285714,4835.9,539.2223214285714,537.1285714285714,4952.1]","[789.7,789.7,1000,0,-210.3,""error"",""-"",""-"",""no_move"",4924.9,4134.3,2698.8,1794.4,431.7,""smooth"",""down"",""down"",""good_move"",7262,2335.4,1838.1,4926.6,497.3,""oops"",""down"",""down"",""good_move"",10163.5,2900.5,2483.7,7263,416.8,""smooth"",""right"",""right"",""good_move"",17368.4,7203.5,3169,13735.9,463.5,""oops"",""right"",""right"",""good_move""]"
"6352","","<div style=""width:500px;"">
  <p>What determined the result of this run?</p>
  </div>","100","html-slider-response","54","1026333","0.0-7.0-1.8","184","1","2025-08-06 11:12:09","36c45c0696341be0efffe67d72a12abb","102.216.154.101","Mozilla/5.0 (Windows NT 10.0; Win64; x64) AppleWebKit/537.36 (KHTML, like Gecko) Chrome/138.0.0.0 Safari/537.36","WebKit","Chrome","138.0.0.0","Windows","10.0","https://app.prolific.com/","en-US,en;q=0.9","65faedca7e439b344f133fdb","687a1a965b9f5b85a264363e","689338771ce8d14a3032b180","1","65faedca7e439b344f133fdb","1","2025-08-06T11:29:18.402Z","","","","AttribQ","","","","","","","","","","","50","","","","","","","","","","","","","","","","","","","","","","","","","","",""
"3251","","<div style=""width:500px;"">
  <p>How much control did you have over the ball?</p>
  </div>","0","html-slider-response","55","1029586","0.0-7.0-2.8","184","1","2025-08-06 11:12:09","36c45c0696341be0efffe67d72a12abb","102.216.154.101","Mozilla/5.0 (Windows NT 10.0; Win64; x64) AppleWebKit/537.36 (KHTML, like Gecko) Chrome/138.0.0.0 Safari/537.36","WebKit","Chrome","138.0.0.0","Windows","10.0","https://app.prolific.com/","en-US,en;q=0.9","65faedca7e439b344f133fdb","687a1a965b9f5b85a264363e","689338771ce8d14a3032b180","1","65faedca7e439b344f133fdb","1","2025-08-06T11:29:21.655Z","","","","ControlQ","","","","","","","","","","","50","","","","","","","","","","","","","","","","","","","","","","","","","","",""
"6577","","<div style=""width:500px;"">
  <p>How would you describe your current emotional state?</p>
  </div>","100","html-slider-response","56","1036166","0.0-7.0-3.8","184","1","2025-08-06 11:12:09","36c45c0696341be0efffe67d72a12abb","102.216.154.101","Mozilla/5.0 (Windows NT 10.0; Win64; x64) AppleWebKit/537.36 (KHTML, like Gecko) Chrome/138.0.0.0 Safari/537.36","WebKit","Chrome","138.0.0.0","Windows","10.0","https://app.prolific.com/","en-US,en;q=0.9","65faedca7e439b344f133fdb","687a1a965b9f5b85a264363e","689338771ce8d14a3032b180","1","65faedca7e439b344f133fdb","1","2025-08-06T11:29:28.235Z","","","","StressQ","","","","","","","","","","","50","","","","","","","","","","","","","","","","","","","","","","","","","","",""
"4489","","<div style=""width:500px;"">
  <p>What best describes how you currently feel?</p>
  </div>","9","html-slider-response","57","1040657","0.0-7.0-4.8","184","1","2025-08-06 11:12:09","36c45c0696341be0efffe67d72a12abb","102.216.154.101","Mozilla/5.0 (Windows NT 10.0; Win64; x64) AppleWebKit/537.36 (KHTML, like Gecko) Chrome/138.0.0.0 Safari/537.36","WebKit","Chrome","138.0.0.0","Windows","10.0","https://app.prolific.com/","en-US,en;q=0.9","65faedca7e439b344f133fdb","687a1a965b9f5b85a264363e","689338771ce8d14a3032b180","1","65faedca7e439b344f133fdb","1","2025-08-06T11:29:32.726Z","","","","MotivationQ","","","","","","","","","","","50","","","","","","","","","","","","","","","","","","","","","","","","","","",""
"","","","","ctl-task-cpt","58","1065694","0.0-7.0-0.9","184","1","2025-08-06 11:12:09","36c45c0696341be0efffe67d72a12abb","102.216.154.101","Mozilla/5.0 (Windows NT 10.0; Win64; x64) AppleWebKit/537.36 (KHTML, like Gecko) Chrome/138.0.0.0 Safari/537.36","WebKit","Chrome","138.0.0.0","Windows","10.0","https://app.prolific.com/","en-US,en;q=0.9","65faedca7e439b344f133fdb","687a1a965b9f5b85a264363e","689338771ce8d14a3032b180","1","65faedca7e439b344f133fdb","1","2025-08-06T11:29:57.763Z","","","","","","","","","","","","","","","","win-only","3","g1:SW,g2:NE","0.5","10","0","1044103.8","1993.8","7024.8","22001.2","1","4","4","6","1","1","1","5","4","0.03787878787878788","1848.3","3000","2555","[""down"",""left""]","{""num_key_presses"":4,""num_perfect"":2,""num_errors"":0,""num_randdir"":2,""num_randdir_good_moves"":2,""num_whilered"":0,""num_whileblue"":0,""num_blue"":1,""num_good_moves"":4}","[298.22232142857143,294.12857142857143,0.5,298.22232142857143,294.12857142857143,113.3,298.22232142857143,294.12857142857143,221.6,298.22232142857143,294.12857142857143,324.7,298.22232142857143,294.12857142857143,431.6,298.22232142857143,294.12857142857143,542.2,298.22232142857143,294.12857142857143,642.4,298.22232142857143,294.12857142857143,750.3,298.22232142857143,294.12857142857143,860.5,277.22232142857143,304.12857142857143,976,138.22232142857143,419.12857142857143,1100,98.22232142857143,467.12857142857143,1205.4,97.22232142857143,489.12857142857143,1316.3,55.222321428571426,536.1285714285714,1441.7,47.222321428571426,533.1285714285714,1557.1,47.222321428571426,533.1285714285714,1678.3,47.222321428571426,533.1285714285714,1783.7,47.222321428571426,533.1285714285714,1887.9,47.222321428571426,533.1285714285714,2008.2,47.222321428571426,533.1285714285714,2109.4,47.222321428571426,533.1285714285714,2218.1,47.222321428571426,533.1285714285714,2325.9,47.222321428571426,533.1285714285714,2435.6,47.222321428571426,533.1285714285714,2553.7,47.222321428571426,533.1285714285714,2674.8,47.222321428571426,533.1285714285714,2776.6,47.222321428571426,533.1285714285714,2886.2,47.222321428571426,533.1285714285714,3008,47.222321428571426,533.1285714285714,3149.6,47.222321428571426,533.1285714285714,3269.4,47.222321428571426,533.1285714285714,3377.1,47.222321428571426,533.1285714285714,3487,47.222321428571426,533.1285714285714,3604.5,47.222321428571426,533.1285714285714,3711.6,47.222321428571426,533.1285714285714,3828.2,47.222321428571426,533.1285714285714,3935,47.222321428571426,533.1285714285714,4049.4,47.222321428571426,533.1285714285714,4169.4,47.222321428571426,533.1285714285714,4279.3,47.222321428571426,533.1285714285714,4384.7,47.222321428571426,533.1285714285714,4491.2,47.222321428571426,533.1285714285714,4595.3,47.222321428571426,533.1285714285714,4710.1,47.222321428571426,533.1285714285714,4841.1,47.222321428571426,533.1285714285714,4945.3]","[1537.1,1537.1,1000,0,537.1,""oops"",""down"",""down"",""good_move"",4439,2900.3,2218.9,1538.8,681.3,""smooth"",""down"",""down"",""good_move"",7707.5,3268.1,2839.4,4439.4,428.7,""oops"",""left"",""left"",""good_move"",14645.8,6937.5,2287.4,11905.6,452.8,""smooth"",""left"",""left"",""good_move""]"
"9288","","<div style=""width:500px;"">
  <p>What determined the result of this run?</p>
  </div>","97","html-slider-response","59","1074985","0.0-7.0-1.9","184","1","2025-08-06 11:12:09","36c45c0696341be0efffe67d72a12abb","102.216.154.101","Mozilla/5.0 (Windows NT 10.0; Win64; x64) AppleWebKit/537.36 (KHTML, like Gecko) Chrome/138.0.0.0 Safari/537.36","WebKit","Chrome","138.0.0.0","Windows","10.0","https://app.prolific.com/","en-US,en;q=0.9","65faedca7e439b344f133fdb","687a1a965b9f5b85a264363e","689338771ce8d14a3032b180","1","65faedca7e439b344f133fdb","1","2025-08-06T11:30:07.054Z","","","","AttribQ","","","","","","","","","","","50","","","","","","","","","","","","","","","","","","","","","","","","","","",""
"5738","","<div style=""width:500px;"">
  <p>How much control did you have over the ball?</p>
  </div>","0","html-slider-response","60","1080726","0.0-7.0-2.9","184","1","2025-08-06 11:12:09","36c45c0696341be0efffe67d72a12abb","102.216.154.101","Mozilla/5.0 (Windows NT 10.0; Win64; x64) AppleWebKit/537.36 (KHTML, like Gecko) Chrome/138.0.0.0 Safari/537.36","WebKit","Chrome","138.0.0.0","Windows","10.0","https://app.prolific.com/","en-US,en;q=0.9","65faedca7e439b344f133fdb","687a1a965b9f5b85a264363e","689338771ce8d14a3032b180","1","65faedca7e439b344f133fdb","1","2025-08-06T11:30:12.796Z","","","","ControlQ","","","","","","","","","","","50","","","","","","","","","","","","","","","","","","","","","","","","","","",""
"3760","","<div style=""width:500px;"">
  <p>How would you describe your current emotional state?</p>
  </div>","100","html-slider-response","61","1084490","0.0-7.0-3.9","184","1","2025-08-06 11:12:09","36c45c0696341be0efffe67d72a12abb","102.216.154.101","Mozilla/5.0 (Windows NT 10.0; Win64; x64) AppleWebKit/537.36 (KHTML, like Gecko) Chrome/138.0.0.0 Safari/537.36","WebKit","Chrome","138.0.0.0","Windows","10.0","https://app.prolific.com/","en-US,en;q=0.9","65faedca7e439b344f133fdb","687a1a965b9f5b85a264363e","689338771ce8d14a3032b180","1","65faedca7e439b344f133fdb","1","2025-08-06T11:30:16.559Z","","","","StressQ","","","","","","","","","","","50","","","","","","","","","","","","","","","","","","","","","","","","","","",""
"4129","","<div style=""width:500px;"">
  <p>What best describes how you currently feel?</p>
  </div>","0","html-slider-response","62","1088622","0.0-7.0-4.9","184","1","2025-08-06 11:12:09","36c45c0696341be0efffe67d72a12abb","102.216.154.101","Mozilla/5.0 (Windows NT 10.0; Win64; x64) AppleWebKit/537.36 (KHTML, like Gecko) Chrome/138.0.0.0 Safari/537.36","WebKit","Chrome","138.0.0.0","Windows","10.0","https://app.prolific.com/","en-US,en;q=0.9","65faedca7e439b344f133fdb","687a1a965b9f5b85a264363e","689338771ce8d14a3032b180","1","65faedca7e439b344f133fdb","1","2025-08-06T11:30:20.691Z","","","","MotivationQ","","","","","","","","","","","50","","","","","","","","","","","","","","","","","","","","","","","","","","",""
"","","","","ctl-task-cpt","63","1215809","0.0-7.0-0.10","184","1","2025-08-06 11:12:09","36c45c0696341be0efffe67d72a12abb","102.216.154.101","Mozilla/5.0 (Windows NT 10.0; Win64; x64) AppleWebKit/537.36 (KHTML, like Gecko) Chrome/138.0.0.0 Safari/537.36","WebKit","Chrome","138.0.0.0","Windows","10.0","https://app.prolific.com/","en-US,en;q=0.9","65faedca7e439b344f133fdb","687a1a965b9f5b85a264363e","689338771ce8d14a3032b180","1","65faedca7e439b344f133fdb","1","2025-08-06T11:32:27.878Z","","","","","","","","","","","","","","","","win-only","1","g1:NE,g2:SW","0.6","11","0","1092068.2","1732.9","6735.5","124102.8","1","4","4","6","1","1","1","6","5","0.045454545454545456","2223.9","3000","1070","[""up"",""right""]","{""num_key_presses"":16,""num_perfect"":9,""num_errors"":0,""num_randdir"":7,""num_randdir_good_moves"":1,""num_whilered"":0,""num_whileblue"":0,""num_blue"":6,""num_good_moves"":10}","[291.22232142857143,296.12857142857143,1.5,291.22232142857143,296.12857142857143,114.3,291.22232142857143,296.12857142857143,214.6,291.22232142857143,296.12857142857143,333,291.22232142857143,296.12857142857143,451.6,291.22232142857143,296.12857142857143,552.1,291.22232142857143,296.12857142857143,676.8,291.22232142857143,296.12857142857143,779.7,291.22232142857143,296.12857142857143,889.2,291.22232142857143,296.12857142857143,997.2,291.22232142857143,296.12857142857143,1103.7,291.22232142857143,296.12857142857143,1214.4,291.22232142857143,296.12857142857143,1328.4,314.22232142857143,255.12857142857143,1439.5,585.2223214285714,-45.871428571428574,1547.4,590.2223214285714,-45.871428571428574,1663.1,549.2223214285714,19.128571428571426,1779.3,521.2223214285714,58.128571428571426,1899.7,521.2223214285714,58.128571428571426,2012.6,521.2223214285714,54.128571428571426,2129.6,520.2223214285714,58.128571428571426,2240.1,520.2223214285714,58.128571428571426,2353.9,520.2223214285714,58.128571428571426,2461.9,520.2223214285714,58.128571428571426,2562.8,520.2223214285714,58.128571428571426,2667.2,520.2223214285714,58.128571428571426,2773.9,520.2223214285714,58.128571428571426,2886.8,520.2223214285714,58.128571428571426,2988.5,520.2223214285714,58.128571428571426,3088.6,520.2223214285714,58.128571428571426,3201.7,520.2223214285714,58.128571428571426,3308.2,520.2223214285714,58.128571428571426,3414.8,520.2223214285714,58.128571428571426,3518.5,520.2223214285714,58.128571428571426,3633.6,520.2223214285714,58.128571428571426,3752.5,520.2223214285714,58.128571428571426,3871.6,520.2223214285714,58.128571428571426,3985.9,520.2223214285714,58.128571428571426,4092.3,520.2223214285714,58.128571428571426,4200.9,520.2223214285714,58.128571428571426,4310.3,520.2223214285714,58.128571428571426,4418.6,520.2223214285714,58.128571428571426,4535.1,520.2223214285714,58.128571428571426,4654.6,520.2223214285714,58.128571428571426,4766.3,520.2223214285714,58.128571428571426,4875.9,520.2223214285714,58.128571428571426,4978.3]","[5135,5135,2622.7,2023.8,488.5,""smooth"",""right"",""right"",""good_move"",8173.7,3038.2,2500.3,5135.5,537.9,""smooth"",""right"",""right"",""good_move"",11343.5,3169.2,2640,8174.3,529.2,""oops"",""up"",""down"",""bad_move"",25400.6,14056.6,3253.4,20719.1,1428.1,""smooth"",""up"",""up"",""good_move"",35093.4,9692.2,2637,31821.3,635.1,""oops"",""up"",""down"",""bad_move"",39261.2,4167.4,3290.2,35093.8,877.2,""oops"",""up"",""down"",""bad_move"",43379.2,4116.6,2895.7,39262.6,1221,""smooth"",""up"",""up"",""good_move"",49768.3,6388.4,2297,43379.9,4091.4,""oops"",""up"",""down"",""bad_move"",53544.7,3775.8,3112.8,49769,662.9,""smooth"",""up"",""up"",""good_move"",60933.8,7388.7,2251.9,53545.1,5136.8,""smooth"",""up"",""up"",""good_move"",74367.9,13433.2,2860,70813.9,694,""oops"",""up"",""down"",""bad_move"",81339.4,6971,2597.9,74368.4,4373.1,""oops"",""up"",""left"",""bad_move"",91151.3,9810.9,2349,81340.4,7461.9,""smooth"",""up"",""up"",""good_move"",102885.3,11733.5,2711,91151.8,9022.5,""smooth"",""up"",""up"",""good_move"",112902.7,10017,1739.9,102885.8,8277.1,""oops"",""up"",""right"",""good_move"",116475.1,3571.4,2396.3,112903.7,1175.1,""smooth"",""up"",""up"",""good_move""]"
"6749","","<div style=""width:500px;"">
  <p>What determined the result of this run?</p>
  </div>","92","html-slider-response","64","1222565","0.0-7.0-1.10","184","1","2025-08-06 11:12:09","36c45c0696341be0efffe67d72a12abb","102.216.154.101","Mozilla/5.0 (Windows NT 10.0; Win64; x64) AppleWebKit/537.36 (KHTML, like Gecko) Chrome/138.0.0.0 Safari/537.36","WebKit","Chrome","138.0.0.0","Windows","10.0","https://app.prolific.com/","en-US,en;q=0.9","65faedca7e439b344f133fdb","687a1a965b9f5b85a264363e","689338771ce8d14a3032b180","1","65faedca7e439b344f133fdb","1","2025-08-06T11:32:34.634Z","","","","AttribQ","","","","","","","","","","","50","","","","","","","","","","","","","","","","","","","","","","","","","","",""
"4497","","<div style=""width:500px;"">
  <p>How much control did you have over the ball?</p>
  </div>","14","html-slider-response","65","1227067","0.0-7.0-2.10","184","1","2025-08-06 11:12:09","36c45c0696341be0efffe67d72a12abb","102.216.154.101","Mozilla/5.0 (Windows NT 10.0; Win64; x64) AppleWebKit/537.36 (KHTML, like Gecko) Chrome/138.0.0.0 Safari/537.36","WebKit","Chrome","138.0.0.0","Windows","10.0","https://app.prolific.com/","en-US,en;q=0.9","65faedca7e439b344f133fdb","687a1a965b9f5b85a264363e","689338771ce8d14a3032b180","1","65faedca7e439b344f133fdb","1","2025-08-06T11:32:39.136Z","","","","ControlQ","","","","","","","","","","","50","","","","","","","","","","","","","","","","","","","","","","","","","","",""
"3452","","<div style=""width:500px;"">
  <p>How would you describe your current emotional state?</p>
  </div>","100","html-slider-response","66","1230523","0.0-7.0-3.10","184","1","2025-08-06 11:12:09","36c45c0696341be0efffe67d72a12abb","102.216.154.101","Mozilla/5.0 (Windows NT 10.0; Win64; x64) AppleWebKit/537.36 (KHTML, like Gecko) Chrome/138.0.0.0 Safari/537.36","WebKit","Chrome","138.0.0.0","Windows","10.0","https://app.prolific.com/","en-US,en;q=0.9","65faedca7e439b344f133fdb","687a1a965b9f5b85a264363e","689338771ce8d14a3032b180","1","65faedca7e439b344f133fdb","1","2025-08-06T11:32:42.592Z","","","","StressQ","","","","","","","","","","","50","","","","","","","","","","","","","","","","","","","","","","","","","","",""
"6172","","<div style=""width:500px;"">
  <p>What best describes how you currently feel?</p>
  </div>","0","html-slider-response","67","1236700","0.0-7.0-4.10","184","1","2025-08-06 11:12:09","36c45c0696341be0efffe67d72a12abb","102.216.154.101","Mozilla/5.0 (Windows NT 10.0; Win64; x64) AppleWebKit/537.36 (KHTML, like Gecko) Chrome/138.0.0.0 Safari/537.36","WebKit","Chrome","138.0.0.0","Windows","10.0","https://app.prolific.com/","en-US,en;q=0.9","65faedca7e439b344f133fdb","687a1a965b9f5b85a264363e","689338771ce8d14a3032b180","1","65faedca7e439b344f133fdb","1","2025-08-06T11:32:48.769Z","","","","MotivationQ","","","","","","","","","","","50","","","","","","","","","","","","","","","","","","","","","","","","","","",""
"","","","","ctl-task-cpt","68","1314186","0.0-7.0-0.11","184","1","2025-08-06 11:12:09","36c45c0696341be0efffe67d72a12abb","102.216.154.101","Mozilla/5.0 (Windows NT 10.0; Win64; x64) AppleWebKit/537.36 (KHTML, like Gecko) Chrome/138.0.0.0 Safari/537.36","WebKit","Chrome","138.0.0.0","Windows","10.0","https://app.prolific.com/","en-US,en;q=0.9","65faedca7e439b344f133fdb","687a1a965b9f5b85a264363e","689338771ce8d14a3032b180","1","65faedca7e439b344f133fdb","1","2025-08-06T11:34:06.255Z","","","","","","","","","","","","","","","","win-only","3","g1:SW,g2:NE","0.7","12","0","1240149.2","2434.4","7476.3","74401.4","1","4","8","6","1","1","1","7","6","0.05303030303030303","2187.8","3000","1660","[""down"",""left""]","{""num_key_presses"":8,""num_perfect"":5,""num_errors"":0,""num_randdir"":3,""num_randdir_good_moves"":1,""num_whilered"":0,""num_whileblue"":0,""num_blue"":1,""num_good_moves"":6}","[296.22232142857143,296.12857142857143,0.4,296.22232142857143,296.12857142857143,130.5,296.22232142857143,296.12857142857143,267,296.22232142857143,296.12857142857143,380.7,296.22232142857143,296.12857142857143,510.6,296.22232142857143,296.12857142857143,634.7,296.22232142857143,296.12857142857143,777.6,296.22232142857143,296.12857142857143,926.7,296.22232142857143,296.12857142857143,1039.1,296.22232142857143,296.12857142857143,1148.5,196.22232142857143,377.12857142857143,1285.8,84.22232142857143,473.12857142857143,1441.2,64.22232142857143,481.12857142857143,1596.6,62.222321428571426,502.12857142857143,1738.7,51.222321428571426,526.1285714285714,1868.5,47.222321428571426,530.1285714285714,1978.9,47.222321428571426,530.1285714285714,2102.3,47.222321428571426,530.1285714285714,2221.3,47.222321428571426,530.1285714285714,2334.4,47.222321428571426,530.1285714285714,2455.8,47.222321428571426,530.1285714285714,2594.8,47.222321428571426,530.1285714285714,2742.6,47.222321428571426,530.1285714285714,2863.2,47.222321428571426,530.1285714285714,2975.9,47.222321428571426,530.1285714285714,3108.3,47.222321428571426,530.1285714285714,3217,47.222321428571426,530.1285714285714,3348,47.222321428571426,530.1285714285714,3461.5,47.222321428571426,530.1285714285714,3581.7,47.222321428571426,530.1285714285714,3693.8,47.222321428571426,530.1285714285714,3816.3,47.222321428571426,530.1285714285714,3957.1,47.222321428571426,530.1285714285714,4080,47.222321428571426,530.1285714285714,4205.4,47.222321428571426,530.1285714285714,4322.3,47.222321428571426,530.1285714285714,4456.7,47.222321428571426,530.1285714285714,4596.5,47.222321428571426,530.1285714285714,4721.2,47.222321428571426,530.1285714285714,4852.6,47.222321428571426,530.1285714285714,4983.5]","[1732.3,1732.3,1000,0,732.3,""smooth"",""down"",""down"",""good_move"",9955.5,8223.1,2249.9,6348.5,1357.1,""smooth"",""down"",""down"",""good_move"",15611.9,5655.9,2642.1,9956,3013.8,""oops"",""left"",""up"",""bad_move"",27278.2,11665.8,2288,15612.4,9377.8,""smooth"",""left"",""left"",""good_move"",38081.9,10802.8,2793,27279.1,8009.8,""smooth"",""down"",""down"",""good_move"",42034.2,3951.9,3038.4,38082.3,913.5,""oops"",""left"",""right"",""bad_move"",54133.5,12098.8,2470.8,42034.7,9628,""oops"",""left"",""left"",""good_move"",65630.5,11496.6,2692.5,54134,8804.1,""smooth"",""left"",""left"",""good_move""]"
"8352","","<div style=""width:500px;"">
  <p>What determined the result of this run?</p>
  </div>","100","html-slider-response","69","1322548","0.0-7.0-1.11","184","1","2025-08-06 11:12:09","36c45c0696341be0efffe67d72a12abb","102.216.154.101","Mozilla/5.0 (Windows NT 10.0; Win64; x64) AppleWebKit/537.36 (KHTML, like Gecko) Chrome/138.0.0.0 Safari/537.36","WebKit","Chrome","138.0.0.0","Windows","10.0","https://app.prolific.com/","en-US,en;q=0.9","65faedca7e439b344f133fdb","687a1a965b9f5b85a264363e","689338771ce8d14a3032b180","1","65faedca7e439b344f133fdb","1","2025-08-06T11:34:14.618Z","","","","AttribQ","","","","","","","","","","","50","","","","","","","","","","","","","","","","","","","","","","","","","","",""
"3541","","<div style=""width:500px;"">
  <p>How much control did you have over the ball?</p>
  </div>","8","html-slider-response","70","1326091","0.0-7.0-2.11","184","1","2025-08-06 11:12:09","36c45c0696341be0efffe67d72a12abb","102.216.154.101","Mozilla/5.0 (Windows NT 10.0; Win64; x64) AppleWebKit/537.36 (KHTML, like Gecko) Chrome/138.0.0.0 Safari/537.36","WebKit","Chrome","138.0.0.0","Windows","10.0","https://app.prolific.com/","en-US,en;q=0.9","65faedca7e439b344f133fdb","687a1a965b9f5b85a264363e","689338771ce8d14a3032b180","1","65faedca7e439b344f133fdb","1","2025-08-06T11:34:18.160Z","","","","ControlQ","","","","","","","","","","","50","","","","","","","","","","","","","","","","","","","","","","","","","","",""
"5923","","<div style=""width:500px;"">
  <p>How would you describe your current emotional state?</p>
  </div>","100","html-slider-response","71","1332017","0.0-7.0-3.11","184","1","2025-08-06 11:12:09","36c45c0696341be0efffe67d72a12abb","102.216.154.101","Mozilla/5.0 (Windows NT 10.0; Win64; x64) AppleWebKit/537.36 (KHTML, like Gecko) Chrome/138.0.0.0 Safari/537.36","WebKit","Chrome","138.0.0.0","Windows","10.0","https://app.prolific.com/","en-US,en;q=0.9","65faedca7e439b344f133fdb","687a1a965b9f5b85a264363e","689338771ce8d14a3032b180","1","65faedca7e439b344f133fdb","1","2025-08-06T11:34:24.086Z","","","","StressQ","","","","","","","","","","","50","","","","","","","","","","","","","","","","","","","","","","","","","","",""
"4925","","<div style=""width:500px;"">
  <p>What best describes how you currently feel?</p>
  </div>","0","html-slider-response","72","1336944","0.0-7.0-4.11","184","1","2025-08-06 11:12:09","36c45c0696341be0efffe67d72a12abb","102.216.154.101","Mozilla/5.0 (Windows NT 10.0; Win64; x64) AppleWebKit/537.36 (KHTML, like Gecko) Chrome/138.0.0.0 Safari/537.36","WebKit","Chrome","138.0.0.0","Windows","10.0","https://app.prolific.com/","en-US,en;q=0.9","65faedca7e439b344f133fdb","687a1a965b9f5b85a264363e","689338771ce8d14a3032b180","1","65faedca7e439b344f133fdb","1","2025-08-06T11:34:29.014Z","","","","MotivationQ","","","","","","","","","","","50","","","","","","","","","","","","","","","","","","","","","","","","","","",""
"","","","","ctl-task-cpt","73","1374024","0.0-7.0-0.12","184","1","2025-08-06 11:12:09","36c45c0696341be0efffe67d72a12abb","102.216.154.101","Mozilla/5.0 (Windows NT 10.0; Win64; x64) AppleWebKit/537.36 (KHTML, like Gecko) Chrome/138.0.0.0 Safari/537.36","WebKit","Chrome","138.0.0.0","Windows","10.0","https://app.prolific.com/","en-US,en;q=0.9","65faedca7e439b344f133fdb","687a1a965b9f5b85a264363e","689338771ce8d14a3032b180","1","65faedca7e439b344f133fdb","1","2025-08-06T11:35:06.094Z","","","","","","","","","","","","","","","","win-only","0","g1:NW,g2:SE","0.8","13","0","1340393.6","3035.5","8054.6","34059.6","1","4","4","6","1","1","1","8","7","0.06060606060606061","5019.1","3000","1380","[""left"",""up""]","{""num_key_presses"":8,""num_perfect"":6,""num_errors"":0,""num_randdir"":2,""num_randdir_good_moves"":0,""num_whilered"":0,""num_whileblue"":0,""num_blue"":0,""num_good_moves"":6}","[300.22232142857143,293.12857142857143,1.2,300.22232142857143,293.12857142857143,103.7,300.22232142857143,293.12857142857143,208,300.22232142857143,293.12857142857143,308.5,300.22232142857143,293.12857142857143,421.5,300.22232142857143,293.12857142857143,526.8,300.22232142857143,293.12857142857143,632.1,300.22232142857143,293.12857142857143,734,300.22232142857143,293.12857142857143,838.8,300.22232142857143,293.12857142857143,946.2,300.22232142857143,293.12857142857143,1056.6,300.22232142857143,293.12857142857143,1161.6,300.22232142857143,293.12857142857143,1270.6,300.22232142857143,293.12857142857143,1379.4,300.22232142857143,293.12857142857143,1486.2,300.22232142857143,293.12857142857143,1599.1,300.22232142857143,293.12857142857143,1706.9,300.22232142857143,293.12857142857143,1822.9,300.22232142857143,293.12857142857143,1933.4,300.22232142857143,293.12857142857143,2040.7,300.22232142857143,293.12857142857143,2150.2,300.22232142857143,293.12857142857143,2250.2,300.22232142857143,293.12857142857143,2361.6,300.22232142857143,293.12857142857143,2465.6,300.22232142857143,293.12857142857143,2579.6,300.22232142857143,293.12857142857143,2691.1,300.22232142857143,293.12857142857143,2808,300.22232142857143,293.12857142857143,2919,300.22232142857143,293.12857142857143,3021,300.22232142857143,293.12857142857143,3123.9,300.22232142857143,293.12857142857143,3237.1,300.22232142857143,293.12857142857143,3352.4,300.22232142857143,293.12857142857143,3457,300.22232142857143,293.12857142857143,3576.3,300.22232142857143,293.12857142857143,3689,300.22232142857143,293.12857142857143,3794.6,300.22232142857143,293.12857142857143,3908.9,300.22232142857143,293.12857142857143,4019.2,294.22232142857143,295.12857142857143,4126.8,252.22232142857143,312.12857142857143,4243.5,243.22232142857143,314.12857142857143,4344.5,242.22232142857143,315.12857142857143,4445.8,242.22232142857143,315.12857142857143,4554.9,242.22232142857143,315.12857142857143,4670.8,244.22232142857143,298.12857142857143,4774.4,261.22232142857143,262.12857142857143,4885.7,263.22232142857143,261.12857142857143,4999]","[2199.7,2199.7,1000,0,1199.7,""smooth"",""up"",""up"",""good_move"",5413.4,3213.1,2275.1,2200.3,938,""smooth"",""up"",""up"",""good_move"",8658.6,3244.5,2636.4,5414.1,608.1,""oops"",""left"",""right"",""bad_move"",12118.6,3458.2,2781.3,8660.4,676.9,""oops"",""left"",""right"",""bad_move"",15252,3133,2525.1,12119.1,607.8,""smooth"",""left"",""left"",""good_move"",18903.6,3650.4,2984.4,15253.2,666,""smooth"",""left"",""left"",""good_move"",22426.6,3521.4,1604.4,18905.2,1917,""smooth"",""left"",""left"",""good_move"",25782.5,3355,2027,22427.5,1328,""smooth"",""left"",""left"",""good_move""]"
"5091","","<div style=""width:500px;"">
  <p>What determined the result of this run?</p>
  </div>","100","html-slider-response","74","1379117","0.0-7.0-1.12","184","1","2025-08-06 11:12:09","36c45c0696341be0efffe67d72a12abb","102.216.154.101","Mozilla/5.0 (Windows NT 10.0; Win64; x64) AppleWebKit/537.36 (KHTML, like Gecko) Chrome/138.0.0.0 Safari/537.36","WebKit","Chrome","138.0.0.0","Windows","10.0","https://app.prolific.com/","en-US,en;q=0.9","65faedca7e439b344f133fdb","687a1a965b9f5b85a264363e","689338771ce8d14a3032b180","1","65faedca7e439b344f133fdb","1","2025-08-06T11:35:11.186Z","","","","AttribQ","","","","","","","","","","","50","","","","","","","","","","","","","","","","","","","","","","","","","","",""
"3880","","<div style=""width:500px;"">
  <p>How much control did you have over the ball?</p>
  </div>","0","html-slider-response","75","1383000","0.0-7.0-2.12","184","1","2025-08-06 11:12:09","36c45c0696341be0efffe67d72a12abb","102.216.154.101","Mozilla/5.0 (Windows NT 10.0; Win64; x64) AppleWebKit/537.36 (KHTML, like Gecko) Chrome/138.0.0.0 Safari/537.36","WebKit","Chrome","138.0.0.0","Windows","10.0","https://app.prolific.com/","en-US,en;q=0.9","65faedca7e439b344f133fdb","687a1a965b9f5b85a264363e","689338771ce8d14a3032b180","1","65faedca7e439b344f133fdb","1","2025-08-06T11:35:15.069Z","","","","ControlQ","","","","","","","","","","","50","","","","","","","","","","","","","","","","","","","","","","","","","","",""
"7091","","<div style=""width:500px;"">
  <p>How would you describe your current emotional state?</p>
  </div>","93","html-slider-response","76","1390095","0.0-7.0-3.12","184","1","2025-08-06 11:12:09","36c45c0696341be0efffe67d72a12abb","102.216.154.101","Mozilla/5.0 (Windows NT 10.0; Win64; x64) AppleWebKit/537.36 (KHTML, like Gecko) Chrome/138.0.0.0 Safari/537.36","WebKit","Chrome","138.0.0.0","Windows","10.0","https://app.prolific.com/","en-US,en;q=0.9","65faedca7e439b344f133fdb","687a1a965b9f5b85a264363e","689338771ce8d14a3032b180","1","65faedca7e439b344f133fdb","1","2025-08-06T11:35:22.164Z","","","","StressQ","","","","","","","","","","","50","","","","","","","","","","","","","","","","","","","","","","","","","","",""
"3558","","<div style=""width:500px;"">
  <p>What best describes how you currently feel?</p>
  </div>","4","html-slider-response","77","1393655","0.0-7.0-4.12","184","1","2025-08-06 11:12:09","36c45c0696341be0efffe67d72a12abb","102.216.154.101","Mozilla/5.0 (Windows NT 10.0; Win64; x64) AppleWebKit/537.36 (KHTML, like Gecko) Chrome/138.0.0.0 Safari/537.36","WebKit","Chrome","138.0.0.0","Windows","10.0","https://app.prolific.com/","en-US,en;q=0.9","65faedca7e439b344f133fdb","687a1a965b9f5b85a264363e","689338771ce8d14a3032b180","1","65faedca7e439b344f133fdb","1","2025-08-06T11:35:25.725Z","","","","MotivationQ","","","","","","","","","","","50","","","","","","","","","","","","","","","","","","","","","","","","","","",""
"","","","","ctl-task-cpt","78","1425909","0.0-7.0-0.13","184","1","2025-08-06 11:12:09","36c45c0696341be0efffe67d72a12abb","102.216.154.101","Mozilla/5.0 (Windows NT 10.0; Win64; x64) AppleWebKit/537.36 (KHTML, like Gecko) Chrome/138.0.0.0 Safari/537.36","WebKit","Chrome","138.0.0.0","Windows","10.0","https://app.prolific.com/","en-US,en;q=0.9","65faedca7e439b344f133fdb","687a1a965b9f5b85a264363e","689338771ce8d14a3032b180","1","65faedca7e439b344f133fdb","1","2025-08-06T11:35:57.978Z","","","","","","","","","","","","","","","","win-only","2","g1:SE,g2:NW","0.9","14","0","1397102.1","1626.1","6660.8","29228.9","1","4","8","6","1","-1","-1","7","8","0.05303030303030303","2333.4","3000","-795","[""down"",""right""]","{""num_key_presses"":1,""num_perfect"":1,""num_errors"":0,""num_randdir"":0,""num_randdir_good_moves"":0,""num_whilered"":0,""num_whileblue"":0,""num_blue"":2,""num_good_moves"":1}","[292.22232142857143,296.12857142857143,0.5,292.22232142857143,296.12857142857143,115.8,292.22232142857143,296.12857142857143,230,292.22232142857143,296.12857142857143,330.5,292.22232142857143,296.12857142857143,436.3,292.22232142857143,296.12857142857143,548.4,292.22232142857143,296.12857142857143,649.8,292.22232142857143,296.12857142857143,756.8,292.22232142857143,296.12857142857143,867.7,292.22232142857143,296.12857142857143,973.4,292.22232142857143,296.12857142857143,1100.2,292.22232142857143,296.12857142857143,1203.9,598.2223214285714,410.12857142857143,1326.3,632.2223214285714,444.12857142857143,1434.5,613.2223214285714,444.12857142857143,1536.8,518.2223214285714,493.12857142857143,1673.7,518.2223214285714,493.12857142857143,1797.1,526.2223214285714,520.1285714285714,1925.8,538.2223214285714,535.1285714285714,2032.8,538.2223214285714,535.1285714285714,2135.1,538.2223214285714,535.1285714285714,2237.1,538.2223214285714,535.1285714285714,2366.7,538.2223214285714,535.1285714285714,2490.6,538.2223214285714,535.1285714285714,2599.1,538.2223214285714,535.1285714285714,2716.4,538.2223214285714,535.1285714285714,2830.1,538.2223214285714,535.1285714285714,2930.5,538.2223214285714,535.1285714285714,3035.6,538.2223214285714,535.1285714285714,3159.8,538.2223214285714,535.1285714285714,3275.7,538.2223214285714,535.1285714285714,3376.9,538.2223214285714,535.1285714285714,3486.1,538.2223214285714,535.1285714285714,3594.4,538.2223214285714,535.1285714285714,3696.4,538.2223214285714,535.1285714285714,3796.7,538.2223214285714,535.1285714285714,3901.5,538.2223214285714,535.1285714285714,4006.2,538.2223214285714,535.1285714285714,4125.2,538.2223214285714,535.1285714285714,4230.7,538.2223214285714,535.1285714285714,4360.1,538.2223214285714,535.1285714285714,4498.4,538.2223214285714,535.1285714285714,4623.4,538.2223214285714,535.1285714285714,4725.4,538.2223214285714,535.1285714285714,4836.7,538.2223214285714,535.1285714285714,4957.1]","[6216,6216,1978.8,2036,2201.2,""smooth"",""right"",""right"",""good_move""]"
"28736","","<div style=""width:500px;"">
  <p>What determined the result of this run?</p>
