"rt","response_timestamp","stimulus","response","trial_type","trial_index","time_elapsed","internal_node_id","run_id","condition","recorded_at","source_code_version","ip","user_agent","device","browser","browser_version","platform","platform_version","referer","accept_language","PROLIFIC_PID","STUDY_ID","SESSION_ID","BATCH","prolific_id","batch","realtime","success","question_order","question_id","eventType","responses","item_order","radio_event_ids","radio_event_times","key_event_times","mouse_event_times","straightlining","zigzagging","honeypot","view_history","slider_start","which_type","canvas_config","goals_layout","control_level","trial_number","tutorial_trial_number","trial_start_time","phase1_start_time","phase2_start_time","phase3_start_time","goal_1_value","goal_1_distance","goal_2_value","goal_2_distance","goal_selected","outcome","outcome_total","participant_final_score","participant_initial_score","participant_final_score_prop","goal_choice_rt","allocated_time","allocated_time_remaining","goal_direction","counts","mouse_movements","key_presses"
"6111","1753864802759","<p style='font-size:40px;line-height:1.25'><strong>Welcome to the experiment!</strong></p><p style='font-size:1.1em;line-height:1.25'>Thank you for participanting in our experiment again! You will be asked to play the Dysfunctional Ball Game again. We will briefly recap the rules before we start.</p><p style='font-size:1.1em;line-height:1.25'>Press <strong>Next</strong> to continue.</p>","0","custom-html-button-response","0","6115","0.0-0.0","20","1","2025-07-30 08:39:53","36c45c0696341be0efffe67d72a12abb","49.36.203.88","Mozilla/5.0 (Windows NT 10.0; Win64; x64) AppleWebKit/537.36 (KHTML, like Gecko) Chrome/138.0.0.0 Safari/537.36","WebKit","Chrome","138.0.0.0","Windows","10.0","https://app.prolific.com/","en-US,en;q=0.9","65fad673a546ab14baf2f8d3","687a19d2168e237449fb8af4","6889d9d839fe2242c00b7610","0","65fad673a546ab14baf2f8d3","0","2025-07-30T08:40:02.760Z","","","","","","","","","","","","","","","","","","","","","","","","","","","","","","","","","","","","","","","","","",""
"9538","","","","fullscreen","1","16661","0.0-1.0","20","1","2025-07-30 08:39:53","36c45c0696341be0efffe67d72a12abb","49.36.203.88","Mozilla/5.0 (Windows NT 10.0; Win64; x64) AppleWebKit/537.36 (KHTML, like Gecko) Chrome/138.0.0.0 Safari/537.36","WebKit","Chrome","138.0.0.0","Windows","10.0","https://app.prolific.com/","en-US,en;q=0.9","65fad673a546ab14baf2f8d3","687a19d2168e237449fb8af4","6889d9d839fe2242c00b7610","0","65fad673a546ab14baf2f8d3","0","","true","","","","","","","","","","","","","","","","","","","","","","","","","","","","","","","","","","","","","","","","",""
"7702","1753864821009"," <p style='font-size:1.1em;line-height:1.25'>Thank you for closing all other tabs.</p><p style='font-size:1.1em;line-height:1.25'>We will now invite you to fill in some questionnaires, before starting the game.<br>This will take about 5 minutes.<br></p><p style='font-size:1.1em;line-height:1.25'>Press the <strong>Next</strong> button to continue.</p>","0","custom-html-button-response","2","24365","0.0-2.0","20","1","2025-07-30 08:39:53","36c45c0696341be0efffe67d72a12abb","49.36.203.88","Mozilla/5.0 (Windows NT 10.0; Win64; x64) AppleWebKit/537.36 (KHTML, like Gecko) Chrome/138.0.0.0 Safari/537.36","WebKit","Chrome","138.0.0.0","Windows","10.0","https://app.prolific.com/","en-US,en;q=0.9","65fad673a546ab14baf2f8d3","687a19d2168e237449fb8af4","6889d9d839fe2242c00b7610","0","65fad673a546ab14baf2f8d3","0","2025-07-30T08:40:21.010Z","","","","","","","","","","","","","","","","","","","","","","","","","","","","","","","","","","","","","","","","","",""
"4963","","","{""assigned_sex"":""male""}","survey-multi-choice","3","29330","0.0-3.0-0.0","20","1","2025-07-30 08:39:53","36c45c0696341be0efffe67d72a12abb","49.36.203.88","Mozilla/5.0 (Windows NT 10.0; Win64; x64) AppleWebKit/537.36 (KHTML, like Gecko) Chrome/138.0.0.0 Safari/537.36","WebKit","Chrome","138.0.0.0","Windows","10.0","https://app.prolific.com/","en-US,en;q=0.9","65fad673a546ab14baf2f8d3","687a19d2168e237449fb8af4","6889d9d839fe2242c00b7610","0","65fad673a546ab14baf2f8d3","0","","","[0]","0","demographics","","","","","","","","","","","","","","","","","","","","","","","","","","","","","","","","","","","","","",""
"5862","1753864831839","<p style='font-size:1.1em;line-height:1.25'>In the following, we will perform a baseline assessment. This means that we will ask you a few questions relating to your experiences over the past month.<br></p><p style='font-size:1.1em;line-height:1.25'>Press the <strong>Next</strong> button to continue.</p>","0","custom-html-button-response","4","35194","0.0-4.0-0.0","20","1","2025-07-30 08:39:53","36c45c0696341be0efffe67d72a12abb","49.36.203.88","Mozilla/5.0 (Windows NT 10.0; Win64; x64) AppleWebKit/537.36 (KHTML, like Gecko) Chrome/138.0.0.0 Safari/537.36","WebKit","Chrome","138.0.0.0","Windows","10.0","https://app.prolific.com/","en-US,en;q=0.9","65fad673a546ab14baf2f8d3","687a19d2168e237449fb8af4","6889d9d839fe2242c00b7610","0","65fad673a546ab14baf2f8d3","0","2025-07-30T08:40:31.839Z","","","","","","","","","","","","","","","","","","","","","","","","","","","","","","","","","","","","","","","","","",""
"69255.19999998808","","","","survey-template","5","104454","0.0-4.0-1.0","20","1","2025-07-30 08:39:53","36c45c0696341be0efffe67d72a12abb","49.36.203.88","Mozilla/5.0 (Windows NT 10.0; Win64; x64) AppleWebKit/537.36 (KHTML, like Gecko) Chrome/138.0.0.0 Safari/537.36","WebKit","Chrome","138.0.0.0","Windows","10.0","https://app.prolific.com/","en-US,en;q=0.9","65fad673a546ab14baf2f8d3","687a19d2168e237449fb8af4","6889d9d839fe2242c00b7610","0","65fad673a546ab14baf2f8d3","0","2025-07-30T08:41:41.099Z","","","","pss","{""Q01"":""3"",""Q02"":""2"",""Q03"":""3"",""Q04"":""2"",""Q05"":""3"",""Q06"":""2"",""Q07"":""2"",""Q08"":""3"",""Q09"":""2"",""Q10"":""2""}","[0,1,2,3,4,5,6,7,8,9]","[""Q01"",""Q02"",""Q03"",""Q04"",""Q05"",""Q06"",""Q07"",""Q08"",""Q09"",""Q10""]","[9235.59999999404,17033.19999998808,22019.19999998808,26814.5,34935.59999999404,40904,48716,54872.19999998808,61815.09999999404,67307.89999999106]","[]","[0.09999999403953552,9235.59999999404,15239.699999988079,17033.19999998808,22019.19999998808,26814.5,33421,34935.59999999404,40904,48716,53805.69999998808,54872.19999998808,61815.09999999404,67307.89999999106,69253.29999999702]","0.6","0.7777777777777778","0","","","","","","","","","","","","","","","","","","","","","","","","","","","","",""
"4158","1753864905258","<p style='font-size:1.1em;line-height:1.25'>Thank you for your answers! Now we will ask you a few more questions relating to your feelings in the last 24 hours.<br></p><p style='font-size:1.1em;line-height:1.25'>Press the <strong>Next</strong> button to continue.</p>","0","custom-html-button-response","6","108613","0.0-4.0-2.0","20","1","2025-07-30 08:39:53","36c45c0696341be0efffe67d72a12abb","49.36.203.88","Mozilla/5.0 (Windows NT 10.0; Win64; x64) AppleWebKit/537.36 (KHTML, like Gecko) Chrome/138.0.0.0 Safari/537.36","WebKit","Chrome","138.0.0.0","Windows","10.0","https://app.prolific.com/","en-US,en;q=0.9","65fad673a546ab14baf2f8d3","687a19d2168e237449fb8af4","6889d9d839fe2242c00b7610","0","65fad673a546ab14baf2f8d3","0","2025-07-30T08:41:45.258Z","","","","","","","","","","","","","","","","","","","","","","","","","","","","","","","","","","","","","","","","","",""
"98586.60000000894","","","","survey-template","7","207203","0.0-4.0-3.0","20","1","2025-07-30 08:39:53","36c45c0696341be0efffe67d72a12abb","49.36.203.88","Mozilla/5.0 (Windows NT 10.0; Win64; x64) AppleWebKit/537.36 (KHTML, like Gecko) Chrome/138.0.0.0 Safari/537.36","WebKit","Chrome","138.0.0.0","Windows","10.0","https://app.prolific.com/","en-US,en;q=0.9","65fad673a546ab14baf2f8d3","687a19d2168e237449fb8af4","6889d9d839fe2242c00b7610","0","65fad673a546ab14baf2f8d3","0","2025-07-30T08:43:23.849Z","","","","drsp","{""Q01"":""2"",""Q02"":""2"",""Q03"":""0"",""Q04"":""2"",""Q05"":""1"",""Q06"":""1"",""Q07"":""0"",""Q08"":""1"",""Q09"":""3"",""Q10"":""3"",""Q11"":""4"",""Q12"":""0"",""Q13"":""5"",""Q14"":""0"",""Q15"":""4"",""Q16"":""1"",""Q17"":""1"",""Q18"":""1"",""Q19"":""1"",""Q20"":""2"",""Q21"":""3"",""Q22"":""1""}","[0,1,2,3,4,5,6,7,8,9,10,11,12,13,14,15,16,17,18,19,20,21]","[""Q01"",""Q02"",""Q03"",""Q04"",""Q05"",""Q06"",""Q07"",""Q08"",""Q09"",""Q10"",""Q11"",""Q12"",""Q13"",""Q14"",""Q15"",""Q16"",""Q16"",""Q17"",""Q18"",""Q19"",""Q20"",""Q21"",""Q22""]","[3867.4000000059605,7465.100000008941,12715.90000000596,14209.40000000596,17083.79999999702,22392.70000000298,24181.20000000298,27435,32762.40000000596,34751.5,37736.60000000894,41124.90000000596,43549.40000000596,51667,55327.79999999702,62193.70000000298,65448.10000000894,68496.20000000298,70752.90000000596,75506.5,83256.79999999702,88285.10000000894,91948.60000000894]","[]","[0,3867.4000000059605,5397.70000000298,7465.100000008941,11377.29999999702,12715.90000000596,14209.40000000596,17083.79999999702,20151.5,21015,22392.70000000298,24181.20000000298,27435,31660.5,32762.40000000596,34751.5,37736.60000000894,41124.90000000596,43549.40000000596,51667,55327.79999999702,62193.70000000298,63901.29999999702,65448.10000000894,68496.20000000298,70752.90000000596,75506.5,83256.79999999702,88285.10000000894,91948.60000000894,98583.40000000596]","0.36363636363636365","0.38095238095238093","0","","","","","","","","","","","","","","","","","","","","","","","","","","","","",""
"17114.59999999404","","","","survey-template","8","224320","0.0-4.0-4.0","20","1","2025-07-30 08:39:53","36c45c0696341be0efffe67d72a12abb","49.36.203.88","Mozilla/5.0 (Windows NT 10.0; Win64; x64) AppleWebKit/537.36 (KHTML, like Gecko) Chrome/138.0.0.0 Safari/537.36","WebKit","Chrome","138.0.0.0","Windows","10.0","https://app.prolific.com/","en-US,en;q=0.9","65fad673a546ab14baf2f8d3","687a19d2168e237449fb8af4","6889d9d839fe2242c00b7610","0","65fad673a546ab14baf2f8d3","0","2025-07-30T08:43:40.965Z","","","","stress","{""Q01"":""2"",""Q02"":""4"",""Q03"":""1""}","[0,1,2]","[""Q01"",""Q02"",""Q03""]","[9287.90000000596,11883.5,15285.09999999404]","[]","[9287.90000000596,11883.5,15285.09999999404,17113.90000000596]","0.6666666666666666","0.5","0","","","","","","","","","","","","","","","","","","","","","","","","","","","","",""
"57027","","","","instructions","9","281348","0.0-5.0-0.0","20","1","2025-07-30 08:39:53","36c45c0696341be0efffe67d72a12abb","49.36.203.88","Mozilla/5.0 (Windows NT 10.0; Win64; x64) AppleWebKit/537.36 (KHTML, like Gecko) Chrome/138.0.0.0 Safari/537.36","WebKit","Chrome","138.0.0.0","Windows","10.0","https://app.prolific.com/","en-US,en;q=0.9","65fad673a546ab14baf2f8d3","687a19d2168e237449fb8af4","6889d9d839fe2242c00b7610","0","65fad673a546ab14baf2f8d3","0","","","","","","","","","","","","","","","[{""page_index"":0,""viewing_time"":57026}]","","","","","","","","","","","","","","","","","","","","","","","","","","","",""
"24751","","<p>Before you start with this game please answer the following three questions yourself. </p>
  <p>Through this game, we measure several aspects of your cognitive performance, such as reaction times, multi-tasking capabilities </p>
  <p>and the ability to assess the situation you are in.</p>
  <p></p>
  <p><b>How good do you usually are in such tasks?</b></p>","75","html-slider-response","10","306104","0.0-6.0-0.0","20","1","2025-07-30 08:39:53","36c45c0696341be0efffe67d72a12abb","49.36.203.88","Mozilla/5.0 (Windows NT 10.0; Win64; x64) AppleWebKit/537.36 (KHTML, like Gecko) Chrome/138.0.0.0 Safari/537.36","WebKit","Chrome","138.0.0.0","Windows","10.0","https://app.prolific.com/","en-US,en;q=0.9","65fad673a546ab14baf2f8d3","687a19d2168e237449fb8af4","6889d9d839fe2242c00b7610","0","65fad673a546ab14baf2f8d3","0","2025-07-30T08:45:02.749Z","","","","PreSkillQ","","","","","","","","","","","50","","","","","","","","","","","","","","","","","","","","","","","","","","",""
"12880","","<div style=""width:500px;"">
  <p>How well do you think you will perform in this task compared to other participants?</p>
  </div>","72","html-slider-response","11","318985","0.0-6.0-1.0","20","1","2025-07-30 08:39:53","36c45c0696341be0efffe67d72a12abb","49.36.203.88","Mozilla/5.0 (Windows NT 10.0; Win64; x64) AppleWebKit/537.36 (KHTML, like Gecko) Chrome/138.0.0.0 Safari/537.36","WebKit","Chrome","138.0.0.0","Windows","10.0","https://app.prolific.com/","en-US,en;q=0.9","65fad673a546ab14baf2f8d3","687a19d2168e237449fb8af4","6889d9d839fe2242c00b7610","0","65fad673a546ab14baf2f8d3","0","2025-07-30T08:45:15.630Z","","","","PrePerfQ","","","","","","","","","","","50","","","","","","","","","","","","","","","","","","","","","","","","","","",""
"15347","","<div style=""width:500px;"">
  <p>What best describes how you currently feel?</p>
  </div>","63","html-slider-response","12","334333","0.0-6.0-2.0","20","1","2025-07-30 08:39:53","36c45c0696341be0efffe67d72a12abb","49.36.203.88","Mozilla/5.0 (Windows NT 10.0; Win64; x64) AppleWebKit/537.36 (KHTML, like Gecko) Chrome/138.0.0.0 Safari/537.36","WebKit","Chrome","138.0.0.0","Windows","10.0","https://app.prolific.com/","en-US,en;q=0.9","65fad673a546ab14baf2f8d3","687a19d2168e237449fb8af4","6889d9d839fe2242c00b7610","0","65fad673a546ab14baf2f8d3","0","2025-07-30T08:45:30.978Z","","","","PreMotivationQ","","","","","","","","","","","50","","","","","","","","","","","","","","","","","","","","","","","","","","",""
"","","","","ctl-task-cpt","13","368770","0.0-7.0-0.0","20","1","2025-07-30 08:39:53","36c45c0696341be0efffe67d72a12abb","49.36.203.88","Mozilla/5.0 (Windows NT 10.0; Win64; x64) AppleWebKit/537.36 (KHTML, like Gecko) Chrome/138.0.0.0 Safari/537.36","WebKit","Chrome","138.0.0.0","Windows","10.0","https://app.prolific.com/","en-US,en;q=0.9","65fad673a546ab14baf2f8d3","687a19d2168e237449fb8af4","6889d9d839fe2242c00b7610","0","65fad673a546ab14baf2f8d3","0","2025-07-30T08:46:05.415Z","","","","","","","","","","","","","","","","win-only","1","g1:NE,g2:SW","1","1","0","337741.2","9436.6","14437.6","31427.4","1","4","8","6","2","-8","-9","0","0","0","5000.9","3000","-3005","[""down"",""left""]","{""num_key_presses"":6,""num_perfect"":3,""num_errors"":1,""num_randdir"":0,""num_randdir_good_moves"":0,""num_whilered"":2,""num_whileblue"":0,""num_blue"":1,""num_good_moves"":3}","[414.0714133126395,414.07142761775424,0.7,414.0714133126395,414.07142761775424,105.1,414.0714133126395,414.07142761775424,209.7,414.0714133126395,414.07142761775424,315.5,414.0714133126395,414.07142761775424,420.5,414.0714133126395,414.07142761775424,524.6,414.0714133126395,414.07142761775424,624.6,414.0714133126395,414.07142761775424,729.5,414.0714133126395,414.07142761775424,834.3,414.0714133126395,414.07142761775424,934.7,414.0714133126395,414.07142761775424,1038.6,414.0714133126395,414.07142761775424,1139.6,414.0714133126395,414.07142761775424,1243.7,414.0714133126395,414.07142761775424,1344.2,414.0714133126395,414.07142761775424,1444.4,414.0714133126395,414.07142761775424,1544.5,414.0714133126395,414.07142761775424,1649.8,414.0714133126395,414.07142761775424,1754,414.0714133126395,414.07142761775424,1859.6,414.0714133126395,414.07142761775424,1959.7,414.0714133126395,414.07142761775424,2064.1,414.0714133126395,414.07142761775424,2169.5,414.0714133126395,414.07142761775424,2274,414.0714133126395,414.07142761775424,2379,414.0714133126395,414.07142761775424,2479.5,414.0714133126395,414.07142761775424,2584.2,414.0714133126395,414.07142761775424,2684.6,414.0714133126395,414.07142761775424,2785,414.0714133126395,414.07142761775424,2889.7,414.0714133126395,414.07142761775424,2994.2,414.0714133126395,414.07142761775424,3094.3,414.0714133126395,414.07142761775424,3200.5,414.0714133126395,414.07142761775424,3305.5,414.0714133126395,414.07142761775424,3409.4,414.0714133126395,414.07142761775424,3513.8,414.0714133126395,414.07142761775424,3615,414.0714133126395,414.07142761775424,3719.2,414.0714133126395,414.07142761775424,3819.9,414.0714133126395,414.07142761775424,3924.7,414.0714133126395,414.07142761775424,4025,414.0714133126395,414.07142761775424,4125.1,414.0714133126395,414.07142761775424,4229.4,414.0714133126395,414.07142761775424,4334.7,414.0714133126395,414.07142761775424,4439.4,414.0714133126395,414.07142761775424,4539.4,414.0714133126395,414.07142761775424,4644.4,414.0714133126395,414.07142761775424,4749.3,414.0714133126395,414.07142761775424,4850.4,414.0714133126395,414.07142761775424,4954.4]","[1663.1,1663.1,1000,0,663.1,""smooth"",""down"",""down"",""good_move"",2279.2,615.8,2554.5,1663.4,-1938.7,""error"",""-"",""-"",""no_move"",2482.5,203.1,2554.5,1663.4,-1735.4,""while_red"",""-"",""-"",""no_move"",2678.9,399.5,2554.5,1663.4,-1539,""while_red"",""-"",""-"",""no_move"",7153.5,4874.1,2824.7,3283.8,1045,""smooth"",""down"",""down"",""good_move"",10279.9,3126.2,1962.6,7153.7,1163.6,""smooth"",""left"",""left"",""good_move""]"
"10264","","<div style=""width:500px;"">
  <p>What determined the result of this run?</p>
  </div>","92","html-slider-response","14","379035","0.0-7.0-1.0","20","1","2025-07-30 08:39:53","36c45c0696341be0efffe67d72a12abb","49.36.203.88","Mozilla/5.0 (Windows NT 10.0; Win64; x64) AppleWebKit/537.36 (KHTML, like Gecko) Chrome/138.0.0.0 Safari/537.36","WebKit","Chrome","138.0.0.0","Windows","10.0","https://app.prolific.com/","en-US,en;q=0.9","65fad673a546ab14baf2f8d3","687a19d2168e237449fb8af4","6889d9d839fe2242c00b7610","0","65fad673a546ab14baf2f8d3","0","2025-07-30T08:46:15.680Z","","","","AttribQ","","","","","","","","","","","50","","","","","","","","","","","","","","","","","","","","","","","","","","",""
"8246","","<div style=""width:500px;"">
  <p>How much control did you have over the ball?</p>
  </div>","31","html-slider-response","15","387283","0.0-7.0-2.0","20","1","2025-07-30 08:39:53","36c45c0696341be0efffe67d72a12abb","49.36.203.88","Mozilla/5.0 (Windows NT 10.0; Win64; x64) AppleWebKit/537.36 (KHTML, like Gecko) Chrome/138.0.0.0 Safari/537.36","WebKit","Chrome","138.0.0.0","Windows","10.0","https://app.prolific.com/","en-US,en;q=0.9","65fad673a546ab14baf2f8d3","687a19d2168e237449fb8af4","6889d9d839fe2242c00b7610","0","65fad673a546ab14baf2f8d3","0","2025-07-30T08:46:23.928Z","","","","ControlQ","","","","","","","","","","","50","","","","","","","","","","","","","","","","","","","","","","","","","","",""
"6685","","<div style=""width:500px;"">
  <p>How would you describe your current emotional state?</p>
  </div>","30","html-slider-response","16","393970","0.0-7.0-3.0","20","1","2025-07-30 08:39:53","36c45c0696341be0efffe67d72a12abb","49.36.203.88","Mozilla/5.0 (Windows NT 10.0; Win64; x64) AppleWebKit/537.36 (KHTML, like Gecko) Chrome/138.0.0.0 Safari/537.36","WebKit","Chrome","138.0.0.0","Windows","10.0","https://app.prolific.com/","en-US,en;q=0.9","65fad673a546ab14baf2f8d3","687a19d2168e237449fb8af4","6889d9d839fe2242c00b7610","0","65fad673a546ab14baf2f8d3","0","2025-07-30T08:46:30.615Z","","","","StressQ","","","","","","","","","","","50","","","","","","","","","","","","","","","","","","","","","","","","","","",""
"6053","","<div style=""width:500px;"">
  <p>What best describes how you currently feel?</p>
  </div>","65","html-slider-response","17","400024","0.0-7.0-4.0","20","1","2025-07-30 08:39:53","36c45c0696341be0efffe67d72a12abb","49.36.203.88","Mozilla/5.0 (Windows NT 10.0; Win64; x64) AppleWebKit/537.36 (KHTML, like Gecko) Chrome/138.0.0.0 Safari/537.36","WebKit","Chrome","138.0.0.0","Windows","10.0","https://app.prolific.com/","en-US,en;q=0.9","65fad673a546ab14baf2f8d3","687a19d2168e237449fb8af4","6889d9d839fe2242c00b7610","0","65fad673a546ab14baf2f8d3","0","2025-07-30T08:46:36.669Z","","","","MotivationQ","","","","","","","","","","","50","","","","","","","","","","","","","","","","","","","","","","","","","","",""
"","","","","ctl-task-cpt","18","437728","0.0-7.0-0.1","20","1","2025-07-30 08:39:53","36c45c0696341be0efffe67d72a12abb","49.36.203.88","Mozilla/5.0 (Windows NT 10.0; Win64; x64) AppleWebKit/537.36 (KHTML, like Gecko) Chrome/138.0.0.0 Safari/537.36","WebKit","Chrome","138.0.0.0","Windows","10.0","https://app.prolific.com/","en-US,en;q=0.9","65fad673a546ab14baf2f8d3","687a19d2168e237449fb8af4","6889d9d839fe2242c00b7610","0","65fad673a546ab14baf2f8d3","0","2025-07-30T08:47:14.373Z","","","","","","","","","","","","","","","","win-only","1","g1:NE,g2:SW","0.9","2","0","403428.8","4414.8","9416.5","34685.7","1","4","4","6","1","1","0","0","0","0","5001.7","3000","930","[""up"",""right""]","{""num_key_presses"":5,""num_perfect"":4,""num_errors"":1,""num_randdir"":0,""num_randdir_good_moves"":0,""num_whilered"":0,""num_whileblue"":0,""num_blue"":4,""num_good_moves"":4}","[420.3214133126395,419.07142761775424,0.2,420.3214133126395,419.07142761775424,100.4,420.3214133126395,419.07142761775424,200.9,420.3214133126395,419.07142761775424,306.6,420.3214133126395,419.07142761775424,411.5,420.3214133126395,419.07142761775424,515.9,420.3214133126395,419.07142761775424,616.5,420.3214133126395,419.07142761775424,721,420.3214133126395,419.07142761775424,827.3,420.3214133126395,419.07142761775424,931.7,420.3214133126395,419.07142761775424,1036.9,420.3214133126395,419.07142761775424,1140.8,420.3214133126395,419.07142761775424,1241.7,420.3214133126395,419.07142761775424,1345.6,420.3214133126395,419.07142761775424,1446.2,420.3214133126395,419.07142761775424,1551.3,420.3214133126395,419.07142761775424,1655.5,420.3214133126395,419.07142761775424,1756.1,420.3214133126395,419.07142761775424,1856.4,420.3214133126395,419.07142761775424,1961.1,420.3214133126395,419.07142761775424,2065.4,420.3214133126395,419.07142761775424,2165.9,420.3214133126395,419.07142761775424,2270.7,420.3214133126395,419.07142761775424,2370.8,420.3214133126395,419.07142761775424,2470.9,420.3214133126395,419.07142761775424,2570.9,420.3214133126395,419.07142761775424,2675.5,420.3214133126395,419.07142761775424,2775.8,420.3214133126395,419.07142761775424,2876.3,420.3214133126395,419.07142761775424,2980.4,420.3214133126395,419.07142761775424,3080.5,420.3214133126395,419.07142761775424,3181.2,420.3214133126395,419.07142761775424,3286,420.3214133126395,419.07142761775424,3386,420.3214133126395,419.07142761775424,3487.2,420.3214133126395,419.07142761775424,3590.3,420.3214133126395,419.07142761775424,3690.7,420.3214133126395,419.07142761775424,3792.7,420.3214133126395,419.07142761775424,3897.1,420.3214133126395,419.07142761775424,4001.2,420.3214133126395,419.07142761775424,4105.8,420.3214133126395,419.07142761775424,4207.1,420.3214133126395,419.07142761775424,4311.6,420.3214133126395,419.07142761775424,4417,420.3214133126395,419.07142761775424,4521.4,420.3214133126395,419.07142761775424,4625.8,420.3214133126395,419.07142761775424,4730.5,420.3214133126395,419.07142761775424,4830.5,420.3214133126395,419.07142761775424,4931]","[1617.4,1617.4,1000,0,617.4,""smooth"",""up"",""up"",""good_move"",3898.6,2280.7,1797.5,1618,483.1,""smooth"",""right"",""right"",""good_move"",17190.1,13291.2,2692.7,14049.6,447.8,""smooth"",""up"",""up"",""good_move"",17537.1,346.7,2454.2,17190.4,-2107.5,""error"",""-"",""-"",""no_move"",25183.3,7645.9,2815.2,21823.8,544.3,""smooth"",""right"",""right"",""good_move""]"
"6932","","<div style=""width:500px;"">
  <p>What determined the result of this run?</p>
  </div>","89","html-slider-response","19","444661","0.0-7.0-1.1","20","1","2025-07-30 08:39:53","36c45c0696341be0efffe67d72a12abb","49.36.203.88","Mozilla/5.0 (Windows NT 10.0; Win64; x64) AppleWebKit/537.36 (KHTML, like Gecko) Chrome/138.0.0.0 Safari/537.36","WebKit","Chrome","138.0.0.0","Windows","10.0","https://app.prolific.com/","en-US,en;q=0.9","65fad673a546ab14baf2f8d3","687a19d2168e237449fb8af4","6889d9d839fe2242c00b7610","0","65fad673a546ab14baf2f8d3","0","2025-07-30T08:47:21.306Z","","","","AttribQ","","","","","","","","","","","50","","","","","","","","","","","","","","","","","","","","","","","","","","",""
"3903","","<div style=""width:500px;"">
  <p>How much control did you have over the ball?</p>
  </div>","100","html-slider-response","20","448566","0.0-7.0-2.1","20","1","2025-07-30 08:39:53","36c45c0696341be0efffe67d72a12abb","49.36.203.88","Mozilla/5.0 (Windows NT 10.0; Win64; x64) AppleWebKit/537.36 (KHTML, like Gecko) Chrome/138.0.0.0 Safari/537.36","WebKit","Chrome","138.0.0.0","Windows","10.0","https://app.prolific.com/","en-US,en;q=0.9","65fad673a546ab14baf2f8d3","687a19d2168e237449fb8af4","6889d9d839fe2242c00b7610","0","65fad673a546ab14baf2f8d3","0","2025-07-30T08:47:25.211Z","","","","ControlQ","","","","","","","","","","","50","","","","","","","","","","","","","","","","","","","","","","","","","","",""
"3648","","<div style=""width:500px;"">
  <p>How would you describe your current emotional state?</p>
  </div>","16","html-slider-response","21","452216","0.0-7.0-3.1","20","1","2025-07-30 08:39:53","36c45c0696341be0efffe67d72a12abb","49.36.203.88","Mozilla/5.0 (Windows NT 10.0; Win64; x64) AppleWebKit/537.36 (KHTML, like Gecko) Chrome/138.0.0.0 Safari/537.36","WebKit","Chrome","138.0.0.0","Windows","10.0","https://app.prolific.com/","en-US,en;q=0.9","65fad673a546ab14baf2f8d3","687a19d2168e237449fb8af4","6889d9d839fe2242c00b7610","0","65fad673a546ab14baf2f8d3","0","2025-07-30T08:47:28.861Z","","","","StressQ","","","","","","","","","","","50","","","","","","","","","","","","","","","","","","","","","","","","","","",""
"3837","","<div style=""width:500px;"">
  <p>What best describes how you currently feel?</p>
  </div>","69","html-slider-response","22","456055","0.0-7.0-4.1","20","1","2025-07-30 08:39:53","36c45c0696341be0efffe67d72a12abb","49.36.203.88","Mozilla/5.0 (Windows NT 10.0; Win64; x64) AppleWebKit/537.36 (KHTML, like Gecko) Chrome/138.0.0.0 Safari/537.36","WebKit","Chrome","138.0.0.0","Windows","10.0","https://app.prolific.com/","en-US,en;q=0.9","65fad673a546ab14baf2f8d3","687a19d2168e237449fb8af4","6889d9d839fe2242c00b7610","0","65fad673a546ab14baf2f8d3","0","2025-07-30T08:47:32.700Z","","","","MotivationQ","","","","","","","","","","","50","","","","","","","","","","","","","","","","","","","","","","","","","","",""
"","","","","ctl-task-cpt","23","491163","0.0-7.0-0.2","20","1","2025-07-30 08:39:53","36c45c0696341be0efffe67d72a12abb","49.36.203.88","Mozilla/5.0 (Windows NT 10.0; Win64; x64) AppleWebKit/537.36 (KHTML, like Gecko) Chrome/138.0.0.0 Safari/537.36","WebKit","Chrome","138.0.0.0","Windows","10.0","https://app.prolific.com/","en-US,en;q=0.9","65fad673a546ab14baf2f8d3","687a19d2168e237449fb8af4","6889d9d839fe2242c00b7610","0","65fad673a546ab14baf2f8d3","0","2025-07-30T08:48:07.808Z","","","","","","","","","","","","","","","","win-only","2","g1:SE,g2:NW","0.8","3","0","459459.3","4031.6","9035.8","32090.7","1","4","4","6","1","1","1","1","0","0.007575757575757576","5004.1","3000","1020","[""down"",""right""]","{""num_key_presses"":4,""num_perfect"":3,""num_errors"":0,""num_randdir"":1,""num_randdir_good_moves"":1,""num_whilered"":0,""num_whileblue"":0,""num_blue"":4,""num_good_moves"":4}","[421.5714133126395,419.07142761775424,0.3,421.5714133126395,419.07142761775424,103.7,421.5714133126395,419.07142761775424,203.8,421.5714133126395,419.07142761775424,304.1,421.5714133126395,419.07142761775424,409,421.5714133126395,419.07142761775424,509.4,421.5714133126395,419.07142761775424,613.7,421.5714133126395,419.07142761775424,714.9,421.5714133126395,419.07142761775424,819.8,421.5714133126395,419.07142761775424,923.6,421.5714133126395,419.07142761775424,1024.4,421.5714133126395,419.07142761775424,1130.3,421.5714133126395,419.07142761775424,1233.7,421.5714133126395,419.07142761775424,1334,421.5714133126395,419.07142761775424,1439.7,421.5714133126395,419.07142761775424,1540.1,421.5714133126395,419.07142761775424,1643.6,421.5714133126395,419.07142761775424,1744.5,421.5714133126395,419.07142761775424,1844.7,421.5714133126395,419.07142761775424,1949.1,421.5714133126395,419.07142761775424,2053.9,421.5714133126395,419.07142761775424,2154.1,421.5714133126395,419.07142761775424,2254.2,421.5714133126395,419.07142761775424,2359.2,421.5714133126395,419.07142761775424,2459.2,421.5714133126395,419.07142761775424,2559.8,421.5714133126395,419.07142761775424,2660.1,421.5714133126395,419.07142761775424,2764.1,421.5714133126395,419.07142761775424,2864.1,421.5714133126395,419.07142761775424,2964.1,421.5714133126395,419.07142761775424,3065.1,421.5714133126395,419.07142761775424,3169.4,421.5714133126395,419.07142761775424,3274.3,421.5714133126395,419.07142761775424,3374.7,421.5714133126395,419.07142761775424,3480.2,421.5714133126395,419.07142761775424,3583.6,421.5714133126395,419.07142761775424,3685.3,421.5714133126395,419.07142761775424,3789.4,421.5714133126395,419.07142761775424,3891.5,421.5714133126395,419.07142761775424,3993.6,421.5714133126395,419.07142761775424,4094.3,421.5714133126395,419.07142761775424,4198.7,421.5714133126395,419.07142761775424,4299.9,421.5714133126395,419.07142761775424,4404.3,421.5714133126395,419.07142761775424,4509.1,421.5714133126395,419.07142761775424,4609.1,421.5714133126395,419.07142761775424,4709.5,421.5714133126395,419.07142761775424,4810.3,421.5714133126395,419.07142761775424,4913.9]","[7923,7923,1903.9,5535.3,483.8,""smooth"",""down"",""down"",""good_move"",11283.6,3360,2712.7,7923.6,647.3,""smooth"",""right"",""right"",""good_move"",17009.5,5725.3,2233.8,14315,460.7,""oops"",""down"",""down"",""good_move"",22966.3,5956.6,2401.6,20149.6,415.1,""smooth"",""right"",""right"",""good_move""]"
"3831","","<div style=""width:500px;"">
  <p>What determined the result of this run?</p>
  </div>","100","html-slider-response","24","494994","0.0-7.0-1.2","20","1","2025-07-30 08:39:53","36c45c0696341be0efffe67d72a12abb","49.36.203.88","Mozilla/5.0 (Windows NT 10.0; Win64; x64) AppleWebKit/537.36 (KHTML, like Gecko) Chrome/138.0.0.0 Safari/537.36","WebKit","Chrome","138.0.0.0","Windows","10.0","https://app.prolific.com/","en-US,en;q=0.9","65fad673a546ab14baf2f8d3","687a19d2168e237449fb8af4","6889d9d839fe2242c00b7610","0","65fad673a546ab14baf2f8d3","0","2025-07-30T08:48:11.639Z","","","","AttribQ","","","","","","","","","","","50","","","","","","","","","","","","","","","","","","","","","","","","","","",""
"3386","","<div style=""width:500px;"">
  <p>How much control did you have over the ball?</p>
  </div>","95","html-slider-response","25","498382","0.0-7.0-2.2","20","1","2025-07-30 08:39:53","36c45c0696341be0efffe67d72a12abb","49.36.203.88","Mozilla/5.0 (Windows NT 10.0; Win64; x64) AppleWebKit/537.36 (KHTML, like Gecko) Chrome/138.0.0.0 Safari/537.36","WebKit","Chrome","138.0.0.0","Windows","10.0","https://app.prolific.com/","en-US,en;q=0.9","65fad673a546ab14baf2f8d3","687a19d2168e237449fb8af4","6889d9d839fe2242c00b7610","0","65fad673a546ab14baf2f8d3","0","2025-07-30T08:48:15.027Z","","","","ControlQ","","","","","","","","","","","50","","","","","","","","","","","","","","","","","","","","","","","","","","",""
"3123","","<div style=""width:500px;"">
  <p>How would you describe your current emotional state?</p>
  </div>","22","html-slider-response","26","501506","0.0-7.0-3.2","20","1","2025-07-30 08:39:53","36c45c0696341be0efffe67d72a12abb","49.36.203.88","Mozilla/5.0 (Windows NT 10.0; Win64; x64) AppleWebKit/537.36 (KHTML, like Gecko) Chrome/138.0.0.0 Safari/537.36","WebKit","Chrome","138.0.0.0","Windows","10.0","https://app.prolific.com/","en-US,en;q=0.9","65fad673a546ab14baf2f8d3","687a19d2168e237449fb8af4","6889d9d839fe2242c00b7610","0","65fad673a546ab14baf2f8d3","0","2025-07-30T08:48:18.151Z","","","","StressQ","","","","","","","","","","","50","","","","","","","","","","","","","","","","","","","","","","","","","","",""
"4443","","<div style=""width:500px;"">
  <p>What best describes how you currently feel?</p>
  </div>","72","html-slider-response","27","505951","0.0-7.0-4.2","20","1","2025-07-30 08:39:53","36c45c0696341be0efffe67d72a12abb","49.36.203.88","Mozilla/5.0 (Windows NT 10.0; Win64; x64) AppleWebKit/537.36 (KHTML, like Gecko) Chrome/138.0.0.0 Safari/537.36","WebKit","Chrome","138.0.0.0","Windows","10.0","https://app.prolific.com/","en-US,en;q=0.9","65fad673a546ab14baf2f8d3","687a19d2168e237449fb8af4","6889d9d839fe2242c00b7610","0","65fad673a546ab14baf2f8d3","0","2025-07-30T08:48:22.596Z","","","","MotivationQ","","","","","","","","","","","50","","","","","","","","","","","","","","","","","","","","","","","","","","",""
"","","","","ctl-task-cpt","28","544740","0.0-7.0-0.3","20","1","2025-07-30 08:39:53","36c45c0696341be0efffe67d72a12abb","49.36.203.88","Mozilla/5.0 (Windows NT 10.0; Win64; x64) AppleWebKit/537.36 (KHTML, like Gecko) Chrome/138.0.0.0 Safari/537.36","WebKit","Chrome","138.0.0.0","Windows","10.0","https://app.prolific.com/","en-US,en;q=0.9","65fad673a546ab14baf2f8d3","687a19d2168e237449fb8af4","6889d9d839fe2242c00b7610","0","65fad673a546ab14baf2f8d3","0","2025-07-30T08:49:01.385Z","","","","","","","","","","","","","","","","win-only","1","g1:NE,g2:SW","0.7","4","0","509355.6","2512.3","7515.3","35770.3","1","4","8","6","1","-1","-1","0","1","0","5003","3000","-3010","[""up"",""right""]","{""num_key_presses"":6,""num_perfect"":3,""num_errors"":0,""num_randdir"":3,""num_randdir_good_moves"":1,""num_whilered"":0,""num_whileblue"":0,""num_blue"":2,""num_good_moves"":4}","[411.5714133126395,411.57142761775424,0.3,411.5714133126395,411.57142761775424,103.3,411.5714133126395,411.57142761775424,208.2,411.5714133126395,411.57142761775424,308.5,411.5714133126395,411.57142761775424,413.8,411.5714133126395,411.57142761775424,518,411.5714133126395,411.57142761775424,618.8,411.5714133126395,411.57142761775424,719.4,411.5714133126395,411.57142761775424,823.6,411.5714133126395,411.57142761775424,928.2,411.5714133126395,411.57142761775424,1029.6,411.5714133126395,411.57142761775424,1133.3,411.5714133126395,411.57142761775424,1234.1,411.5714133126395,411.57142761775424,1338.4,411.5714133126395,411.57142761775424,1438.9,411.5714133126395,411.57142761775424,1544.5,411.5714133126395,411.57142761775424,1648.2,411.5714133126395,411.57142761775424,1752.9,411.5714133126395,411.57142761775424,1853.5,411.5714133126395,411.57142761775424,1958.6,411.5714133126395,411.57142761775424,2064.4,411.5714133126395,411.57142761775424,2164.5,411.5714133126395,411.57142761775424,2269.2,411.5714133126395,411.57142761775424,2373.5,411.5714133126395,411.57142761775424,2474,411.5714133126395,411.57142761775424,2578.5,411.5714133126395,411.57142761775424,2679.1,411.5714133126395,411.57142761775424,2783,411.5714133126395,411.57142761775424,2883.8,411.5714133126395,411.57142761775424,2984.1,411.5714133126395,411.57142761775424,3088.4,411.5714133126395,411.57142761775424,3193,411.5714133126395,411.57142761775424,3293.8,411.5714133126395,411.57142761775424,3394.8,411.5714133126395,411.57142761775424,3498.1,411.5714133126395,411.57142761775424,3603.2,411.5714133126395,411.57142761775424,3703.6,411.5714133126395,411.57142761775424,3807.9,411.5714133126395,411.57142761775424,3910.5,411.5714133126395,411.57142761775424,4013.8,411.5714133126395,411.57142761775424,4119.2,411.5714133126395,411.57142761775424,4224,411.5714133126395,411.57142761775424,4324.4,411.5714133126395,411.57142761775424,4428.4,411.5714133126395,411.57142761775424,4528.4,411.5714133126395,411.57142761775424,4629,411.5714133126395,411.57142761775424,4734.1,411.5714133126395,411.57142761775424,4838.3,411.5714133126395,411.57142761775424,4940.2]","[1685.6,1685.6,1000,0,685.6,""oops"",""up"",""down"",""bad_move"",4785.5,3099.4,2561.7,1686.1,537.7,""smooth"",""up"",""up"",""good_move"",7896.2,3110.4,2651.2,4785.8,459.2,""oops"",""up"",""down"",""bad_move"",11825.9,3929.6,3505.2,7896.3,424.4,""oops"",""right"",""right"",""good_move"",14971.7,3145.5,2808.8,11826.2,336.7,""smooth"",""up"",""up"",""good_move"",22136.5,7164.7,3221.2,18590.6,324.7,""smooth"",""right"",""right"",""good_move""]"
"4818","","<div style=""width:500px;"">
  <p>What determined the result of this run?</p>
  </div>","11","html-slider-response","29","549559","0.0-7.0-1.3","20","1","2025-07-30 08:39:53","36c45c0696341be0efffe67d72a12abb","49.36.203.88","Mozilla/5.0 (Windows NT 10.0; Win64; x64) AppleWebKit/537.36 (KHTML, like Gecko) Chrome/138.0.0.0 Safari/537.36","WebKit","Chrome","138.0.0.0","Windows","10.0","https://app.prolific.com/","en-US,en;q=0.9","65fad673a546ab14baf2f8d3","687a19d2168e237449fb8af4","6889d9d839fe2242c00b7610","0","65fad673a546ab14baf2f8d3","0","2025-07-30T08:49:06.204Z","","","","AttribQ","","","","","","","","","","","50","","","","","","","","","","","","","","","","","","","","","","","","","","",""
"4058","","<div style=""width:500px;"">
  <p>How much control did you have over the ball?</p>
  </div>","21","html-slider-response","30","553619","0.0-7.0-2.3","20","1","2025-07-30 08:39:53","36c45c0696341be0efffe67d72a12abb","49.36.203.88","Mozilla/5.0 (Windows NT 10.0; Win64; x64) AppleWebKit/537.36 (KHTML, like Gecko) Chrome/138.0.0.0 Safari/537.36","WebKit","Chrome","138.0.0.0","Windows","10.0","https://app.prolific.com/","en-US,en;q=0.9","65fad673a546ab14baf2f8d3","687a19d2168e237449fb8af4","6889d9d839fe2242c00b7610","0","65fad673a546ab14baf2f8d3","0","2025-07-30T08:49:10.264Z","","","","ControlQ","","","","","","","","","","","50","","","","","","","","","","","","","","","","","","","","","","","","","","",""
"3076","","<div style=""width:500px;"">
  <p>How would you describe your current emotional state?</p>
  </div>","27","html-slider-response","31","556696","0.0-7.0-3.3","20","1","2025-07-30 08:39:53","36c45c0696341be0efffe67d72a12abb","49.36.203.88","Mozilla/5.0 (Windows NT 10.0; Win64; x64) AppleWebKit/537.36 (KHTML, like Gecko) Chrome/138.0.0.0 Safari/537.36","WebKit","Chrome","138.0.0.0","Windows","10.0","https://app.prolific.com/","en-US,en;q=0.9","65fad673a546ab14baf2f8d3","687a19d2168e237449fb8af4","6889d9d839fe2242c00b7610","0","65fad673a546ab14baf2f8d3","0","2025-07-30T08:49:13.342Z","","","","StressQ","","","","","","","","","","","50","","","","","","","","","","","","","","","","","","","","","","","","","","",""
"4646","","<div style=""width:500px;"">
  <p>What best describes how you currently feel?</p>
  </div>","69","html-slider-response","32","561344","0.0-7.0-4.3","20","1","2025-07-30 08:39:53","36c45c0696341be0efffe67d72a12abb","49.36.203.88","Mozilla/5.0 (Windows NT 10.0; Win64; x64) AppleWebKit/537.36 (KHTML, like Gecko) Chrome/138.0.0.0 Safari/537.36","WebKit","Chrome","138.0.0.0","Windows","10.0","https://app.prolific.com/","en-US,en;q=0.9","65fad673a546ab14baf2f8d3","687a19d2168e237449fb8af4","6889d9d839fe2242c00b7610","0","65fad673a546ab14baf2f8d3","0","2025-07-30T08:49:17.989Z","","","","MotivationQ","","","","","","","","","","","50","","","","","","","","","","","","","","","","","","","","","","","","","","",""
"","","","","ctl-task-cpt","33","599610","0.0-7.0-0.4","20","1","2025-07-30 08:39:53","36c45c0696341be0efffe67d72a12abb","49.36.203.88","Mozilla/5.0 (Windows NT 10.0; Win64; x64) AppleWebKit/537.36 (KHTML, like Gecko) Chrome/138.0.0.0 Safari/537.36","WebKit","Chrome","138.0.0.0","Windows","10.0","https://app.prolific.com/","en-US,en;q=0.9","65fad673a546ab14baf2f8d3","687a19d2168e237449fb8af4","6889d9d839fe2242c00b7610","0","65fad673a546ab14baf2f8d3","0","2025-07-30T08:49:56.256Z","","","","","","","","","","","","","","","","win-only","2","g1:SE,g2:NW","0.6","5","0","564748.2","1785.2","6786.5","35247.1","1","4","8","6","1","-1","-1","0","0","0","5001.3","3000","-3015","[""down"",""right""]","{""num_key_presses"":7,""num_perfect"":5,""num_errors"":0,""num_randdir"":2,""num_randdir_good_moves"":1,""num_whilered"":0,""num_whileblue"":0,""num_blue"":2,""num_good_moves"":5}","[420.3214133126395,417.82142761775424,0.4,420.3214133126395,417.82142761775424,100.4,420.3214133126395,417.82142761775424,205,420.3214133126395,417.82142761775424,305.3,420.3214133126395,417.82142761775424,406,420.3214133126395,417.82142761775424,510.3,420.3214133126395,417.82142761775424,610.3,420.3214133126395,417.82142761775424,715,420.3214133126395,417.82142761775424,815.7,420.3214133126395,417.82142761775424,921.1,420.3214133126395,417.82142761775424,1025.9,420.3214133126395,417.82142761775424,1125.9,420.3214133126395,417.82142761775424,1225.9,420.3214133126395,417.82142761775424,1330.7,420.3214133126395,417.82142761775424,1435.4,420.3214133126395,417.82142761775424,1535.5,420.3214133126395,417.82142761775424,1642,420.3214133126395,417.82142761775424,1745.8,420.3214133126395,417.82142761775424,1845.8,420.3214133126395,417.82142761775424,1946.6,420.3214133126395,417.82142761775424,2050.7,420.3214133126395,417.82142761775424,2150.8,420.3214133126395,417.82142761775424,2251,420.3214133126395,417.82142761775424,2355.4,420.3214133126395,417.82142761775424,2455.7,420.3214133126395,417.82142761775424,2561.2,420.3214133126395,417.82142761775424,2665.4,420.3214133126395,417.82142761775424,2770.4,420.3214133126395,417.82142761775424,2870.8,420.3214133126395,417.82142761775424,2975,420.3214133126395,417.82142761775424,3075.2,420.3214133126395,417.82142761775424,3175.7,420.3214133126395,417.82142761775424,3280.3,420.3214133126395,417.82142761775424,3386.4,420.3214133126395,417.82142761775424,3490.4,420.3214133126395,417.82142761775424,3590.8,420.3214133126395,417.82142761775424,3690.9,420.3214133126395,417.82142761775424,3795.4,420.3214133126395,417.82142761775424,3895.6,420.3214133126395,417.82142761775424,4000.7,420.3214133126395,417.82142761775424,4100.8,420.3214133126395,417.82142761775424,4206.4,420.3214133126395,417.82142761775424,4311.2,420.3214133126395,417.82142761775424,4415.6,420.3214133126395,417.82142761775424,4515.9,420.3214133126395,417.82142761775424,4615.9,420.3214133126395,417.82142761775424,4720.9,420.3214133126395,417.82142761775424,4821.6,420.3214133126395,417.82142761775424,4925.2]","[4959.1,4959.1,2571.1,2010.4,377.6,""smooth"",""right"",""right"",""good_move"",7363.5,2404.1,1958.9,4959.4,445.2,""oops"",""right"",""right"",""good_move"",10186,2822.2,2383.3,7363.8,438.9,""smooth"",""down"",""down"",""good_move"",13429.2,3242.7,2623,10186.5,619.7,""oops"",""down"",""up"",""bad_move"",20409.1,6979.6,2548.8,17493.9,366.4,""smooth"",""down"",""down"",""good_move"",22551.5,2142.2,1774.6,20409.3,367.6,""smooth"",""left"",""left"",""bad_move"",25593.8,3042,2721,22551.8,321,""smooth"",""down"",""down"",""good_move""]"
"2828","","<div style=""width:500px;"">
  <p>What determined the result of this run?</p>
  </div>","17","html-slider-response","34","602439","0.0-7.0-1.4","20","1","2025-07-30 08:39:53","36c45c0696341be0efffe67d72a12abb","49.36.203.88","Mozilla/5.0 (Windows NT 10.0; Win64; x64) AppleWebKit/537.36 (KHTML, like Gecko) Chrome/138.0.0.0 Safari/537.36","WebKit","Chrome","138.0.0.0","Windows","10.0","https://app.prolific.com/","en-US,en;q=0.9","65fad673a546ab14baf2f8d3","687a19d2168e237449fb8af4","6889d9d839fe2242c00b7610","0","65fad673a546ab14baf2f8d3","0","2025-07-30T08:49:59.085Z","","","","AttribQ","","","","","","","","","","","50","","","","","","","","","","","","","","","","","","","","","","","","","","",""
"3498","","<div style=""width:500px;"">
  <p>How much control did you have over the ball?</p>
  </div>","38","html-slider-response","35","605939","0.0-7.0-2.4","20","1","2025-07-30 08:39:53","36c45c0696341be0efffe67d72a12abb","49.36.203.88","Mozilla/5.0 (Windows NT 10.0; Win64; x64) AppleWebKit/537.36 (KHTML, like Gecko) Chrome/138.0.0.0 Safari/537.36","WebKit","Chrome","138.0.0.0","Windows","10.0","https://app.prolific.com/","en-US,en;q=0.9","65fad673a546ab14baf2f8d3","687a19d2168e237449fb8af4","6889d9d839fe2242c00b7610","0","65fad673a546ab14baf2f8d3","0","2025-07-30T08:50:02.584Z","","","","ControlQ","","","","","","","","","","","50","","","","","","","","","","","","","","","","","","","","","","","","","","",""
"4601","","<div style=""width:500px;"">
  <p>How would you describe your current emotional state?</p>
  </div>","39","html-slider-response","36","610541","0.0-7.0-3.4","20","1","2025-07-30 08:39:53","36c45c0696341be0efffe67d72a12abb","49.36.203.88","Mozilla/5.0 (Windows NT 10.0; Win64; x64) AppleWebKit/537.36 (KHTML, like Gecko) Chrome/138.0.0.0 Safari/537.36","WebKit","Chrome","138.0.0.0","Windows","10.0","https://app.prolific.com/","en-US,en;q=0.9","65fad673a546ab14baf2f8d3","687a19d2168e237449fb8af4","6889d9d839fe2242c00b7610","0","65fad673a546ab14baf2f8d3","0","2025-07-30T08:50:07.187Z","","","","StressQ","","","","","","","","","","","50","","","","","","","","","","","","","","","","","","","","","","","","","","",""
"2439","","<div style=""width:500px;"">
  <p>What best describes how you currently feel?</p>
  </div>","64","html-slider-response","37","612982","0.0-7.0-4.4","20","1","2025-07-30 08:39:53","36c45c0696341be0efffe67d72a12abb","49.36.203.88","Mozilla/5.0 (Windows NT 10.0; Win64; x64) AppleWebKit/537.36 (KHTML, like Gecko) Chrome/138.0.0.0 Safari/537.36","WebKit","Chrome","138.0.0.0","Windows","10.0","https://app.prolific.com/","en-US,en;q=0.9","65fad673a546ab14baf2f8d3","687a19d2168e237449fb8af4","6889d9d839fe2242c00b7610","0","65fad673a546ab14baf2f8d3","0","2025-07-30T08:50:09.627Z","","","","MotivationQ","","","","","","","","","","","50","","","","","","","","","","","","","","","","","","","","","","","","","","",""
"","","","","ctl-task-cpt","38","654363","0.0-7.0-0.5","20","1","2025-07-30 08:39:53","36c45c0696341be0efffe67d72a12abb","49.36.203.88","Mozilla/5.0 (Windows NT 10.0; Win64; x64) AppleWebKit/537.36 (KHTML, like Gecko) Chrome/138.0.0.0 Safari/537.36","WebKit","Chrome","138.0.0.0","Windows","10.0","https://app.prolific.com/","en-US,en;q=0.9","65fad673a546ab14baf2f8d3","687a19d2168e237449fb8af4","6889d9d839fe2242c00b7610","0","65fad673a546ab14baf2f8d3","0","2025-07-30T08:50:51.008Z","","","","","","","","","","","","","","","","win-only","3","g1:SW,g2:NE","0.5","6","0","616386.1","3233.5","8236.3","38361.1","1","4","4","6","2","-4","-5","0","0","0","5002.8","3000","-3005","[""up"",""right""]","{""num_key_presses"":7,""num_perfect"":3,""num_errors"":1,""num_randdir"":3,""num_randdir_good_moves"":0,""num_whilered"":0,""num_whileblue"":1,""num_blue"":4,""num_good_moves"":2}","[414.0714133126395,409.07142761775424,0.2,414.0714133126395,409.07142761775424,102.6,414.0714133126395,409.07142761775424,203.8,414.0714133126395,409.07142761775424,307.2,414.0714133126395,409.07142761775424,407.3,414.0714133126395,409.07142761775424,507.7,414.0714133126395,409.07142761775424,612.3,414.0714133126395,409.07142761775424,717,414.0714133126395,409.07142761775424,817.9,414.0714133126395,409.07142761775424,923.4,414.0714133126395,409.07142761775424,1023.6,414.0714133126395,409.07142761775424,1127.3,414.0714133126395,409.07142761775424,1228.6,414.0714133126395,409.07142761775424,1332.7,414.0714133126395,409.07142761775424,1437.6,414.0714133126395,409.07142761775424,1542.6,414.0714133126395,409.07142761775424,1648.7,414.0714133126395,409.07142761775424,1752.6,414.0714133126395,409.07142761775424,1852.9,414.0714133126395,409.07142761775424,1958.4,414.0714133126395,409.07142761775424,2062.2,414.0714133126395,409.07142761775424,2162.3,414.0714133126395,409.07142761775424,2263.2,414.0714133126395,409.07142761775424,2364.7,414.0714133126395,409.07142761775424,2467.4,414.0714133126395,409.07142761775424,2567.5,414.0714133126395,409.07142761775424,2668.1,414.0714133126395,409.07142761775424,2772.8,414.0714133126395,409.07142761775424,2872.8,414.0714133126395,409.07142761775424,2978,414.0714133126395,409.07142761775424,3079,414.0714133126395,409.07142761775424,3182.7,414.0714133126395,409.07142761775424,3287.2,414.0714133126395,409.07142761775424,3387.8,414.0714133126395,409.07142761775424,3492.1,414.0714133126395,409.07142761775424,3593,414.0714133126395,409.07142761775424,3697.6,414.0714133126395,409.07142761775424,3798,414.0714133126395,409.07142761775424,3898.3,414.0714133126395,409.07142761775424,4002.2,414.0714133126395,409.07142761775424,4103.6,414.0714133126395,409.07142761775424,4207.3,414.0714133126395,409.07142761775424,4312.1,414.0714133126395,409.07142761775424,4412.8,414.0714133126395,409.07142761775424,4517.2,414.0714133126395,409.07142761775424,4617.4,414.0714133126395,409.07142761775424,4718.2,414.0714133126395,409.07142761775424,4818.4,414.0714133126395,409.07142761775424,4918.4]","[1393.2,1393.2,1000,0,393.2,""smooth"",""up"",""up"",""good_move"",4751.3,3357.8,2817.9,1393.5,539.9,""oops"",""right"",""down"",""bad_move"",7614,2862.3,2463.9,4751.7,398.4,""oops"",""up"",""down"",""bad_move"",10206,2591.9,2164.3,7614.1,427.6,""oops"",""up"",""down"",""bad_move"",12824.3,2618.1,2268.9,10206.2,349.2,""while_blue"",""down"",""left"",""bad_move"",15984,3159.3,2633.6,12824.7,525.7,""smooth"",""left"",""left"",""bad_move"",24697.3,8713.1,1467.2,22761,469.1,""smooth"",""up"",""up"",""good_move""]"
"3417","","<div style=""width:500px;"">
  <p>What determined the result of this run?</p>
  </div>","0","html-slider-response","39","657782","0.0-7.0-1.5","20","1","2025-07-30 08:39:53","36c45c0696341be0efffe67d72a12abb","49.36.203.88","Mozilla/5.0 (Windows NT 10.0; Win64; x64) AppleWebKit/537.36 (KHTML, like Gecko) Chrome/138.0.0.0 Safari/537.36","WebKit","Chrome","138.0.0.0","Windows","10.0","https://app.prolific.com/","en-US,en;q=0.9","65fad673a546ab14baf2f8d3","687a19d2168e237449fb8af4","6889d9d839fe2242c00b7610","0","65fad673a546ab14baf2f8d3","0","2025-07-30T08:50:54.427Z","","","","AttribQ","","","","","","","","","","","50","","","","","","","","","","","","","","","","","","","","","","","","","","",""
"3776","","<div style=""width:500px;"">
  <p>How much control did you have over the ball?</p>
  </div>","5","html-slider-response","40","661559","0.0-7.0-2.5","20","1","2025-07-30 08:39:53","36c45c0696341be0efffe67d72a12abb","49.36.203.88","Mozilla/5.0 (Windows NT 10.0; Win64; x64) AppleWebKit/537.36 (KHTML, like Gecko) Chrome/138.0.0.0 Safari/537.36","WebKit","Chrome","138.0.0.0","Windows","10.0","https://app.prolific.com/","en-US,en;q=0.9","65fad673a546ab14baf2f8d3","687a19d2168e237449fb8af4","6889d9d839fe2242c00b7610","0","65fad673a546ab14baf2f8d3","0","2025-07-30T08:50:58.205Z","","","","ControlQ","","","","","","","","","","","50","","","","","","","","","","","","","","","","","","","","","","","","","","",""
"2660","","<div style=""width:500px;"">
  <p>How would you describe your current emotional state?</p>
  </div>","46","html-slider-response","41","664221","0.0-7.0-3.5","20","1","2025-07-30 08:39:53","36c45c0696341be0efffe67d72a12abb","49.36.203.88","Mozilla/5.0 (Windows NT 10.0; Win64; x64) AppleWebKit/537.36 (KHTML, like Gecko) Chrome/138.0.0.0 Safari/537.36","WebKit","Chrome","138.0.0.0","Windows","10.0","https://app.prolific.com/","en-US,en;q=0.9","65fad673a546ab14baf2f8d3","687a19d2168e237449fb8af4","6889d9d839fe2242c00b7610","0","65fad673a546ab14baf2f8d3","0","2025-07-30T08:51:00.866Z","","","","StressQ","","","","","","","","","","","50","","","","","","","","","","","","","","","","","","","","","","","","","","",""
"2707","","<div style=""width:500px;"">
  <p>What best describes how you currently feel?</p>
  </div>","67","html-slider-response","42","666930","0.0-7.0-4.5","20","1","2025-07-30 08:39:53","36c45c0696341be0efffe67d72a12abb","49.36.203.88","Mozilla/5.0 (Windows NT 10.0; Win64; x64) AppleWebKit/537.36 (KHTML, like Gecko) Chrome/138.0.0.0 Safari/537.36","WebKit","Chrome","138.0.0.0","Windows","10.0","https://app.prolific.com/","en-US,en;q=0.9","65fad673a546ab14baf2f8d3","687a19d2168e237449fb8af4","6889d9d839fe2242c00b7610","0","65fad673a546ab14baf2f8d3","0","2025-07-30T08:51:03.575Z","","","","MotivationQ","","","","","","","","","","","50","","","","","","","","","","","","","","","","","","","","","","","","","","",""
"","","","","ctl-task-cpt","43","690721","0.0-7.0-0.6","20","1","2025-07-30 08:39:53","36c45c0696341be0efffe67d72a12abb","49.36.203.88","Mozilla/5.0 (Windows NT 10.0; Win64; x64) AppleWebKit/537.36 (KHTML, like Gecko) Chrome/138.0.0.0 Safari/537.36","WebKit","Chrome","138.0.0.0","Windows","10.0","https://app.prolific.com/","en-US,en;q=0.9","65fad673a546ab14baf2f8d3","687a19d2168e237449fb8af4","6889d9d839fe2242c00b7610","0","65fad673a546ab14baf2f8d3","0","2025-07-30T08:51:27.366Z","","","","","","","","","","","","","","","","win-only","3","g1:SW,g2:NE","0.4","7","0","670334.5","5193","10195.9","20770.7","1","4","8","6","1","1","1","1","0","0.007575757575757576","4025.5","3000","1430","[""down"",""left""]","{""num_key_presses"":4,""num_perfect"":1,""num_errors"":0,""num_randdir"":3,""num_randdir_good_moves"":3,""num_whilered"":0,""num_whileblue"":0,""num_blue"":0,""num_good_moves"":4}","[416.5714133126395,411.57142761775424,0.3,416.5714133126395,411.57142761775424,102.7,416.5714133126395,411.57142761775424,203.4,416.5714133126395,411.57142761775424,308.5,416.5714133126395,411.57142761775424,412.3,416.5714133126395,411.57142761775424,514.3,416.5714133126395,411.57142761775424,617.7,416.5714133126395,411.57142761775424,718,416.5714133126395,411.57142761775424,823.8,416.5714133126395,411.57142761775424,927.7,416.5714133126395,411.57142761775424,1027.9,416.5714133126395,411.57142761775424,1132.7,416.5714133126395,411.57142761775424,1240,416.5714133126395,411.57142761775424,1343.3,416.5714133126395,411.57142761775424,1447.2,416.5714133126395,411.57142761775424,1547.9,416.5714133126395,411.57142761775424,1653.3,416.5714133126395,411.57142761775424,1757.5,416.5714133126395,411.57142761775424,1857.5,416.5714133126395,411.57142761775424,1957.5,416.5714133126395,411.57142761775424,2058.6,416.5714133126395,411.57142761775424,2162.7,416.5714133126395,411.57142761775424,2263.2,416.5714133126395,411.57142761775424,2363.9,416.5714133126395,411.57142761775424,2467.5,416.5714133126395,411.57142761775424,2567.6,416.5714133126395,411.57142761775424,2672.7,416.5714133126395,411.57142761775424,2773.5,416.5714133126395,411.57142761775424,2877.8,416.5714133126395,411.57142761775424,2983.3,416.5714133126395,411.57142761775424,3087.5,416.5714133126395,411.57142761775424,3189.3,416.5714133126395,411.57142761775424,3292.3,309.0714133126395,495.32142761775424,3393.2,47.82141331263951,731.5714276177542,3493.8,30.321413312639507,751.5714276177542,3593.9,26.571413312639507,762.8214276177542,3697.5,14.071413312639507,781.5714276177542,3797.5,14.071413312639507,781.5714276177542,3897.5,14.071413312639507,781.5714276177542,3997.9,14.071413312639507,781.5714276177542,4103.4,14.071413312639507,781.5714276177542,4209.3,14.071413312639507,781.5714276177542,4313,14.071413312639507,781.5714276177542,4415,14.071413312639507,781.5714276177542,4517.9,14.071413312639507,781.5714276177542,4618.5,14.071413312639507,781.5714276177542,4722.7,14.071413312639507,781.5714276177542,4823.6,14.071413312639507,781.5714276177542,4924.2]","[1478.1,1478.1,1000,0,478.1,""oops"",""down"",""down"",""good_move"",4685.1,3206.6,2781.5,1478.5,425.1,""smooth"",""left"",""left"",""good_move"",7273.9,2588.4,2217.2,4685.5,371.2,""oops"",""left"",""left"",""good_move"",10484.1,3209.8,2873.1,7274.3,336.7,""oops"",""down"",""down"",""good_move""]"
"4653","","<div style=""width:500px;"">
  <p>What determined the result of this run?</p>
  </div>","96","html-slider-response","44","695375","0.0-7.0-1.6","20","1","2025-07-30 08:39:53","36c45c0696341be0efffe67d72a12abb","49.36.203.88","Mozilla/5.0 (Windows NT 10.0; Win64; x64) AppleWebKit/537.36 (KHTML, like Gecko) Chrome/138.0.0.0 Safari/537.36","WebKit","Chrome","138.0.0.0","Windows","10.0","https://app.prolific.com/","en-US,en;q=0.9","65fad673a546ab14baf2f8d3","687a19d2168e237449fb8af4","6889d9d839fe2242c00b7610","0","65fad673a546ab14baf2f8d3","0","2025-07-30T08:51:32.020Z","","","","AttribQ","","","","","","","","","","","50","","","","","","","","","","","","","","","","","","","","","","","","","","",""
"2926","","<div style=""width:500px;"">
  <p>How much control did you have over the ball?</p>
  </div>","91","html-slider-response","45","698303","0.0-7.0-2.6","20","1","2025-07-30 08:39:53","36c45c0696341be0efffe67d72a12abb","49.36.203.88","Mozilla/5.0 (Windows NT 10.0; Win64; x64) AppleWebKit/537.36 (KHTML, like Gecko) Chrome/138.0.0.0 Safari/537.36","WebKit","Chrome","138.0.0.0","Windows","10.0","https://app.prolific.com/","en-US,en;q=0.9","65fad673a546ab14baf2f8d3","687a19d2168e237449fb8af4","6889d9d839fe2242c00b7610","0","65fad673a546ab14baf2f8d3","0","2025-07-30T08:51:34.948Z","","","","ControlQ","","","","","","","","","","","50","","","","","","","","","","","","","","","","","","","","","","","","","","",""
"3044","","<div style=""width:500px;"">
  <p>How would you describe your current emotional state?</p>
  </div>","34","html-slider-response","46","701349","0.0-7.0-3.6","20","1","2025-07-30 08:39:53","36c45c0696341be0efffe67d72a12abb","49.36.203.88","Mozilla/5.0 (Windows NT 10.0; Win64; x64) AppleWebKit/537.36 (KHTML, like Gecko) Chrome/138.0.0.0 Safari/537.36","WebKit","Chrome","138.0.0.0","Windows","10.0","https://app.prolific.com/","en-US,en;q=0.9","65fad673a546ab14baf2f8d3","687a19d2168e237449fb8af4","6889d9d839fe2242c00b7610","0","65fad673a546ab14baf2f8d3","0","2025-07-30T08:51:37.994Z","","","","StressQ","","","","","","","","","","","50","","","","","","","","","","","","","","","","","","","","","","","","","","",""
"2251","","<div style=""width:500px;"">
  <p>What best describes how you currently feel?</p>
  </div>","80","html-slider-response","47","703602","0.0-7.0-4.6","20","1","2025-07-30 08:39:53","36c45c0696341be0efffe67d72a12abb","49.36.203.88","Mozilla/5.0 (Windows NT 10.0; Win64; x64) AppleWebKit/537.36 (KHTML, like Gecko) Chrome/138.0.0.0 Safari/537.36","WebKit","Chrome","138.0.0.0","Windows","10.0","https://app.prolific.com/","en-US,en;q=0.9","65fad673a546ab14baf2f8d3","687a19d2168e237449fb8af4","6889d9d839fe2242c00b7610","0","65fad673a546ab14baf2f8d3","0","2025-07-30T08:51:40.247Z","","","","MotivationQ","","","","","","","","","","","50","","","","","","","","","","","","","","","","","","","","","","","","","","",""
"","","","","ctl-task-cpt","48","739838","0.0-7.0-0.7","20","1","2025-07-30 08:39:53","36c45c0696341be0efffe67d72a12abb","49.36.203.88","Mozilla/5.0 (Windows NT 10.0; Win64; x64) AppleWebKit/537.36 (KHTML, like Gecko) Chrome/138.0.0.0 Safari/537.36","WebKit","Chrome","138.0.0.0","Windows","10.0","https://app.prolific.com/","en-US,en;q=0.9","65fad673a546ab14baf2f8d3","687a19d2168e237449fb8af4","6889d9d839fe2242c00b7610","0","65fad673a546ab14baf2f8d3","0","2025-07-30T08:52:16.483Z","","","","","","","","","","","","","","","","win-only","0","g1:NW,g2:SE","0.3","8","0","707005.8","1517.5","6521.4","33217.2","1","4","4","6","1","-1","-2","0","1","0","1793.5","3000","-3000","[""left"",""up""]","{""num_key_presses"":9,""num_perfect"":3,""num_errors"":1,""num_randdir"":5,""num_randdir_good_moves"":1,""num_whilered"":0,""num_whileblue"":0,""num_blue"":0,""num_good_moves"":4}","[416.5714133126395,420.32142761775424,0.3,416.5714133126395,420.32142761775424,103,416.5714133126395,420.32142761775424,203.5,416.5714133126395,420.32142761775424,303.7,416.5714133126395,420.32142761775424,408.1,416.5714133126395,420.32142761775424,508.3,416.5714133126395,420.32142761775424,608.9,416.5714133126395,420.32142761775424,713.3,416.5714133126395,420.32142761775424,813.8,416.5714133126395,420.32142761775424,918.2,416.5714133126395,420.32142761775424,1019.3,416.5714133126395,420.32142761775424,1123.6,311.5714133126395,331.57142761775424,1224,171.5714133126395,186.57142761775424,1328.5,121.5714133126395,136.57142761775424,1428.9,95.3214133126395,111.57142761775425,1529,91.5714133126395,105.32142761775425,1629.1,91.5714133126395,105.32142761775425,1733.5,91.5714133126395,105.32142761775425,1839,91.5714133126395,105.32142761775425,1943.3,91.5714133126395,105.32142761775425,2048,91.5714133126395,105.32142761775425,2149.5,91.5714133126395,105.32142761775425,2254.2,91.5714133126395,105.32142761775425,2354.6,91.5714133126395,105.32142761775425,2458.1,91.5714133126395,105.32142761775425,2559.8,91.5714133126395,105.32142761775425,2663,91.5714133126395,105.32142761775425,2764.6,91.5714133126395,105.32142761775425,2867.8,91.5714133126395,105.32142761775425,2968.5,91.5714133126395,105.32142761775425,3069.6,91.5714133126395,105.32142761775425,3173.8,91.5714133126395,105.32142761775425,3274.5,91.5714133126395,105.32142761775425,3379.4,105.3214133126395,122.82142761775425,3484.5,242.8214133126395,321.57142761775424,3588.3,242.8214133126395,321.57142761775424,3693.6,242.8214133126395,321.57142761775424,3799.3,242.8214133126395,321.57142761775424,3899.3,242.8214133126395,321.57142761775424,4003.1,242.8214133126395,321.57142761775424,4103.4,242.8214133126395,321.57142761775424,4208.2,242.8214133126395,321.57142761775424,4308.5,242.8214133126395,321.57142761775424,4413.9,242.8214133126395,321.57142761775424,4518.8,242.8214133126395,321.57142761775424,4623.1,242.8214133126395,321.57142761775424,4723.5,242.8214133126395,321.57142761775424,4823.7,242.8214133126395,321.57142761775424,4927.9]","[1389.1,1389.1,1000,0,389.1,""oops"",""left"",""up"",""good_move"",4036.1,2646.6,2193.7,1389.5,452.9,""oops"",""left"",""down"",""bad_move"",7776.1,3739.7,3319.1,4036.5,420.5,""smooth"",""left"",""left"",""good_move"",11077.5,3300.9,2916.2,7776.6,384.7,""smooth"",""up"",""up"",""good_move"",13637.1,2558.8,2224.1,11078.3,334.7,""oops"",""left"",""right"",""bad_move"",15956.3,2318.8,1976.2,13637.5,342.6,""smooth"",""left"",""left"",""good_move"",18848.6,2892,2567.3,15956.6,324.7,""oops"",""up"",""right"",""bad_move"",21055.6,2206.8,2689.9,18848.8,-483.1,""error"",""-"",""-"",""no_move"",24480,3424,2016.9,22059,404.1,""oops"",""left"",""right"",""bad_move""]"
"4093","","<div style=""width:500px;"">
  <p>What determined the result of this run?</p>
  </div>","14","html-slider-response","49","743931","0.0-7.0-1.7","20","1","2025-07-30 08:39:53","36c45c0696341be0efffe67d72a12abb","49.36.203.88","Mozilla/5.0 (Windows NT 10.0; Win64; x64) AppleWebKit/537.36 (KHTML, like Gecko) Chrome/138.0.0.0 Safari/537.36","WebKit","Chrome","138.0.0.0","Windows","10.0","https://app.prolific.com/","en-US,en;q=0.9","65fad673a546ab14baf2f8d3","687a19d2168e237449fb8af4","6889d9d839fe2242c00b7610","0","65fad673a546ab14baf2f8d3","0","2025-07-30T08:52:20.577Z","","","","AttribQ","","","","","","","","","","","50","","","","","","","","","","","","","","","","","","","","","","","","","","",""
"3254","","<div style=""width:500px;"">
  <p>How much control did you have over the ball?</p>
  </div>","27","html-slider-response","50","747187","0.0-7.0-2.7","20","1","2025-07-30 08:39:53","36c45c0696341be0efffe67d72a12abb","49.36.203.88","Mozilla/5.0 (Windows NT 10.0; Win64; x64) AppleWebKit/537.36 (KHTML, like Gecko) Chrome/138.0.0.0 Safari/537.36","WebKit","Chrome","138.0.0.0","Windows","10.0","https://app.prolific.com/","en-US,en;q=0.9","65fad673a546ab14baf2f8d3","687a19d2168e237449fb8af4","6889d9d839fe2242c00b7610","0","65fad673a546ab14baf2f8d3","0","2025-07-30T08:52:23.832Z","","","","ControlQ","","","","","","","","","","","50","","","","","","","","","","","","","","","","","","","","","","","","","","",""
"3131","","<div style=""width:500px;"">
  <p>How would you describe your current emotional state?</p>
  </div>","19","html-slider-response","51","750320","0.0-7.0-3.7","20","1","2025-07-30 08:39:53","36c45c0696341be0efffe67d72a12abb","49.36.203.88","Mozilla/5.0 (Windows NT 10.0; Win64; x64) AppleWebKit/537.36 (KHTML, like Gecko) Chrome/138.0.0.0 Safari/537.36","WebKit","Chrome","138.0.0.0","Windows","10.0","https://app.prolific.com/","en-US,en;q=0.9","65fad673a546ab14baf2f8d3","687a19d2168e237449fb8af4","6889d9d839fe2242c00b7610","0","65fad673a546ab14baf2f8d3","0","2025-07-30T08:52:26.965Z","","","","StressQ","","","","","","","","","","","50","","","","","","","","","","","","","","","","","","","","","","","","","","",""
"3204","","<div style=""width:500px;"">
  <p>What best describes how you currently feel?</p>
  </div>","79","html-slider-response","52","753525","0.0-7.0-4.7","20","1","2025-07-30 08:39:53","36c45c0696341be0efffe67d72a12abb","49.36.203.88","Mozilla/5.0 (Windows NT 10.0; Win64; x64) AppleWebKit/537.36 (KHTML, like Gecko) Chrome/138.0.0.0 Safari/537.36","WebKit","Chrome","138.0.0.0","Windows","10.0","https://app.prolific.com/","en-US,en;q=0.9","65fad673a546ab14baf2f8d3","687a19d2168e237449fb8af4","6889d9d839fe2242c00b7610","0","65fad673a546ab14baf2f8d3","0","2025-07-30T08:52:30.170Z","","","","MotivationQ","","","","","","","","","","","50","","","","","","","","","","","","","","","","","","","","","","","","","","",""
"","","","","ctl-task-cpt","53","783691","0.0-7.0-0.8","20","1","2025-07-30 08:39:53","36c45c0696341be0efffe67d72a12abb","49.36.203.88","Mozilla/5.0 (Windows NT 10.0; Win64; x64) AppleWebKit/537.36 (KHTML, like Gecko) Chrome/138.0.0.0 Safari/537.36","WebKit","Chrome","138.0.0.0","Windows","10.0","https://app.prolific.com/","en-US,en;q=0.9","65fad673a546ab14baf2f8d3","687a19d2168e237449fb8af4","6889d9d839fe2242c00b7610","0","65fad673a546ab14baf2f8d3","0","2025-07-30T08:53:00.337Z","","","","","","","","","","","","","","","","win-only","2","g1:SE,g2:NW","0.4","9","0","756929.6","2546.9","7550.5","27146","1","4","8","6","1","-1","-1","0","0","0","2122.3","3000","-2985","[""down"",""right""]","{""num_key_presses"":6,""num_perfect"":1,""num_errors"":0,""num_randdir"":5,""num_randdir_good_moves"":3,""num_whilered"":0,""num_whileblue"":0,""num_blue"":0,""num_good_moves"":4}","[417.8214133126395,415.32142761775424,0.3,417.8214133126395,415.32142761775424,103.6,417.8214133126395,415.32142761775424,203.8,417.8214133126395,415.32142761775424,303.8,417.8214133126395,415.32142761775424,404,417.8214133126395,415.32142761775424,508.4,417.8214133126395,415.32142761775424,608.5,417.8214133126395,415.32142761775424,708.5,417.8214133126395,415.32142761775424,808.6,417.8214133126395,415.32142761775424,908.6,417.8214133126395,415.32142761775424,1013.6,504.0714133126395,475.32142761775424,1114.6,644.0714133126395,556.5714276177542,1219,692.8214133126395,581.5714276177542,1324.2,751.5714133126395,616.5714276177542,1424.6,807.8214133126395,691.5714276177542,1528.6,822.8214133126395,740.3214276177542,1629.4,822.8214133126395,740.3214276177542,1734.1,822.8214133126395,740.3214276177542,1839.5,822.8214133126395,740.3214276177542,1943.8,822.8214133126395,740.3214276177542,2049.1,822.8214133126395,740.3214276177542,2149.7,822.8214133126395,740.3214276177542,2254.1,822.8214133126395,740.3214276177542,2359.2,822.8214133126395,740.3214276177542,2460,822.8214133126395,740.3214276177542,2564.5,822.8214133126395,740.3214276177542,2668.7,822.8214133126395,740.3214276177542,2770.1,822.8214133126395,740.3214276177542,2873.4,822.8214133126395,740.3214276177542,2973.6,822.8214133126395,740.3214276177542,3078,822.8214133126395,740.3214276177542,3179.1,822.8214133126395,740.3214276177542,3279.6,822.8214133126395,740.3214276177542,3383.5,822.8214133126395,740.3214276177542,3484.7,822.8214133126395,740.3214276177542,3588.6,822.8214133126395,740.3214276177542,3688.6,822.8214133126395,740.3214276177542,3789.4,822.8214133126395,740.3214276177542,3889.6,822.8214133126395,740.3214276177542,3992,822.8214133126395,740.3214276177542,4093.7,811.5714133126395,739.0714276177542,4199.5,752.8214133126395,736.5714276177542,4303.5,752.8214133126395,736.5714276177542,4403.8,752.8214133126395,736.5714276177542,4508.8,752.8214133126395,736.5714276177542,4609.2,752.8214133126395,736.5714276177542,4714.1,752.8214133126395,736.5714276177542,4814.5,752.8214133126395,736.5714276177542,4916.1]","[1496.7,1496.7,1000,0,496.7,""oops"",""down"",""left"",""bad_move"",4926,3428.6,2949,1497.4,479.6,""oops"",""down"",""right"",""good_move"",7767.7,2841.3,2115,4926.4,726.3,""oops"",""right"",""down"",""good_move"",10550.7,2782.5,2341.2,7768.2,441.3,""oops"",""right"",""right"",""good_move"",13843.8,3292.8,2846.7,10551,446.1,""oops"",""right"",""up"",""bad_move"",16842.5,2998.2,2644.7,13844.3,353.5,""smooth"",""down"",""down"",""good_move""]"
"4050","","<div style=""width:500px;"">
  <p>What determined the result of this run?</p>
  </div>","21","html-slider-response","54","787742","0.0-7.0-1.8","20","1","2025-07-30 08:39:53","36c45c0696341be0efffe67d72a12abb","49.36.203.88","Mozilla/5.0 (Windows NT 10.0; Win64; x64) AppleWebKit/537.36 (KHTML, like Gecko) Chrome/138.0.0.0 Safari/537.36","WebKit","Chrome","138.0.0.0","Windows","10.0","https://app.prolific.com/","en-US,en;q=0.9","65fad673a546ab14baf2f8d3","687a19d2168e237449fb8af4","6889d9d839fe2242c00b7610","0","65fad673a546ab14baf2f8d3","0","2025-07-30T08:53:04.387Z","","","","AttribQ","","","","","","","","","","","50","","","","","","","","","","","","","","","","","","","","","","","","","","",""
"5006","","<div style=""width:500px;"">
  <p>How much control did you have over the ball?</p>
  </div>","28","html-slider-response","55","792750","0.0-7.0-2.8","20","1","2025-07-30 08:39:53","36c45c0696341be0efffe67d72a12abb","49.36.203.88","Mozilla/5.0 (Windows NT 10.0; Win64; x64) AppleWebKit/537.36 (KHTML, like Gecko) Chrome/138.0.0.0 Safari/537.36","WebKit","Chrome","138.0.0.0","Windows","10.0","https://app.prolific.com/","en-US,en;q=0.9","65fad673a546ab14baf2f8d3","687a19d2168e237449fb8af4","6889d9d839fe2242c00b7610","0","65fad673a546ab14baf2f8d3","0","2025-07-30T08:53:09.395Z","","","","ControlQ","","","","","","","","","","","50","","","","","","","","","","","","","","","","","","","","","","","","","","",""
"3598","","<div style=""width:500px;"">
  <p>How would you describe your current emotional state?</p>
  </div>","31","html-slider-response","56","796350","0.0-7.0-3.8","20","1","2025-07-30 08:39:53","36c45c0696341be0efffe67d72a12abb","49.36.203.88","Mozilla/5.0 (Windows NT 10.0; Win64; x64) AppleWebKit/537.36 (KHTML, like Gecko) Chrome/138.0.0.0 Safari/537.36","WebKit","Chrome","138.0.0.0","Windows","10.0","https://app.prolific.com/","en-US,en;q=0.9","65fad673a546ab14baf2f8d3","687a19d2168e237449fb8af4","6889d9d839fe2242c00b7610","0","65fad673a546ab14baf2f8d3","0","2025-07-30T08:53:12.995Z","","","","StressQ","","","","","","","","","","","50","","","","","","","","","","","","","","","","","","","","","","","","","","",""
"3954","","<div style=""width:500px;"">
  <p>What best describes how you currently feel?</p>
  </div>","73","html-slider-response","57","800305","0.0-7.0-4.8","20","1","2025-07-30 08:39:53","36c45c0696341be0efffe67d72a12abb","49.36.203.88","Mozilla/5.0 (Windows NT 10.0; Win64; x64) AppleWebKit/537.36 (KHTML, like Gecko) Chrome/138.0.0.0 Safari/537.36","WebKit","Chrome","138.0.0.0","Windows","10.0","https://app.prolific.com/","en-US,en;q=0.9","65fad673a546ab14baf2f8d3","687a19d2168e237449fb8af4","6889d9d839fe2242c00b7610","0","65fad673a546ab14baf2f8d3","0","2025-07-30T08:53:16.950Z","","","","MotivationQ","","","","","","","","","","","50","","","","","","","","","","","","","","","","","","","","","","","","","","",""
"","","","","ctl-task-cpt","58","835361","0.0-7.0-0.9","20","1","2025-07-30 08:39:53","36c45c0696341be0efffe67d72a12abb","49.36.203.88","Mozilla/5.0 (Windows NT 10.0; Win64; x64) AppleWebKit/537.36 (KHTML, like Gecko) Chrome/138.0.0.0 Safari/537.36","WebKit","Chrome","138.0.0.0","Windows","10.0","https://app.prolific.com/","en-US,en;q=0.9","65fad673a546ab14baf2f8d3","687a19d2168e237449fb8af4","6889d9d839fe2242c00b7610","0","65fad673a546ab14baf2f8d3","0","2025-07-30T08:53:52.006Z","","","","","","","","","","","","","","","","win-only","0","g1:NW,g2:SE","0.5","10","0","803709.5","2601.4","7601.8","32035.5","1","4","4","6","1","-1","-1","0","0","0","2632","3000","-2975","[""left"",""up""]","{""num_key_presses"":8,""num_perfect"":4,""num_errors"":0,""num_randdir"":4,""num_randdir_good_moves"":1,""num_whilered"":0,""num_whileblue"":0,""num_blue"":0,""num_good_moves"":4}","[412.8214133126395,414.07142761775424,0.3,412.8214133126395,414.07142761775424,102.3,412.8214133126395,414.07142761775424,202.3,412.8214133126395,414.07142761775424,305,412.8214133126395,414.07142761775424,410.9,412.8214133126395,414.07142761775424,510.9,412.8214133126395,414.07142761775424,614.2,412.8214133126395,414.07142761775424,714.5,412.8214133126395,414.07142761775424,820.4,412.8214133126395,414.07142761775424,925.5,412.8214133126395,414.07142761775424,1029.6,412.8214133126395,414.07142761775424,1134.8,412.8214133126395,414.07142761775424,1239.5,374.0714133126395,381.57142761775424,1340,272.8214133126395,299.07142761775424,1444.7,212.8214133126395,252.82142761775424,1549.7,165.3214133126395,191.57142761775424,1649.8,150.3214133126395,162.82142761775424,1754.7,126.5714133126395,137.82142761775424,1859.8,107.8214133126395,114.07142761775425,1960.2,106.5714133126395,111.57142761775425,2064.7,106.5714133126395,111.57142761775425,2164.7,106.5714133126395,111.57142761775425,2265,106.5714133126395,111.57142761775425,2370.3,106.5714133126395,111.57142761775425,2475.2,106.5714133126395,111.57142761775425,2577.4,106.5714133126395,111.57142761775425,2679.5,106.5714133126395,111.57142761775425,2780.9,106.5714133126395,111.57142761775425,2884.5,106.5714133126395,111.57142761775425,2984.5,106.5714133126395,111.57142761775425,3085.1,106.5714133126395,111.57142761775425,3190.3,106.5714133126395,111.57142761775425,3295.1,106.5714133126395,111.57142761775425,3403.5,106.5714133126395,111.57142761775425,3504.4,106.5714133126395,111.57142761775425,3610.4,106.5714133126395,111.57142761775425,3715.5,106.5714133126395,111.57142761775425,3820.4,141.5714133126395,181.57142761775424,3924.6,184.0714133126395,251.57142761775424,4025.3,185.3214133126395,256.57142761775424,4129.7,184.0714133126395,256.57142761775424,4239.1,177.8214133126395,239.07142761775424,4340.3,172.8214133126395,217.82142761775424,4444.3,231.5714133126395,189.07142761775424,4549.2,305.3214133126395,235.32142761775424,4650.4,306.5714133126395,330.32142761775424,4750.9,314.0714133126395,356.57142761775424,4855.1,317.8214133126395,279.07142761775424,4955.5]","[1467.7,1467.7,1000,0,467.7,""smooth"",""left"",""left"",""good_move"",4011.7,2543,2166.7,1468.7,376.3,""oops"",""up"",""left"",""good_move"",7032.7,3020.6,2674.2,4012.1,346.4,""oops"",""up"",""down"",""bad_move"",10718.6,3685.6,3362.4,7033,323.2,""oops"",""up"",""down"",""bad_move"",13854.4,3135.2,2769.8,10719.2,365.4,""smooth"",""down"",""down"",""bad_move"",16445.4,2590.7,2196.4,13854.7,394.3,""oops"",""up"",""right"",""bad_move"",19691.8,3246.1,2931.1,16445.7,315,""smooth"",""up"",""up"",""good_move"",22175,2482.8,2072.1,19692.2,410.8,""smooth"",""up"",""up"",""good_move""]"
"4514","","<div style=""width:500px;"">
  <p>What determined the result of this run?</p>
  </div>","30","html-slider-response","59","839876","0.0-7.0-1.9","20","1","2025-07-30 08:39:53","36c45c0696341be0efffe67d72a12abb","49.36.203.88","Mozilla/5.0 (Windows NT 10.0; Win64; x64) AppleWebKit/537.36 (KHTML, like Gecko) Chrome/138.0.0.0 Safari/537.36","WebKit","Chrome","138.0.0.0","Windows","10.0","https://app.prolific.com/","en-US,en;q=0.9","65fad673a546ab14baf2f8d3","687a19d2168e237449fb8af4","6889d9d839fe2242c00b7610","0","65fad673a546ab14baf2f8d3","0","2025-07-30T08:53:56.521Z","","","","AttribQ","","","","","","","","","","","50","","","","","","","","","","","","","","","","","","","","","","","","","","",""
"3562","","<div style=""width:500px;"">
  <p>How much control did you have over the ball?</p>
  </div>","23","html-slider-response","60","843440","0.0-7.0-2.9","20","1","2025-07-30 08:39:53","36c45c0696341be0efffe67d72a12abb","49.36.203.88","Mozilla/5.0 (Windows NT 10.0; Win64; x64) AppleWebKit/537.36 (KHTML, like Gecko) Chrome/138.0.0.0 Safari/537.36","WebKit","Chrome","138.0.0.0","Windows","10.0","https://app.prolific.com/","en-US,en;q=0.9","65fad673a546ab14baf2f8d3","687a19d2168e237449fb8af4","6889d9d839fe2242c00b7610","0","65fad673a546ab14baf2f8d3","0","2025-07-30T08:54:00.085Z","","","","ControlQ","","","","","","","","","","","50","","","","","","","","","","","","","","","","","","","","","","","","","","",""
"4179","","<div style=""width:500px;"">
  <p>How would you describe your current emotional state?</p>
  </div>","43","html-slider-response","61","847621","0.0-7.0-3.9","20","1","2025-07-30 08:39:53","36c45c0696341be0efffe67d72a12abb","49.36.203.88","Mozilla/5.0 (Windows NT 10.0; Win64; x64) AppleWebKit/537.36 (KHTML, like Gecko) Chrome/138.0.0.0 Safari/537.36","WebKit","Chrome","138.0.0.0","Windows","10.0","https://app.prolific.com/","en-US,en;q=0.9","65fad673a546ab14baf2f8d3","687a19d2168e237449fb8af4","6889d9d839fe2242c00b7610","0","65fad673a546ab14baf2f8d3","0","2025-07-30T08:54:04.266Z","","","","StressQ","","","","","","","","","","","50","","","","","","","","","","","","","","","","","","","","","","","","","","",""
"2647","","<div style=""width:500px;"">
  <p>What best describes how you currently feel?</p>
  </div>","50","html-slider-response","62","850269","0.0-7.0-4.9","20","1","2025-07-30 08:39:53","36c45c0696341be0efffe67d72a12abb","49.36.203.88","Mozilla/5.0 (Windows NT 10.0; Win64; x64) AppleWebKit/537.36 (KHTML, like Gecko) Chrome/138.0.0.0 Safari/537.36","WebKit","Chrome","138.0.0.0","Windows","10.0","https://app.prolific.com/","en-US,en;q=0.9","65fad673a546ab14baf2f8d3","687a19d2168e237449fb8af4","6889d9d839fe2242c00b7610","0","65fad673a546ab14baf2f8d3","0","2025-07-30T08:54:06.914Z","","","","MotivationQ","","","","","","","","","","","50","","","","","","","","","","","","","","","","","","","","","","","","","","",""
"","","","","ctl-task-cpt","63","879714","0.0-7.0-0.10","20","1","2025-07-30 08:39:53","36c45c0696341be0efffe67d72a12abb","49.36.203.88","Mozilla/5.0 (Windows NT 10.0; Win64; x64) AppleWebKit/537.36 (KHTML, like Gecko) Chrome/138.0.0.0 Safari/537.36","WebKit","Chrome","138.0.0.0","Windows","10.0","https://app.prolific.com/","en-US,en;q=0.9","65fad673a546ab14baf2f8d3","687a19d2168e237449fb8af4","6889d9d839fe2242c00b7610","0","65fad673a546ab14baf2f8d3","0","2025-07-30T08:54:36.360Z","","","","","","","","","","","","","","","","win-only","2","g1:SE,g2:NW","0.6","11","0","853673.2","6129.5","11131.7","26425.7","1","4","8","6","1","1","1","1","0","0.007575757575757576","3697.9","3000","595","[""down"",""right""]","{""num_key_presses"":6,""num_perfect"":4,""num_errors"":0,""num_randdir"":2,""num_randdir_good_moves"":2,""num_whilered"":0,""num_whileblue"":0,""num_blue"":0,""num_good_moves"":5}","[417.8214133126395,415.32142761775424,0.3,417.8214133126395,415.32142761775424,101.3,417.8214133126395,415.32142761775424,209.7,417.8214133126395,415.32142761775424,312,417.8214133126395,415.32142761775424,416.9,417.8214133126395,415.32142761775424,521.7,417.8214133126395,415.32142761775424,622.5,417.8214133126395,415.32142761775424,722.5,417.8214133126395,415.32142761775424,828,417.8214133126395,415.32142761775424,932,417.8214133126395,415.32142761775424,1037.3,417.8214133126395,415.32142761775424,1143.4,384.0714133126395,386.57142761775424,1247.2,357.8214133126395,362.82142761775424,1351.1,365.3214133126395,369.07142761775424,1451.5,591.5714133126395,627.8214276177542,1557.3,591.5714133126395,627.8214276177542,1662.8,591.5714133126395,627.8214276177542,1764.2,591.5714133126395,627.8214276177542,1866.2,601.5714133126395,636.5714276177542,1966.3,676.5714133126395,706.5714276177542,2066.9,676.5714133126395,709.0714276177542,2167,702.8214133126395,725.3214276177542,2272,709.0714133126395,726.5714276177542,2372.4,670.3214133126395,697.8214276177542,2474.8,351.5714133126395,466.57142761775424,2577.6,351.5714133126395,466.57142761775424,2682.7,351.5714133126395,466.57142761775424,2786.5,351.5714133126395,466.57142761775424,2891.1,351.5714133126395,466.57142761775424,2991.6,761.5714133126395,641.5714276177542,3097,817.8214133126395,690.3214276177542,3201.7,851.5714133126395,712.8214276177542,3307.3,852.8214133126395,719.0714276177542,3412.8,800.3214133126395,742.8214276177542,3516,799.0714133126395,742.8214276177542,3616.3,799.0714133126395,742.8214276177542,3716.7,799.0714133126395,742.8214276177542,3816.8,799.0714133126395,742.8214276177542,3917.7,799.0714133126395,742.8214276177542,4021.6,799.0714133126395,742.8214276177542,4122.2,799.0714133126395,742.8214276177542,4222.5,799.0714133126395,742.8214276177542,4326.3,799.0714133126395,742.8214276177542,4432.2,799.0714133126395,742.8214276177542,4536,799.0714133126395,742.8214276177542,4636.5,799.0714133126395,742.8214276177542,4737.9,799.0714133126395,742.8214276177542,4842.8,799.0714133126395,742.8214276177542,4944.4]","[1454.2,1454.2,1000,0,454.2,""smooth"",""right"",""right"",""good_move"",4226.6,2771.8,2264.4,1454.8,507.4,""smooth"",""right"",""right"",""good_move"",7522,3295.3,2944.6,4226.8,350.7,""oops"",""left"",""down"",""good_move"",10027,2504.4,2125.6,7522.6,378.8,""smooth"",""left"",""left"",""bad_move"",12858.3,2831,2405.5,10027.3,425.5,""oops"",""right"",""down"",""good_move"",15208.6,2349.9,1996.4,12858.7,353.5,""smooth"",""right"",""right"",""good_move""]"
"3806","","<div style=""width:500px;"">
  <p>What determined the result of this run?</p>
  </div>","35","html-slider-response","64","883521","0.0-7.0-1.10","20","1","2025-07-30 08:39:53","36c45c0696341be0efffe67d72a12abb","49.36.203.88","Mozilla/5.0 (Windows NT 10.0; Win64; x64) AppleWebKit/537.36 (KHTML, like Gecko) Chrome/138.0.0.0 Safari/537.36","WebKit","Chrome","138.0.0.0","Windows","10.0","https://app.prolific.com/","en-US,en;q=0.9","65fad673a546ab14baf2f8d3","687a19d2168e237449fb8af4","6889d9d839fe2242c00b7610","0","65fad673a546ab14baf2f8d3","0","2025-07-30T08:54:40.167Z","","","","AttribQ","","","","","","","","","","","50","","","","","","","","","","","","","","","","","","","","","","","","","","",""
"4049","","<div style=""width:500px;"">
  <p>How much control did you have over the ball?</p>
  </div>","38","html-slider-response","65","887572","0.0-7.0-2.10","20","1","2025-07-30 08:39:53","36c45c0696341be0efffe67d72a12abb","49.36.203.88","Mozilla/5.0 (Windows NT 10.0; Win64; x64) AppleWebKit/537.36 (KHTML, like Gecko) Chrome/138.0.0.0 Safari/537.36","WebKit","Chrome","138.0.0.0","Windows","10.0","https://app.prolific.com/","en-US,en;q=0.9","65fad673a546ab14baf2f8d3","687a19d2168e237449fb8af4","6889d9d839fe2242c00b7610","0","65fad673a546ab14baf2f8d3","0","2025-07-30T08:54:44.217Z","","","","ControlQ","","","","","","","","","","","50","","","","","","","","","","","","","","","","","","","","","","","","","","",""
"2455","","<div style=""width:500px;"">
  <p>How would you describe your current emotional state?</p>
  </div>","29","html-slider-response","66","890029","0.0-7.0-3.10","20","1","2025-07-30 08:39:53","36c45c0696341be0efffe67d72a12abb","49.36.203.88","Mozilla/5.0 (Windows NT 10.0; Win64; x64) AppleWebKit/537.36 (KHTML, like Gecko) Chrome/138.0.0.0 Safari/537.36","WebKit","Chrome","138.0.0.0","Windows","10.0","https://app.prolific.com/","en-US,en;q=0.9","65fad673a546ab14baf2f8d3","687a19d2168e237449fb8af4","6889d9d839fe2242c00b7610","0","65fad673a546ab14baf2f8d3","0","2025-07-30T08:54:46.674Z","","","","StressQ","","","","","","","","","","","50","","","","","","","","","","","","","","","","","","","","","","","","","","",""
"2538","","<div style=""width:500px;"">
  <p>What best describes how you currently feel?</p>
  </div>","64","html-slider-response","67","892569","0.0-7.0-4.10","20","1","2025-07-30 08:39:53","36c45c0696341be0efffe67d72a12abb","49.36.203.88","Mozilla/5.0 (Windows NT 10.0; Win64; x64) AppleWebKit/537.36 (KHTML, like Gecko) Chrome/138.0.0.0 Safari/537.36","WebKit","Chrome","138.0.0.0","Windows","10.0","https://app.prolific.com/","en-US,en;q=0.9","65fad673a546ab14baf2f8d3","687a19d2168e237449fb8af4","6889d9d839fe2242c00b7610","0","65fad673a546ab14baf2f8d3","0","2025-07-30T08:54:49.214Z","","","","MotivationQ","","","","","","","","","","","50","","","","","","","","","","","","","","","","","","","","","","","","","","",""
"","","","","ctl-task-cpt","68","936551","0.0-7.0-0.11","20","1","2025-07-30 08:39:53","36c45c0696341be0efffe67d72a12abb","49.36.203.88","Mozilla/5.0 (Windows NT 10.0; Win64; x64) AppleWebKit/537.36 (KHTML, like Gecko) Chrome/138.0.0.0 Safari/537.36","WebKit","Chrome","138.0.0.0","Windows","10.0","https://app.prolific.com/","en-US,en;q=0.9","65fad673a546ab14baf2f8d3","687a19d2168e237449fb8af4","6889d9d839fe2242c00b7610","0","65fad673a546ab14baf2f8d3","0","2025-07-30T08:55:33.196Z","","","","","","","","","","","","","","","","win-only","2","g1:SE,g2:NW","0.7","12","0","895974.2","2976.2","7980.6","40961","1","4","4","6","1","-1","-2","0","1","0","1907.4","3000","-2960","[""down"",""right""]","{""num_key_presses"":7,""num_perfect"":3,""num_errors"":1,""num_randdir"":3,""num_randdir_good_moves"":2,""num_whilered"":0,""num_whileblue"":1,""num_blue"":4,""num_good_moves"":5}","[417.8214133126395,411.57142761775424,0.4,417.8214133126395,411.57142761775424,100.6,417.8214133126395,411.57142761775424,200.7,417.8214133126395,411.57142761775424,301.1,417.8214133126395,411.57142761775424,404.6,417.8214133126395,411.57142761775424,509.5,417.8214133126395,411.57142761775424,610.5,417.8214133126395,411.57142761775424,714.4,417.8214133126395,411.57142761775424,820.3,417.8214133126395,411.57142761775424,926,417.8214133126395,411.57142761775424,1029.2,417.8214133126395,411.57142761775424,1130.6,462.8214133126395,441.57142761775424,1234.2,641.5714133126395,621.5714276177542,1339.3,686.5714133126395,681.5714276177542,1439.7,721.5714133126395,725.3214276177542,1540.9,736.5714133126395,751.5714276177542,1644.5,736.5714133126395,751.5714276177542,1745.1,736.5714133126395,751.5714276177542,1845.3,736.5714133126395,751.5714276177542,1949.1,736.5714133126395,751.5714276177542,2050.4,736.5714133126395,751.5714276177542,2154.7,736.5714133126395,751.5714276177542,2254.8,736.5714133126395,751.5714276177542,2359.9,736.5714133126395,751.5714276177542,2460.9,736.5714133126395,751.5714276177542,2564.9,736.5714133126395,751.5714276177542,2667.9,736.5714133126395,751.5714276177542,2769.8,736.5714133126395,751.5714276177542,2875.1,736.5714133126395,751.5714276177542,2979.8,736.5714133126395,751.5714276177542,3084.8,736.5714133126395,751.5714276177542,3189.3,736.5714133126395,751.5714276177542,3289.4,736.5714133126395,751.5714276177542,3398.1,736.5714133126395,751.5714276177542,3499.2,736.5714133126395,751.5714276177542,3599.5,736.5714133126395,751.5714276177542,3704.4,736.5714133126395,751.5714276177542,3805.4,736.5714133126395,751.5714276177542,3909.2,736.5714133126395,751.5714276177542,4009.5,736.5714133126395,751.5714276177542,4109.7,736.5714133126395,751.5714276177542,4210.3,736.5714133126395,751.5714276177542,4315,736.5714133126395,751.5714276177542,4416.1,736.5714133126395,751.5714276177542,4519.3,736.5714133126395,751.5714276177542,4624.6,736.5714133126395,751.5714276177542,4724.7,736.5714133126395,751.5714276177542,4825.1,736.5714133126395,751.5714276177542,4925.6]","[1377,1377,1000,0,377,""oops"",""right"",""right"",""good_move"",4207.7,2830.1,2406.7,1377.6,423.4,""smooth"",""right"",""right"",""good_move"",7773.2,3565.3,2796.7,4207.9,768.6,""oops"",""right"",""down"",""good_move"",10374.5,2601,2224.9,7773.5,376.1,""oops"",""right"",""up"",""bad_move"",12804.1,2429.1,2104.7,10375,324.4,""while_blue"",""right"",""up"",""bad_move"",16187.2,3382.7,2876.3,12804.6,506.4,""smooth"",""right"",""down"",""good_move"",27001.5,10813.9,2801.4,23789.8,410.3,""smooth"",""down"",""down"",""good_move""]"
"5006","","<div style=""width:500px;"">
  <p>What determined the result of this run?</p>
  </div>","18","html-slider-response","69","941558","0.0-7.0-1.11","20","1","2025-07-30 08:39:53","36c45c0696341be0efffe67d72a12abb","49.36.203.88","Mozilla/5.0 (Windows NT 10.0; Win64; x64) AppleWebKit/537.36 (KHTML, like Gecko) Chrome/138.0.0.0 Safari/537.36","WebKit","Chrome","138.0.0.0","Windows","10.0","https://app.prolific.com/","en-US,en;q=0.9","65fad673a546ab14baf2f8d3","687a19d2168e237449fb8af4","6889d9d839fe2242c00b7610","0","65fad673a546ab14baf2f8d3","0","2025-07-30T08:55:38.203Z","","","","AttribQ","","","","","","","","","","","50","","","","","","","","","","","","","","","","","","","","","","","","","","",""
"4374","","<div style=""width:500px;"">
  <p>How much control did you have over the ball?</p>
  </div>","21","html-slider-response","70","945934","0.0-7.0-2.11","20","1","2025-07-30 08:39:53","36c45c0696341be0efffe67d72a12abb","49.36.203.88","Mozilla/5.0 (Windows NT 10.0; Win64; x64) AppleWebKit/537.36 (KHTML, like Gecko) Chrome/138.0.0.0 Safari/537.36","WebKit","Chrome","138.0.0.0","Windows","10.0","https://app.prolific.com/","en-US,en;q=0.9","65fad673a546ab14baf2f8d3","687a19d2168e237449fb8af4","6889d9d839fe2242c00b7610","0","65fad673a546ab14baf2f8d3","0","2025-07-30T08:55:42.579Z","","","","ControlQ","","","","","","","","","","","50","","","","","","","","","","","","","","","","","","","","","","","","","","",""
"5541","","<div style=""width:500px;"">
  <p>How would you describe your current emotional state?</p>
  </div>","36","html-slider-response","71","951477","0.0-7.0-3.11","20","1","2025-07-30 08:39:53","36c45c0696341be0efffe67d72a12abb","49.36.203.88","Mozilla/5.0 (Windows NT 10.0; Win64; x64) AppleWebKit/537.36 (KHTML, like Gecko) Chrome/138.0.0.0 Safari/537.36","WebKit","Chrome","138.0.0.0","Windows","10.0","https://app.prolific.com/","en-US,en;q=0.9","65fad673a546ab14baf2f8d3","687a19d2168e237449fb8af4","6889d9d839fe2242c00b7610","0","65fad673a546ab14baf2f8d3","0","2025-07-30T08:55:48.122Z","","","","StressQ","","","","","","","","","","","50","","","","","","","","","","","","","","","","","","","","","","","","","","",""
"2733","","<div style=""width:500px;"">
  <p>What best describes how you currently feel?</p>
  </div>","67","html-slider-response","72","954211","0.0-7.0-4.11","20","1","2025-07-30 08:39:53","36c45c0696341be0efffe67d72a12abb","49.36.203.88","Mozilla/5.0 (Windows NT 10.0; Win64; x64) AppleWebKit/537.36 (KHTML, like Gecko) Chrome/138.0.0.0 Safari/537.36","WebKit","Chrome","138.0.0.0","Windows","10.0","https://app.prolific.com/","en-US,en;q=0.9","65fad673a546ab14baf2f8d3","687a19d2168e237449fb8af4","6889d9d839fe2242c00b7610","0","65fad673a546ab14baf2f8d3","0","2025-07-30T08:55:50.856Z","","","","MotivationQ","","","","","","","","","","","50","","","","","","","","","","","","","","","","","","","","","","","","","","",""
"","","","","ctl-task-cpt","73","994367","0.0-7.0-0.12","20","1","2025-07-30 08:39:53","36c45c0696341be0efffe67d72a12abb","49.36.203.88","Mozilla/5.0 (Windows NT 10.0; Win64; x64) AppleWebKit/537.36 (KHTML, like Gecko) Chrome/138.0.0.0 Safari/537.36","WebKit","Chrome","138.0.0.0","Windows","10.0","https://app.prolific.com/","en-US,en;q=0.9","65fad673a546ab14baf2f8d3","687a19d2168e237449fb8af4","6889d9d839fe2242c00b7610","0","65fad673a546ab14baf2f8d3","0","2025-07-30T08:56:31.012Z","","","","","","","","","","","","","","","","win-only","1","g1:NE,g2:SW","0.8","13","0","957615.9","4837.9","9840.8","37135.8","1","4","4","6","2","4","4","4","0","0.030303030303030304","2462.2","3000","805","[""down"",""left""]","{""num_key_presses"":6,""num_perfect"":5,""num_errors"":0,""num_randdir"":1,""num_randdir_good_moves"":1,""num_whilered"":0,""num_whileblue"":0,""num_blue"":3,""num_good_moves"":6}","[420.3214133126395,414.07142761775424,0.4,420.3214133126395,414.07142761775424,103.5,420.3214133126395,414.07142761775424,207.9,420.3214133126395,414.07142761775424,312.8,420.3214133126395,414.07142761775424,417.5,420.3214133126395,414.07142761775424,517.9,420.3214133126395,414.07142761775424,623.8,420.3214133126395,414.07142761775424,724,420.3214133126395,414.07142761775424,828.2,420.3214133126395,414.07142761775424,929.3,402.8214133126395,430.32142761775424,1033.5,270.3214133126395,557.8214276177542,1134,122.8214133126395,711.5714276177542,1234.7,66.5714133126395,769.0714276177542,1335.7,56.57141331263951,779.0714276177542,1437.8,56.57141331263951,779.0714276177542,1538,56.57141331263951,779.0714276177542,1638.3,56.57141331263951,779.0714276177542,1738.8,56.57141331263951,779.0714276177542,1842.9,56.57141331263951,779.0714276177542,1943.9,56.57141331263951,779.0714276177542,2048.7,56.57141331263951,779.0714276177542,2152.4,56.57141331263951,779.0714276177542,2253.7,56.57141331263951,779.0714276177542,2358.1,56.57141331263951,779.0714276177542,2470.6,56.57141331263951,779.0714276177542,2573,56.57141331263951,779.0714276177542,2673.4,56.57141331263951,779.0714276177542,2778.2,56.57141331263951,779.0714276177542,2878.3,56.57141331263951,779.0714276177542,2982.4,56.57141331263951,779.0714276177542,3084.2,56.57141331263951,779.0714276177542,3187.7,56.57141331263951,779.0714276177542,3293,56.57141331263951,779.0714276177542,3393.4,56.57141331263951,779.0714276177542,3498,56.57141331263951,779.0714276177542,3598.5,56.57141331263951,779.0714276177542,3703.3,56.57141331263951,779.0714276177542,3807.8,56.57141331263951,779.0714276177542,3907.9,56.57141331263951,779.0714276177542,4007.9,56.57141331263951,779.0714276177542,4108.4,56.57141331263951,779.0714276177542,4212.6,56.57141331263951,779.0714276177542,4314.9,56.57141331263951,779.0714276177542,4420.1,56.57141331263951,779.0714276177542,4522.9,56.57141331263951,779.0714276177542,4623.2,56.57141331263951,779.0714276177542,4727.9,56.57141331263951,779.0714276177542,4832.6,56.57141331263951,779.0714276177542,4932.6]","[1407.7,1407.8,1000,0,407.8,""smooth"",""left"",""left"",""good_move"",4518.1,3109.8,2756.1,1408.3,353.7,""smooth"",""left"",""left"",""good_move"",6959.4,2440.9,2072,4518.5,368.9,""smooth"",""down"",""down"",""good_move"",9526.6,2566.8,2206.2,6959.8,360.6,""oops"",""down"",""down"",""good_move"",20524.3,10997.4,2776.4,17300.3,447.6,""smooth"",""left"",""left"",""good_move"",27209.2,6684.4,2499.9,24359.5,349.8,""smooth"",""down"",""down"",""good_move""]"
"4872","","<div style=""width:500px;"">
  <p>What determined the result of this run?</p>
  </div>","72","html-slider-response","74","999240","0.0-7.0-1.12","20","1","2025-07-30 08:39:53","36c45c0696341be0efffe67d72a12abb","49.36.203.88","Mozilla/5.0 (Windows NT 10.0; Win64; x64) AppleWebKit/537.36 (KHTML, like Gecko) Chrome/138.0.0.0 Safari/537.36","WebKit","Chrome","138.0.0.0","Windows","10.0","https://app.prolific.com/","en-US,en;q=0.9","65fad673a546ab14baf2f8d3","687a19d2168e237449fb8af4","6889d9d839fe2242c00b7610","0","65fad673a546ab14baf2f8d3","0","2025-07-30T08:56:35.885Z","","","","AttribQ","","","","","","","","","","","50","","","","","","","","","","","","","","","","","","","","","","","","","","",""
"5913","","<div style=""width:500px;"">
  <p>How much control did you have over the ball?</p>
  </div>","76","html-slider-response","75","1005155","0.0-7.0-2.12","20","1","2025-07-30 08:39:53","36c45c0696341be0efffe67d72a12abb","49.36.203.88","Mozilla/5.0 (Windows NT 10.0; Win64; x64) AppleWebKit/537.36 (KHTML, like Gecko) Chrome/138.0.0.0 Safari/537.36","WebKit","Chrome","138.0.0.0","Windows","10.0","https://app.prolific.com/","en-US,en;q=0.9","65fad673a546ab14baf2f8d3","687a19d2168e237449fb8af4","6889d9d839fe2242c00b7610","0","65fad673a546ab14baf2f8d3","0","2025-07-30T08:56:41.800Z","","","","ControlQ","","","","","","","","","","","50","","","","","","","","","","","","","","","","","","","","","","","","","","",""
"5316","","<div style=""width:500px;"">
  <p>How would you describe your current emotional state?</p>
  </div>","35","html-slider-response","76","1010474","0.0-7.0-3.12","20","1","2025-07-30 08:39:53","36c45c0696341be0efffe67d72a12abb","49.36.203.88","Mozilla/5.0 (Windows NT 10.0; Win64; x64) AppleWebKit/537.36 (KHTML, like Gecko) Chrome/138.0.0.0 Safari/537.36","WebKit","Chrome","138.0.0.0","Windows","10.0","https://app.prolific.com/","en-US,en;q=0.9","65fad673a546ab14baf2f8d3","687a19d2168e237449fb8af4","6889d9d839fe2242c00b7610","0","65fad673a546ab14baf2f8d3","0","2025-07-30T08:56:47.119Z","","","","StressQ","","","","","","","","","","","50","","","","","","","","","","","","","","","","","","","","","","","","","","",""
"5099","","<div style=""width:500px;"">
  <p>What best describes how you currently feel?</p>
  </div>","72","html-slider-response","77","1015575","0.0-7.0-4.12","20","1","2025-07-30 08:39:53","36c45c0696341be0efffe67d72a12abb","49.36.203.88","Mozilla/5.0 (Windows NT 10.0; Win64; x64) AppleWebKit/537.36 (KHTML, like Gecko) Chrome/138.0.0.0 Safari/537.36","WebKit","Chrome","138.0.0.0","Windows","10.0","https://app.prolific.com/","en-US,en;q=0.9","65fad673a546ab14baf2f8d3","687a19d2168e237449fb8af4","6889d9d839fe2242c00b7610","0","65fad673a546ab14baf2f8d3","0","2025-07-30T08:56:52.220Z","","","","MotivationQ","","","","","","","","","","","50","","","","","","","","","","","","","","","","","","","","","","","","","","",""
