"rt","response_timestamp","stimulus","response","trial_type","trial_index","time_elapsed","internal_node_id","run_id","condition","recorded_at","source_code_version","ip","user_agent","device","browser","browser_version","platform","platform_version","referer","accept_language","PROLIFIC_PID","STUDY_ID","SESSION_ID","BATCH","prolific_id","batch","realtime","success","question_order","question_id","eventType","responses","item_order","radio_event_ids","radio_event_times","key_event_times","mouse_event_times","straightlining","zigzagging","honeypot","view_history","slider_start","which_type","canvas_config","goals_layout","control_level","trial_number","tutorial_trial_number","trial_start_time","phase1_start_time","phase2_start_time","phase3_start_time","goal_1_value","goal_1_distance","goal_2_value","goal_2_distance","goal_selected","outcome","outcome_total","participant_final_score","participant_initial_score","participant_final_score_prop","goal_choice_rt","allocated_time","allocated_time_remaining","goal_direction","counts","mouse_movements","key_presses"
"6030","1754477885636","<p style='font-size:40px;line-height:1.25'><strong>Welcome to the experiment!</strong></p><p style='font-size:1.1em;line-height:1.25'>Thank you for participanting in our experiment again! You will be asked to play the Dysfunctional Ball Game again. We will briefly recap the rules before we start.</p><p style='font-size:1.1em;line-height:1.25'>Press <strong>Next</strong> to continue.</p>","0","custom-html-button-response","0","6032","0.0-0.0","181","1","2025-08-06 10:55:52","36c45c0696341be0efffe67d72a12abb","197.248.117.175","Mozilla/5.0 (Windows NT 10.0; Win64; x64) AppleWebKit/537.36 (KHTML, like Gecko) Chrome/138.0.0.0 Safari/537.36","WebKit","Chrome","138.0.0.0","Windows","10.0","https://app.prolific.com/","en-US,en;q=0.9","65fb13bebfa339f73b4cf76a","687a1a965b9f5b85a264363e","689334abdadc06b4fd2a55ab","1","65fb13bebfa339f73b4cf76a","1","2025-08-06T10:58:05.637Z","","","","","","","","","","","","","","","","","","","","","","","","","","","","","","","","","","","","","","","","","",""
"19750","","","","fullscreen","1","26785","0.0-1.0","181","1","2025-08-06 10:55:52","36c45c0696341be0efffe67d72a12abb","197.248.117.175","Mozilla/5.0 (Windows NT 10.0; Win64; x64) AppleWebKit/537.36 (KHTML, like Gecko) Chrome/138.0.0.0 Safari/537.36","WebKit","Chrome","138.0.0.0","Windows","10.0","https://app.prolific.com/","en-US,en;q=0.9","65fb13bebfa339f73b4cf76a","687a1a965b9f5b85a264363e","689334abdadc06b4fd2a55ab","1","65fb13bebfa339f73b4cf76a","1","","true","","","","","","","","","","","","","","","","","","","","","","","","","","","","","","","","","","","","","","","","",""
"6708","1754477913100"," <p style='font-size:1.1em;line-height:1.25'>Thank you for closing all other tabs.</p><p style='font-size:1.1em;line-height:1.25'>We will now invite you to fill in some questionnaires, before starting the game.<br>This will take about 5 minutes.<br></p><p style='font-size:1.1em;line-height:1.25'>Press the <strong>Next</strong> button to continue.</p>","0","custom-html-button-response","2","33495","0.0-2.0","181","1","2025-08-06 10:55:52","36c45c0696341be0efffe67d72a12abb","197.248.117.175","Mozilla/5.0 (Windows NT 10.0; Win64; x64) AppleWebKit/537.36 (KHTML, like Gecko) Chrome/138.0.0.0 Safari/537.36","WebKit","Chrome","138.0.0.0","Windows","10.0","https://app.prolific.com/","en-US,en;q=0.9","65fb13bebfa339f73b4cf76a","687a1a965b9f5b85a264363e","689334abdadc06b4fd2a55ab","1","65fb13bebfa339f73b4cf76a","1","2025-08-06T10:58:33.100Z","","","","","","","","","","","","","","","","","","","","","","","","","","","","","","","","","","","","","","","","","",""
"2168","","","{""assigned_sex"":""female""}","survey-multi-choice","3","35664","0.0-3.0-0.0","181","1","2025-08-06 10:55:52","36c45c0696341be0efffe67d72a12abb","197.248.117.175","Mozilla/5.0 (Windows NT 10.0; Win64; x64) AppleWebKit/537.36 (KHTML, like Gecko) Chrome/138.0.0.0 Safari/537.36","WebKit","Chrome","138.0.0.0","Windows","10.0","https://app.prolific.com/","en-US,en;q=0.9","65fb13bebfa339f73b4cf76a","687a1a965b9f5b85a264363e","689334abdadc06b4fd2a55ab","1","65fb13bebfa339f73b4cf76a","1","","","[0]","0","demographics","","","","","","","","","","","","","","","","","","","","","","","","","","","","","","","","","","","","","",""
"5749","1754477921019","<p style='font-size:1.1em;line-height:1.25'>In the following, we will perform a baseline assessment. This means that we will ask you a few questions relating to your experiences over the past month.<br></p><p style='font-size:1.1em;line-height:1.25'>Press the <strong>Next</strong> button to continue.</p>","0","custom-html-button-response","4","41414","0.0-4.0-0.0","181","1","2025-08-06 10:55:52","36c45c0696341be0efffe67d72a12abb","197.248.117.175","Mozilla/5.0 (Windows NT 10.0; Win64; x64) AppleWebKit/537.36 (KHTML, like Gecko) Chrome/138.0.0.0 Safari/537.36","WebKit","Chrome","138.0.0.0","Windows","10.0","https://app.prolific.com/","en-US,en;q=0.9","65fb13bebfa339f73b4cf76a","687a1a965b9f5b85a264363e","689334abdadc06b4fd2a55ab","1","65fb13bebfa339f73b4cf76a","1","2025-08-06T10:58:41.019Z","","","","","","","","","","","","","","","","","","","","","","","","","","","","","","","","","","","","","","","","","",""
"59097.69999998808","","","","survey-template","5","100514","0.0-4.0-1.0","181","1","2025-08-06 10:55:52","36c45c0696341be0efffe67d72a12abb","197.248.117.175","Mozilla/5.0 (Windows NT 10.0; Win64; x64) AppleWebKit/537.36 (KHTML, like Gecko) Chrome/138.0.0.0 Safari/537.36","WebKit","Chrome","138.0.0.0","Windows","10.0","https://app.prolific.com/","en-US,en;q=0.9","65fb13bebfa339f73b4cf76a","687a1a965b9f5b85a264363e","689334abdadc06b4fd2a55ab","1","65fb13bebfa339f73b4cf76a","1","2025-08-06T10:59:40.119Z","","","","pss","{""Q01"":""4"",""Q02"":""4"",""Q03"":""4"",""Q04"":""2"",""Q05"":""2"",""Q06"":""3"",""Q07"":""2"",""Q08"":""3"",""Q09"":""4"",""Q10"":""4""}","[0,1,2,3,4,5,6,7,8,9]","[""Q01"",""Q02"",""Q03"",""Q04"",""Q05"",""Q06"",""Q07"",""Q08"",""Q09"",""Q10""]","[4431.100000023842,23967.100000023842,25783,29695,34246.69999998808,43662.60000002384,44567,48983,51175,58351]","[]","[0,4431.100000023842,5775.199999988079,22566.899999976158,23967.100000023842,25783,29695,34246.69999998808,39798.89999997616,43662.60000002384,44567,48983,51175,56695.10000002384,57662.89999997616,58351,59095.89999997616]","0.5","0.3333333333333333","0","","","","","","","","","","","","","","","","","","","","","","","","","","","","",""
"3948","1754477984068","<p style='font-size:1.1em;line-height:1.25'>Thank you for your answers! Now we will ask you a few more questions relating to your feelings in the last 24 hours.<br></p><p style='font-size:1.1em;line-height:1.25'>Press the <strong>Next</strong> button to continue.</p>","0","custom-html-button-response","6","104463","0.0-4.0-2.0","181","1","2025-08-06 10:55:52","36c45c0696341be0efffe67d72a12abb","197.248.117.175","Mozilla/5.0 (Windows NT 10.0; Win64; x64) AppleWebKit/537.36 (KHTML, like Gecko) Chrome/138.0.0.0 Safari/537.36","WebKit","Chrome","138.0.0.0","Windows","10.0","https://app.prolific.com/","en-US,en;q=0.9","65fb13bebfa339f73b4cf76a","687a1a965b9f5b85a264363e","689334abdadc06b4fd2a55ab","1","65fb13bebfa339f73b4cf76a","1","2025-08-06T10:59:44.068Z","","","","","","","","","","","","","","","","","","","","","","","","","","","","","","","","","","","","","","","","","",""
"55434.30000001192","","","","survey-template","7","159900","0.0-4.0-3.0","181","1","2025-08-06 10:55:52","36c45c0696341be0efffe67d72a12abb","197.248.117.175","Mozilla/5.0 (Windows NT 10.0; Win64; x64) AppleWebKit/537.36 (KHTML, like Gecko) Chrome/138.0.0.0 Safari/537.36","WebKit","Chrome","138.0.0.0","Windows","10.0","https://app.prolific.com/","en-US,en;q=0.9","65fb13bebfa339f73b4cf76a","687a1a965b9f5b85a264363e","689334abdadc06b4fd2a55ab","1","65fb13bebfa339f73b4cf76a","1","2025-08-06T11:00:39.505Z","","","","drsp","{""Q01"":""3"",""Q02"":""2"",""Q03"":""2"",""Q04"":""5"",""Q05"":""5"",""Q06"":""3"",""Q07"":""5"",""Q08"":""2"",""Q09"":""4"",""Q10"":""2"",""Q11"":""4"",""Q12"":""5"",""Q13"":""5"",""Q14"":""3"",""Q15"":""2"",""Q16"":""3"",""Q17"":""5"",""Q18"":""5"",""Q19"":""3"",""Q20"":""5"",""Q21"":""5"",""Q22"":""4""}","[0,1,2,3,4,5,6,7,8,9,10,11,12,13,14,15,16,17,18,19,20,21]","[""Q01"",""Q02"",""Q03"",""Q04"",""Q05"",""Q06"",""Q07"",""Q08"",""Q09"",""Q10"",""Q11"",""Q12"",""Q13"",""Q14"",""Q14"",""Q15"",""Q16"",""Q17"",""Q18"",""Q19"",""Q20"",""Q21"",""Q22""]","[3574.400000035763,5934.199999988079,7534.400000035763,9326.400000035763,11398.400000035763,14446.300000011921,16518.19999998808,18229.80000001192,21358,24686.400000035763,27046.19999998808,29166,31446.30000001192,33134.19999998808,34054.10000002384,36542.19999998808,38166.30000001192,40750.19999998808,41750.19999998808,43806.19999998808,49862.19999998808,52862.19999998808,54710.10000002384]","[]","[0,2294.199999988079,3574.400000035763,4310.5,5934.199999988079,7534.400000035763,9326.400000035763,11398.400000035763,14446.300000011921,16518.19999998808,18229.80000001192,21358,24686.400000035763,27046.19999998808,29166,31446.30000001192,33134.19999998808,34054.10000002384,36542.19999998808,38166.30000001192,40750.19999998808,41750.19999998808,43806.19999998808,47198.40000003576,49862.19999998808,52862.19999998808,54710.10000002384,55430.40000003576]","0.4090909090909091","0.23809523809523808","0","","","","","","","","","","","","","","","","","","","","","","","","","","","","",""
"10819.099999964237","","","","survey-template","8","170720","0.0-4.0-4.0","181","1","2025-08-06 10:55:52","36c45c0696341be0efffe67d72a12abb","197.248.117.175","Mozilla/5.0 (Windows NT 10.0; Win64; x64) AppleWebKit/537.36 (KHTML, like Gecko) Chrome/138.0.0.0 Safari/537.36","WebKit","Chrome","138.0.0.0","Windows","10.0","https://app.prolific.com/","en-US,en;q=0.9","65fb13bebfa339f73b4cf76a","687a1a965b9f5b85a264363e","689334abdadc06b4fd2a55ab","1","65fb13bebfa339f73b4cf76a","1","2025-08-06T11:00:50.325Z","","","","stress","{""Q01"":""4"",""Q02"":""3"",""Q03"":""3""}","[0,1,2]","[""Q01"",""Q02"",""Q03""]","[3394.099999964237,6090.399999976158,9778.199999988079]","[]","[3394.099999964237,6090.399999976158,9778.199999988079,10818.299999952316]","0.3333333333333333","0.5","0","","","","","","","","","","","","","","","","","","","","","","","","","","","","",""
"69110","","","","instructions","9","239831","0.0-5.0-0.0","181","1","2025-08-06 10:55:52","36c45c0696341be0efffe67d72a12abb","197.248.117.175","Mozilla/5.0 (Windows NT 10.0; Win64; x64) AppleWebKit/537.36 (KHTML, like Gecko) Chrome/138.0.0.0 Safari/537.36","WebKit","Chrome","138.0.0.0","Windows","10.0","https://app.prolific.com/","en-US,en;q=0.9","65fb13bebfa339f73b4cf76a","687a1a965b9f5b85a264363e","689334abdadc06b4fd2a55ab","1","65fb13bebfa339f73b4cf76a","1","","","","","","","","","","","","","","","[{""page_index"":0,""viewing_time"":69110}]","","","","","","","","","","","","","","","","","","","","","","","","","","","",""
"6878","","<p>Before you start with this game please answer the following three questions yourself. </p>
  <p>Through this game, we measure several aspects of your cognitive performance, such as reaction times, multi-tasking capabilities </p>
  <p>and the ability to assess the situation you are in.</p>
  <p></p>
  <p><b>How good do you usually are in such tasks?</b></p>","91","html-slider-response","10","246710","0.0-6.0-0.0","181","1","2025-08-06 10:55:52","36c45c0696341be0efffe67d72a12abb","197.248.117.175","Mozilla/5.0 (Windows NT 10.0; Win64; x64) AppleWebKit/537.36 (KHTML, like Gecko) Chrome/138.0.0.0 Safari/537.36","WebKit","Chrome","138.0.0.0","Windows","10.0","https://app.prolific.com/","en-US,en;q=0.9","65fb13bebfa339f73b4cf76a","687a1a965b9f5b85a264363e","689334abdadc06b4fd2a55ab","1","65fb13bebfa339f73b4cf76a","1","2025-08-06T11:02:06.315Z","","","","PreSkillQ","","","","","","","","","","","50","","","","","","","","","","","","","","","","","","","","","","","","","","",""
"4199","","<div style=""width:500px;"">
  <p>How well do you think you will perform in this task compared to other participants?</p>
  </div>","89","html-slider-response","11","250911","0.0-6.0-1.0","181","1","2025-08-06 10:55:52","36c45c0696341be0efffe67d72a12abb","197.248.117.175","Mozilla/5.0 (Windows NT 10.0; Win64; x64) AppleWebKit/537.36 (KHTML, like Gecko) Chrome/138.0.0.0 Safari/537.36","WebKit","Chrome","138.0.0.0","Windows","10.0","https://app.prolific.com/","en-US,en;q=0.9","65fb13bebfa339f73b4cf76a","687a1a965b9f5b85a264363e","689334abdadc06b4fd2a55ab","1","65fb13bebfa339f73b4cf76a","1","2025-08-06T11:02:10.516Z","","","","PrePerfQ","","","","","","","","","","","50","","","","","","","","","","","","","","","","","","","","","","","","","","",""
"2543","","<div style=""width:500px;"">
  <p>What best describes how you currently feel?</p>
  </div>","78","html-slider-response","12","253455","0.0-6.0-2.0","181","1","2025-08-06 10:55:52","36c45c0696341be0efffe67d72a12abb","197.248.117.175","Mozilla/5.0 (Windows NT 10.0; Win64; x64) AppleWebKit/537.36 (KHTML, like Gecko) Chrome/138.0.0.0 Safari/537.36","WebKit","Chrome","138.0.0.0","Windows","10.0","https://app.prolific.com/","en-US,en;q=0.9","65fb13bebfa339f73b4cf76a","687a1a965b9f5b85a264363e","689334abdadc06b4fd2a55ab","1","65fb13bebfa339f73b4cf76a","1","2025-08-06T11:02:13.060Z","","","","PreMotivationQ","","","","","","","","","","","50","","","","","","","","","","","","","","","","","","","","","","","","","","",""
"","","","","ctl-task-cpt","13","283778","0.0-7.0-0.0","181","1","2025-08-06 10:55:52","36c45c0696341be0efffe67d72a12abb","197.248.117.175","Mozilla/5.0 (Windows NT 10.0; Win64; x64) AppleWebKit/537.36 (KHTML, like Gecko) Chrome/138.0.0.0 Safari/537.36","WebKit","Chrome","138.0.0.0","Windows","10.0","https://app.prolific.com/","en-US,en;q=0.9","65fb13bebfa339f73b4cf76a","687a1a965b9f5b85a264363e","689334abdadc06b4fd2a55ab","1","65fb13bebfa339f73b4cf76a","1","2025-08-06T11:02:43.383Z","","","","","","","","","","","","","","","","win-only","3","g1:SW,g2:NE","1","1","0","257301.9","2874.7","7876.7","27315.8","1","4","8","6","2","8","6","6","0","0.045454545454545456","5002","3000","285","[""up"",""right""]","{""num_key_presses"":8,""num_perfect"":6,""num_errors"":2,""num_randdir"":0,""num_randdir_good_moves"":0,""num_whilered"":0,""num_whileblue"":0,""num_blue"":0,""num_good_moves"":6}","[231.13482142857143,231.52544642857143,0.5,231.13482142857143,231.52544642857143,102.6,231.13482142857143,231.52544642857143,205.9,231.13482142857143,231.52544642857143,306.9,231.13482142857143,231.52544642857143,411.9,231.13482142857143,231.52544642857143,511.9,231.13482142857143,231.52544642857143,615.9,231.13482142857143,231.52544642857143,716.3,231.13482142857143,231.52544642857143,816.8,231.13482142857143,231.52544642857143,917.6,224.13482142857143,240.52544642857143,1021.5,215.13482142857143,251.52544642857143,1127.3,209.13482142857143,257.5254464285714,1231.1,209.13482142857143,258.5254464285714,1331.4,209.13482142857143,259.5254464285714,1436.2,209.13482142857143,259.5254464285714,1542.3,209.13482142857143,259.5254464285714,1646.6,209.13482142857143,259.5254464285714,1751.2,209.13482142857143,259.5254464285714,1852.1,209.13482142857143,259.5254464285714,1956.3,209.13482142857143,258.5254464285714,2061.3,209.13482142857143,258.5254464285714,2161.6,209.13482142857143,258.5254464285714,2266.2,209.13482142857143,258.5254464285714,2367.4,209.13482142857143,258.5254464285714,2471.9,209.13482142857143,258.5254464285714,2576.2,209.13482142857143,258.5254464285714,2681.1,209.13482142857143,258.5254464285714,2781.6,209.13482142857143,258.5254464285714,2886.1,209.13482142857143,258.5254464285714,2986.3,209.13482142857143,258.5254464285714,3086.3,209.13482142857143,258.5254464285714,3186.4,209.13482142857143,258.5254464285714,3291.9,209.13482142857143,258.5254464285714,3391.9,190.13482142857143,283.5254464285714,3492.6,190.13482142857143,286.5254464285714,3597.4,190.13482142857143,286.5254464285714,3701.7,190.13482142857143,286.5254464285714,3806.2,190.13482142857143,286.5254464285714,3906.2,190.13482142857143,286.5254464285714,4006.4,190.13482142857143,286.5254464285714,4110.9,190.13482142857143,286.5254464285714,4211.9,190.13482142857143,286.5254464285714,4315.8,190.13482142857143,286.5254464285714,4416,190.13482142857143,286.5254464285714,4521.3,190.13482142857143,286.5254464285714,4621.4,190.13482142857143,286.5254464285714,4721.4,190.13482142857143,286.5254464285714,4821.5,190.13482142857143,286.5254464285714,4921.9]","[713.8,713.7,1000,0.1,-286.3,""error"",""-"",""-"",""no_move"",4313.9,3599.6,2112.7,1718.9,482.3,""smooth"",""right"",""right"",""good_move"",4601.3,286.7,2378.8,4314.6,-2092.1,""error"",""-"",""-"",""no_move"",8401.3,3799.6,2453.7,5604,343.6,""smooth"",""right"",""right"",""good_move"",11251.8,2850.2,2179.8,8401.6,670.4,""smooth"",""right"",""right"",""good_move"",13689.4,2437.3,2045.2,11252.1,392.1,""smooth"",""up"",""up"",""good_move"",16345.4,2655.6,2149.7,13689.9,505.8,""smooth"",""up"",""up"",""good_move"",19337.1,2991.5,2621.5,16345.6,370.1,""smooth"",""up"",""up"",""good_move""]"
"5027","","<div style=""width:500px;"">
  <p>What determined the result of this run?</p>
  </div>","79","html-slider-response","14","288807","0.0-7.0-1.0","181","1","2025-08-06 10:55:52","36c45c0696341be0efffe67d72a12abb","197.248.117.175","Mozilla/5.0 (Windows NT 10.0; Win64; x64) AppleWebKit/537.36 (KHTML, like Gecko) Chrome/138.0.0.0 Safari/537.36","WebKit","Chrome","138.0.0.0","Windows","10.0","https://app.prolific.com/","en-US,en;q=0.9","65fb13bebfa339f73b4cf76a","687a1a965b9f5b85a264363e","689334abdadc06b4fd2a55ab","1","65fb13bebfa339f73b4cf76a","1","2025-08-06T11:02:48.412Z","","","","AttribQ","","","","","","","","","","","50","","","","","","","","","","","","","","","","","","","","","","","","","","",""
"3943","","<div style=""width:500px;"">
  <p>How much control did you have over the ball?</p>
  </div>","97","html-slider-response","15","292751","0.0-7.0-2.0","181","1","2025-08-06 10:55:52","36c45c0696341be0efffe67d72a12abb","197.248.117.175","Mozilla/5.0 (Windows NT 10.0; Win64; x64) AppleWebKit/537.36 (KHTML, like Gecko) Chrome/138.0.0.0 Safari/537.36","WebKit","Chrome","138.0.0.0","Windows","10.0","https://app.prolific.com/","en-US,en;q=0.9","65fb13bebfa339f73b4cf76a","687a1a965b9f5b85a264363e","689334abdadc06b4fd2a55ab","1","65fb13bebfa339f73b4cf76a","1","2025-08-06T11:02:52.356Z","","","","ControlQ","","","","","","","","","","","50","","","","","","","","","","","","","","","","","","","","","","","","","","",""
"2399","","<div style=""width:500px;"">
  <p>How would you describe your current emotional state?</p>
  </div>","71","html-slider-response","16","295151","0.0-7.0-3.0","181","1","2025-08-06 10:55:52","36c45c0696341be0efffe67d72a12abb","197.248.117.175","Mozilla/5.0 (Windows NT 10.0; Win64; x64) AppleWebKit/537.36 (KHTML, like Gecko) Chrome/138.0.0.0 Safari/537.36","WebKit","Chrome","138.0.0.0","Windows","10.0","https://app.prolific.com/","en-US,en;q=0.9","65fb13bebfa339f73b4cf76a","687a1a965b9f5b85a264363e","689334abdadc06b4fd2a55ab","1","65fb13bebfa339f73b4cf76a","1","2025-08-06T11:02:54.756Z","","","","StressQ","","","","","","","","","","","50","","","","","","","","","","","","","","","","","","","","","","","","","","",""
"2815","","<div style=""width:500px;"">
  <p>What best describes how you currently feel?</p>
  </div>","87","html-slider-response","17","297967","0.0-7.0-4.0","181","1","2025-08-06 10:55:52","36c45c0696341be0efffe67d72a12abb","197.248.117.175","Mozilla/5.0 (Windows NT 10.0; Win64; x64) AppleWebKit/537.36 (KHTML, like Gecko) Chrome/138.0.0.0 Safari/537.36","WebKit","Chrome","138.0.0.0","Windows","10.0","https://app.prolific.com/","en-US,en;q=0.9","65fb13bebfa339f73b4cf76a","687a1a965b9f5b85a264363e","689334abdadc06b4fd2a55ab","1","65fb13bebfa339f73b4cf76a","1","2025-08-06T11:02:57.572Z","","","","MotivationQ","","","","","","","","","","","50","","","","","","","","","","","","","","","","","","","","","","","","","","",""
"","","","","ctl-task-cpt","18","332904","0.0-7.0-0.1","181","1","2025-08-06 10:55:52","36c45c0696341be0efffe67d72a12abb","197.248.117.175","Mozilla/5.0 (Windows NT 10.0; Win64; x64) AppleWebKit/537.36 (KHTML, like Gecko) Chrome/138.0.0.0 Safari/537.36","WebKit","Chrome","138.0.0.0","Windows","10.0","https://app.prolific.com/","en-US,en;q=0.9","65fb13bebfa339f73b4cf76a","687a1a965b9f5b85a264363e","689334abdadc06b4fd2a55ab","1","65fb13bebfa339f73b4cf76a","1","2025-08-06T11:03:32.509Z","","","","","","","","","","","","","","","","win-only","1","g1:NE,g2:SW","0.9","2","0","301812.6","5160.5","10162.1","31926","1","4","4","6","2","4","4","10","6","0.07575757575757576","5001.6","3000","530","[""down"",""left""]","{""num_key_presses"":6,""num_perfect"":5,""num_errors"":0,""num_randdir"":1,""num_randdir_good_moves"":1,""num_whilered"":0,""num_whileblue"":0,""num_blue"":2,""num_good_moves"":6}","[234.13482142857143,234.52544642857143,0.3,234.13482142857143,234.52544642857143,100.2,234.13482142857143,234.52544642857143,204.7,234.13482142857143,234.52544642857143,305.9,234.13482142857143,234.52544642857143,410.6,234.13482142857143,234.52544642857143,515.5,234.13482142857143,234.52544642857143,620.6,234.13482142857143,234.52544642857143,725.2,234.13482142857143,234.52544642857143,825.4,234.13482142857143,234.52544642857143,925.6,234.13482142857143,234.52544642857143,1030.3,234.13482142857143,234.52544642857143,1135.5,234.13482142857143,234.52544642857143,1239.9,234.13482142857143,234.52544642857143,1340,234.13482142857143,234.52544642857143,1440.9,234.13482142857143,234.52544642857143,1545.8,234.13482142857143,234.52544642857143,1650.4,234.13482142857143,234.52544642857143,1755.1,234.13482142857143,234.52544642857143,1856.2,234.13482142857143,234.52544642857143,1961.1,234.13482142857143,234.52544642857143,2065.4,234.13482142857143,234.52544642857143,2170.6,234.13482142857143,234.52544642857143,2275.3,234.13482142857143,234.52544642857143,2380.6,234.13482142857143,234.52544642857143,2484.8,234.13482142857143,234.52544642857143,2585.4,234.13482142857143,234.52544642857143,2685.5,234.13482142857143,234.52544642857143,2790.5,234.13482142857143,234.52544642857143,2895,234.13482142857143,234.52544642857143,3000.6,234.13482142857143,234.52544642857143,3105.2,234.13482142857143,234.52544642857143,3205.9,234.13482142857143,234.52544642857143,3310.4,234.13482142857143,234.52544642857143,3411.4,234.13482142857143,234.52544642857143,3515.5,234.13482142857143,234.52544642857143,3620.9,234.13482142857143,234.52544642857143,3724.9,234.13482142857143,234.52544642857143,3825.3,234.13482142857143,234.52544642857143,3931,234.13482142857143,234.52544642857143,4035.5,234.13482142857143,234.52544642857143,4135.5,234.13482142857143,234.52544642857143,4240.5,234.13482142857143,234.52544642857143,4345.4,234.13482142857143,234.52544642857143,4450.8,234.13482142857143,234.52544642857143,4555.3,234.13482142857143,234.52544642857143,4660.3,234.13482142857143,234.52544642857143,4766.3,234.13482142857143,234.52544642857143,4871,234.13482142857143,234.52544642857143,4975]","[1405.3,1405.3,1000,0.1,405.2,""smooth"",""down"",""down"",""good_move"",4596.6,3190.8,2697.8,1405.8,493,""smooth"",""down"",""down"",""good_move"",9892.8,5295.9,2021.8,7518.3,352.7,""smooth"",""left"",""left"",""good_move"",11980.6,2087.5,1582.9,9893.2,504.6,""oops"",""left"",""down"",""good_move"",15052.7,3071.9,2674.8,11980.8,397.1,""smooth"",""left"",""left"",""good_move"",21676.8,6624,2119.5,19208.3,349,""smooth"",""left"",""left"",""good_move""]"
"4494","","<div style=""width:500px;"">
  <p>What determined the result of this run?</p>
  </div>","95","html-slider-response","19","337399","0.0-7.0-1.1","181","1","2025-08-06 10:55:52","36c45c0696341be0efffe67d72a12abb","197.248.117.175","Mozilla/5.0 (Windows NT 10.0; Win64; x64) AppleWebKit/537.36 (KHTML, like Gecko) Chrome/138.0.0.0 Safari/537.36","WebKit","Chrome","138.0.0.0","Windows","10.0","https://app.prolific.com/","en-US,en;q=0.9","65fb13bebfa339f73b4cf76a","687a1a965b9f5b85a264363e","689334abdadc06b4fd2a55ab","1","65fb13bebfa339f73b4cf76a","1","2025-08-06T11:03:37.004Z","","","","AttribQ","","","","","","","","","","","50","","","","","","","","","","","","","","","","","","","","","","","","","","",""
"2247","","<div style=""width:500px;"">
  <p>How much control did you have over the ball?</p>
  </div>","90","html-slider-response","20","339647","0.0-7.0-2.1","181","1","2025-08-06 10:55:52","36c45c0696341be0efffe67d72a12abb","197.248.117.175","Mozilla/5.0 (Windows NT 10.0; Win64; x64) AppleWebKit/537.36 (KHTML, like Gecko) Chrome/138.0.0.0 Safari/537.36","WebKit","Chrome","138.0.0.0","Windows","10.0","https://app.prolific.com/","en-US,en;q=0.9","65fb13bebfa339f73b4cf76a","687a1a965b9f5b85a264363e","689334abdadc06b4fd2a55ab","1","65fb13bebfa339f73b4cf76a","1","2025-08-06T11:03:39.252Z","","","","ControlQ","","","","","","","","","","","50","","","","","","","","","","","","","","","","","","","","","","","","","","",""
"2135","","<div style=""width:500px;"">
  <p>How would you describe your current emotional state?</p>
  </div>","93","html-slider-response","21","341783","0.0-7.0-3.1","181","1","2025-08-06 10:55:52","36c45c0696341be0efffe67d72a12abb","197.248.117.175","Mozilla/5.0 (Windows NT 10.0; Win64; x64) AppleWebKit/537.36 (KHTML, like Gecko) Chrome/138.0.0.0 Safari/537.36","WebKit","Chrome","138.0.0.0","Windows","10.0","https://app.prolific.com/","en-US,en;q=0.9","65fb13bebfa339f73b4cf76a","687a1a965b9f5b85a264363e","689334abdadc06b4fd2a55ab","1","65fb13bebfa339f73b4cf76a","1","2025-08-06T11:03:41.388Z","","","","StressQ","","","","","","","","","","","50","","","","","","","","","","","","","","","","","","","","","","","","","","",""
"2975","","<div style=""width:500px;"">
  <p>What best describes how you currently feel?</p>
  </div>","84","html-slider-response","22","344758","0.0-7.0-4.1","181","1","2025-08-06 10:55:52","36c45c0696341be0efffe67d72a12abb","197.248.117.175","Mozilla/5.0 (Windows NT 10.0; Win64; x64) AppleWebKit/537.36 (KHTML, like Gecko) Chrome/138.0.0.0 Safari/537.36","WebKit","Chrome","138.0.0.0","Windows","10.0","https://app.prolific.com/","en-US,en;q=0.9","65fb13bebfa339f73b4cf76a","687a1a965b9f5b85a264363e","689334abdadc06b4fd2a55ab","1","65fb13bebfa339f73b4cf76a","1","2025-08-06T11:03:44.363Z","","","","MotivationQ","","","","","","","","","","","50","","","","","","","","","","","","","","","","","","","","","","","","","","",""
"","","","","ctl-task-cpt","23","378261","0.0-7.0-0.2","181","1","2025-08-06 10:55:52","36c45c0696341be0efffe67d72a12abb","197.248.117.175","Mozilla/5.0 (Windows NT 10.0; Win64; x64) AppleWebKit/537.36 (KHTML, like Gecko) Chrome/138.0.0.0 Safari/537.36","WebKit","Chrome","138.0.0.0","Windows","10.0","https://app.prolific.com/","en-US,en;q=0.9","65fb13bebfa339f73b4cf76a","687a1a965b9f5b85a264363e","689334abdadc06b4fd2a55ab","1","65fb13bebfa339f73b4cf76a","1","2025-08-06T11:04:17.866Z","","","","","","","","","","","","","","","","win-only","3","g1:SW,g2:NE","0.8","3","0","348605.5","1887.5","6890.8","30485.9","1","4","4","6","2","4","3","13","10","0.09848484848484848","5003.3","3000","575","[""up"",""right""]","{""num_key_presses"":7,""num_perfect"":6,""num_errors"":1,""num_randdir"":0,""num_randdir_good_moves"":0,""num_whilered"":0,""num_whileblue"":0,""num_blue"":1,""num_good_moves"":6}","[236.13482142857143,232.52544642857143,0.1,236.13482142857143,232.52544642857143,103.4,236.13482142857143,232.52544642857143,204.5,236.13482142857143,231.52544642857143,308.7,305.1348214285714,250.52544642857143,408.7,323.1348214285714,259.5254464285714,513.7,323.1348214285714,259.5254464285714,613.9,323.1348214285714,259.5254464285714,718.4,323.1348214285714,260.5254464285714,818.8,323.1348214285714,260.5254464285714,919,323.1348214285714,260.5254464285714,1024.9,323.1348214285714,260.5254464285714,1128.7,323.1348214285714,260.5254464285714,1228.8,323.1348214285714,260.5254464285714,1329.2,323.1348214285714,260.5254464285714,1433.4,323.1348214285714,260.5254464285714,1534.5,323.1348214285714,260.5254464285714,1638,323.1348214285714,260.5254464285714,1738.8,323.1348214285714,260.5254464285714,1839.4,323.1348214285714,260.5254464285714,1944.2,323.1348214285714,260.5254464285714,2048.6,323.1348214285714,260.5254464285714,2153.6,323.1348214285714,260.5254464285714,2253.7,323.1348214285714,260.5254464285714,2358.1,323.1348214285714,260.5254464285714,2464.2,323.1348214285714,260.5254464285714,2568.5,323.1348214285714,260.5254464285714,2668.8,323.1348214285714,260.5254464285714,2769,323.1348214285714,260.5254464285714,2873.1,323.1348214285714,260.5254464285714,2974.4,323.1348214285714,260.5254464285714,3078.6,323.1348214285714,260.5254464285714,3183.1,323.1348214285714,260.5254464285714,3283.4,323.1348214285714,260.5254464285714,3388.7,323.1348214285714,260.5254464285714,3493.8,323.1348214285714,260.5254464285714,3598.2,323.1348214285714,260.5254464285714,3698.8,323.1348214285714,260.5254464285714,3803.4,323.1348214285714,260.5254464285714,3904.2,323.1348214285714,260.5254464285714,4008.2,323.1348214285714,260.5254464285714,4108.3,323.1348214285714,260.5254464285714,4208.6,323.1348214285714,260.5254464285714,4308.6,323.1348214285714,260.5254464285714,4408.6,323.1348214285714,260.5254464285714,4513.4,323.1348214285714,260.5254464285714,4614.5,323.1348214285714,260.5254464285714,4718.6,323.1348214285714,260.5254464285714,4823.9,323.1348214285714,260.5254464285714,4928.8]","[923.2,923.2,1000,0,-76.8,""error"",""-"",""-"",""no_move"",5227.3,4303.9,2926.8,1925,375.5,""smooth"",""right"",""right"",""good_move"",7715.2,2487.7,2090.8,5227.5,396.9,""smooth"",""right"",""right"",""good_move"",10754.8,3039.5,2667.6,7715.3,371.9,""smooth"",""up"",""up"",""good_move"",17307.9,6552.8,1815.8,15145.8,346.4,""smooth"",""up"",""up"",""good_move"",20468,3159.9,2657,17308.1,502.9,""smooth"",""up"",""up"",""good_move"",23507.2,3039,2576.4,20468.2,462.6,""smooth"",""right"",""right"",""good_move""]"
"2880","","<div style=""width:500px;"">
  <p>What determined the result of this run?</p>
  </div>","90","html-slider-response","24","381142","0.0-7.0-1.2","181","1","2025-08-06 10:55:52","36c45c0696341be0efffe67d72a12abb","197.248.117.175","Mozilla/5.0 (Windows NT 10.0; Win64; x64) AppleWebKit/537.36 (KHTML, like Gecko) Chrome/138.0.0.0 Safari/537.36","WebKit","Chrome","138.0.0.0","Windows","10.0","https://app.prolific.com/","en-US,en;q=0.9","65fb13bebfa339f73b4cf76a","687a1a965b9f5b85a264363e","689334abdadc06b4fd2a55ab","1","65fb13bebfa339f73b4cf76a","1","2025-08-06T11:04:20.747Z","","","","AttribQ","","","","","","","","","","","50","","","","","","","","","","","","","","","","","","","","","","","","","","",""
"2024","","<div style=""width:500px;"">
  <p>How much control did you have over the ball?</p>
  </div>","89","html-slider-response","25","383167","0.0-7.0-2.2","181","1","2025-08-06 10:55:52","36c45c0696341be0efffe67d72a12abb","197.248.117.175","Mozilla/5.0 (Windows NT 10.0; Win64; x64) AppleWebKit/537.36 (KHTML, like Gecko) Chrome/138.0.0.0 Safari/537.36","WebKit","Chrome","138.0.0.0","Windows","10.0","https://app.prolific.com/","en-US,en;q=0.9","65fb13bebfa339f73b4cf76a","687a1a965b9f5b85a264363e","689334abdadc06b4fd2a55ab","1","65fb13bebfa339f73b4cf76a","1","2025-08-06T11:04:22.772Z","","","","ControlQ","","","","","","","","","","","50","","","","","","","","","","","","","","","","","","","","","","","","","","",""
"1799","","<div style=""width:500px;"">
  <p>How would you describe your current emotional state?</p>
  </div>","85","html-slider-response","26","384967","0.0-7.0-3.2","181","1","2025-08-06 10:55:52","36c45c0696341be0efffe67d72a12abb","197.248.117.175","Mozilla/5.0 (Windows NT 10.0; Win64; x64) AppleWebKit/537.36 (KHTML, like Gecko) Chrome/138.0.0.0 Safari/537.36","WebKit","Chrome","138.0.0.0","Windows","10.0","https://app.prolific.com/","en-US,en;q=0.9","65fb13bebfa339f73b4cf76a","687a1a965b9f5b85a264363e","689334abdadc06b4fd2a55ab","1","65fb13bebfa339f73b4cf76a","1","2025-08-06T11:04:24.572Z","","","","StressQ","","","","","","","","","","","50","","","","","","","","","","","","","","","","","","","","","","","","","","",""
"1903","","<div style=""width:500px;"">
  <p>What best describes how you currently feel?</p>
  </div>","75","html-slider-response","27","386870","0.0-7.0-4.2","181","1","2025-08-06 10:55:52","36c45c0696341be0efffe67d72a12abb","197.248.117.175","Mozilla/5.0 (Windows NT 10.0; Win64; x64) AppleWebKit/537.36 (KHTML, like Gecko) Chrome/138.0.0.0 Safari/537.36","WebKit","Chrome","138.0.0.0","Windows","10.0","https://app.prolific.com/","en-US,en;q=0.9","65fb13bebfa339f73b4cf76a","687a1a965b9f5b85a264363e","689334abdadc06b4fd2a55ab","1","65fb13bebfa339f73b4cf76a","1","2025-08-06T11:04:26.475Z","","","","MotivationQ","","","","","","","","","","","50","","","","","","","","","","","","","","","","","","","","","","","","","","",""
"","","","","ctl-task-cpt","28","411418","0.0-7.0-0.3","181","1","2025-08-06 10:55:52","36c45c0696341be0efffe67d72a12abb","197.248.117.175","Mozilla/5.0 (Windows NT 10.0; Win64; x64) AppleWebKit/537.36 (KHTML, like Gecko) Chrome/138.0.0.0 Safari/537.36","WebKit","Chrome","138.0.0.0","Windows","10.0","https://app.prolific.com/","en-US,en;q=0.9","65fb13bebfa339f73b4cf76a","687a1a965b9f5b85a264363e","689334abdadc06b4fd2a55ab","1","65fb13bebfa339f73b4cf76a","1","2025-08-06T11:04:51.023Z","","","","","","","","","","","","","","","","win-only","3","g1:SW,g2:NE","0.7","4","0","390716.9","1441","6441.7","21530.6","1","4","8","6","2","8","8","21","13","0.1590909090909091","5000.7","3000","430","[""up"",""right""]","{""num_key_presses"":6,""num_perfect"":5,""num_errors"":0,""num_randdir"":1,""num_randdir_good_moves"":1,""num_whilered"":0,""num_whileblue"":0,""num_blue"":0,""num_good_moves"":6}","[230.13482142857143,229.52544642857143,0.2,230.13482142857143,229.52544642857143,100.5,230.13482142857143,229.52544642857143,201.2,230.13482142857143,229.52544642857143,305.5,237.13482142857143,230.52544642857143,409.9,330.1348214285714,218.52544642857143,510.7,399.1348214285714,234.52544642857143,615.5,399.1348214285714,234.52544642857143,719.4,399.1348214285714,234.52544642857143,819.7,399.1348214285714,234.52544642857143,921.8,399.1348214285714,234.52544642857143,1024.7,399.1348214285714,234.52544642857143,1125.4,399.1348214285714,234.52544642857143,1230.4,399.1348214285714,234.52544642857143,1334.7,399.1348214285714,234.52544642857143,1435.2,399.1348214285714,234.52544642857143,1540.1,399.1348214285714,234.52544642857143,1640.6,399.1348214285714,234.52544642857143,1744.4,399.1348214285714,236.52544642857143,1846,400.1348214285714,236.52544642857143,1949.4,400.1348214285714,236.52544642857143,2049.4,400.1348214285714,236.52544642857143,2150.9,400.1348214285714,236.52544642857143,2255.5,400.1348214285714,236.52544642857143,2360,400.1348214285714,236.52544642857143,2465.1,400.1348214285714,236.52544642857143,2565.8,400.1348214285714,236.52544642857143,2670.3,400.1348214285714,236.52544642857143,2774.9,400.1348214285714,236.52544642857143,2876.6,400.1348214285714,236.52544642857143,2980.8,400.1348214285714,236.52544642857143,3084.9,400.1348214285714,236.52544642857143,3185.1,400.1348214285714,236.52544642857143,3290.2,400.1348214285714,236.52544642857143,3390.9,400.1348214285714,236.52544642857143,3496.1,400.1348214285714,236.52544642857143,3600.4,400.1348214285714,236.52544642857143,3705,400.1348214285714,236.52544642857143,3806,400.1348214285714,236.52544642857143,3909.5,400.1348214285714,236.52544642857143,4009.7,400.1348214285714,236.52544642857143,4111.5,400.1348214285714,236.52544642857143,4211.6,400.1348214285714,236.52544642857143,4316.6,400.1348214285714,236.52544642857143,4416.6,400.1348214285714,236.52544642857143,4520.2,400.1348214285714,236.52544642857143,4625.1,400.1348214285714,236.52544642857143,4730,400.1348214285714,236.52544642857143,4831.1,400.1348214285714,236.52544642857143,4935.9]","[1525,1525,1000,0,525,""smooth"",""right"",""right"",""good_move"",4564.7,3039.5,2639.2,1525.2,400.3,""smooth"",""right"",""right"",""good_move"",7172.8,2608,2147.8,4564.8,460.2,""oops"",""up"",""up"",""good_move"",9740.8,2567.8,2161,7173.1,406.7,""smooth"",""up"",""up"",""good_move"",12164.7,2423.7,2002.8,9741,420.9,""smooth"",""up"",""up"",""good_move"",15004.7,2839.8,2462.8,12164.9,377,""smooth"",""right"",""right"",""good_move""]"
"3163","","<div style=""width:500px;"">
  <p>What determined the result of this run?</p>
  </div>","93","html-slider-response","29","414582","0.0-7.0-1.3","181","1","2025-08-06 10:55:52","36c45c0696341be0efffe67d72a12abb","197.248.117.175","Mozilla/5.0 (Windows NT 10.0; Win64; x64) AppleWebKit/537.36 (KHTML, like Gecko) Chrome/138.0.0.0 Safari/537.36","WebKit","Chrome","138.0.0.0","Windows","10.0","https://app.prolific.com/","en-US,en;q=0.9","65fb13bebfa339f73b4cf76a","687a1a965b9f5b85a264363e","689334abdadc06b4fd2a55ab","1","65fb13bebfa339f73b4cf76a","1","2025-08-06T11:04:54.187Z","","","","AttribQ","","","","","","","","","","","50","","","","","","","","","","","","","","","","","","","","","","","","","","",""
"1791","","<div style=""width:500px;"">
  <p>How much control did you have over the ball?</p>
  </div>","95","html-slider-response","30","416374","0.0-7.0-2.3","181","1","2025-08-06 10:55:52","36c45c0696341be0efffe67d72a12abb","197.248.117.175","Mozilla/5.0 (Windows NT 10.0; Win64; x64) AppleWebKit/537.36 (KHTML, like Gecko) Chrome/138.0.0.0 Safari/537.36","WebKit","Chrome","138.0.0.0","Windows","10.0","https://app.prolific.com/","en-US,en;q=0.9","65fb13bebfa339f73b4cf76a","687a1a965b9f5b85a264363e","689334abdadc06b4fd2a55ab","1","65fb13bebfa339f73b4cf76a","1","2025-08-06T11:04:55.979Z","","","","ControlQ","","","","","","","","","","","50","","","","","","","","","","","","","","","","","","","","","","","","","","",""
"1688","","<div style=""width:500px;"">
  <p>How would you describe your current emotional state?</p>
  </div>","91","html-slider-response","31","418062","0.0-7.0-3.3","181","1","2025-08-06 10:55:52","36c45c0696341be0efffe67d72a12abb","197.248.117.175","Mozilla/5.0 (Windows NT 10.0; Win64; x64) AppleWebKit/537.36 (KHTML, like Gecko) Chrome/138.0.0.0 Safari/537.36","WebKit","Chrome","138.0.0.0","Windows","10.0","https://app.prolific.com/","en-US,en;q=0.9","65fb13bebfa339f73b4cf76a","687a1a965b9f5b85a264363e","689334abdadc06b4fd2a55ab","1","65fb13bebfa339f73b4cf76a","1","2025-08-06T11:04:57.667Z","","","","StressQ","","","","","","","","","","","50","","","","","","","","","","","","","","","","","","","","","","","","","","",""
"1920","","<div style=""width:500px;"">
  <p>What best describes how you currently feel?</p>
  </div>","86","html-slider-response","32","419983","0.0-7.0-4.3","181","1","2025-08-06 10:55:52","36c45c0696341be0efffe67d72a12abb","197.248.117.175","Mozilla/5.0 (Windows NT 10.0; Win64; x64) AppleWebKit/537.36 (KHTML, like Gecko) Chrome/138.0.0.0 Safari/537.36","WebKit","Chrome","138.0.0.0","Windows","10.0","https://app.prolific.com/","en-US,en;q=0.9","65fb13bebfa339f73b4cf76a","687a1a965b9f5b85a264363e","689334abdadc06b4fd2a55ab","1","65fb13bebfa339f73b4cf76a","1","2025-08-06T11:04:59.588Z","","","","MotivationQ","","","","","","","","","","","50","","","","","","","","","","","","","","","","","","","","","","","","","","",""
"","","","","ctl-task-cpt","33","453141","0.0-7.0-0.4","181","1","2025-08-06 10:55:52","36c45c0696341be0efffe67d72a12abb","197.248.117.175","Mozilla/5.0 (Windows NT 10.0; Win64; x64) AppleWebKit/537.36 (KHTML, like Gecko) Chrome/138.0.0.0 Safari/537.36","WebKit","Chrome","138.0.0.0","Windows","10.0","https://app.prolific.com/","en-US,en;q=0.9","65fb13bebfa339f73b4cf76a","687a1a965b9f5b85a264363e","689334abdadc06b4fd2a55ab","1","65fb13bebfa339f73b4cf76a","1","2025-08-06T11:05:32.746Z","","","","","","","","","","","","","","","","win-only","2","g1:SE,g2:NW","0.6","5","0","423829.4","4983","9986.1","30141.3","1","4","8","6","1","1","1","22","21","0.16666666666666666","5003.1","3000","580","[""down"",""right""]","{""num_key_presses"":6,""num_perfect"":4,""num_errors"":0,""num_randdir"":2,""num_randdir_good_moves"":1,""num_whilered"":0,""num_whileblue"":0,""num_blue"":1,""num_good_moves"":5}","[232.13482142857143,239.52544642857143,0.2,232.13482142857143,239.52544642857143,102.9,232.13482142857143,239.52544642857143,208.1,232.13482142857143,239.52544642857143,313.4,232.13482142857143,239.52544642857143,417.8,232.13482142857143,239.52544642857143,518.1,232.13482142857143,239.52544642857143,623.3,232.13482142857143,239.52544642857143,727.6,232.13482142857143,239.52544642857143,828.1,244.13482142857143,235.52544642857143,933.4,247.13482142857143,233.52544642857143,1038.3,247.13482142857143,233.52544642857143,1142.4,247.13482142857143,233.52544642857143,1242.6,247.13482142857143,233.52544642857143,1348,247.13482142857143,233.52544642857143,1452.9,247.13482142857143,233.52544642857143,1552.9,247.13482142857143,233.52544642857143,1657.9,247.13482142857143,233.52544642857143,1757.9,247.13482142857143,233.52544642857143,1858,247.13482142857143,233.52544642857143,1958.6,247.13482142857143,233.52544642857143,2062.6,247.13482142857143,233.52544642857143,2162.6,247.13482142857143,233.52544642857143,2262.6,247.13482142857143,233.52544642857143,2368.1,247.13482142857143,233.52544642857143,2473.2,247.13482142857143,233.52544642857143,2578,247.13482142857143,233.52544642857143,2678.4,247.13482142857143,233.52544642857143,2784.1,247.13482142857143,233.52544642857143,2887.7,247.13482142857143,233.52544642857143,2987.8,247.13482142857143,233.52544642857143,3087.8,247.13482142857143,233.52544642857143,3188.5,247.13482142857143,233.52544642857143,3293.6,247.13482142857143,233.52544642857143,3397.4,247.13482142857143,233.52544642857143,3499.1,247.13482142857143,233.52544642857143,3602.8,247.13482142857143,233.52544642857143,3703.9,247.13482142857143,233.52544642857143,3808.7,247.13482142857143,233.52544642857143,3913.1,247.13482142857143,233.52544642857143,4017.2,247.13482142857143,233.52544642857143,4118.6,247.13482142857143,233.52544642857143,4222.8,247.13482142857143,233.52544642857143,4327.5,247.13482142857143,233.52544642857143,4428.2,247.13482142857143,233.52544642857143,4528.5,247.13482142857143,233.52544642857143,4632.7,247.13482142857143,233.52544642857143,4733.3,247.13482142857143,233.52544642857143,4838.3,247.13482142857143,233.52544642857143,4943.5]","[1483.7,1483.7,1000,0,483.7,""smooth"",""down"",""down"",""good_move"",4483.8,2999.9,2638.5,1483.9,361.4,""oops"",""down"",""left"",""bad_move"",6763.4,2279.4,1840.4,4484,439,""smooth"",""down"",""down"",""good_move"",10147.7,3384.2,3007,6763.5,377.2,""smooth"",""right"",""right"",""good_move"",16939.7,6791.8,2228.4,14269.1,442.2,""oops"",""right"",""right"",""good_move"",20059.4,3119.7,2765.3,16939.7,354.4,""smooth"",""right"",""right"",""good_move""]"
"2753","","<div style=""width:500px;"">
  <p>What determined the result of this run?</p>
  </div>","85","html-slider-response","34","455894","0.0-7.0-1.4","181","1","2025-08-06 10:55:52","36c45c0696341be0efffe67d72a12abb","197.248.117.175","Mozilla/5.0 (Windows NT 10.0; Win64; x64) AppleWebKit/537.36 (KHTML, like Gecko) Chrome/138.0.0.0 Safari/537.36","WebKit","Chrome","138.0.0.0","Windows","10.0","https://app.prolific.com/","en-US,en;q=0.9","65fb13bebfa339f73b4cf76a","687a1a965b9f5b85a264363e","689334abdadc06b4fd2a55ab","1","65fb13bebfa339f73b4cf76a","1","2025-08-06T11:05:35.499Z","","","","AttribQ","","","","","","","","","","","50","","","","","","","","","","","","","","","","","","","","","","","","","","",""
"2280","","<div style=""width:500px;"">
  <p>How much control did you have over the ball?</p>
  </div>","70","html-slider-response","35","458174","0.0-7.0-2.4","181","1","2025-08-06 10:55:52","36c45c0696341be0efffe67d72a12abb","197.248.117.175","Mozilla/5.0 (Windows NT 10.0; Win64; x64) AppleWebKit/537.36 (KHTML, like Gecko) Chrome/138.0.0.0 Safari/537.36","WebKit","Chrome","138.0.0.0","Windows","10.0","https://app.prolific.com/","en-US,en;q=0.9","65fb13bebfa339f73b4cf76a","687a1a965b9f5b85a264363e","689334abdadc06b4fd2a55ab","1","65fb13bebfa339f73b4cf76a","1","2025-08-06T11:05:37.780Z","","","","ControlQ","","","","","","","","","","","50","","","","","","","","","","","","","","","","","","","","","","","","","","",""
"2351","","<div style=""width:500px;"">
  <p>How would you describe your current emotional state?</p>
  </div>","73","html-slider-response","36","460526","0.0-7.0-3.4","181","1","2025-08-06 10:55:52","36c45c0696341be0efffe67d72a12abb","197.248.117.175","Mozilla/5.0 (Windows NT 10.0; Win64; x64) AppleWebKit/537.36 (KHTML, like Gecko) Chrome/138.0.0.0 Safari/537.36","WebKit","Chrome","138.0.0.0","Windows","10.0","https://app.prolific.com/","en-US,en;q=0.9","65fb13bebfa339f73b4cf76a","687a1a965b9f5b85a264363e","689334abdadc06b4fd2a55ab","1","65fb13bebfa339f73b4cf76a","1","2025-08-06T11:05:40.131Z","","","","StressQ","","","","","","","","","","","50","","","","","","","","","","","","","","","","","","","","","","","","","","",""
"2447","","<div style=""width:500px;"">
  <p>What best describes how you currently feel?</p>
  </div>","70","html-slider-response","37","462974","0.0-7.0-4.4","181","1","2025-08-06 10:55:52","36c45c0696341be0efffe67d72a12abb","197.248.117.175","Mozilla/5.0 (Windows NT 10.0; Win64; x64) AppleWebKit/537.36 (KHTML, like Gecko) Chrome/138.0.0.0 Safari/537.36","WebKit","Chrome","138.0.0.0","Windows","10.0","https://app.prolific.com/","en-US,en;q=0.9","65fb13bebfa339f73b4cf76a","687a1a965b9f5b85a264363e","689334abdadc06b4fd2a55ab","1","65fb13bebfa339f73b4cf76a","1","2025-08-06T11:05:42.579Z","","","","MotivationQ","","","","","","","","","","","50","","","","","","","","","","","","","","","","","","","","","","","","","","",""
"","","","","ctl-task-cpt","38","498024","0.0-7.0-0.5","181","1","2025-08-06 10:55:52","36c45c0696341be0efffe67d72a12abb","197.248.117.175","Mozilla/5.0 (Windows NT 10.0; Win64; x64) AppleWebKit/537.36 (KHTML, like Gecko) Chrome/138.0.0.0 Safari/537.36","WebKit","Chrome","138.0.0.0","Windows","10.0","https://app.prolific.com/","en-US,en;q=0.9","65fb13bebfa339f73b4cf76a","687a1a965b9f5b85a264363e","689334abdadc06b4fd2a55ab","1","65fb13bebfa339f73b4cf76a","1","2025-08-06T11:06:17.629Z","","","","","","","","","","","","","","","","win-only","3","g1:SW,g2:NE","0.5","6","0","466820.9","1127.7","6130.6","32030.3","1","4","4","6","2","-4","-4","18","22","0.13636363636363635","5002.9","3000","-3015","[""up"",""right""]","{""num_key_presses"":6,""num_perfect"":4,""num_errors"":0,""num_randdir"":2,""num_randdir_good_moves"":1,""num_whilered"":0,""num_whileblue"":0,""num_blue"":2,""num_good_moves"":5}","[235.13482142857143,232.52544642857143,0.2,235.13482142857143,232.52544642857143,103,235.13482142857143,232.52544642857143,204,235.13482142857143,232.52544642857143,304,235.13482142857143,232.52544642857143,407.5,235.13482142857143,232.52544642857143,507.9,235.13482142857143,232.52544642857143,614.1,235.13482142857143,232.52544642857143,714.1,235.13482142857143,232.52544642857143,818.6,235.13482142857143,232.52544642857143,924.2,235.13482142857143,232.52544642857143,1028.3,235.13482142857143,232.52544642857143,1132.4,235.13482142857143,232.52544642857143,1234.2,235.13482142857143,232.52544642857143,1338.7,235.13482142857143,232.52544642857143,1443,235.13482142857143,232.52544642857143,1544.3,235.13482142857143,232.52544642857143,1648.4,235.13482142857143,232.52544642857143,1749,235.13482142857143,232.52544642857143,1849.9,235.13482142857143,232.52544642857143,1952.5,235.13482142857143,232.52544642857143,2054.3,235.13482142857143,232.52544642857143,2158.7,235.13482142857143,232.52544642857143,2263.5,235.13482142857143,232.52544642857143,2368.3,235.13482142857143,232.52544642857143,2473.9,235.13482142857143,232.52544642857143,2577.8,235.13482142857143,232.52544642857143,2679.3,235.13482142857143,232.52544642857143,2782.6,235.13482142857143,232.52544642857143,2883,235.13482142857143,232.52544642857143,2988.7,235.13482142857143,232.52544642857143,3094.2,235.13482142857143,232.52544642857143,3198.2,235.13482142857143,232.52544642857143,3298.4,235.13482142857143,232.52544642857143,3404,234.13482142857143,231.52544642857143,3507.9,234.13482142857143,231.52544642857143,3608.4,234.13482142857143,231.52544642857143,3708.6,234.13482142857143,231.52544642857143,3808.7,234.13482142857143,231.52544642857143,3913.9,234.13482142857143,231.52544642857143,4014.4,234.13482142857143,231.52544642857143,4117.7,234.13482142857143,231.52544642857143,4218.3,234.13482142857143,231.52544642857143,4318.6,234.13482142857143,231.52544642857143,4423.4,234.13482142857143,231.52544642857143,4528.7,234.13482142857143,231.52544642857143,4632.8,234.13482142857143,231.52544642857143,4733.2,234.13482142857143,231.52544642857143,4833.5,234.13482142857143,231.52544642857143,4933.9]","[1475.7,1475.8,1000,0,475.8,""smooth"",""right"",""right"",""good_move"",4131.5,2655.5,2172.2,1476.1,483.2,""oops"",""right"",""up"",""good_move"",7043.7,2911.9,2540.3,4131.8,371.6,""oops"",""up"",""down"",""bad_move"",9635.5,2591.6,2081.1,7043.9,510.5,""smooth"",""right"",""right"",""good_move"",16044.2,6408.5,2605.4,12987.3,451.5,""smooth"",""up"",""up"",""good_move"",23270.6,7226.2,2607,20234.6,429,""smooth"",""up"",""up"",""good_move""]"
"4229","","<div style=""width:500px;"">
  <p>What determined the result of this run?</p>
  </div>","92","html-slider-response","39","502254","0.0-7.0-1.5","181","1","2025-08-06 10:55:52","36c45c0696341be0efffe67d72a12abb","197.248.117.175","Mozilla/5.0 (Windows NT 10.0; Win64; x64) AppleWebKit/537.36 (KHTML, like Gecko) Chrome/138.0.0.0 Safari/537.36","WebKit","Chrome","138.0.0.0","Windows","10.0","https://app.prolific.com/","en-US,en;q=0.9","65fb13bebfa339f73b4cf76a","687a1a965b9f5b85a264363e","689334abdadc06b4fd2a55ab","1","65fb13bebfa339f73b4cf76a","1","2025-08-06T11:06:21.859Z","","","","AttribQ","","","","","","","","","","","50","","","","","","","","","","","","","","","","","","","","","","","","","","",""
"27591","","<div style=""width:500px;"">
  <p>How much control did you have over the ball?</p>
  </div>","68","html-slider-response","40","529846","0.0-7.0-2.5","181","1","2025-08-06 10:55:52","36c45c0696341be0efffe67d72a12abb","197.248.117.175","Mozilla/5.0 (Windows NT 10.0; Win64; x64) AppleWebKit/537.36 (KHTML, like Gecko) Chrome/138.0.0.0 Safari/537.36","WebKit","Chrome","138.0.0.0","Windows","10.0","https://app.prolific.com/","en-US,en;q=0.9","65fb13bebfa339f73b4cf76a","687a1a965b9f5b85a264363e","689334abdadc06b4fd2a55ab","1","65fb13bebfa339f73b4cf76a","1","2025-08-06T11:06:49.451Z","","","","ControlQ","","","","","","","","","","","50","","","","","","","","","","","","","","","","","","","","","","","","","","",""
"1743","","<div style=""width:500px;"">
  <p>How would you describe your current emotional state?</p>
  </div>","68","html-slider-response","41","531591","0.0-7.0-3.5","181","1","2025-08-06 10:55:52","36c45c0696341be0efffe67d72a12abb","197.248.117.175","Mozilla/5.0 (Windows NT 10.0; Win64; x64) AppleWebKit/537.36 (KHTML, like Gecko) Chrome/138.0.0.0 Safari/537.36","WebKit","Chrome","138.0.0.0","Windows","10.0","https://app.prolific.com/","en-US,en;q=0.9","65fb13bebfa339f73b4cf76a","687a1a965b9f5b85a264363e","689334abdadc06b4fd2a55ab","1","65fb13bebfa339f73b4cf76a","1","2025-08-06T11:06:51.196Z","","","","StressQ","","","","","","","","","","","50","","","","","","","","","","","","","","","","","","","","","","","","","","",""
"2079","","<div style=""width:500px;"">
  <p>What best describes how you currently feel?</p>
  </div>","63","html-slider-response","42","533670","0.0-7.0-4.5","181","1","2025-08-06 10:55:52","36c45c0696341be0efffe67d72a12abb","197.248.117.175","Mozilla/5.0 (Windows NT 10.0; Win64; x64) AppleWebKit/537.36 (KHTML, like Gecko) Chrome/138.0.0.0 Safari/537.36","WebKit","Chrome","138.0.0.0","Windows","10.0","https://app.prolific.com/","en-US,en;q=0.9","65fb13bebfa339f73b4cf76a","687a1a965b9f5b85a264363e","689334abdadc06b4fd2a55ab","1","65fb13bebfa339f73b4cf76a","1","2025-08-06T11:06:53.275Z","","","","MotivationQ","","","","","","","","","","","50","","","","","","","","","","","","","","","","","","","","","","","","","","",""
"","","","","ctl-task-cpt","43","560889","0.0-7.0-0.6","181","1","2025-08-06 10:55:52","36c45c0696341be0efffe67d72a12abb","197.248.117.175","Mozilla/5.0 (Windows NT 10.0; Win64; x64) AppleWebKit/537.36 (KHTML, like Gecko) Chrome/138.0.0.0 Safari/537.36","WebKit","Chrome","138.0.0.0","Windows","10.0","https://app.prolific.com/","en-US,en;q=0.9","65fb13bebfa339f73b4cf76a","687a1a965b9f5b85a264363e","689334abdadc06b4fd2a55ab","1","65fb13bebfa339f73b4cf76a","1","2025-08-06T11:07:20.494Z","","","","","","","","","","","","","","","","win-only","0","g1:NW,g2:SE","0.4","7","0","537516.6","1153.4","6156.3","24200.3","1","4","8","6","1","1","0","18","18","0.13636363636363635","5002.9","3000","1215","[""left"",""up""]","{""num_key_presses"":5,""num_perfect"":3,""num_errors"":1,""num_randdir"":1,""num_randdir_good_moves"":1,""num_whilered"":0,""num_whileblue"":0,""num_blue"":1,""num_good_moves"":4}","[235.13482142857143,232.52544642857143,0.1,235.13482142857143,232.52544642857143,100.7,234.13482142857143,232.52544642857143,202.8,234.13482142857143,232.52544642857143,303.1,234.13482142857143,232.52544642857143,407.2,242.13482142857143,266.5254464285714,512.6,245.13482142857143,276.5254464285714,617.3,245.13482142857143,277.5254464285714,722.1,245.13482142857143,277.5254464285714,822.8,245.13482142857143,277.5254464285714,927.6,245.13482142857143,277.5254464285714,1032.7,245.13482142857143,277.5254464285714,1132.9,245.13482142857143,277.5254464285714,1233.5,245.13482142857143,277.5254464285714,1337.3,245.13482142857143,277.5254464285714,1442.8,245.13482142857143,277.5254464285714,1549.1,245.13482142857143,277.5254464285714,1652.4,245.13482142857143,277.5254464285714,1752.7,245.13482142857143,277.5254464285714,1856.9,245.13482142857143,277.5254464285714,1956.9,245.13482142857143,277.5254464285714,2057.1,245.13482142857143,277.5254464285714,2162.8,245.13482142857143,277.5254464285714,2267.7,245.13482142857143,277.5254464285714,2372.9,245.13482142857143,277.5254464285714,2477.6,245.13482142857143,277.5254464285714,2583.2,245.13482142857143,277.5254464285714,2687.2,245.13482142857143,277.5254464285714,2787.5,245.13482142857143,277.5254464285714,2887.6,245.13482142857143,277.5254464285714,2987.8,245.13482142857143,277.5254464285714,3093.1,245.13482142857143,277.5254464285714,3193.3,245.13482142857143,277.5254464285714,3297.5,245.13482142857143,277.5254464285714,3402.2,245.13482142857143,277.5254464285714,3507.6,245.13482142857143,277.5254464285714,3612.1,245.13482142857143,277.5254464285714,3712.4,245.13482142857143,277.5254464285714,3813.4,245.13482142857143,277.5254464285714,3916.9,245.13482142857143,277.5254464285714,4023,245.13482142857143,277.5254464285714,4128.3,245.13482142857143,277.5254464285714,4231.8,245.13482142857143,277.5254464285714,4331.9,245.13482142857143,277.5254464285714,4432,245.13482142857143,277.5254464285714,4537.6,245.13482142857143,277.5254464285714,4637.6,245.13482142857143,277.5254464285714,4737.6,245.13482142857143,277.5254464285714,4838,245.13482142857143,277.5254464285714,4943.1]","[858.4,858.4,1000,0,-141.6,""error"",""-"",""-"",""no_move"",5730.1,4871.6,3371.8,1859,499.3,""oops"",""up"",""up"",""good_move"",9274,3543.7,3141.6,5730.3,402.1,""smooth"",""left"",""left"",""good_move"",15394,6119.8,2018.5,12974.9,400.6,""smooth"",""left"",""left"",""good_move"",17946,2551.9,2039,15394.1,512.9,""smooth"",""up"",""up"",""good_move""]"
"3373","","<div style=""width:500px;"">
  <p>What determined the result of this run?</p>
  </div>","70","html-slider-response","44","564262","0.0-7.0-1.6","181","1","2025-08-06 10:55:52","36c45c0696341be0efffe67d72a12abb","197.248.117.175","Mozilla/5.0 (Windows NT 10.0; Win64; x64) AppleWebKit/537.36 (KHTML, like Gecko) Chrome/138.0.0.0 Safari/537.36","WebKit","Chrome","138.0.0.0","Windows","10.0","https://app.prolific.com/","en-US,en;q=0.9","65fb13bebfa339f73b4cf76a","687a1a965b9f5b85a264363e","689334abdadc06b4fd2a55ab","1","65fb13bebfa339f73b4cf76a","1","2025-08-06T11:07:23.867Z","","","","AttribQ","","","","","","","","","","","50","","","","","","","","","","","","","","","","","","","","","","","","","","",""
"1407","","<div style=""width:500px;"">
  <p>How much control did you have over the ball?</p>
  </div>","67","html-slider-response","45","565670","0.0-7.0-2.6","181","1","2025-08-06 10:55:52","36c45c0696341be0efffe67d72a12abb","197.248.117.175","Mozilla/5.0 (Windows NT 10.0; Win64; x64) AppleWebKit/537.36 (KHTML, like Gecko) Chrome/138.0.0.0 Safari/537.36","WebKit","Chrome","138.0.0.0","Windows","10.0","https://app.prolific.com/","en-US,en;q=0.9","65fb13bebfa339f73b4cf76a","687a1a965b9f5b85a264363e","689334abdadc06b4fd2a55ab","1","65fb13bebfa339f73b4cf76a","1","2025-08-06T11:07:25.275Z","","","","ControlQ","","","","","","","","","","","50","","","","","","","","","","","","","","","","","","","","","","","","","","",""
"2688","","<div style=""width:500px;"">
  <p>How would you describe your current emotional state?</p>
  </div>","52","html-slider-response","46","568358","0.0-7.0-3.6","181","1","2025-08-06 10:55:52","36c45c0696341be0efffe67d72a12abb","197.248.117.175","Mozilla/5.0 (Windows NT 10.0; Win64; x64) AppleWebKit/537.36 (KHTML, like Gecko) Chrome/138.0.0.0 Safari/537.36","WebKit","Chrome","138.0.0.0","Windows","10.0","https://app.prolific.com/","en-US,en;q=0.9","65fb13bebfa339f73b4cf76a","687a1a965b9f5b85a264363e","689334abdadc06b4fd2a55ab","1","65fb13bebfa339f73b4cf76a","1","2025-08-06T11:07:27.964Z","","","","StressQ","","","","","","","","","","","50","","","","","","","","","","","","","","","","","","","","","","","","","","",""
"2383","","<div style=""width:500px;"">
  <p>What best describes how you currently feel?</p>
  </div>","60","html-slider-response","47","570742","0.0-7.0-4.6","181","1","2025-08-06 10:55:52","36c45c0696341be0efffe67d72a12abb","197.248.117.175","Mozilla/5.0 (Windows NT 10.0; Win64; x64) AppleWebKit/537.36 (KHTML, like Gecko) Chrome/138.0.0.0 Safari/537.36","WebKit","Chrome","138.0.0.0","Windows","10.0","https://app.prolific.com/","en-US,en;q=0.9","65fb13bebfa339f73b4cf76a","687a1a965b9f5b85a264363e","689334abdadc06b4fd2a55ab","1","65fb13bebfa339f73b4cf76a","1","2025-08-06T11:07:30.347Z","","","","MotivationQ","","","","","","","","","","","50","","","","","","","","","","","","","","","","","","","","","","","","","","",""
"","","","","ctl-task-cpt","48","613646","0.0-7.0-0.7","181","1","2025-08-06 10:55:52","36c45c0696341be0efffe67d72a12abb","197.248.117.175","Mozilla/5.0 (Windows NT 10.0; Win64; x64) AppleWebKit/537.36 (KHTML, like Gecko) Chrome/138.0.0.0 Safari/537.36","WebKit","Chrome","138.0.0.0","Windows","10.0","https://app.prolific.com/","en-US,en;q=0.9","65fb13bebfa339f73b4cf76a","687a1a965b9f5b85a264363e","689334abdadc06b4fd2a55ab","1","65fb13bebfa339f73b4cf76a","1","2025-08-06T11:08:13.251Z","","","","","","","","","","","","","","","","win-only","0","g1:NW,g2:SE","0.3","8","0","574588.7","1047.9","6050.6","39885.2","1","4","4","6","2","-4","-4","14","18","0.10606060606060606","5002.7","3000","-3015","[""down"",""right""]","{""num_key_presses"":6,""num_perfect"":2,""num_errors"":0,""num_randdir"":4,""num_randdir_good_moves"":2,""num_whilered"":0,""num_whileblue"":0,""num_blue"":4,""num_good_moves"":4}","[235.13482142857143,228.52544642857143,0.1,235.13482142857143,228.52544642857143,113.3,235.13482142857143,228.52544642857143,218,235.13482142857143,228.52544642857143,323.4,235.13482142857143,228.52544642857143,427.7,235.13482142857143,228.52544642857143,532.7,235.13482142857143,228.52544642857143,638.6,232.13482142857143,227.52544642857143,743.5,231.13482142857143,227.52544642857143,847.2,231.13482142857143,227.52544642857143,948.2,231.13482142857143,227.52544642857143,1048.3,231.13482142857143,227.52544642857143,1153.1,231.13482142857143,227.52544642857143,1258.1,231.13482142857143,227.52544642857143,1362.5,230.13482142857143,227.52544642857143,1462.5,230.13482142857143,227.52544642857143,1563.4,230.13482142857143,227.52544642857143,1663.6,230.13482142857143,227.52544642857143,1768.3,230.13482142857143,227.52544642857143,1872.4,230.13482142857143,227.52544642857143,1972.5,230.13482142857143,227.52544642857143,2079.1,230.13482142857143,227.52544642857143,2182.4,230.13482142857143,227.52544642857143,2282.9,230.13482142857143,227.52544642857143,2382.9,230.13482142857143,227.52544642857143,2487.9,230.13482142857143,227.52544642857143,2587.9,230.13482142857143,227.52544642857143,2688.6,230.13482142857143,227.52544642857143,2793,230.13482142857143,227.52544642857143,2897.8,230.13482142857143,227.52544642857143,3002.8,230.13482142857143,227.52544642857143,3107.5,230.13482142857143,227.52544642857143,3208,230.13482142857143,227.52544642857143,3313.1,230.13482142857143,227.52544642857143,3413.1,230.13482142857143,227.52544642857143,3518,230.13482142857143,227.52544642857143,3618.3,230.13482142857143,227.52544642857143,3722.3,230.13482142857143,227.52544642857143,3822.5,230.13482142857143,227.52544642857143,3922.5,230.13482142857143,227.52544642857143,4027.8,230.13482142857143,227.52544642857143,4132.6,230.13482142857143,227.52544642857143,4237.9,230.13482142857143,227.52544642857143,4338.4,230.13482142857143,227.52544642857143,4443.4,230.13482142857143,227.52544642857143,4547.3,230.13482142857143,227.52544642857143,4649.5,230.13482142857143,227.52544642857143,4753.6,230.13482142857143,227.52544642857143,4857.5,230.13482142857143,227.52544642857143,4957.9]","[9413.4,9413.4,2980.5,5914.7,518.2,""oops"",""down"",""left"",""bad_move"",15579.9,6166.2,2357.3,12775.7,446.9,""smooth"",""down"",""down"",""good_move"",21636.7,6056.6,1892.6,19264.9,479.2,""oops"",""down"",""right"",""good_move"",24843.5,3206.6,2660.7,21637,545.8,""oops"",""down"",""right"",""good_move"",27779.6,2936,2451.9,24843.6,484.1,""smooth"",""down"",""down"",""good_move"",31075.8,3296.1,2916.1,27779.8,379.9,""oops"",""down"",""left"",""bad_move""]"
"4023","","<div style=""width:500px;"">
  <p>What determined the result of this run?</p>
  </div>","56","html-slider-response","49","617670","0.0-7.0-1.7","181","1","2025-08-06 10:55:52","36c45c0696341be0efffe67d72a12abb","197.248.117.175","Mozilla/5.0 (Windows NT 10.0; Win64; x64) AppleWebKit/537.36 (KHTML, like Gecko) Chrome/138.0.0.0 Safari/537.36","WebKit","Chrome","138.0.0.0","Windows","10.0","https://app.prolific.com/","en-US,en;q=0.9","65fb13bebfa339f73b4cf76a","687a1a965b9f5b85a264363e","689334abdadc06b4fd2a55ab","1","65fb13bebfa339f73b4cf76a","1","2025-08-06T11:08:17.275Z","","","","AttribQ","","","","","","","","","","","50","","","","","","","","","","","","","","","","","","","","","","","","","","",""
"2423","","<div style=""width:500px;"">
  <p>How much control did you have over the ball?</p>
  </div>","34","html-slider-response","50","620094","0.0-7.0-2.7","181","1","2025-08-06 10:55:52","36c45c0696341be0efffe67d72a12abb","197.248.117.175","Mozilla/5.0 (Windows NT 10.0; Win64; x64) AppleWebKit/537.36 (KHTML, like Gecko) Chrome/138.0.0.0 Safari/537.36","WebKit","Chrome","138.0.0.0","Windows","10.0","https://app.prolific.com/","en-US,en;q=0.9","65fb13bebfa339f73b4cf76a","687a1a965b9f5b85a264363e","689334abdadc06b4fd2a55ab","1","65fb13bebfa339f73b4cf76a","1","2025-08-06T11:08:19.699Z","","","","ControlQ","","","","","","","","","","","50","","","","","","","","","","","","","","","","","","","","","","","","","","",""
"2200","","<div style=""width:500px;"">
  <p>How would you describe your current emotional state?</p>
  </div>","33","html-slider-response","51","622294","0.0-7.0-3.7","181","1","2025-08-06 10:55:52","36c45c0696341be0efffe67d72a12abb","197.248.117.175","Mozilla/5.0 (Windows NT 10.0; Win64; x64) AppleWebKit/537.36 (KHTML, like Gecko) Chrome/138.0.0.0 Safari/537.36","WebKit","Chrome","138.0.0.0","Windows","10.0","https://app.prolific.com/","en-US,en;q=0.9","65fb13bebfa339f73b4cf76a","687a1a965b9f5b85a264363e","689334abdadc06b4fd2a55ab","1","65fb13bebfa339f73b4cf76a","1","2025-08-06T11:08:21.899Z","","","","StressQ","","","","","","","","","","","50","","","","","","","","","","","","","","","","","","","","","","","","","","",""
"2647","","<div style=""width:500px;"">
  <p>What best describes how you currently feel?</p>
  </div>","36","html-slider-response","52","624942","0.0-7.0-4.7","181","1","2025-08-06 10:55:52","36c45c0696341be0efffe67d72a12abb","197.248.117.175","Mozilla/5.0 (Windows NT 10.0; Win64; x64) AppleWebKit/537.36 (KHTML, like Gecko) Chrome/138.0.0.0 Safari/537.36","WebKit","Chrome","138.0.0.0","Windows","10.0","https://app.prolific.com/","en-US,en;q=0.9","65fb13bebfa339f73b4cf76a","687a1a965b9f5b85a264363e","689334abdadc06b4fd2a55ab","1","65fb13bebfa339f73b4cf76a","1","2025-08-06T11:08:24.547Z","","","","MotivationQ","","","","","","","","","","","50","","","","","","","","","","","","","","","","","","","","","","","","","","",""
"","","","","ctl-task-cpt","53","660007","0.0-7.0-0.8","181","1","2025-08-06 10:55:52","36c45c0696341be0efffe67d72a12abb","197.248.117.175","Mozilla/5.0 (Windows NT 10.0; Win64; x64) AppleWebKit/537.36 (KHTML, like Gecko) Chrome/138.0.0.0 Safari/537.36","WebKit","Chrome","138.0.0.0","Windows","10.0","https://app.prolific.com/","en-US,en;q=0.9","65fb13bebfa339f73b4cf76a","687a1a965b9f5b85a264363e","689334abdadc06b4fd2a55ab","1","65fb13bebfa339f73b4cf76a","1","2025-08-06T11:08:59.612Z","","","","","","","","","","","","","","","","win-only","1","g1:NE,g2:SW","0.4","9","0","628788.5","2567.6","7570.9","32046.7","1","4","8","6","1","1","1","15","14","0.11363636363636363","5003.3","3000","1200","[""up"",""right""]","{""num_key_presses"":4,""num_perfect"":2,""num_errors"":0,""num_randdir"":2,""num_randdir_good_moves"":2,""num_whilered"":0,""num_whileblue"":0,""num_blue"":4,""num_good_moves"":4}","[236.13482142857143,230.52544642857143,0.3,236.13482142857143,230.52544642857143,102.6,236.13482142857143,230.52544642857143,203.6,236.13482142857143,230.52544642857143,304.3,236.13482142857143,230.52544642857143,408.4,236.13482142857143,230.52544642857143,512.9,237.13482142857143,230.52544642857143,613.3,237.13482142857143,230.52544642857143,718.5,250.13482142857143,230.52544642857143,824.2,252.13482142857143,230.52544642857143,929.8,252.13482142857143,230.52544642857143,1033.2,252.13482142857143,230.52544642857143,1133.5,252.13482142857143,230.52544642857143,1234.7,252.13482142857143,230.52544642857143,1337.8,252.13482142857143,230.52544642857143,1438.6,252.13482142857143,230.52544642857143,1542.6,252.13482142857143,230.52544642857143,1643.1,252.13482142857143,230.52544642857143,1744.3,252.13482142857143,230.52544642857143,1847.5,252.13482142857143,230.52544642857143,1947.5,252.13482142857143,230.52544642857143,2047.8,252.13482142857143,230.52544642857143,2148.4,252.13482142857143,230.52544642857143,2252.8,252.13482142857143,230.52544642857143,2353.3,252.13482142857143,230.52544642857143,2453.5,252.13482142857143,230.52544642857143,2557.9,252.13482142857143,230.52544642857143,2658.3,252.13482142857143,230.52544642857143,2764.5,252.13482142857143,230.52544642857143,2869.7,252.13482142857143,230.52544642857143,2969.7,252.13482142857143,230.52544642857143,3072.9,252.13482142857143,230.52544642857143,3173.2,252.13482142857143,230.52544642857143,3278.4,252.13482142857143,230.52544642857143,3378.8,252.13482142857143,230.52544642857143,3483.8,252.13482142857143,230.52544642857143,3589.2,252.13482142857143,230.52544642857143,3692.8,252.13482142857143,230.52544642857143,3792.9,252.13482142857143,230.52544642857143,3893.9,252.13482142857143,230.52544642857143,3998.3,252.13482142857143,230.52544642857143,4102.7,252.13482142857143,230.52544642857143,4203,252.13482142857143,230.52544642857143,4303.2,252.13482142857143,230.52544642857143,4403.5,252.13482142857143,230.52544642857143,4509,252.13482142857143,230.52544642857143,4609,252.13482142857143,230.52544642857143,4712.6,252.13482142857143,230.52544642857143,4812.9,252.13482142857143,230.52544642857143,4912.9]","[7819.5,7819.5,1782.3,5555.1,482.1,""oops"",""right"",""right"",""good_move"",10843.3,3023.5,2510.4,7819.8,513.1,""smooth"",""right"",""right"",""good_move"",20939.5,10096,2364.7,18154.3,420.5,""oops"",""up"",""up"",""good_move"",24388,3448.3,3041.2,20939.7,407.1,""smooth"",""up"",""up"",""good_move""]"
"3551","","<div style=""width:500px;"">
  <p>What determined the result of this run?</p>
  </div>","56","html-slider-response","54","663558","0.0-7.0-1.8","181","1","2025-08-06 10:55:52","36c45c0696341be0efffe67d72a12abb","197.248.117.175","Mozilla/5.0 (Windows NT 10.0; Win64; x64) AppleWebKit/537.36 (KHTML, like Gecko) Chrome/138.0.0.0 Safari/537.36","WebKit","Chrome","138.0.0.0","Windows","10.0","https://app.prolific.com/","en-US,en;q=0.9","65fb13bebfa339f73b4cf76a","687a1a965b9f5b85a264363e","689334abdadc06b4fd2a55ab","1","65fb13bebfa339f73b4cf76a","1","2025-08-06T11:09:03.163Z","","","","AttribQ","","","","","","","","","","","50","","","","","","","","","","","","","","","","","","","","","","","","","","",""
"2384","","<div style=""width:500px;"">
  <p>How much control did you have over the ball?</p>
  </div>","56","html-slider-response","55","665943","0.0-7.0-2.8","181","1","2025-08-06 10:55:52","36c45c0696341be0efffe67d72a12abb","197.248.117.175","Mozilla/5.0 (Windows NT 10.0; Win64; x64) AppleWebKit/537.36 (KHTML, like Gecko) Chrome/138.0.0.0 Safari/537.36","WebKit","Chrome","138.0.0.0","Windows","10.0","https://app.prolific.com/","en-US,en;q=0.9","65fb13bebfa339f73b4cf76a","687a1a965b9f5b85a264363e","689334abdadc06b4fd2a55ab","1","65fb13bebfa339f73b4cf76a","1","2025-08-06T11:09:05.548Z","","","","ControlQ","","","","","","","","","","","50","","","","","","","","","","","","","","","","","","","","","","","","","","",""
"1342","","<div style=""width:500px;"">
  <p>How would you describe your current emotional state?</p>
  </div>","62","html-slider-response","56","667286","0.0-7.0-3.8","181","1","2025-08-06 10:55:52","36c45c0696341be0efffe67d72a12abb","197.248.117.175","Mozilla/5.0 (Windows NT 10.0; Win64; x64) AppleWebKit/537.36 (KHTML, like Gecko) Chrome/138.0.0.0 Safari/537.36","WebKit","Chrome","138.0.0.0","Windows","10.0","https://app.prolific.com/","en-US,en;q=0.9","65fb13bebfa339f73b4cf76a","687a1a965b9f5b85a264363e","689334abdadc06b4fd2a55ab","1","65fb13bebfa339f73b4cf76a","1","2025-08-06T11:09:06.891Z","","","","StressQ","","","","","","","","","","","50","","","","","","","","","","","","","","","","","","","","","","","","","","",""
"1271","","<div style=""width:500px;"">
  <p>What best describes how you currently feel?</p>
  </div>","63","html-slider-response","57","668558","0.0-7.0-4.8","181","1","2025-08-06 10:55:52","36c45c0696341be0efffe67d72a12abb","197.248.117.175","Mozilla/5.0 (Windows NT 10.0; Win64; x64) AppleWebKit/537.36 (KHTML, like Gecko) Chrome/138.0.0.0 Safari/537.36","WebKit","Chrome","138.0.0.0","Windows","10.0","https://app.prolific.com/","en-US,en;q=0.9","65fb13bebfa339f73b4cf76a","687a1a965b9f5b85a264363e","689334abdadc06b4fd2a55ab","1","65fb13bebfa339f73b4cf76a","1","2025-08-06T11:09:08.163Z","","","","MotivationQ","","","","","","","","","","","50","","","","","","","","","","","","","","","","","","","","","","","","","","",""
"","","","","ctl-task-cpt","58","692420","0.0-7.0-0.9","181","1","2025-08-06 10:55:52","36c45c0696341be0efffe67d72a12abb","197.248.117.175","Mozilla/5.0 (Windows NT 10.0; Win64; x64) AppleWebKit/537.36 (KHTML, like Gecko) Chrome/138.0.0.0 Safari/537.36","WebKit","Chrome","138.0.0.0","Windows","10.0","https://app.prolific.com/","en-US,en;q=0.9","65fb13bebfa339f73b4cf76a","687a1a965b9f5b85a264363e","689334abdadc06b4fd2a55ab","1","65fb13bebfa339f73b4cf76a","1","2025-08-06T11:09:32.025Z","","","","","","","","","","","","","","","","win-only","2","g1:SE,g2:NW","0.5","10","0","672404.8","1391.7","6396.8","20842.8","1","4","4","6","1","-1","-1","14","15","0.10606060606060606","5005.1","3000","-2920","[""down"",""right""]","{""num_key_presses"":4,""num_perfect"":1,""num_errors"":0,""num_randdir"":3,""num_randdir_good_moves"":1,""num_whilered"":0,""num_whileblue"":0,""num_blue"":0,""num_good_moves"":2}","[233.13482142857143,234.52544642857143,0.3,233.13482142857143,233.52544642857143,105.4,233.13482142857143,233.52544642857143,208.5,233.13482142857143,233.52544642857143,309.1,233.13482142857143,233.52544642857143,414.1,238.13482142857143,238.52544642857143,514.2,254.13482142857143,249.52544642857143,619.9,289.1348214285714,268.5254464285714,720,289.1348214285714,268.5254464285714,824.6,289.1348214285714,268.5254464285714,929.4,289.1348214285714,268.5254464285714,1030.5,289.1348214285714,268.5254464285714,1134.3,289.1348214285714,268.5254464285714,1238.4,289.1348214285714,268.5254464285714,1339.3,289.1348214285714,268.5254464285714,1443.4,289.1348214285714,268.5254464285714,1543.6,289.1348214285714,268.5254464285714,1644.2,289.1348214285714,268.5254464285714,1744.5,289.1348214285714,268.5254464285714,1848.8,289.1348214285714,268.5254464285714,1953.7,289.1348214285714,268.5254464285714,2059.5,289.1348214285714,268.5254464285714,2164.1,289.1348214285714,268.5254464285714,2269.3,289.1348214285714,268.5254464285714,2373.6,289.1348214285714,268.5254464285714,2474.5,289.1348214285714,268.5254464285714,2578.5,289.1348214285714,268.5254464285714,2678.8,289.1348214285714,268.5254464285714,2784.4,289.1348214285714,268.5254464285714,2889.4,289.1348214285714,268.5254464285714,2995.3,289.1348214285714,268.5254464285714,3099.3,289.1348214285714,268.5254464285714,3204.2,289.1348214285714,268.5254464285714,3308.6,289.1348214285714,268.5254464285714,3408.8,289.1348214285714,268.5254464285714,3509,289.1348214285714,268.5254464285714,3615.2,289.1348214285714,268.5254464285714,3719.4,289.1348214285714,268.5254464285714,3820.4,289.1348214285714,268.5254464285714,3920.6,289.1348214285714,268.5254464285714,4024.5,289.1348214285714,268.5254464285714,4128.6,289.1348214285714,268.5254464285714,4229.2,289.1348214285714,268.5254464285714,4334.7,289.1348214285714,268.5254464285714,4435.6,289.1348214285714,268.5254464285714,4539,289.1348214285714,268.5254464285714,4639.5,289.1348214285714,268.5254464285714,4743.9,289.1348214285714,268.5254464285714,4843.9,289.1348214285714,268.5254464285714,4950.5]","[1473.3,1473.3,1000,0,473.3,""smooth"",""down"",""down"",""good_move"",5585.1,4111.6,3240.5,1473.5,871.1,""oops"",""right"",""up"",""bad_move"",8026.7,2441.4,1985.7,5585.3,455.7,""oops"",""down"",""down"",""good_move"",11105.3,3078.2,2634.7,8027.1,443.5,""oops"",""down"",""left"",""bad_move""]"
"15450","","<div style=""width:500px;"">
  <p>What determined the result of this run?</p>
  </div>","63","html-slider-response","59","707871","0.0-7.0-1.9","181","1","2025-08-06 10:55:52","36c45c0696341be0efffe67d72a12abb","197.248.117.175","Mozilla/5.0 (Windows NT 10.0; Win64; x64) AppleWebKit/537.36 (KHTML, like Gecko) Chrome/138.0.0.0 Safari/537.36","WebKit","Chrome","138.0.0.0","Windows","10.0","https://app.prolific.com/","en-US,en;q=0.9","65fb13bebfa339f73b4cf76a","687a1a965b9f5b85a264363e","689334abdadc06b4fd2a55ab","1","65fb13bebfa339f73b4cf76a","1","2025-08-06T11:09:47.476Z","","","","AttribQ","","","","","","","","","","","50","","","","","","","","","","","","","","","","","","","","","","","","","","",""
"2734","","<div style=""width:500px;"">
  <p>How much control did you have over the ball?</p>
  </div>","43","html-slider-response","60","710606","0.0-7.0-2.9","181","1","2025-08-06 10:55:52","36c45c0696341be0efffe67d72a12abb","197.248.117.175","Mozilla/5.0 (Windows NT 10.0; Win64; x64) AppleWebKit/537.36 (KHTML, like Gecko) Chrome/138.0.0.0 Safari/537.36","WebKit","Chrome","138.0.0.0","Windows","10.0","https://app.prolific.com/","en-US,en;q=0.9","65fb13bebfa339f73b4cf76a","687a1a965b9f5b85a264363e","689334abdadc06b4fd2a55ab","1","65fb13bebfa339f73b4cf76a","1","2025-08-06T11:09:50.211Z","","","","ControlQ","","","","","","","","","","","50","","","","","","","","","","","","","","","","","","","","","","","","","","",""
"1743","","<div style=""width:500px;"">
  <p>How would you describe your current emotional state?</p>
  </div>","59","html-slider-response","61","712350","0.0-7.0-3.9","181","1","2025-08-06 10:55:52","36c45c0696341be0efffe67d72a12abb","197.248.117.175","Mozilla/5.0 (Windows NT 10.0; Win64; x64) AppleWebKit/537.36 (KHTML, like Gecko) Chrome/138.0.0.0 Safari/537.36","WebKit","Chrome","138.0.0.0","Windows","10.0","https://app.prolific.com/","en-US,en;q=0.9","65fb13bebfa339f73b4cf76a","687a1a965b9f5b85a264363e","689334abdadc06b4fd2a55ab","1","65fb13bebfa339f73b4cf76a","1","2025-08-06T11:09:51.955Z","","","","StressQ","","","","","","","","","","","50","","","","","","","","","","","","","","","","","","","","","","","","","","",""
"1720","","<div style=""width:500px;"">
  <p>What best describes how you currently feel?</p>
  </div>","55","html-slider-response","62","714070","0.0-7.0-4.9","181","1","2025-08-06 10:55:52","36c45c0696341be0efffe67d72a12abb","197.248.117.175","Mozilla/5.0 (Windows NT 10.0; Win64; x64) AppleWebKit/537.36 (KHTML, like Gecko) Chrome/138.0.0.0 Safari/537.36","WebKit","Chrome","138.0.0.0","Windows","10.0","https://app.prolific.com/","en-US,en;q=0.9","65fb13bebfa339f73b4cf76a","687a1a965b9f5b85a264363e","689334abdadc06b4fd2a55ab","1","65fb13bebfa339f73b4cf76a","1","2025-08-06T11:09:53.675Z","","","","MotivationQ","","","","","","","","","","","50","","","","","","","","","","","","","","","","","","","","","","","","","","",""
"","","","","ctl-task-cpt","63","745940","0.0-7.0-0.10","181","1","2025-08-06 10:55:52","36c45c0696341be0efffe67d72a12abb","197.248.117.175","Mozilla/5.0 (Windows NT 10.0; Win64; x64) AppleWebKit/537.36 (KHTML, like Gecko) Chrome/138.0.0.0 Safari/537.36","WebKit","Chrome","138.0.0.0","Windows","10.0","https://app.prolific.com/","en-US,en;q=0.9","65fb13bebfa339f73b4cf76a","687a1a965b9f5b85a264363e","689334abdadc06b4fd2a55ab","1","65fb13bebfa339f73b4cf76a","1","2025-08-06T11:10:25.545Z","","","","","","","","","","","","","","","","win-only","0","g1:NW,g2:SE","0.6","11","0","717917","1271.8","6276","28851.7","1","4","8","6","1","-1","-2","12","14","0.09090909090909091","5004.2","3000","-2995","[""left"",""up""]","{""num_key_presses"":6,""num_perfect"":2,""num_errors"":1,""num_randdir"":3,""num_randdir_good_moves"":2,""num_whilered"":0,""num_whileblue"":1,""num_blue"":2,""num_good_moves"":4}","[234.13482142857143,232.52544642857143,0,234.13482142857143,232.52544642857143,103.6,234.13482142857143,232.52544642857143,205,234.13482142857143,232.52544642857143,309.1,234.13482142857143,232.52544642857143,414.6,234.13482142857143,232.52544642857143,519.3,231.13482142857143,232.52544642857143,623.7,224.13482142857143,230.52544642857143,729.3,224.13482142857143,230.52544642857143,829.8,225.13482142857143,241.52544642857143,934.8,225.13482142857143,241.52544642857143,1041,225.13482142857143,241.52544642857143,1144.3,225.13482142857143,241.52544642857143,1248.6,225.13482142857143,242.52544642857143,1349.7,225.13482142857143,242.52544642857143,1453.7,225.13482142857143,242.52544642857143,1553.8,225.13482142857143,242.52544642857143,1654.4,225.13482142857143,242.52544642857143,1754.9,225.13482142857143,242.52544642857143,1859.1,225.13482142857143,242.52544642857143,1959.6,225.13482142857143,242.52544642857143,2059.9,225.13482142857143,242.52544642857143,2164.2,225.13482142857143,242.52544642857143,2269.5,225.13482142857143,242.52544642857143,2369.7,225.13482142857143,242.52544642857143,2473.9,225.13482142857143,242.52544642857143,2574.8,225.13482142857143,242.52544642857143,2674.9,225.13482142857143,242.52544642857143,2779.4,225.13482142857143,242.52544642857143,2879.5,225.13482142857143,242.52544642857143,2984.3,225.13482142857143,242.52544642857143,3084.8,225.13482142857143,242.52544642857143,3189.1,225.13482142857143,242.52544642857143,3293.7,225.13482142857143,242.52544642857143,3394.1,225.13482142857143,242.52544642857143,3494.6,225.13482142857143,242.52544642857143,3594.7,234.13482142857143,260.5254464285714,3694.7,234.13482142857143,260.5254464285714,3798.5,234.13482142857143,260.5254464285714,3899.8,234.13482142857143,260.5254464285714,4000.8,234.13482142857143,260.5254464285714,4101.9,234.13482142857143,260.5254464285714,4203.8,234.13482142857143,260.5254464285714,4305.5,234.13482142857143,260.5254464285714,4408.6,234.13482142857143,260.5254464285714,4509.2,234.13482142857143,260.5254464285714,4609.5,234.13482142857143,260.5254464285714,4714.2,234.13482142857143,260.5254464285714,4814.5,234.13482142857143,260.5254464285714,4914.7]","[2041.8,2041.8,1000,0,1041.8,""smooth"",""up"",""up"",""good_move"",5241.6,3199.6,2761.8,2042,437.9,""oops"",""left"",""down"",""bad_move"",7953.7,2711.9,2318.6,5241.8,393.3,""oops"",""left"",""left"",""good_move"",13985.8,6031.9,2387.4,11076.7,521.7,""smooth"",""up"",""up"",""good_move"",17122,3136,2740.7,13986,395.3,""oops"",""up"",""left"",""good_move"",19545.9,2423.7,2072.5,17122.2,351.2,""while_blue"",""up"",""right"",""bad_move""]"
"2170","","<div style=""width:500px;"">
  <p>What determined the result of this run?</p>
  </div>","60","html-slider-response","64","748110","0.0-7.0-1.10","181","1","2025-08-06 10:55:52","36c45c0696341be0efffe67d72a12abb","197.248.117.175","Mozilla/5.0 (Windows NT 10.0; Win64; x64) AppleWebKit/537.36 (KHTML, like Gecko) Chrome/138.0.0.0 Safari/537.36","WebKit","Chrome","138.0.0.0","Windows","10.0","https://app.prolific.com/","en-US,en;q=0.9","65fb13bebfa339f73b4cf76a","687a1a965b9f5b85a264363e","689334abdadc06b4fd2a55ab","1","65fb13bebfa339f73b4cf76a","1","2025-08-06T11:10:27.715Z","","","","AttribQ","","","","","","","","","","","50","","","","","","","","","","","","","","","","","","","","","","","","","","",""
"1255","","<div style=""width:500px;"">
  <p>How much control did you have over the ball?</p>
  </div>","39","html-slider-response","65","749366","0.0-7.0-2.10","181","1","2025-08-06 10:55:52","36c45c0696341be0efffe67d72a12abb","197.248.117.175","Mozilla/5.0 (Windows NT 10.0; Win64; x64) AppleWebKit/537.36 (KHTML, like Gecko) Chrome/138.0.0.0 Safari/537.36","WebKit","Chrome","138.0.0.0","Windows","10.0","https://app.prolific.com/","en-US,en;q=0.9","65fb13bebfa339f73b4cf76a","687a1a965b9f5b85a264363e","689334abdadc06b4fd2a55ab","1","65fb13bebfa339f73b4cf76a","1","2025-08-06T11:10:28.971Z","","","","ControlQ","","","","","","","","","","","50","","","","","","","","","","","","","","","","","","","","","","","","","","",""
"2199","","<div style=""width:500px;"">
  <p>How would you describe your current emotional state?</p>
  </div>","39","html-slider-response","66","751566","0.0-7.0-3.10","181","1","2025-08-06 10:55:52","36c45c0696341be0efffe67d72a12abb","197.248.117.175","Mozilla/5.0 (Windows NT 10.0; Win64; x64) AppleWebKit/537.36 (KHTML, like Gecko) Chrome/138.0.0.0 Safari/537.36","WebKit","Chrome","138.0.0.0","Windows","10.0","https://app.prolific.com/","en-US,en;q=0.9","65fb13bebfa339f73b4cf76a","687a1a965b9f5b85a264363e","689334abdadc06b4fd2a55ab","1","65fb13bebfa339f73b4cf76a","1","2025-08-06T11:10:31.171Z","","","","StressQ","","","","","","","","","","","50","","","","","","","","","","","","","","","","","","","","","","","","","","",""
"1672","","<div style=""width:500px;"">
  <p>What best describes how you currently feel?</p>
  </div>","34","html-slider-response","67","753238","0.0-7.0-4.10","181","1","2025-08-06 10:55:52","36c45c0696341be0efffe67d72a12abb","197.248.117.175","Mozilla/5.0 (Windows NT 10.0; Win64; x64) AppleWebKit/537.36 (KHTML, like Gecko) Chrome/138.0.0.0 Safari/537.36","WebKit","Chrome","138.0.0.0","Windows","10.0","https://app.prolific.com/","en-US,en;q=0.9","65fb13bebfa339f73b4cf76a","687a1a965b9f5b85a264363e","689334abdadc06b4fd2a55ab","1","65fb13bebfa339f73b4cf76a","1","2025-08-06T11:10:32.843Z","","","","MotivationQ","","","","","","","","","","","50","","","","","","","","","","","","","","","","","","","","","","","","","","",""
"","","","","ctl-task-cpt","68","793162","0.0-7.0-0.11","181","1","2025-08-06 10:55:52","36c45c0696341be0efffe67d72a12abb","197.248.117.175","Mozilla/5.0 (Windows NT 10.0; Win64; x64) AppleWebKit/537.36 (KHTML, like Gecko) Chrome/138.0.0.0 Safari/537.36","WebKit","Chrome","138.0.0.0","Windows","10.0","https://app.prolific.com/","en-US,en;q=0.9","65fb13bebfa339f73b4cf76a","687a1a965b9f5b85a264363e","689334abdadc06b4fd2a55ab","1","65fb13bebfa339f73b4cf76a","1","2025-08-06T11:11:12.767Z","","","","","","","","","","","","","","","","win-only","1","g1:NE,g2:SW","0.7","12","0","757084.6","1215.8","6216.7","36905.4","1","4","4","6","2","-4","-5","7","12","0.05303030303030303","5000.9","3000","-3015","[""down"",""left""]","{""num_key_presses"":8,""num_perfect"":6,""num_errors"":1,""num_randdir"":1,""num_randdir_good_moves"":0,""num_whilered"":0,""num_whileblue"":1,""num_blue"":3,""num_good_moves"":5}","[228.13482142857143,235.52544642857143,0.1,228.13482142857143,235.52544642857143,100.7,228.13482142857143,234.52544642857143,205.1,228.13482142857143,234.52544642857143,305.5,228.13482142857143,234.52544642857143,405.8,228.13482142857143,234.52544642857143,509.9,229.13482142857143,233.52544642857143,610.5,236.13482142857143,227.52544642857143,715.7,240.13482142857143,223.52544642857143,820.2,240.13482142857143,223.52544642857143,924.9,240.13482142857143,223.52544642857143,1025.7,240.13482142857143,223.52544642857143,1126.1,240.13482142857143,223.52544642857143,1230,240.13482142857143,222.52544642857143,1335,240.13482142857143,222.52544642857143,1435.4,240.13482142857143,222.52544642857143,1540.2,240.13482142857143,222.52544642857143,1640.7,240.13482142857143,222.52544642857143,1744.7,240.13482142857143,222.52544642857143,1845.8,240.13482142857143,222.52544642857143,1950.5,240.13482142857143,222.52544642857143,2054.9,240.13482142857143,222.52544642857143,2155.2,240.13482142857143,222.52544642857143,2261.1,240.13482142857143,222.52544642857143,2364.4,240.13482142857143,222.52544642857143,2465.1,240.13482142857143,222.52544642857143,2565.6,240.13482142857143,222.52544642857143,2672.2,240.13482142857143,222.52544642857143,2776,240.13482142857143,222.52544642857143,2881.3,240.13482142857143,222.52544642857143,2984.6,240.13482142857143,222.52544642857143,3084.6,240.13482142857143,222.52544642857143,3185.3,240.13482142857143,222.52544642857143,3291.5,240.13482142857143,222.52544642857143,3394.7,240.13482142857143,222.52544642857143,3496.5,240.13482142857143,222.52544642857143,3600.2,239.13482142857143,222.52544642857143,3705.2,239.13482142857143,222.52544642857143,3806.2,239.13482142857143,222.52544642857143,3910.3,239.13482142857143,222.52544642857143,4015.4,239.13482142857143,222.52544642857143,4121.1,239.13482142857143,222.52544642857143,4224.6,239.13482142857143,222.52544642857143,4325.6,239.13482142857143,222.52544642857143,4430.6,239.13482142857143,222.52544642857143,4531.2,239.13482142857143,222.52544642857143,4635.1,239.13482142857143,222.52544642857143,4736.5,239.13482142857143,222.52544642857143,4839.9,239.13482142857143,222.52544642857143,4941.6]","[1685.8,1685.8,1000,0,685.8,""smooth"",""right"",""right"",""bad_move"",4273.5,2587.5,2163.2,1686,424.3,""smooth"",""down"",""down"",""good_move"",6813.9,2540,2123.7,4273.9,416.3,""smooth"",""down"",""down"",""good_move"",9807.7,2993.5,2630.8,6814.2,362.7,""smooth"",""left"",""left"",""good_move"",16205.5,6397.1,2789.8,13030.4,385.3,""smooth"",""left"",""left"",""good_move"",19277.4,3071.7,2739.3,16205.7,332.4,""oops"",""left"",""up"",""bad_move"",22173.7,2896.1,2564,19277.6,332.1,""smooth"",""left"",""left"",""good_move"",24597.2,2423.3,2094.6,22173.9,328.7,""while_blue"",""left"",""up"",""bad_move""]"
"2171","","<div style=""width:500px;"">
  <p>What determined the result of this run?</p>
  </div>","40","html-slider-response","69","795334","0.0-7.0-1.11","181","1","2025-08-06 10:55:52","36c45c0696341be0efffe67d72a12abb","197.248.117.175","Mozilla/5.0 (Windows NT 10.0; Win64; x64) AppleWebKit/537.36 (KHTML, like Gecko) Chrome/138.0.0.0 Safari/537.36","WebKit","Chrome","138.0.0.0","Windows","10.0","https://app.prolific.com/","en-US,en;q=0.9","65fb13bebfa339f73b4cf76a","687a1a965b9f5b85a264363e","689334abdadc06b4fd2a55ab","1","65fb13bebfa339f73b4cf76a","1","2025-08-06T11:11:14.939Z","","","","AttribQ","","","","","","","","","","","50","","","","","","","","","","","","","","","","","","","","","","","","","","",""
"1327","","<div style=""width:500px;"">
  <p>How much control did you have over the ball?</p>
  </div>","47","html-slider-response","70","796662","0.0-7.0-2.11","181","1","2025-08-06 10:55:52","36c45c0696341be0efffe67d72a12abb","197.248.117.175","Mozilla/5.0 (Windows NT 10.0; Win64; x64) AppleWebKit/537.36 (KHTML, like Gecko) Chrome/138.0.0.0 Safari/537.36","WebKit","Chrome","138.0.0.0","Windows","10.0","https://app.prolific.com/","en-US,en;q=0.9","65fb13bebfa339f73b4cf76a","687a1a965b9f5b85a264363e","689334abdadc06b4fd2a55ab","1","65fb13bebfa339f73b4cf76a","1","2025-08-06T11:11:16.267Z","","","","ControlQ","","","","","","","","","","","50","","","","","","","","","","","","","","","","","","","","","","","","","","",""
"1359","","<div style=""width:500px;"">
  <p>How would you describe your current emotional state?</p>
  </div>","56","html-slider-response","71","798022","0.0-7.0-3.11","181","1","2025-08-06 10:55:52","36c45c0696341be0efffe67d72a12abb","197.248.117.175","Mozilla/5.0 (Windows NT 10.0; Win64; x64) AppleWebKit/537.36 (KHTML, like Gecko) Chrome/138.0.0.0 Safari/537.36","WebKit","Chrome","138.0.0.0","Windows","10.0","https://app.prolific.com/","en-US,en;q=0.9","65fb13bebfa339f73b4cf76a","687a1a965b9f5b85a264363e","689334abdadc06b4fd2a55ab","1","65fb13bebfa339f73b4cf76a","1","2025-08-06T11:11:17.627Z","","","","StressQ","","","","","","","","","","","50","","","","","","","","","","","","","","","","","","","","","","","","","","",""
"1416","","<div style=""width:500px;"">
  <p>What best describes how you currently feel?</p>
  </div>","38","html-slider-response","72","799438","0.0-7.0-4.11","181","1","2025-08-06 10:55:52","36c45c0696341be0efffe67d72a12abb","197.248.117.175","Mozilla/5.0 (Windows NT 10.0; Win64; x64) AppleWebKit/537.36 (KHTML, like Gecko) Chrome/138.0.0.0 Safari/537.36","WebKit","Chrome","138.0.0.0","Windows","10.0","https://app.prolific.com/","en-US,en;q=0.9","65fb13bebfa339f73b4cf76a","687a1a965b9f5b85a264363e","689334abdadc06b4fd2a55ab","1","65fb13bebfa339f73b4cf76a","1","2025-08-06T11:11:19.043Z","","","","MotivationQ","","","","","","","","","","","50","","","","","","","","","","","","","","","","","","","","","","","","","","",""
"","","","","ctl-task-cpt","73","837158","0.0-7.0-0.12","181","1","2025-08-06 10:55:52","36c45c0696341be0efffe67d72a12abb","197.248.117.175","Mozilla/5.0 (Windows NT 10.0; Win64; x64) AppleWebKit/537.36 (KHTML, like Gecko) Chrome/138.0.0.0 Safari/537.36","WebKit","Chrome","138.0.0.0","Windows","10.0","https://app.prolific.com/","en-US,en;q=0.9","65fb13bebfa339f73b4cf76a","687a1a965b9f5b85a264363e","689334abdadc06b4fd2a55ab","1","65fb13bebfa339f73b4cf76a","1","2025-08-06T11:11:56.763Z","","","","","","","","","","","","","","","","win-only","1","g1:NE,g2:SW","0.8","13","0","803284.4","1016","6017.5","34700.1","1","4","8","6","1","1","1","8","7","0.06060606060606061","5001.5","3000","155","[""up"",""right""]","{""num_key_presses"":6,""num_perfect"":5,""num_errors"":0,""num_randdir"":1,""num_randdir_good_moves"":0,""num_whilered"":0,""num_whileblue"":0,""num_blue"":3,""num_good_moves"":5}","[227.13482142857143,232.52544642857143,0.3,227.13482142857143,232.52544642857143,103,227.13482142857143,232.52544642857143,204.5,227.13482142857143,232.52544642857143,305.1,227.13482142857143,232.52544642857143,409.9,235.13482142857143,240.52544642857143,514.5,235.13482142857143,240.52544642857143,615.7,236.13482142857143,240.52544642857143,715.8,236.13482142857143,240.52544642857143,819.2,236.13482142857143,240.52544642857143,920,236.13482142857143,240.52544642857143,1025,236.13482142857143,240.52544642857143,1130.2,236.13482142857143,240.52544642857143,1234.3,236.13482142857143,240.52544642857143,1339.2,236.13482142857143,240.52544642857143,1439.3,236.13482142857143,240.52544642857143,1539.5,236.13482142857143,240.52544642857143,1639.9,236.13482142857143,240.52544642857143,1744.4,236.13482142857143,240.52544642857143,1844.8,236.13482142857143,240.52544642857143,1945.1,236.13482142857143,240.52544642857143,2050.6,236.13482142857143,240.52544642857143,2155.1,236.13482142857143,240.52544642857143,2259.6,236.13482142857143,240.52544642857143,2360,236.13482142857143,240.52544642857143,2464.8,236.13482142857143,240.52544642857143,2569.8,235.13482142857143,240.52544642857143,2670.1,235.13482142857143,240.52544642857143,2779.4,235.13482142857143,240.52544642857143,2880.8,235.13482142857143,240.52544642857143,2984.8,235.13482142857143,240.52544642857143,3085.2,235.13482142857143,240.52544642857143,3185.4,235.13482142857143,240.52544642857143,3285.4,235.13482142857143,240.52544642857143,3389.1,235.13482142857143,240.52544642857143,3489.8,235.13482142857143,240.52544642857143,3590.5,235.13482142857143,240.52544642857143,3694.9,235.13482142857143,240.52544642857143,3795.2,235.13482142857143,240.52544642857143,3901.1,235.13482142857143,240.52544642857143,4004.1,235.13482142857143,240.52544642857143,4105.3,235.13482142857143,240.52544642857143,4209.2,235.13482142857143,240.52544642857143,4309.6,235.13482142857143,240.52544642857143,4410.8,235.13482142857143,240.52544642857143,4514.9,235.13482142857143,240.52544642857143,4619.6,235.13482142857143,240.52544642857143,4719.8,235.13482142857143,240.52544642857143,4824.8,235.13482142857143,240.52544642857143,4924.8]","[8476.7,8476.7,3270.2,4763.2,443.3,""smooth"",""up"",""up"",""good_move"",11516.9,3039.9,2490.5,8477,549.4,""smooth"",""up"",""up"",""good_move"",15372.6,3855.7,3462.8,11516.9,392.9,""smooth"",""right"",""right"",""good_move"",18749.4,3376.5,2953.2,15372.9,423.3,""oops"",""right"",""down"",""bad_move"",21420.7,2671,2258.9,18749.7,412.1,""smooth"",""right"",""right"",""good_move"",28596.7,7175.8,2775.8,25159.3,661.6,""smooth"",""up"",""up"",""good_move""]"
"3975","","<div style=""width:500px;"">
  <p>What determined the result of this run?</p>
  </div>","46","html-slider-response","74","841134","0.0-7.0-1.12","181","1","2025-08-06 10:55:52","36c45c0696341be0efffe67d72a12abb","197.248.117.175","Mozilla/5.0 (Windows NT 10.0; Win64; x64) AppleWebKit/537.36 (KHTML, like Gecko) Chrome/138.0.0.0 Safari/537.36","WebKit","Chrome","138.0.0.0","Windows","10.0","https://app.prolific.com/","en-US,en;q=0.9","65fb13bebfa339f73b4cf76a","687a1a965b9f5b85a264363e","689334abdadc06b4fd2a55ab","1","65fb13bebfa339f73b4cf76a","1","2025-08-06T11:12:00.739Z","","","","AttribQ","","","","","","","","","","","50","","","","","","","","","","","","","","","","","","","","","","","","","","",""
"1223","","<div style=""width:500px;"">
  <p>How much control did you have over the ball?</p>
  </div>","62","html-slider-response","75","842358","0.0-7.0-2.12","181","1","2025-08-06 10:55:52","36c45c0696341be0efffe67d72a12abb","197.248.117.175","Mozilla/5.0 (Windows NT 10.0; Win64; x64) AppleWebKit/537.36 (KHTML, like Gecko) Chrome/138.0.0.0 Safari/537.36","WebKit","Chrome","138.0.0.0","Windows","10.0","https://app.prolific.com/","en-US,en;q=0.9","65fb13bebfa339f73b4cf76a","687a1a965b9f5b85a264363e","689334abdadc06b4fd2a55ab","1","65fb13bebfa339f73b4cf76a","1","2025-08-06T11:12:01.963Z","","","","ControlQ","","","","","","","","","","","50","","","","","","","","","","","","","","","","","","","","","","","","","","",""
"1847","","<div style=""width:500px;"">
  <p>How would you describe your current emotional state?</p>
  </div>","58","html-slider-response","76","844206","0.0-7.0-3.12","181","1","2025-08-06 10:55:52","36c45c0696341be0efffe67d72a12abb","197.248.117.175","Mozilla/5.0 (Windows NT 10.0; Win64; x64) AppleWebKit/537.36 (KHTML, like Gecko) Chrome/138.0.0.0 Safari/537.36","WebKit","Chrome","138.0.0.0","Windows","10.0","https://app.prolific.com/","en-US,en;q=0.9","65fb13bebfa339f73b4cf76a","687a1a965b9f5b85a264363e","689334abdadc06b4fd2a55ab","1","65fb13bebfa339f73b4cf76a","1","2025-08-06T11:12:03.811Z","","","","StressQ","","","","","","","","","","","50","","","","","","","","","","","","","","","","","","","","","","","","","","",""
"1264","","<div style=""width:500px;"">
  <p>What best describes how you currently feel?</p>
  </div>","59","html-slider-response","77","845470","0.0-7.0-4.12","181","1","2025-08-06 10:55:52","36c45c0696341be0efffe67d72a12abb","197.248.117.175","Mozilla/5.0 (Windows NT 10.0; Win64; x64) AppleWebKit/537.36 (KHTML, like Gecko) Chrome/138.0.0.0 Safari/537.36","WebKit","Chrome","138.0.0.0","Windows","10.0","https://app.prolific.com/","en-US,en;q=0.9","65fb13bebfa339f73b4cf76a","687a1a965b9f5b85a264363e","689334abdadc06b4fd2a55ab","1","65fb13bebfa339f73b4cf76a","1","2025-08-06T11:12:05.075Z","","","","MotivationQ","","","","","","","","","","","50","","","","","","","","","","","","","","","","","","","","","","","","","","",""
