"rt","response_timestamp","stimulus","response","trial_type","trial_index","time_elapsed","internal_node_id","run_id","condition","recorded_at","source_code_version","ip","user_agent","device","browser","browser_version","platform","platform_version","referer","accept_language","PROLIFIC_PID","STUDY_ID","SESSION_ID","BATCH","prolific_id","batch","realtime","success","question_order","question_id","eventType","responses","item_order","radio_event_ids","radio_event_times","key_event_times","mouse_event_times","straightlining","zigzagging","honeypot","view_history","slider_start","which_type","canvas_config","goals_layout","control_level","trial_number","tutorial_trial_number","trial_start_time","phase1_start_time","phase2_start_time","phase3_start_time","goal_1_value","goal_1_distance","goal_2_value","goal_2_distance","goal_selected","outcome","outcome_total","participant_final_score","participant_initial_score","participant_final_score_prop","goal_choice_rt","allocated_time","allocated_time_remaining","goal_direction","counts","mouse_movements","key_presses"
"7011","1754473532439","<p style='font-size:40px;line-height:1.25'><strong>Welcome to the experiment!</strong></p><p style='font-size:1.1em;line-height:1.25'>Thank you for participanting in our experiment again! You will be asked to play the Dysfunctional Ball Game again. We will briefly recap the rules before we start.</p><p style='font-size:1.1em;line-height:1.25'>Press <strong>Next</strong> to continue.</p>","0","custom-html-button-response","0","7018","0.0-0.0","170","1","2025-08-06 09:45:19","36c45c0696341be0efffe67d72a12abb","41.13.188.244","Mozilla/5.0 (Windows NT 10.0; Win64; x64) AppleWebKit/537.36 (KHTML, like Gecko) Chrome/138.0.0.0 Safari/537.36","WebKit","Chrome","138.0.0.0","Windows","10.0","https://app.prolific.com/","en-US,en;q=0.9","660eafee7515c432e850362d","687a1a965b9f5b85a264363e","68932385b43a7ea7a9be5136","1","660eafee7515c432e850362d","1","2025-08-06T09:45:32.441Z","","","","","","","","","","","","","","","","","","","","","","","","","","","","","","","","","","","","","","","","","",""
"9643","","","","fullscreen","1","17677","0.0-1.0","170","1","2025-08-06 09:45:19","36c45c0696341be0efffe67d72a12abb","41.13.188.244","Mozilla/5.0 (Windows NT 10.0; Win64; x64) AppleWebKit/537.36 (KHTML, like Gecko) Chrome/138.0.0.0 Safari/537.36","WebKit","Chrome","138.0.0.0","Windows","10.0","https://app.prolific.com/","en-US,en;q=0.9","660eafee7515c432e850362d","687a1a965b9f5b85a264363e","68932385b43a7ea7a9be5136","1","660eafee7515c432e850362d","1","","true","","","","","","","","","","","","","","","","","","","","","","","","","","","","","","","","","","","","","","","","",""
"2353","1754473545454"," <p style='font-size:1.1em;line-height:1.25'>Thank you for closing all other tabs.</p><p style='font-size:1.1em;line-height:1.25'>We will now invite you to fill in some questionnaires, before starting the game.<br>This will take about 5 minutes.<br></p><p style='font-size:1.1em;line-height:1.25'>Press the <strong>Next</strong> button to continue.</p>","0","custom-html-button-response","2","20032","0.0-2.0","170","1","2025-08-06 09:45:19","36c45c0696341be0efffe67d72a12abb","41.13.188.244","Mozilla/5.0 (Windows NT 10.0; Win64; x64) AppleWebKit/537.36 (KHTML, like Gecko) Chrome/138.0.0.0 Safari/537.36","WebKit","Chrome","138.0.0.0","Windows","10.0","https://app.prolific.com/","en-US,en;q=0.9","660eafee7515c432e850362d","687a1a965b9f5b85a264363e","68932385b43a7ea7a9be5136","1","660eafee7515c432e850362d","1","2025-08-06T09:45:45.456Z","","","","","","","","","","","","","","","","","","","","","","","","","","","","","","","","","","","","","","","","","",""
"3448","","","{""assigned_sex"":""female""}","survey-multi-choice","3","23486","0.0-3.0-0.0","170","1","2025-08-06 09:45:19","36c45c0696341be0efffe67d72a12abb","41.13.188.244","Mozilla/5.0 (Windows NT 10.0; Win64; x64) AppleWebKit/537.36 (KHTML, like Gecko) Chrome/138.0.0.0 Safari/537.36","WebKit","Chrome","138.0.0.0","Windows","10.0","https://app.prolific.com/","en-US,en;q=0.9","660eafee7515c432e850362d","687a1a965b9f5b85a264363e","68932385b43a7ea7a9be5136","1","660eafee7515c432e850362d","1","","","[0]","0","demographics","","","","","","","","","","","","","","","","","","","","","","","","","","","","","","","","","","","","","",""
"2402","1754473551314","<p style='font-size:1.1em;line-height:1.25'>In the following, we will perform a baseline assessment. This means that we will ask you a few questions relating to your experiences over the past month.<br></p><p style='font-size:1.1em;line-height:1.25'>Press the <strong>Next</strong> button to continue.</p>","0","custom-html-button-response","4","25892","0.0-4.0-0.0","170","1","2025-08-06 09:45:19","36c45c0696341be0efffe67d72a12abb","41.13.188.244","Mozilla/5.0 (Windows NT 10.0; Win64; x64) AppleWebKit/537.36 (KHTML, like Gecko) Chrome/138.0.0.0 Safari/537.36","WebKit","Chrome","138.0.0.0","Windows","10.0","https://app.prolific.com/","en-US,en;q=0.9","660eafee7515c432e850362d","687a1a965b9f5b85a264363e","68932385b43a7ea7a9be5136","1","660eafee7515c432e850362d","1","2025-08-06T09:45:51.315Z","","","","","","","","","","","","","","","","","","","","","","","","","","","","","","","","","","","","","","","","","",""
"54848.5","","","","survey-template","5","80748","0.0-4.0-1.0","170","1","2025-08-06 09:45:19","36c45c0696341be0efffe67d72a12abb","41.13.188.244","Mozilla/5.0 (Windows NT 10.0; Win64; x64) AppleWebKit/537.36 (KHTML, like Gecko) Chrome/138.0.0.0 Safari/537.36","WebKit","Chrome","138.0.0.0","Windows","10.0","https://app.prolific.com/","en-US,en;q=0.9","660eafee7515c432e850362d","687a1a965b9f5b85a264363e","68932385b43a7ea7a9be5136","1","660eafee7515c432e850362d","1","2025-08-06T09:46:46.171Z","","","","pss","{""Q01"":""3"",""Q02"":""3"",""Q03"":""3"",""Q04"":""0"",""Q05"":""1"",""Q06"":""2"",""Q07"":""2"",""Q08"":""1"",""Q09"":""2"",""Q10"":""2""}","[0,1,2,3,4,5,6,7,8,9]","[""Q01"",""Q02"",""Q03"",""Q04"",""Q05"",""Q06"",""Q06"",""Q07"",""Q08"",""Q09"",""Q10""]","[23431.40000000596,25058.5,27934.29999998212,32870.40000000596,35564.09999999404,38874.79999998212,40060.59999999404,43009.40000000596,48232.59999999404,51405.69999998808,53216.5]","[]","[0.29999998211860657,23431.40000000596,25058.5,27934.29999998212,32870.40000000596,35564.09999999404,38874.79999998212,40060.59999999404,43009.40000000596,45813.79999998212,48232.59999999404,51405.69999998808,53216.5,54843.40000000596]","0.5","0.5555555555555556","0","","","","","","","","","","","","","","","","","","","","","","","","","","","","",""
"3673","1754473609847","<p style='font-size:1.1em;line-height:1.25'>Thank you for your answers! Now we will ask you a few more questions relating to your feelings in the last 24 hours.<br></p><p style='font-size:1.1em;line-height:1.25'>Press the <strong>Next</strong> button to continue.</p>","0","custom-html-button-response","6","84425","0.0-4.0-2.0","170","1","2025-08-06 09:45:19","36c45c0696341be0efffe67d72a12abb","41.13.188.244","Mozilla/5.0 (Windows NT 10.0; Win64; x64) AppleWebKit/537.36 (KHTML, like Gecko) Chrome/138.0.0.0 Safari/537.36","WebKit","Chrome","138.0.0.0","Windows","10.0","https://app.prolific.com/","en-US,en;q=0.9","660eafee7515c432e850362d","687a1a965b9f5b85a264363e","68932385b43a7ea7a9be5136","1","660eafee7515c432e850362d","1","2025-08-06T09:46:49.848Z","","","","","","","","","","","","","","","","","","","","","","","","","","","","","","","","","","","","","","","","","",""
"62310.39999997616","","","","survey-template","7","146745","0.0-4.0-3.0","170","1","2025-08-06 09:45:19","36c45c0696341be0efffe67d72a12abb","41.13.188.244","Mozilla/5.0 (Windows NT 10.0; Win64; x64) AppleWebKit/537.36 (KHTML, like Gecko) Chrome/138.0.0.0 Safari/537.36","WebKit","Chrome","138.0.0.0","Windows","10.0","https://app.prolific.com/","en-US,en;q=0.9","660eafee7515c432e850362d","687a1a965b9f5b85a264363e","68932385b43a7ea7a9be5136","1","660eafee7515c432e850362d","1","2025-08-06T09:47:52.169Z","","","","drsp","{""Q01"":""3"",""Q02"":""3"",""Q03"":""2"",""Q04"":""2"",""Q05"":""2"",""Q06"":""2"",""Q07"":""2"",""Q08"":""2"",""Q09"":""3"",""Q10"":""2"",""Q11"":""2"",""Q12"":""3"",""Q13"":""5"",""Q14"":""4"",""Q15"":""3"",""Q16"":""3"",""Q17"":""3"",""Q18"":""2"",""Q19"":""1"",""Q20"":""2"",""Q21"":""2"",""Q22"":""2""}","[0,1,2,3,4,5,6,7,8,9,10,11,12,13,14,15,16,17,18,19,20,21]","[""Q01"",""Q02"",""Q03"",""Q04"",""Q05"",""Q06"",""Q07"",""Q08"",""Q09"",""Q10"",""Q11"",""Q12"",""Q13"",""Q14"",""Q15"",""Q17"",""Q16"",""Q19"",""Q18"",""Q20"",""Q21"",""Q22""]","[7356.199999988079,9099.899999976158,10070.399999976158,11082.59999999404,12265.799999982119,13342,19576.5,21053.79999998212,25873.59999999404,34022.39999997616,35247.69999998808,37471,41670.29999998212,44923.79999998212,45458.29999998212,48145.5,49101.59999999404,53512.19999998808,55193.39999997616,57343.29999998212,58434,61371.69999998808]","[]","[0.19999998807907104,7356.199999988079,9099.899999976158,10070.399999976158,11082.59999999404,12265.799999982119,13342,18113,19576.5,21053.79999998212,23272.399999976158,24360.19999998808,25873.59999999404,34022.39999997616,35247.69999998808,37471,40437.69999998808,41670.29999998212,44923.79999998212,45458.29999998212,47247.09999999404,48145.5,49101.59999999404,50300.5,53512.19999998808,54309.79999998212,55193.39999997616,57343.29999998212,58434,61371.69999998808,62292.19999998808]","0.5454545454545454","0.42857142857142855","0","","","","","","","","","","","","","","","","","","","","","","","","","","","","",""
"12756.199999988079","","","","survey-template","8","159509","0.0-4.0-4.0","170","1","2025-08-06 09:45:19","36c45c0696341be0efffe67d72a12abb","41.13.188.244","Mozilla/5.0 (Windows NT 10.0; Win64; x64) AppleWebKit/537.36 (KHTML, like Gecko) Chrome/138.0.0.0 Safari/537.36","WebKit","Chrome","138.0.0.0","Windows","10.0","https://app.prolific.com/","en-US,en;q=0.9","660eafee7515c432e850362d","687a1a965b9f5b85a264363e","68932385b43a7ea7a9be5136","1","660eafee7515c432e850362d","1","2025-08-06T09:48:04.932Z","","","","stress","{""Q01"":""3"",""Q02"":""2"",""Q03"":""2""}","[0,1,2]","[""Q01"",""Q02"",""Q03""]","[4780.299999982119,8657.699999988079,11795.09999999404]","[]","[4780.299999982119,8657.699999988079,11795.09999999404,12752.59999999404]","0.6666666666666666","0.5","0","","","","","","","","","","","","","","","","","","","","","","","","","","","","",""
"3449","","","","instructions","9","162961","0.0-5.0-0.0","170","1","2025-08-06 09:45:19","36c45c0696341be0efffe67d72a12abb","41.13.188.244","Mozilla/5.0 (Windows NT 10.0; Win64; x64) AppleWebKit/537.36 (KHTML, like Gecko) Chrome/138.0.0.0 Safari/537.36","WebKit","Chrome","138.0.0.0","Windows","10.0","https://app.prolific.com/","en-US,en;q=0.9","660eafee7515c432e850362d","687a1a965b9f5b85a264363e","68932385b43a7ea7a9be5136","1","660eafee7515c432e850362d","1","","","","","","","","","","","","","","","[{""page_index"":0,""viewing_time"":3448}]","","","","","","","","","","","","","","","","","","","","","","","","","","","",""
"4553","","<p>Before you start with this game please answer the following three questions yourself. </p>
  <p>Through this game, we measure several aspects of your cognitive performance, such as reaction times, multi-tasking capabilities </p>
  <p>and the ability to assess the situation you are in.</p>
  <p></p>
  <p><b>How good do you usually are in such tasks?</b></p>","88","html-slider-response","10","167524","0.0-6.0-0.0","170","1","2025-08-06 09:45:19","36c45c0696341be0efffe67d72a12abb","41.13.188.244","Mozilla/5.0 (Windows NT 10.0; Win64; x64) AppleWebKit/537.36 (KHTML, like Gecko) Chrome/138.0.0.0 Safari/537.36","WebKit","Chrome","138.0.0.0","Windows","10.0","https://app.prolific.com/","en-US,en;q=0.9","660eafee7515c432e850362d","687a1a965b9f5b85a264363e","68932385b43a7ea7a9be5136","1","660eafee7515c432e850362d","1","2025-08-06T09:48:12.947Z","","","","PreSkillQ","","","","","","","","","","","50","","","","","","","","","","","","","","","","","","","","","","","","","","",""
"10152","","<div style=""width:500px;"">
  <p>How well do you think you will perform in this task compared to other participants?</p>
  </div>","81","html-slider-response","11","177679","0.0-6.0-1.0","170","1","2025-08-06 09:45:19","36c45c0696341be0efffe67d72a12abb","41.13.188.244","Mozilla/5.0 (Windows NT 10.0; Win64; x64) AppleWebKit/537.36 (KHTML, like Gecko) Chrome/138.0.0.0 Safari/537.36","WebKit","Chrome","138.0.0.0","Windows","10.0","https://app.prolific.com/","en-US,en;q=0.9","660eafee7515c432e850362d","687a1a965b9f5b85a264363e","68932385b43a7ea7a9be5136","1","660eafee7515c432e850362d","1","2025-08-06T09:48:23.102Z","","","","PrePerfQ","","","","","","","","","","","50","","","","","","","","","","","","","","","","","","","","","","","","","","",""
"2806","","<div style=""width:500px;"">
  <p>What best describes how you currently feel?</p>
  </div>","87","html-slider-response","12","180489","0.0-6.0-2.0","170","1","2025-08-06 09:45:19","36c45c0696341be0efffe67d72a12abb","41.13.188.244","Mozilla/5.0 (Windows NT 10.0; Win64; x64) AppleWebKit/537.36 (KHTML, like Gecko) Chrome/138.0.0.0 Safari/537.36","WebKit","Chrome","138.0.0.0","Windows","10.0","https://app.prolific.com/","en-US,en;q=0.9","660eafee7515c432e850362d","687a1a965b9f5b85a264363e","68932385b43a7ea7a9be5136","1","660eafee7515c432e850362d","1","2025-08-06T09:48:25.912Z","","","","PreMotivationQ","","","","","","","","","","","50","","","","","","","","","","","","","","","","","","","","","","","","","","",""
"","","","","ctl-task-cpt","13","215784","0.0-7.0-0.0","170","1","2025-08-06 09:45:19","36c45c0696341be0efffe67d72a12abb","41.13.188.244","Mozilla/5.0 (Windows NT 10.0; Win64; x64) AppleWebKit/537.36 (KHTML, like Gecko) Chrome/138.0.0.0 Safari/537.36","WebKit","Chrome","138.0.0.0","Windows","10.0","https://app.prolific.com/","en-US,en;q=0.9","660eafee7515c432e850362d","687a1a965b9f5b85a264363e","68932385b43a7ea7a9be5136","1","660eafee7515c432e850362d","1","2025-08-06T09:49:01.207Z","","","","","","","","","","","","","","","","win-only","3","g1:SW,g2:NE","1","1","0","188346.8","6107.3","11113.1","32259.7","1","4","4","6","2","4","2","2","0","0.015151515151515152","1570.6","3000","1245","[""up"",""right""]","{""num_key_presses"":7,""num_perfect"":5,""num_errors"":2,""num_randdir"":0,""num_randdir_good_moves"":0,""num_whilered"":0,""num_whileblue"":1,""num_blue"":1,""num_good_moves"":6}","[294.22232142857143,300.12857142857143,3.5,294.22232142857143,300.12857142857143,111.6,294.22232142857143,300.12857142857143,218.4,294.22232142857143,300.12857142857143,320.1,275.22232142857143,307.12857142857143,429.5,261.22232142857143,314.12857142857143,538.4,261.22232142857143,314.12857142857143,644.9,270.22232142857143,309.12857142857143,745.2,527.2223214285714,7.128571428571426,855,590.2223214285714,-65.87142857142857,959.3,590.2223214285714,-65.87142857142857,1064.4,654.2223214285714,-3.8714285714285737,1172.2,608.2223214285714,30.128571428571426,1276.4,565.2223214285714,53.128571428571426,1382.5,538.2223214285714,59.128571428571426,1485,538.2223214285714,59.128571428571426,1600,537.2223214285714,60.128571428571426,1703.3,537.2223214285714,60.128571428571426,1807.9,537.2223214285714,60.128571428571426,1909.5,537.2223214285714,60.128571428571426,2010,537.2223214285714,60.128571428571426,2113.3,537.2223214285714,60.128571428571426,2214,537.2223214285714,60.128571428571426,2314.5,537.2223214285714,60.128571428571426,2414.5,537.2223214285714,60.128571428571426,2514.9,537.2223214285714,60.128571428571426,2623.2,537.2223214285714,60.128571428571426,2726,537.2223214285714,60.128571428571426,2831.1,537.2223214285714,60.128571428571426,2935.6,537.2223214285714,60.128571428571426,3037.6,537.2223214285714,60.128571428571426,3142,537.2223214285714,60.128571428571426,3243.5,537.2223214285714,60.128571428571426,3346,537.2223214285714,60.128571428571426,3446.4,537.2223214285714,60.128571428571426,3549.3,537.2223214285714,60.128571428571426,3655.6,537.2223214285714,60.128571428571426,3761.7,537.2223214285714,60.128571428571426,3862.6,537.2223214285714,60.128571428571426,3969.4,537.2223214285714,60.128571428571426,4075.2,537.2223214285714,60.128571428571426,4175.9,537.2223214285714,60.128571428571426,4279.5,537.2223214285714,60.128571428571426,4387,537.2223214285714,60.128571428571426,4491.2,537.2223214285714,60.128571428571426,4591.4,537.2223214285714,60.128571428571426,4695.3,537.2223214285714,60.128571428571426,4801.9,537.2223214285714,60.128571428571426,4905.1]","[922.2,922.2,1000,0,-77.8,""error"",""-"",""-"",""no_move"",4752.7,3828.6,2337.5,1930.8,484.4,""smooth"",""up"",""up"",""good_move"",7736.9,2983,2550.2,4753.9,432.8,""smooth"",""right"",""right"",""good_move"",10848.9,3110.2,2780,7738.8,330.2,""smooth"",""up"",""up"",""good_move"",13841.6,2991.6,2063.1,10850,928.5,""smooth"",""right"",""right"",""good_move"",17184.2,3340.9,2988.1,13843.3,352.8,""smooth"",""up"",""up"",""good_move"",21035,3849.8,3504.6,17185.3,345.1,""while_blue"",""right"",""right"",""good_move""]"
"6627","","<div style=""width:500px;"">
  <p>What determined the result of this run?</p>
  </div>","96","html-slider-response","14","222414","0.0-7.0-1.0","170","1","2025-08-06 09:45:19","36c45c0696341be0efffe67d72a12abb","41.13.188.244","Mozilla/5.0 (Windows NT 10.0; Win64; x64) AppleWebKit/537.36 (KHTML, like Gecko) Chrome/138.0.0.0 Safari/537.36","WebKit","Chrome","138.0.0.0","Windows","10.0","https://app.prolific.com/","en-US,en;q=0.9","660eafee7515c432e850362d","687a1a965b9f5b85a264363e","68932385b43a7ea7a9be5136","1","660eafee7515c432e850362d","1","2025-08-06T09:49:07.837Z","","","","AttribQ","","","","","","","","","","","50","","","","","","","","","","","","","","","","","","","","","","","","","","",""
"3685","","<div style=""width:500px;"">
  <p>How much control did you have over the ball?</p>
  </div>","90","html-slider-response","15","226102","0.0-7.0-2.0","170","1","2025-08-06 09:45:19","36c45c0696341be0efffe67d72a12abb","41.13.188.244","Mozilla/5.0 (Windows NT 10.0; Win64; x64) AppleWebKit/537.36 (KHTML, like Gecko) Chrome/138.0.0.0 Safari/537.36","WebKit","Chrome","138.0.0.0","Windows","10.0","https://app.prolific.com/","en-US,en;q=0.9","660eafee7515c432e850362d","687a1a965b9f5b85a264363e","68932385b43a7ea7a9be5136","1","660eafee7515c432e850362d","1","2025-08-06T09:49:11.525Z","","","","ControlQ","","","","","","","","","","","50","","","","","","","","","","","","","","","","","","","","","","","","","","",""
"3466","","<div style=""width:500px;"">
  <p>How would you describe your current emotional state?</p>
  </div>","14","html-slider-response","16","229570","0.0-7.0-3.0","170","1","2025-08-06 09:45:19","36c45c0696341be0efffe67d72a12abb","41.13.188.244","Mozilla/5.0 (Windows NT 10.0; Win64; x64) AppleWebKit/537.36 (KHTML, like Gecko) Chrome/138.0.0.0 Safari/537.36","WebKit","Chrome","138.0.0.0","Windows","10.0","https://app.prolific.com/","en-US,en;q=0.9","660eafee7515c432e850362d","687a1a965b9f5b85a264363e","68932385b43a7ea7a9be5136","1","660eafee7515c432e850362d","1","2025-08-06T09:49:14.994Z","","","","StressQ","","","","","","","","","","","50","","","","","","","","","","","","","","","","","","","","","","","","","","",""
"4453","","<div style=""width:500px;"">
  <p>What best describes how you currently feel?</p>
  </div>","92","html-slider-response","17","234025","0.0-7.0-4.0","170","1","2025-08-06 09:45:19","36c45c0696341be0efffe67d72a12abb","41.13.188.244","Mozilla/5.0 (Windows NT 10.0; Win64; x64) AppleWebKit/537.36 (KHTML, like Gecko) Chrome/138.0.0.0 Safari/537.36","WebKit","Chrome","138.0.0.0","Windows","10.0","https://app.prolific.com/","en-US,en;q=0.9","660eafee7515c432e850362d","687a1a965b9f5b85a264363e","68932385b43a7ea7a9be5136","1","660eafee7515c432e850362d","1","2025-08-06T09:49:19.449Z","","","","MotivationQ","","","","","","","","","","","50","","","","","","","","","","","","","","","","","","","","","","","","","","",""
"","","","","ctl-task-cpt","18","274796","0.0-7.0-0.1","170","1","2025-08-06 09:45:19","36c45c0696341be0efffe67d72a12abb","41.13.188.244","Mozilla/5.0 (Windows NT 10.0; Win64; x64) AppleWebKit/537.36 (KHTML, like Gecko) Chrome/138.0.0.0 Safari/537.36","WebKit","Chrome","138.0.0.0","Windows","10.0","https://app.prolific.com/","en-US,en;q=0.9","660eafee7515c432e850362d","687a1a965b9f5b85a264363e","68932385b43a7ea7a9be5136","1","660eafee7515c432e850362d","1","2025-08-06T09:50:00.219Z","","","","","","","","","","","","","","","","win-only","1","g1:NE,g2:SW","0.9","2","0","241855.7","2884.3","7889.9","37760.8","1","4","8","6","2","8","7","9","2","0.06818181818181818","1533.3","3000","315","[""down"",""left""]","{""num_key_presses"":8,""num_perfect"":7,""num_errors"":1,""num_randdir"":0,""num_randdir_good_moves"":0,""num_whilered"":0,""num_whileblue"":1,""num_blue"":3,""num_good_moves"":7}","[296.22232142857143,298.12857142857143,0.9,296.22232142857143,298.12857142857143,103.2,296.22232142857143,298.12857142857143,207.8,296.22232142857143,298.12857142857143,316.1,296.22232142857143,298.12857142857143,417.2,296.22232142857143,298.12857142857143,518.3,291.22232142857143,301.12857142857143,626.7,75.22232142857143,483.12857142857143,734.2,52.222321428571426,504.12857142857143,839.5,52.222321428571426,504.12857142857143,942.6,51.222321428571426,508.12857142857143,1050.1,45.222321428571426,525.1285714285714,1155.6,44.222321428571426,531.1285714285714,1266.1,44.222321428571426,531.1285714285714,1368.4,44.222321428571426,531.1285714285714,1472.3,44.222321428571426,531.1285714285714,1582.2,44.222321428571426,531.1285714285714,1683.9,44.222321428571426,531.1285714285714,1792.4,44.222321428571426,531.1285714285714,1892.9,44.222321428571426,531.1285714285714,1997.3,44.222321428571426,531.1285714285714,2099.3,44.222321428571426,531.1285714285714,2204.9,44.222321428571426,531.1285714285714,2311.1,44.222321428571426,531.1285714285714,2416,44.222321428571426,531.1285714285714,2517.9,44.222321428571426,531.1285714285714,2624.6,44.222321428571426,531.1285714285714,2733,44.222321428571426,531.1285714285714,2833,44.222321428571426,531.1285714285714,2935.9,44.222321428571426,531.1285714285714,3038.1,44.222321428571426,531.1285714285714,3141.5,44.222321428571426,531.1285714285714,3248.1,44.222321428571426,531.1285714285714,3350.4,44.222321428571426,531.1285714285714,3452,44.222321428571426,531.1285714285714,3556.3,44.222321428571426,531.1285714285714,3656.8,44.222321428571426,531.1285714285714,3759.9,44.222321428571426,531.1285714285714,3866,44.222321428571426,531.1285714285714,3972.2,44.222321428571426,531.1285714285714,4082.4,44.222321428571426,531.1285714285714,4183,44.222321428571426,531.1285714285714,4285.7,44.222321428571426,531.1285714285714,4386.4,44.222321428571426,531.1285714285714,4490.5,44.222321428571426,531.1285714285714,4599.6,44.222321428571426,531.1285714285714,4706.8,44.222321428571426,531.1285714285714,4807.7,44.222321428571426,531.1285714285714,4915.6]","[1413,1413.1,1000,0,413.1,""smooth"",""left"",""left"",""good_move"",4640.7,3226.7,2851.8,1414,374.9,""smooth"",""left"",""left"",""good_move"",7463.1,2821.4,2395.1,4641.7,426.3,""smooth"",""down"",""down"",""good_move"",10442.4,2978.1,2689.3,7464.3,288.8,""while_blue"",""down"",""right"",""bad_move"",13357.9,2914.1,2410.7,10443.9,503.3,""smooth"",""down"",""down"",""good_move"",20694,7335.3,2663.9,17447,583.1,""smooth"",""left"",""left"",""good_move"",22976.4,2281.9,1574.9,20694.5,707,""smooth"",""left"",""left"",""good_move"",29744,6766.5,2909,26199,636,""smooth"",""down"",""down"",""good_move""]"
"4227","","<div style=""width:500px;"">
  <p>What determined the result of this run?</p>
  </div>","82","html-slider-response","19","279027","0.0-7.0-1.1","170","1","2025-08-06 09:45:19","36c45c0696341be0efffe67d72a12abb","41.13.188.244","Mozilla/5.0 (Windows NT 10.0; Win64; x64) AppleWebKit/537.36 (KHTML, like Gecko) Chrome/138.0.0.0 Safari/537.36","WebKit","Chrome","138.0.0.0","Windows","10.0","https://app.prolific.com/","en-US,en;q=0.9","660eafee7515c432e850362d","687a1a965b9f5b85a264363e","68932385b43a7ea7a9be5136","1","660eafee7515c432e850362d","1","2025-08-06T09:50:04.450Z","","","","AttribQ","","","","","","","","","","","50","","","","","","","","","","","","","","","","","","","","","","","","","","",""
"2743","","<div style=""width:500px;"">
  <p>How much control did you have over the ball?</p>
  </div>","85","html-slider-response","20","281774","0.0-7.0-2.1","170","1","2025-08-06 09:45:19","36c45c0696341be0efffe67d72a12abb","41.13.188.244","Mozilla/5.0 (Windows NT 10.0; Win64; x64) AppleWebKit/537.36 (KHTML, like Gecko) Chrome/138.0.0.0 Safari/537.36","WebKit","Chrome","138.0.0.0","Windows","10.0","https://app.prolific.com/","en-US,en;q=0.9","660eafee7515c432e850362d","687a1a965b9f5b85a264363e","68932385b43a7ea7a9be5136","1","660eafee7515c432e850362d","1","2025-08-06T09:50:07.197Z","","","","ControlQ","","","","","","","","","","","50","","","","","","","","","","","","","","","","","","","","","","","","","","",""
"2416","","<div style=""width:500px;"">
  <p>How would you describe your current emotional state?</p>
  </div>","17","html-slider-response","21","284193","0.0-7.0-3.1","170","1","2025-08-06 09:45:19","36c45c0696341be0efffe67d72a12abb","41.13.188.244","Mozilla/5.0 (Windows NT 10.0; Win64; x64) AppleWebKit/537.36 (KHTML, like Gecko) Chrome/138.0.0.0 Safari/537.36","WebKit","Chrome","138.0.0.0","Windows","10.0","https://app.prolific.com/","en-US,en;q=0.9","660eafee7515c432e850362d","687a1a965b9f5b85a264363e","68932385b43a7ea7a9be5136","1","660eafee7515c432e850362d","1","2025-08-06T09:50:09.616Z","","","","StressQ","","","","","","","","","","","50","","","","","","","","","","","","","","","","","","","","","","","","","","",""
"2504","","<div style=""width:500px;"">
  <p>What best describes how you currently feel?</p>
  </div>","73","html-slider-response","22","286700","0.0-7.0-4.1","170","1","2025-08-06 09:45:19","36c45c0696341be0efffe67d72a12abb","41.13.188.244","Mozilla/5.0 (Windows NT 10.0; Win64; x64) AppleWebKit/537.36 (KHTML, like Gecko) Chrome/138.0.0.0 Safari/537.36","WebKit","Chrome","138.0.0.0","Windows","10.0","https://app.prolific.com/","en-US,en;q=0.9","660eafee7515c432e850362d","687a1a965b9f5b85a264363e","68932385b43a7ea7a9be5136","1","660eafee7515c432e850362d","1","2025-08-06T09:50:12.123Z","","","","MotivationQ","","","","","","","","","","","50","","","","","","","","","","","","","","","","","","","","","","","","","","",""
"","","","","ctl-task-cpt","23","321962","0.0-7.0-0.2","170","1","2025-08-06 09:45:19","36c45c0696341be0efffe67d72a12abb","41.13.188.244","Mozilla/5.0 (Windows NT 10.0; Win64; x64) AppleWebKit/537.36 (KHTML, like Gecko) Chrome/138.0.0.0 Safari/537.36","WebKit","Chrome","138.0.0.0","Windows","10.0","https://app.prolific.com/","en-US,en;q=0.9","660eafee7515c432e850362d","687a1a965b9f5b85a264363e","68932385b43a7ea7a9be5136","1","660eafee7515c432e850362d","1","2025-08-06T09:50:47.385Z","","","","","","","","","","","","","","","","win-only","2","g1:SE,g2:NW","0.8","3","0","294533.6","3485.2","8490.5","32243.1","1","4","8","6","2","-8","-8","1","9","0.007575757575757576","1288.1","3000","-2080","[""left"",""up""]","{""num_key_presses"":5,""num_perfect"":5,""num_errors"":0,""num_randdir"":0,""num_randdir_good_moves"":0,""num_whilered"":0,""num_whileblue"":0,""num_blue"":2,""num_good_moves"":5}","[295.22232142857143,301.12857142857143,1,295.22232142857143,301.12857142857143,105.8,295.22232142857143,301.12857142857143,207.6,295.22232142857143,301.12857142857143,309.4,257.22232142857143,291.12857142857143,414.6,246.22232142857143,295.12857142857143,516.5,213.22232142857143,286.12857142857143,616.5,-80.77767857142857,114.12857142857143,721.3,-103.77767857142857,102.12857142857143,821.5,-100.77767857142857,99.12857142857143,922.3,-25.777678571428574,97.12857142857143,1031.7,32.222321428571426,88.12857142857143,1136.4,33.222321428571426,88.12857142857143,1239.4,34.222321428571426,88.12857142857143,1345.8,34.222321428571426,88.12857142857143,1453.6,34.222321428571426,88.12857142857143,1555.8,33.222321428571426,92.12857142857143,1664,33.222321428571426,92.12857142857143,1764.7,33.222321428571426,92.12857142857143,1868.1,33.222321428571426,92.12857142857143,1971.7,33.222321428571426,92.12857142857143,2080.8,33.222321428571426,92.12857142857143,2181.1,33.222321428571426,92.12857142857143,2281.3,33.222321428571426,92.12857142857143,2388.9,33.222321428571426,92.12857142857143,2496.6,33.222321428571426,92.12857142857143,2598.1,33.222321428571426,92.12857142857143,2704,33.222321428571426,92.12857142857143,2807.8,33.222321428571426,92.12857142857143,2907.8,33.222321428571426,92.12857142857143,3016.4,33.222321428571426,92.12857142857143,3122.1,33.222321428571426,92.12857142857143,3231.1,33.222321428571426,92.12857142857143,3337.5,33.222321428571426,92.12857142857143,3445.9,33.222321428571426,92.12857142857143,3547.7,33.222321428571426,92.12857142857143,3647.7,33.222321428571426,92.12857142857143,3748.6,33.222321428571426,92.12857142857143,3854.9,33.222321428571426,92.12857142857143,3957.7,33.222321428571426,92.12857142857143,4065.1,33.222321428571426,92.12857142857143,4165.4,33.222321428571426,92.12857142857143,4266.3,33.222321428571426,92.12857142857143,4366.5,33.222321428571426,92.12857142857143,4470.8,33.222321428571426,92.12857142857143,4577.7,33.222321428571426,92.12857142857143,4679.4,33.222321428571426,92.12857142857143,4782.1,33.222321428571426,92.12857142857143,4893.3,33.222321428571426,92.12857142857143,4994.3]","[1967.8,1967.8,1000,0,967.8,""smooth"",""up"",""up"",""good_move"",4323.2,2354.5,1988.7,1968.8,365.8,""smooth"",""left"",""left"",""good_move"",7500.8,3173.3,2779.7,4327.6,393.6,""smooth"",""up"",""up"",""good_move"",14133.1,6630.9,2393.4,10966.5,773.2,""smooth"",""up"",""up"",""good_move"",20567.4,6433.6,2184.9,17896.5,486,""smooth"",""left"",""left"",""good_move""]"
"71902","","<div style=""width:500px;"">
  <p>What determined the result of this run?</p>
  </div>","84","html-slider-response","24","393867","0.0-7.0-1.2","170","1","2025-08-06 09:45:19","36c45c0696341be0efffe67d72a12abb","41.13.188.244","Mozilla/5.0 (Windows NT 10.0; Win64; x64) AppleWebKit/537.36 (KHTML, like Gecko) Chrome/138.0.0.0 Safari/537.36","WebKit","Chrome","138.0.0.0","Windows","10.0","https://app.prolific.com/","en-US,en;q=0.9","660eafee7515c432e850362d","687a1a965b9f5b85a264363e","68932385b43a7ea7a9be5136","1","660eafee7515c432e850362d","1","2025-08-06T09:51:59.290Z","","","","AttribQ","","","","","","","","","","","50","","","","","","","","","","","","","","","","","","","","","","","","","","",""
"3634","","<div style=""width:500px;"">
  <p>How much control did you have over the ball?</p>
  </div>","78","html-slider-response","25","397504","0.0-7.0-2.2","170","1","2025-08-06 09:45:19","36c45c0696341be0efffe67d72a12abb","41.13.188.244","Mozilla/5.0 (Windows NT 10.0; Win64; x64) AppleWebKit/537.36 (KHTML, like Gecko) Chrome/138.0.0.0 Safari/537.36","WebKit","Chrome","138.0.0.0","Windows","10.0","https://app.prolific.com/","en-US,en;q=0.9","660eafee7515c432e850362d","687a1a965b9f5b85a264363e","68932385b43a7ea7a9be5136","1","660eafee7515c432e850362d","1","2025-08-06T09:52:02.927Z","","","","ControlQ","","","","","","","","","","","50","","","","","","","","","","","","","","","","","","","","","","","","","","",""
"3192","","<div style=""width:500px;"">
  <p>How would you describe your current emotional state?</p>
  </div>","22","html-slider-response","26","400700","0.0-7.0-3.2","170","1","2025-08-06 09:45:19","36c45c0696341be0efffe67d72a12abb","41.13.188.244","Mozilla/5.0 (Windows NT 10.0; Win64; x64) AppleWebKit/537.36 (KHTML, like Gecko) Chrome/138.0.0.0 Safari/537.36","WebKit","Chrome","138.0.0.0","Windows","10.0","https://app.prolific.com/","en-US,en;q=0.9","660eafee7515c432e850362d","687a1a965b9f5b85a264363e","68932385b43a7ea7a9be5136","1","660eafee7515c432e850362d","1","2025-08-06T09:52:06.124Z","","","","StressQ","","","","","","","","","","","50","","","","","","","","","","","","","","","","","","","","","","","","","","",""
"2173","","<div style=""width:500px;"">
  <p>What best describes how you currently feel?</p>
  </div>","83","html-slider-response","27","402877","0.0-7.0-4.2","170","1","2025-08-06 09:45:19","36c45c0696341be0efffe67d72a12abb","41.13.188.244","Mozilla/5.0 (Windows NT 10.0; Win64; x64) AppleWebKit/537.36 (KHTML, like Gecko) Chrome/138.0.0.0 Safari/537.36","WebKit","Chrome","138.0.0.0","Windows","10.0","https://app.prolific.com/","en-US,en;q=0.9","660eafee7515c432e850362d","687a1a965b9f5b85a264363e","68932385b43a7ea7a9be5136","1","660eafee7515c432e850362d","1","2025-08-06T09:52:08.300Z","","","","MotivationQ","","","","","","","","","","","50","","","","","","","","","","","","","","","","","","","","","","","","","","",""
"","","","","ctl-task-cpt","28","423076","0.0-7.0-0.3","170","1","2025-08-06 09:45:19","36c45c0696341be0efffe67d72a12abb","41.13.188.244","Mozilla/5.0 (Windows NT 10.0; Win64; x64) AppleWebKit/537.36 (KHTML, like Gecko) Chrome/138.0.0.0 Safari/537.36","WebKit","Chrome","138.0.0.0","Windows","10.0","https://app.prolific.com/","en-US,en;q=0.9","660eafee7515c432e850362d","687a1a965b9f5b85a264363e","68932385b43a7ea7a9be5136","1","660eafee7515c432e850362d","1","2025-08-06T09:52:28.499Z","","","","","","","","","","","","","","","","win-only","2","g1:SE,g2:NW","0.7","4","0","410711.6","1240.2","6245.5","17185.7","1","4","4","6","2","-4","-4","0","1","0","862.7","3000","-2090","[""left"",""up""]","{""num_key_presses"":2,""num_perfect"":2,""num_errors"":0,""num_randdir"":0,""num_randdir_good_moves"":0,""num_whilered"":0,""num_whileblue"":0,""num_blue"":0,""num_good_moves"":2}","[297.22232142857143,302.12857142857143,0.6,297.22232142857143,302.12857142857143,103.2,297.22232142857143,302.12857142857143,209.4,284.22232142857143,292.12857142857143,311.6,48.222321428571426,145.12857142857143,422.8,15.222321428571426,102.12857142857143,527.3,13.222321428571426,96.12857142857143,627.9,51.222321428571426,86.12857142857143,738.7,51.222321428571426,83.12857142857143,842.9,51.222321428571426,83.12857142857143,943.7,51.222321428571426,82.12857142857143,1043.7,51.222321428571426,82.12857142857143,1158.2,51.222321428571426,82.12857142857143,1265.4,51.222321428571426,82.12857142857143,1366,51.222321428571426,82.12857142857143,1472.9,51.222321428571426,82.12857142857143,1581.5,51.222321428571426,82.12857142857143,1682.1,51.222321428571426,82.12857142857143,1794.2,51.222321428571426,82.12857142857143,1911.8,51.222321428571426,82.12857142857143,2017.2,51.222321428571426,82.12857142857143,2120.4,51.222321428571426,82.12857142857143,2221.2,51.222321428571426,82.12857142857143,2332,51.222321428571426,82.12857142857143,2433.3,51.222321428571426,82.12857142857143,2534.8,51.222321428571426,82.12857142857143,2638.3,51.222321428571426,82.12857142857143,2741.1,51.222321428571426,82.12857142857143,2859.7,51.222321428571426,82.12857142857143,2960.4,51.222321428571426,82.12857142857143,3064.4,51.222321428571426,82.12857142857143,3165.3,51.222321428571426,82.12857142857143,3266.1,51.222321428571426,82.12857142857143,3372.3,51.222321428571426,82.12857142857143,3476.1,51.222321428571426,82.12857142857143,3576.9,51.222321428571426,82.12857142857143,3680.2,51.222321428571426,82.12857142857143,3783.2,51.222321428571426,82.12857142857143,3893.5,51.222321428571426,82.12857142857143,3996.6,51.222321428571426,82.12857142857143,4096.6,51.222321428571426,82.12857142857143,4198.6,51.222321428571426,82.12857142857143,4301.7,51.222321428571426,82.12857142857143,4405.6,51.222321428571426,82.12857142857143,4507.5,51.222321428571426,82.12857142857143,4610.4,51.222321428571426,82.12857142857143,4710.8,51.222321428571426,82.12857142857143,4817.1,51.222321428571426,82.12857142857143,4924.5]","[1501.5,1501.5,1000,0,501.5,""smooth"",""up"",""up"",""good_move"",5405.7,3903.1,3359.2,1502.6,544,""smooth"",""left"",""left"",""good_move""]"
"7094","","<div style=""width:500px;"">
  <p>What determined the result of this run?</p>
  </div>","73","html-slider-response","29","430173","0.0-7.0-1.3","170","1","2025-08-06 09:45:19","36c45c0696341be0efffe67d72a12abb","41.13.188.244","Mozilla/5.0 (Windows NT 10.0; Win64; x64) AppleWebKit/537.36 (KHTML, like Gecko) Chrome/138.0.0.0 Safari/537.36","WebKit","Chrome","138.0.0.0","Windows","10.0","https://app.prolific.com/","en-US,en;q=0.9","660eafee7515c432e850362d","687a1a965b9f5b85a264363e","68932385b43a7ea7a9be5136","1","660eafee7515c432e850362d","1","2025-08-06T09:52:35.596Z","","","","AttribQ","","","","","","","","","","","50","","","","","","","","","","","","","","","","","","","","","","","","","","",""
"3805","","<div style=""width:500px;"">
  <p>How much control did you have over the ball?</p>
  </div>","70","html-slider-response","30","433981","0.0-7.0-2.3","170","1","2025-08-06 09:45:19","36c45c0696341be0efffe67d72a12abb","41.13.188.244","Mozilla/5.0 (Windows NT 10.0; Win64; x64) AppleWebKit/537.36 (KHTML, like Gecko) Chrome/138.0.0.0 Safari/537.36","WebKit","Chrome","138.0.0.0","Windows","10.0","https://app.prolific.com/","en-US,en;q=0.9","660eafee7515c432e850362d","687a1a965b9f5b85a264363e","68932385b43a7ea7a9be5136","1","660eafee7515c432e850362d","1","2025-08-06T09:52:39.404Z","","","","ControlQ","","","","","","","","","","","50","","","","","","","","","","","","","","","","","","","","","","","","","","",""
"4097","","<div style=""width:500px;"">
  <p>How would you describe your current emotional state?</p>
  </div>","21","html-slider-response","31","438081","0.0-7.0-3.3","170","1","2025-08-06 09:45:19","36c45c0696341be0efffe67d72a12abb","41.13.188.244","Mozilla/5.0 (Windows NT 10.0; Win64; x64) AppleWebKit/537.36 (KHTML, like Gecko) Chrome/138.0.0.0 Safari/537.36","WebKit","Chrome","138.0.0.0","Windows","10.0","https://app.prolific.com/","en-US,en;q=0.9","660eafee7515c432e850362d","687a1a965b9f5b85a264363e","68932385b43a7ea7a9be5136","1","660eafee7515c432e850362d","1","2025-08-06T09:52:43.504Z","","","","StressQ","","","","","","","","","","","50","","","","","","","","","","","","","","","","","","","","","","","","","","",""
"3362","","<div style=""width:500px;"">
  <p>What best describes how you currently feel?</p>
  </div>","75","html-slider-response","32","441445","0.0-7.0-4.3","170","1","2025-08-06 09:45:19","36c45c0696341be0efffe67d72a12abb","41.13.188.244","Mozilla/5.0 (Windows NT 10.0; Win64; x64) AppleWebKit/537.36 (KHTML, like Gecko) Chrome/138.0.0.0 Safari/537.36","WebKit","Chrome","138.0.0.0","Windows","10.0","https://app.prolific.com/","en-US,en;q=0.9","660eafee7515c432e850362d","687a1a965b9f5b85a264363e","68932385b43a7ea7a9be5136","1","660eafee7515c432e850362d","1","2025-08-06T09:52:46.869Z","","","","MotivationQ","","","","","","","","","","","50","","","","","","","","","","","","","","","","","","","","","","","","","","",""
"","","","","ctl-task-cpt","33","481314","0.0-7.0-0.4","170","1","2025-08-06 09:45:19","36c45c0696341be0efffe67d72a12abb","41.13.188.244","Mozilla/5.0 (Windows NT 10.0; Win64; x64) AppleWebKit/537.36 (KHTML, like Gecko) Chrome/138.0.0.0 Safari/537.36","WebKit","Chrome","138.0.0.0","Windows","10.0","https://app.prolific.com/","en-US,en;q=0.9","660eafee7515c432e850362d","687a1a965b9f5b85a264363e","68932385b43a7ea7a9be5136","1","660eafee7515c432e850362d","1","2025-08-06T09:53:26.737Z","","","","","","","","","","","","","","","","win-only","3","g1:SW,g2:NE","0.6","5","0","449277.2","1800.1","6811.2","36860.2","1","4","4","6","2","4","4","4","0","0.030303030303030304","1541.3","3000","285","[""up"",""right""]","{""num_key_presses"":8,""num_perfect"":5,""num_errors"":0,""num_randdir"":3,""num_randdir_good_moves"":2,""num_whilered"":0,""num_whileblue"":0,""num_blue"":3,""num_good_moves"":7}","[295.22232142857143,298.12857142857143,0.6,295.22232142857143,298.12857142857143,100.8,295.22232142857143,298.12857142857143,204.3,295.22232142857143,298.12857142857143,314.6,295.22232142857143,298.12857142857143,423.1,295.22232142857143,298.12857142857143,528.5,292.22232142857143,295.12857142857143,631.4,292.22232142857143,295.12857142857143,743.2,294.22232142857143,292.12857142857143,845.1,320.22232142857143,194.12857142857143,948.1,345.22232142857143,141.12857142857143,1054.3,422.22232142857143,104.12857142857143,1154.7,482.22232142857143,94.12857142857143,1256.9,519.2223214285714,79.12857142857143,1365.1,520.2223214285714,78.12857142857143,1469.7,521.2223214285714,73.12857142857143,1571.9,521.2223214285714,73.12857142857143,1682.3,521.2223214285714,73.12857142857143,1790.6,513.2223214285714,72.12857142857143,1901,495.22232142857143,78.12857142857143,2006.9,495.22232142857143,78.12857142857143,2107.7,495.22232142857143,78.12857142857143,2208.1,495.22232142857143,78.12857142857143,2318.8,494.22232142857143,78.12857142857143,2422.9,494.22232142857143,78.12857142857143,2526.7,494.22232142857143,78.12857142857143,2636.2,494.22232142857143,78.12857142857143,2743.6,494.22232142857143,78.12857142857143,2848,494.22232142857143,78.12857142857143,2948,494.22232142857143,78.12857142857143,3059.3,494.22232142857143,78.12857142857143,3160.9,494.22232142857143,78.12857142857143,3261.1,494.22232142857143,78.12857142857143,3366.2,494.22232142857143,78.12857142857143,3467.2,494.22232142857143,78.12857142857143,3573.8,494.22232142857143,78.12857142857143,3676.8,494.22232142857143,78.12857142857143,3788.2,494.22232142857143,78.12857142857143,3890.2,494.22232142857143,78.12857142857143,3992.4,494.22232142857143,78.12857142857143,4098.3,494.22232142857143,78.12857142857143,4202.2,494.22232142857143,78.12857142857143,4308.7,494.22232142857143,78.12857142857143,4410.9,494.22232142857143,78.12857142857143,4511.2,494.22232142857143,78.12857142857143,4612.3,494.22232142857143,78.12857142857143,4722.3,494.22232142857143,78.12857142857143,4826.6,494.22232142857143,78.12857142857143,4935.2]","[1549.2,1549.1,1000,0.1,549.1,""smooth"",""up"",""up"",""good_move"",4972.2,3417.3,2850.6,1554.9,566.7,""smooth"",""right"",""right"",""good_move"",7514.2,2540.8,1730.9,4973.4,809.9,""smooth"",""up"",""up"",""good_move"",10138.8,2623.3,2241.5,7515.5,381.8,""oops"",""right"",""right"",""good_move"",12490.5,2350.6,1941.4,10139.9,409.2,""smooth"",""up"",""up"",""good_move"",18206.2,5714.8,2207.7,15606.8,391.7,""oops"",""right"",""left"",""bad_move"",27455.6,9248.8,2137.1,24659.2,659.4,""smooth"",""right"",""right"",""good_move"",29907.2,2450.7,1893.6,27456.5,557.1,""oops"",""right"",""right"",""good_move""]"
"4348","","<div style=""width:500px;"">
  <p>What determined the result of this run?</p>
  </div>","83","html-slider-response","34","485665","0.0-7.0-1.4","170","1","2025-08-06 09:45:19","36c45c0696341be0efffe67d72a12abb","41.13.188.244","Mozilla/5.0 (Windows NT 10.0; Win64; x64) AppleWebKit/537.36 (KHTML, like Gecko) Chrome/138.0.0.0 Safari/537.36","WebKit","Chrome","138.0.0.0","Windows","10.0","https://app.prolific.com/","en-US,en;q=0.9","660eafee7515c432e850362d","687a1a965b9f5b85a264363e","68932385b43a7ea7a9be5136","1","660eafee7515c432e850362d","1","2025-08-06T09:53:31.088Z","","","","AttribQ","","","","","","","","","","","50","","","","","","","","","","","","","","","","","","","","","","","","","","",""
"2143","","<div style=""width:500px;"">
  <p>How much control did you have over the ball?</p>
  </div>","87","html-slider-response","35","487811","0.0-7.0-2.4","170","1","2025-08-06 09:45:19","36c45c0696341be0efffe67d72a12abb","41.13.188.244","Mozilla/5.0 (Windows NT 10.0; Win64; x64) AppleWebKit/537.36 (KHTML, like Gecko) Chrome/138.0.0.0 Safari/537.36","WebKit","Chrome","138.0.0.0","Windows","10.0","https://app.prolific.com/","en-US,en;q=0.9","660eafee7515c432e850362d","687a1a965b9f5b85a264363e","68932385b43a7ea7a9be5136","1","660eafee7515c432e850362d","1","2025-08-06T09:53:33.234Z","","","","ControlQ","","","","","","","","","","","50","","","","","","","","","","","","","","","","","","","","","","","","","","",""
"2832","","<div style=""width:500px;"">
  <p>How would you describe your current emotional state?</p>
  </div>","15","html-slider-response","36","490645","0.0-7.0-3.4","170","1","2025-08-06 09:45:19","36c45c0696341be0efffe67d72a12abb","41.13.188.244","Mozilla/5.0 (Windows NT 10.0; Win64; x64) AppleWebKit/537.36 (KHTML, like Gecko) Chrome/138.0.0.0 Safari/537.36","WebKit","Chrome","138.0.0.0","Windows","10.0","https://app.prolific.com/","en-US,en;q=0.9","660eafee7515c432e850362d","687a1a965b9f5b85a264363e","68932385b43a7ea7a9be5136","1","660eafee7515c432e850362d","1","2025-08-06T09:53:36.068Z","","","","StressQ","","","","","","","","","","","50","","","","","","","","","","","","","","","","","","","","","","","","","","",""
"3585","","<div style=""width:500px;"">
  <p>What best describes how you currently feel?</p>
  </div>","76","html-slider-response","37","494233","0.0-7.0-4.4","170","1","2025-08-06 09:45:19","36c45c0696341be0efffe67d72a12abb","41.13.188.244","Mozilla/5.0 (Windows NT 10.0; Win64; x64) AppleWebKit/537.36 (KHTML, like Gecko) Chrome/138.0.0.0 Safari/537.36","WebKit","Chrome","138.0.0.0","Windows","10.0","https://app.prolific.com/","en-US,en;q=0.9","660eafee7515c432e850362d","687a1a965b9f5b85a264363e","68932385b43a7ea7a9be5136","1","660eafee7515c432e850362d","1","2025-08-06T09:53:39.656Z","","","","MotivationQ","","","","","","","","","","","50","","","","","","","","","","","","","","","","","","","","","","","","","","",""
"","","","","ctl-task-cpt","38","534085","0.0-7.0-0.5","170","1","2025-08-06 09:45:19","36c45c0696341be0efffe67d72a12abb","41.13.188.244","Mozilla/5.0 (Windows NT 10.0; Win64; x64) AppleWebKit/537.36 (KHTML, like Gecko) Chrome/138.0.0.0 Safari/537.36","WebKit","Chrome","138.0.0.0","Windows","10.0","https://app.prolific.com/","en-US,en;q=0.9","660eafee7515c432e850362d","687a1a965b9f5b85a264363e","68932385b43a7ea7a9be5136","1","660eafee7515c432e850362d","1","2025-08-06T09:54:19.508Z","","","","","","","","","","","","","","","","win-only","2","g1:SE,g2:NW","0.5","6","0","502064.6","1870.5","6874.7","36834.1","1","4","8","6","2","8","8","12","4","0.09090909090909091","1459.6","3000","340","[""left"",""up""]","{""num_key_presses"":8,""num_perfect"":4,""num_errors"":0,""num_randdir"":4,""num_randdir_good_moves"":3,""num_whilered"":0,""num_whileblue"":0,""num_blue"":2,""num_good_moves"":7}","[294.22232142857143,296.12857142857143,1.4,294.22232142857143,296.12857142857143,100.2,294.22232142857143,296.12857142857143,209.4,294.22232142857143,296.12857142857143,312.1,293.22232142857143,296.12857142857143,416.7,263.22232142857143,268.12857142857143,517.3,216.22232142857143,194.12857142857143,627.7,202.22232142857143,174.12857142857143,734.5,163.22232142857143,141.12857142857143,849.7,129.22232142857143,126.12857142857143,967.6,97.22232142857143,112.12857142857143,1078.3,77.22232142857143,91.12857142857143,1193,74.22232142857143,89.12857142857143,1293.4,74.22232142857143,89.12857142857143,1395.6,74.22232142857143,89.12857142857143,1510.7,74.22232142857143,89.12857142857143,1611.5,74.22232142857143,89.12857142857143,1717.2,78.22232142857143,87.12857142857143,1821.7,76.22232142857143,90.12857142857143,1925.5,76.22232142857143,91.12857142857143,2028.3,76.22232142857143,91.12857142857143,2147.8,76.22232142857143,91.12857142857143,2251.3,75.22232142857143,91.12857142857143,2353.4,75.22232142857143,90.12857142857143,2456.6,73.22232142857143,90.12857142857143,2563.8,71.22232142857143,89.12857142857143,2679.6,71.22232142857143,89.12857142857143,2782.2,71.22232142857143,89.12857142857143,2883.8,70.22232142857143,89.12857142857143,2987.3,70.22232142857143,89.12857142857143,3089.1,68.22232142857143,89.12857142857143,3191.4,68.22232142857143,89.12857142857143,3295,68.22232142857143,89.12857142857143,3409.9,68.22232142857143,89.12857142857143,3519,67.22232142857143,89.12857142857143,3628.1,67.22232142857143,89.12857142857143,3734,65.22232142857143,89.12857142857143,3836.3,64.22232142857143,89.12857142857143,3946.9,63.222321428571426,89.12857142857143,4050.7,62.222321428571426,89.12857142857143,4164.5,63.222321428571426,89.12857142857143,4268.3,64.22232142857143,89.12857142857143,4370.1,64.22232142857143,89.12857142857143,4471.3,64.22232142857143,89.12857142857143,4576.7,64.22232142857143,89.12857142857143,4677,65.22232142857143,89.12857142857143,4781.5,65.22232142857143,89.12857142857143,4881.7,67.22232142857143,89.12857142857143,4995.8]","[1405.6,1405.6,1000,0,405.6,""oops"",""up"",""up"",""good_move"",4665,3258.4,2630.1,1406.6,628.3,""oops"",""left"",""right"",""bad_move"",10905,6238.8,2156.5,8136.8,611.7,""smooth"",""left"",""left"",""good_move"",16873.3,5967.5,2060.4,14227.7,585.2,""smooth"",""left"",""left"",""good_move"",19107.7,2233.8,1693.3,16873.9,540.5,""smooth"",""up"",""up"",""good_move"",23203.3,4094.6,3473,19108.8,621.6,""oops"",""left"",""up"",""good_move"",26956.6,3752.4,3302.9,23204.3,449.4,""smooth"",""left"",""left"",""good_move"",29802.4,2844,2433.1,26958.4,411,""oops"",""left"",""left"",""good_move""]"
"4737","","<div style=""width:500px;"">
  <p>What determined the result of this run?</p>
  </div>","92","html-slider-response","39","538825","0.0-7.0-1.5","170","1","2025-08-06 09:45:19","36c45c0696341be0efffe67d72a12abb","41.13.188.244","Mozilla/5.0 (Windows NT 10.0; Win64; x64) AppleWebKit/537.36 (KHTML, like Gecko) Chrome/138.0.0.0 Safari/537.36","WebKit","Chrome","138.0.0.0","Windows","10.0","https://app.prolific.com/","en-US,en;q=0.9","660eafee7515c432e850362d","687a1a965b9f5b85a264363e","68932385b43a7ea7a9be5136","1","660eafee7515c432e850362d","1","2025-08-06T09:54:24.248Z","","","","AttribQ","","","","","","","","","","","50","","","","","","","","","","","","","","","","","","","","","","","","","","",""
"2622","","<div style=""width:500px;"">
  <p>How much control did you have over the ball?</p>
  </div>","78","html-slider-response","40","541449","0.0-7.0-2.5","170","1","2025-08-06 09:45:19","36c45c0696341be0efffe67d72a12abb","41.13.188.244","Mozilla/5.0 (Windows NT 10.0; Win64; x64) AppleWebKit/537.36 (KHTML, like Gecko) Chrome/138.0.0.0 Safari/537.36","WebKit","Chrome","138.0.0.0","Windows","10.0","https://app.prolific.com/","en-US,en;q=0.9","660eafee7515c432e850362d","687a1a965b9f5b85a264363e","68932385b43a7ea7a9be5136","1","660eafee7515c432e850362d","1","2025-08-06T09:54:26.872Z","","","","ControlQ","","","","","","","","","","","50","","","","","","","","","","","","","","","","","","","","","","","","","","",""
"3497","","<div style=""width:500px;"">
  <p>How would you describe your current emotional state?</p>
  </div>","26","html-slider-response","41","544949","0.0-7.0-3.5","170","1","2025-08-06 09:45:19","36c45c0696341be0efffe67d72a12abb","41.13.188.244","Mozilla/5.0 (Windows NT 10.0; Win64; x64) AppleWebKit/537.36 (KHTML, like Gecko) Chrome/138.0.0.0 Safari/537.36","WebKit","Chrome","138.0.0.0","Windows","10.0","https://app.prolific.com/","en-US,en;q=0.9","660eafee7515c432e850362d","687a1a965b9f5b85a264363e","68932385b43a7ea7a9be5136","1","660eafee7515c432e850362d","1","2025-08-06T09:54:30.372Z","","","","StressQ","","","","","","","","","","","50","","","","","","","","","","","","","","","","","","","","","","","","","","",""
"2891","","<div style=""width:500px;"">
  <p>What best describes how you currently feel?</p>
  </div>","87","html-slider-response","42","547843","0.0-7.0-4.5","170","1","2025-08-06 09:45:19","36c45c0696341be0efffe67d72a12abb","41.13.188.244","Mozilla/5.0 (Windows NT 10.0; Win64; x64) AppleWebKit/537.36 (KHTML, like Gecko) Chrome/138.0.0.0 Safari/537.36","WebKit","Chrome","138.0.0.0","Windows","10.0","https://app.prolific.com/","en-US,en;q=0.9","660eafee7515c432e850362d","687a1a965b9f5b85a264363e","68932385b43a7ea7a9be5136","1","660eafee7515c432e850362d","1","2025-08-06T09:54:33.266Z","","","","MotivationQ","","","","","","","","","","","50","","","","","","","","","","","","","","","","","","","","","","","","","","",""
"","","","","ctl-task-cpt","43","588340","0.0-7.0-0.6","170","1","2025-08-06 09:45:19","36c45c0696341be0efffe67d72a12abb","41.13.188.244","Mozilla/5.0 (Windows NT 10.0; Win64; x64) AppleWebKit/537.36 (KHTML, like Gecko) Chrome/138.0.0.0 Safari/537.36","WebKit","Chrome","138.0.0.0","Windows","10.0","https://app.prolific.com/","en-US,en;q=0.9","660eafee7515c432e850362d","687a1a965b9f5b85a264363e","68932385b43a7ea7a9be5136","1","660eafee7515c432e850362d","1","2025-08-06T09:55:13.763Z","","","","","","","","","","","","","","","","win-only","2","g1:SE,g2:NW","0.4","7","0","555674.8","3004.1","8007.9","37467.9","1","4","4","6","2","-4","-4","8","12","0.06060606060606061","1492.2","3000","-1830","[""left"",""up""]","{""num_key_presses"":7,""num_perfect"":1,""num_errors"":0,""num_randdir"":6,""num_randdir_good_moves"":4,""num_whilered"":0,""num_whileblue"":0,""num_blue"":2,""num_good_moves"":5}","[296.22232142857143,295.12857142857143,1.1,296.22232142857143,295.12857142857143,102.8,296.22232142857143,295.12857142857143,221.9,296.22232142857143,295.12857142857143,322.7,287.22232142857143,286.12857142857143,427.9,244.22232142857143,245.12857142857143,534.9,192.22232142857143,198.12857142857143,641.2,133.22232142857143,163.12857142857143,741.4,91.22232142857143,143.12857142857143,848.8,81.22232142857143,129.12857142857143,958.6,61.222321428571426,105.12857142857143,1058.7,52.222321428571426,97.12857142857143,1161.9,50.222321428571426,96.12857142857143,1265,50.222321428571426,92.12857142857143,1375.9,48.222321428571426,90.12857142857143,1485.1,48.222321428571426,90.12857142857143,1585.7,48.222321428571426,90.12857142857143,1687,48.222321428571426,90.12857142857143,1803.3,53.222321428571426,97.12857142857143,1912.2,53.222321428571426,100.12857142857143,2018.3,53.222321428571426,100.12857142857143,2118.3,53.222321428571426,100.12857142857143,2223.3,53.222321428571426,100.12857142857143,2325.4,53.222321428571426,100.12857142857143,2439.3,53.222321428571426,100.12857142857143,2542.1,53.222321428571426,100.12857142857143,2648.4,53.222321428571426,100.12857142857143,2752.5,53.222321428571426,100.12857142857143,2868.2,53.222321428571426,100.12857142857143,2973.2,53.222321428571426,100.12857142857143,3080.5,53.222321428571426,100.12857142857143,3182.6,53.222321428571426,100.12857142857143,3283,53.222321428571426,100.12857142857143,3388.9,53.222321428571426,100.12857142857143,3489.5,53.222321428571426,100.12857142857143,3593.5,53.222321428571426,100.12857142857143,3699.5,53.222321428571426,100.12857142857143,3802.3,53.222321428571426,100.12857142857143,3912,53.222321428571426,100.12857142857143,4012.6,53.222321428571426,100.12857142857143,4113.7,53.222321428571426,100.12857142857143,4215.4,53.222321428571426,100.12857142857143,4329.3,53.222321428571426,100.12857142857143,4439.9,53.222321428571426,100.12857142857143,4547.3,53.222321428571426,100.12857142857143,4650.8,53.222321428571426,100.12857142857143,4756.5,53.222321428571426,100.12857142857143,4859.8,53.222321428571426,100.12857142857143,4964.1]","[4556.7,4556.7,2067.2,2010.3,479.2,""oops"",""up"",""up"",""good_move"",7155.7,2597.6,2144.9,4558.1,452.7,""smooth"",""left"",""left"",""good_move"",10781.8,3619.4,2999.7,7162.4,619.7,""oops"",""left"",""left"",""good_move"",16720.2,5937.4,2135.8,14131,453.4,""oops"",""up"",""right"",""bad_move"",20213.5,3492.2,2875.3,16721.3,616.9,""oops"",""up"",""up"",""good_move"",23045.2,2830.4,2400.1,20214.8,430.3,""oops"",""up"",""up"",""good_move"",26288.1,3241.8,2470.4,23046.3,771.4,""oops"",""left"",""right"",""bad_move""]"