"rt","response_timestamp","stimulus","response","trial_type","trial_index","time_elapsed","internal_node_id","run_id","condition","recorded_at","source_code_version","ip","user_agent","device","browser","browser_version","platform","platform_version","referer","accept_language","PROLIFIC_PID","STUDY_ID","SESSION_ID","BATCH","prolific_id","batch","realtime","success","question_order","question_id","eventType","responses","item_order","radio_event_ids","radio_event_times","key_event_times","mouse_event_times","straightlining","zigzagging","honeypot","view_history","slider_start","which_type","canvas_config","goals_layout","control_level","trial_number","tutorial_trial_number","trial_start_time","phase1_start_time","phase2_start_time","phase3_start_time","goal_1_value","goal_1_distance","goal_2_value","goal_2_distance","goal_selected","outcome","outcome_total","participant_final_score","participant_initial_score","participant_final_score_prop","goal_choice_rt","allocated_time","allocated_time_remaining","goal_direction","counts","mouse_movements","key_presses"
"164666","1754470495956","<p style='font-size:40px;line-height:1.25'><strong>Welcome to the experiment!</strong></p><p style='font-size:1.1em;line-height:1.25'>Thank you for participanting in our experiment again! You will be asked to play the Dysfunctional Ball Game again. We will briefly recap the rules before we start.</p><p style='font-size:1.1em;line-height:1.25'>Press <strong>Next</strong> to continue.</p>","0","custom-html-button-response","0","164669","0.0-0.0","136","1","2025-08-06 08:52:08","36c45c0696341be0efffe67d72a12abb","41.114.198.60","Mozilla/5.0 (Windows NT 10.0; Win64; x64) AppleWebKit/537.36 (KHTML, like Gecko) Chrome/138.0.0.0 Safari/537.36","WebKit","Chrome","138.0.0.0","Windows","10.0","https://app.prolific.com/","en-US,en;q=0.9","6612e7f231d13a67b8e758cc","6877649eabb845cf142cd221","689317abb3889c2e20a147f2","1","6612e7f231d13a67b8e758cc","1","2025-08-06T08:54:55.958Z","","","","","","","","","","","","","","","","","","","","","","","","","","","","","","","","","","","","","","","","","",""
"6030","","","","fullscreen","1","171718","0.0-1.0","136","1","2025-08-06 08:52:08","36c45c0696341be0efffe67d72a12abb","41.114.198.60","Mozilla/5.0 (Windows NT 10.0; Win64; x64) AppleWebKit/537.36 (KHTML, like Gecko) Chrome/138.0.0.0 Safari/537.36","WebKit","Chrome","138.0.0.0","Windows","10.0","https://app.prolific.com/","en-US,en;q=0.9","6612e7f231d13a67b8e758cc","6877649eabb845cf142cd221","689317abb3889c2e20a147f2","1","6612e7f231d13a67b8e758cc","1","","true","","","","","","","","","","","","","","","","","","","","","","","","","","","","","","","","","","","","","","","","",""
"86415","1754470589423"," <p style='font-size:1.1em;line-height:1.25'>Thank you for closing all other tabs.</p><p style='font-size:1.1em;line-height:1.25'>We will now invite you to fill in some questionnaires, before starting the game.<br>This will take about 5 minutes.<br></p><p style='font-size:1.1em;line-height:1.25'>Press the <strong>Next</strong> button to continue.</p>","0","custom-html-button-response","2","258135","0.0-2.0","136","1","2025-08-06 08:52:08","36c45c0696341be0efffe67d72a12abb","41.114.198.60","Mozilla/5.0 (Windows NT 10.0; Win64; x64) AppleWebKit/537.36 (KHTML, like Gecko) Chrome/138.0.0.0 Safari/537.36","WebKit","Chrome","138.0.0.0","Windows","10.0","https://app.prolific.com/","en-US,en;q=0.9","6612e7f231d13a67b8e758cc","6877649eabb845cf142cd221","689317abb3889c2e20a147f2","1","6612e7f231d13a67b8e758cc","1","2025-08-06T08:56:29.423Z","","","","","","","","","","","","","","","","","","","","","","","","","","","","","","","","","","","","","","","","","",""
"4898","","","{""assigned_sex"":""female""}","survey-multi-choice","3","263036","0.0-3.0-0.0","136","1","2025-08-06 08:52:08","36c45c0696341be0efffe67d72a12abb","41.114.198.60","Mozilla/5.0 (Windows NT 10.0; Win64; x64) AppleWebKit/537.36 (KHTML, like Gecko) Chrome/138.0.0.0 Safari/537.36","WebKit","Chrome","138.0.0.0","Windows","10.0","https://app.prolific.com/","en-US,en;q=0.9","6612e7f231d13a67b8e758cc","6877649eabb845cf142cd221","689317abb3889c2e20a147f2","1","6612e7f231d13a67b8e758cc","1","","","[0]","0","demographics","","","","","","","","","","","","","","","","","","","","","","","","","","","","","","","","","","","","","",""
"4882","1754470599206","<p style='font-size:1.1em;line-height:1.25'>In the following, we will perform a baseline assessment. This means that we will ask you a few questions relating to your experiences over the past month.<br></p><p style='font-size:1.1em;line-height:1.25'>Press the <strong>Next</strong> button to continue.</p>","0","custom-html-button-response","4","267919","0.0-4.0-0.0","136","1","2025-08-06 08:52:08","36c45c0696341be0efffe67d72a12abb","41.114.198.60","Mozilla/5.0 (Windows NT 10.0; Win64; x64) AppleWebKit/537.36 (KHTML, like Gecko) Chrome/138.0.0.0 Safari/537.36","WebKit","Chrome","138.0.0.0","Windows","10.0","https://app.prolific.com/","en-US,en;q=0.9","6612e7f231d13a67b8e758cc","6877649eabb845cf142cd221","689317abb3889c2e20a147f2","1","6612e7f231d13a67b8e758cc","1","2025-08-06T08:56:39.207Z","","","","","","","","","","","","","","","","","","","","","","","","","","","","","","","","","","","","","","","","","",""
"88600.30000007153","","","","survey-template","5","356523","0.0-4.0-1.0","136","1","2025-08-06 08:52:08","36c45c0696341be0efffe67d72a12abb","41.114.198.60","Mozilla/5.0 (Windows NT 10.0; Win64; x64) AppleWebKit/537.36 (KHTML, like Gecko) Chrome/138.0.0.0 Safari/537.36","WebKit","Chrome","138.0.0.0","Windows","10.0","https://app.prolific.com/","en-US,en;q=0.9","6612e7f231d13a67b8e758cc","6877649eabb845cf142cd221","689317abb3889c2e20a147f2","1","6612e7f231d13a67b8e758cc","1","2025-08-06T08:58:07.811Z","","","","pss","{""Q01"":""2"",""Q02"":""1"",""Q03"":""2"",""Q04"":""1"",""Q05"":""1"",""Q06"":""2"",""Q07"":""2"",""Q08"":""1"",""Q09"":""4"",""Q10"":""1""}","[0,1,2,3,4,5,6,7,8,9]","[""Q01"",""Q02"",""Q03"",""Q04"",""Q05"",""Q06"",""Q07"",""Q08"",""Q09"",""Q10""]","[15817.800000071526,27761.5,33562.40000009537,39399.300000071526,44599.60000002384,53672.40000009537,64146.90000009537,69263,76810.80000007153,87078.5]","[]","[0.10000002384185791,15817.800000071526,27761.5,33562.40000009537,39399.300000071526,44599.60000002384,53672.40000009537,64146.90000009537,69263,76810.80000007153,87078.5,88597]","0.4","0.6666666666666666","0","","","","","","","","","","","","","","","","","","","","","","","","","","","","",""
"9201","1754470697012","<p style='font-size:1.1em;line-height:1.25'>Thank you for your answers! Now we will ask you a few more questions relating to your feelings in the last 24 hours.<br></p><p style='font-size:1.1em;line-height:1.25'>Press the <strong>Next</strong> button to continue.</p>","0","custom-html-button-response","6","365725","0.0-4.0-2.0","136","1","2025-08-06 08:52:08","36c45c0696341be0efffe67d72a12abb","41.114.198.60","Mozilla/5.0 (Windows NT 10.0; Win64; x64) AppleWebKit/537.36 (KHTML, like Gecko) Chrome/138.0.0.0 Safari/537.36","WebKit","Chrome","138.0.0.0","Windows","10.0","https://app.prolific.com/","en-US,en;q=0.9","6612e7f231d13a67b8e758cc","6877649eabb845cf142cd221","689317abb3889c2e20a147f2","1","6612e7f231d13a67b8e758cc","1","2025-08-06T08:58:17.013Z","","","","","","","","","","","","","","","","","","","","","","","","","","","","","","","","","","","","","","","","","",""
"190745","","","","survey-template","7","556473","0.0-4.0-3.0","136","1","2025-08-06 08:52:08","36c45c0696341be0efffe67d72a12abb","41.114.198.60","Mozilla/5.0 (Windows NT 10.0; Win64; x64) AppleWebKit/537.36 (KHTML, like Gecko) Chrome/138.0.0.0 Safari/537.36","WebKit","Chrome","138.0.0.0","Windows","10.0","https://app.prolific.com/","en-US,en;q=0.9","6612e7f231d13a67b8e758cc","6877649eabb845cf142cd221","689317abb3889c2e20a147f2","1","6612e7f231d13a67b8e758cc","1","2025-08-06T09:01:27.761Z","","","","drsp","{""Q01"":""1"",""Q02"":""0"",""Q03"":""0"",""Q04"":""2"",""Q05"":""0"",""Q06"":""0"",""Q07"":""1"",""Q08"":""1"",""Q09"":""0"",""Q10"":""1"",""Q11"":""1"",""Q12"":""0"",""Q13"":""5"",""Q14"":""2"",""Q15"":""0"",""Q16"":""0"",""Q17"":""0"",""Q18"":""0"",""Q19"":""0"",""Q20"":""0"",""Q21"":""0"",""Q22"":""0""}","[0,1,2,3,4,5,6,7,8,9,10,11,12,13,14,15,16,17,18,19,20,21]","[""Q01"",""Q02"",""Q03"",""Q04"",""Q05"",""Q06"",""Q07"",""Q08"",""Q09"",""Q10"",""Q11"",""Q12"",""Q13"",""Q14"",""Q15"",""Q16"",""Q17"",""Q18"",""Q19"",""Q20"",""Q21"",""Q22""]","[56424.200000047684,63989.90000009537,67342.80000007153,71507.20000004768,79056.60000002384,91224.20000004768,97226.90000009537,107023,112958.20000004768,121272.70000004768,126105.5,134824.10000002384,136939.20000004768,142972.70000004768,147040.90000009537,149957.60000002384,168740.90000009537,170472.70000004768,175992,179421.5,184905.90000009537,188938.80000007153]","[]","[0.10000002384185791,56424.200000047684,63989.90000009537,67342.80000007153,71507.20000004768,77456.60000002384,79056.60000002384,91224.20000004768,97226.90000009537,107023,112958.20000004768,121272.70000004768,126105.5,134824.10000002384,136939.20000004768,142972.70000004768,147040.90000009537,149957.60000002384,168740.90000009537,170472.70000004768,175992,179421.5,184905.90000009537,188938.80000007153,190739.80000007153]","0.6363636363636364","0.2857142857142857","0","","","","","","","","","","","","","","","","","","","","","","","","","","","","",""
"23275.399999976158","","","","survey-template","8","579751","0.0-4.0-4.0","136","1","2025-08-06 08:52:08","36c45c0696341be0efffe67d72a12abb","41.114.198.60","Mozilla/5.0 (Windows NT 10.0; Win64; x64) AppleWebKit/537.36 (KHTML, like Gecko) Chrome/138.0.0.0 Safari/537.36","WebKit","Chrome","138.0.0.0","Windows","10.0","https://app.prolific.com/","en-US,en;q=0.9","6612e7f231d13a67b8e758cc","6877649eabb845cf142cd221","689317abb3889c2e20a147f2","1","6612e7f231d13a67b8e758cc","1","2025-08-06T09:01:51.039Z","","","","stress","{""Q01"":""0"",""Q02"":""2"",""Q03"":""0""}","[0,1,2]","[""Q01"",""Q02"",""Q03""]","[10259.200000047684,17225.100000023842,20624.700000047684]","[]","[10259.200000047684,17225.100000023842,20624.700000047684,23274.399999976158]","0.6666666666666666","0","0","","","","","","","","","","","","","","","","","","","","","","","","","","","","",""
"45063","","","","instructions","9","624816","0.0-5.0-0.0","136","1","2025-08-06 08:52:08","36c45c0696341be0efffe67d72a12abb","41.114.198.60","Mozilla/5.0 (Windows NT 10.0; Win64; x64) AppleWebKit/537.36 (KHTML, like Gecko) Chrome/138.0.0.0 Safari/537.36","WebKit","Chrome","138.0.0.0","Windows","10.0","https://app.prolific.com/","en-US,en;q=0.9","6612e7f231d13a67b8e758cc","6877649eabb845cf142cd221","689317abb3889c2e20a147f2","1","6612e7f231d13a67b8e758cc","1","","","","","","","","","","","","","","","[{""page_index"":0,""viewing_time"":45063}]","","","","","","","","","","","","","","","","","","","","","","","","","","","",""
"29432","","<p>Before you start with this game please answer the following three questions yourself. </p>
  <p>Through this game, we measure several aspects of your cognitive performance, such as reaction times, multi-tasking capabilities </p>
  <p>and the ability to assess the situation you are in.</p>
  <p></p>
  <p><b>How good do you usually are in such tasks?</b></p>","91","html-slider-response","10","654249","0.0-6.0-0.0","136","1","2025-08-06 08:52:08","36c45c0696341be0efffe67d72a12abb","41.114.198.60","Mozilla/5.0 (Windows NT 10.0; Win64; x64) AppleWebKit/537.36 (KHTML, like Gecko) Chrome/138.0.0.0 Safari/537.36","WebKit","Chrome","138.0.0.0","Windows","10.0","https://app.prolific.com/","en-US,en;q=0.9","6612e7f231d13a67b8e758cc","6877649eabb845cf142cd221","689317abb3889c2e20a147f2","1","6612e7f231d13a67b8e758cc","1","2025-08-06T09:03:05.537Z","","","","PreSkillQ","","","","","","","","","","","50","","","","","","","","","","","","","","","","","","","","","","","","","","",""
"14699","","<div style=""width:500px;"">
  <p>How well do you think you will perform in this task compared to other participants?</p>
  </div>","87","html-slider-response","11","668949","0.0-6.0-1.0","136","1","2025-08-06 08:52:08","36c45c0696341be0efffe67d72a12abb","41.114.198.60","Mozilla/5.0 (Windows NT 10.0; Win64; x64) AppleWebKit/537.36 (KHTML, like Gecko) Chrome/138.0.0.0 Safari/537.36","WebKit","Chrome","138.0.0.0","Windows","10.0","https://app.prolific.com/","en-US,en;q=0.9","6612e7f231d13a67b8e758cc","6877649eabb845cf142cd221","689317abb3889c2e20a147f2","1","6612e7f231d13a67b8e758cc","1","2025-08-06T09:03:20.237Z","","","","PrePerfQ","","","","","","","","","","","50","","","","","","","","","","","","","","","","","","","","","","","","","","",""
"9950","","<div style=""width:500px;"">
  <p>What best describes how you currently feel?</p>
  </div>","100","html-slider-response","12","678900","0.0-6.0-2.0","136","1","2025-08-06 08:52:08","36c45c0696341be0efffe67d72a12abb","41.114.198.60","Mozilla/5.0 (Windows NT 10.0; Win64; x64) AppleWebKit/537.36 (KHTML, like Gecko) Chrome/138.0.0.0 Safari/537.36","WebKit","Chrome","138.0.0.0","Windows","10.0","https://app.prolific.com/","en-US,en;q=0.9","6612e7f231d13a67b8e758cc","6877649eabb845cf142cd221","689317abb3889c2e20a147f2","1","6612e7f231d13a67b8e758cc","1","2025-08-06T09:03:30.188Z","","","","PreMotivationQ","","","","","","","","","","","50","","","","","","","","","","","","","","","","","","","","","","","","","","",""
"","","","","ctl-task-cpt","13","715275","0.0-7.0-0.0","136","1","2025-08-06 08:52:08","36c45c0696341be0efffe67d72a12abb","41.114.198.60","Mozilla/5.0 (Windows NT 10.0; Win64; x64) AppleWebKit/537.36 (KHTML, like Gecko) Chrome/138.0.0.0 Safari/537.36","WebKit","Chrome","138.0.0.0","Windows","10.0","https://app.prolific.com/","en-US,en;q=0.9","6612e7f231d13a67b8e758cc","6877649eabb845cf142cd221","689317abb3889c2e20a147f2","1","6612e7f231d13a67b8e758cc","1","2025-08-06T09:04:06.563Z","","","","","","","","","","","","","","","","win-only","3","g1:SW,g2:NE","1","1","0","682373.9","4800.9","9803.3","33369","1","4","4","6","2","4","4","4","0","0.030303030303030304","2084.8","3000","505","[""up"",""right""]","{""num_key_presses"":6,""num_perfect"":6,""num_errors"":0,""num_randdir"":0,""num_randdir_good_moves"":0,""num_whilered"":0,""num_whileblue"":0,""num_blue"":2,""num_good_moves"":6}","[299.22232142857143,301.12857142857143,0.5,299.22232142857143,301.12857142857143,102.4,299.22232142857143,301.12857142857143,204.8,299.22232142857143,301.12857142857143,305.7,299.22232142857143,301.12857142857143,410.1,299.22232142857143,301.12857142857143,511.4,299.22232142857143,301.12857142857143,615.3,303.22232142857143,296.12857142857143,715.8,377.22232142857143,195.12857142857143,820,442.22232142857143,110.12857142857143,920.1,474.22232142857143,70.12857142857143,1024.9,477.22232142857143,69.12857142857143,1130.3,480.22232142857143,69.12857142857143,1230.9,487.22232142857143,69.12857142857143,1332.5,493.22232142857143,76.12857142857143,1435.4,494.22232142857143,77.12857142857143,1537.2,494.22232142857143,77.12857142857143,1639.8,494.22232142857143,77.12857142857143,1740,494.22232142857143,77.12857142857143,1840.3,494.22232142857143,77.12857142857143,1944.6,494.22232142857143,77.12857142857143,2045.2,494.22232142857143,77.12857142857143,2145.3,494.22232142857143,77.12857142857143,2245.6,494.22232142857143,77.12857142857143,2346.2,494.22232142857143,77.12857142857143,2450.5,494.22232142857143,77.12857142857143,2555.5,494.22232142857143,77.12857142857143,2659.7,494.22232142857143,77.12857142857143,2759.8,494.22232142857143,77.12857142857143,2865.7,494.22232142857143,77.12857142857143,2969.7,494.22232142857143,77.12857142857143,3070.6,494.22232142857143,77.12857142857143,3175.2,494.22232142857143,77.12857142857143,3275.6,494.22232142857143,77.12857142857143,3375.6,492.22232142857143,77.12857142857143,3475.6,494.22232142857143,77.12857142857143,3580.2,494.22232142857143,77.12857142857143,3685.8,494.22232142857143,77.12857142857143,3790.2,494.22232142857143,77.12857142857143,3895.4,494.22232142857143,77.12857142857143,3996.4,494.22232142857143,77.12857142857143,4100.8,494.22232142857143,77.12857142857143,4204.8,494.22232142857143,77.12857142857143,4304.8,494.22232142857143,77.12857142857143,4405.7,494.22232142857143,77.12857142857143,4510.5,494.22232142857143,77.12857142857143,4615.4,494.22232142857143,77.12857142857143,4715.4,494.22232142857143,77.12857142857143,4815.5,494.22232142857143,77.12857142857143,4919.7]","[1584.4,1584.4,1000,0,584.4,""smooth"",""up"",""up"",""good_move"",4626.7,3042,2625,1584.8,416.9,""smooth"",""up"",""up"",""good_move"",8100.9,3473.9,3119.6,4627,354.3,""smooth"",""up"",""up"",""good_move"",13977.1,5875.8,1920.9,11637.4,418.9,""smooth"",""right"",""right"",""good_move"",20230.9,6252.8,2409.6,17415.2,406.1,""smooth"",""right"",""right"",""good_move"",23465.3,3234.1,2838.4,20231.2,395.7,""smooth"",""right"",""right"",""good_move""]"
"9528","","<div style=""width:500px;"">
  <p>What determined the result of this run?</p>
  </div>","100","html-slider-response","14","724805","0.0-7.0-1.0","136","1","2025-08-06 08:52:08","36c45c0696341be0efffe67d72a12abb","41.114.198.60","Mozilla/5.0 (Windows NT 10.0; Win64; x64) AppleWebKit/537.36 (KHTML, like Gecko) Chrome/138.0.0.0 Safari/537.36","WebKit","Chrome","138.0.0.0","Windows","10.0","https://app.prolific.com/","en-US,en;q=0.9","6612e7f231d13a67b8e758cc","6877649eabb845cf142cd221","689317abb3889c2e20a147f2","1","6612e7f231d13a67b8e758cc","1","2025-08-06T09:04:16.093Z","","","","AttribQ","","","","","","","","","","","50","","","","","","","","","","","","","","","","","","","","","","","","","","",""
"5584","","<div style=""width:500px;"">
  <p>How much control did you have over the ball?</p>
  </div>","99","html-slider-response","15","730390","0.0-7.0-2.0","136","1","2025-08-06 08:52:08","36c45c0696341be0efffe67d72a12abb","41.114.198.60","Mozilla/5.0 (Windows NT 10.0; Win64; x64) AppleWebKit/537.36 (KHTML, like Gecko) Chrome/138.0.0.0 Safari/537.36","WebKit","Chrome","138.0.0.0","Windows","10.0","https://app.prolific.com/","en-US,en;q=0.9","6612e7f231d13a67b8e758cc","6877649eabb845cf142cd221","689317abb3889c2e20a147f2","1","6612e7f231d13a67b8e758cc","1","2025-08-06T09:04:21.678Z","","","","ControlQ","","","","","","","","","","","50","","","","","","","","","","","","","","","","","","","","","","","","","","",""
"8196","","<div style=""width:500px;"">
  <p>How would you describe your current emotional state?</p>
  </div>","0","html-slider-response","16","738587","0.0-7.0-3.0","136","1","2025-08-06 08:52:08","36c45c0696341be0efffe67d72a12abb","41.114.198.60","Mozilla/5.0 (Windows NT 10.0; Win64; x64) AppleWebKit/537.36 (KHTML, like Gecko) Chrome/138.0.0.0 Safari/537.36","WebKit","Chrome","138.0.0.0","Windows","10.0","https://app.prolific.com/","en-US,en;q=0.9","6612e7f231d13a67b8e758cc","6877649eabb845cf142cd221","689317abb3889c2e20a147f2","1","6612e7f231d13a67b8e758cc","1","2025-08-06T09:04:29.875Z","","","","StressQ","","","","","","","","","","","50","","","","","","","","","","","","","","","","","","","","","","","","","","",""
"3194","","<div style=""width:500px;"">
  <p>What best describes how you currently feel?</p>
  </div>","100","html-slider-response","17","741782","0.0-7.0-4.0","136","1","2025-08-06 08:52:08","36c45c0696341be0efffe67d72a12abb","41.114.198.60","Mozilla/5.0 (Windows NT 10.0; Win64; x64) AppleWebKit/537.36 (KHTML, like Gecko) Chrome/138.0.0.0 Safari/537.36","WebKit","Chrome","138.0.0.0","Windows","10.0","https://app.prolific.com/","en-US,en;q=0.9","6612e7f231d13a67b8e758cc","6877649eabb845cf142cd221","689317abb3889c2e20a147f2","1","6612e7f231d13a67b8e758cc","1","2025-08-06T09:04:33.070Z","","","","MotivationQ","","","","","","","","","","","50","","","","","","","","","","","","","","","","","","","","","","","","","","",""
"","","","","ctl-task-cpt","18","787256","0.0-7.0-0.1","136","1","2025-08-06 08:52:08","36c45c0696341be0efffe67d72a12abb","41.114.198.60","Mozilla/5.0 (Windows NT 10.0; Win64; x64) AppleWebKit/537.36 (KHTML, like Gecko) Chrome/138.0.0.0 Safari/537.36","WebKit","Chrome","138.0.0.0","Windows","10.0","https://app.prolific.com/","en-US,en;q=0.9","6612e7f231d13a67b8e758cc","6877649eabb845cf142cd221","689317abb3889c2e20a147f2","1","6612e7f231d13a67b8e758cc","1","2025-08-06T09:05:18.544Z","","","","","","","","","","","","","","","","win-only","1","g1:NE,g2:SW","0.9","2","0","745254.4","1988.2","6991","42466.3","1","4","8","6","2","-8","-8","0","4","0","2281","3000","-2970","[""down"",""left""]","{""num_key_presses"":7,""num_perfect"":6,""num_errors"":0,""num_randdir"":1,""num_randdir_good_moves"":0,""num_whilered"":0,""num_whileblue"":0,""num_blue"":4,""num_good_moves"":6}","[298.22232142857143,299.12857142857143,0.2,298.22232142857143,299.12857142857143,102.4,298.22232142857143,299.12857142857143,203,298.22232142857143,299.12857142857143,303.2,298.22232142857143,299.12857142857143,403.5,298.22232142857143,299.12857142857143,507.8,298.22232142857143,299.12857142857143,609.1,298.22232142857143,299.12857142857143,714.9,226.22232142857143,351.12857142857143,820,26.222321428571426,570.1285714285714,924.2,-45.777678571428574,678.1285714285714,1031.1,-45.777678571428574,678.1285714285714,1133.5,-45.777678571428574,678.1285714285714,1238,-45.777678571428574,678.1285714285714,1338,-28.777678571428574,643.1285714285714,1442.9,-14.777678571428574,627.1285714285714,1543,-8.777678571428574,618.1285714285714,1651.8,7.222321428571426,579.1285714285714,1753.9,19.222321428571426,558.1285714285714,1858.8,26.222321428571426,549.1285714285714,1966.2,26.222321428571426,549.1285714285714,2068.5,26.222321428571426,549.1285714285714,2173.2,26.222321428571426,549.1285714285714,2282.3,26.222321428571426,549.1285714285714,2383.3,26.222321428571426,549.1285714285714,2484.5,26.222321428571426,549.1285714285714,2584.5,26.222321428571426,549.1285714285714,2688.5,26.222321428571426,549.1285714285714,2792.9,26.222321428571426,549.1285714285714,2893.3,26.222321428571426,549.1285714285714,2997.6,26.222321428571426,549.1285714285714,3099.5,26.222321428571426,549.1285714285714,3199.9,26.222321428571426,549.1285714285714,3302.6,26.222321428571426,549.1285714285714,3403,26.222321428571426,549.1285714285714,3508.3,26.222321428571426,549.1285714285714,3614.4,26.222321428571426,549.1285714285714,3718.8,26.222321428571426,549.1285714285714,3819.9,26.222321428571426,549.1285714285714,3922.5,26.222321428571426,549.1285714285714,4023.5,26.222321428571426,549.1285714285714,4127.7,26.222321428571426,549.1285714285714,4228,26.222321428571426,549.1285714285714,4333,26.222321428571426,549.1285714285714,4435,26.222321428571426,549.1285714285714,4537.2,26.222321428571426,549.1285714285714,4638.1,26.222321428571426,549.1285714285714,4739,26.222321428571426,549.1285714285714,4842.2,26.222321428571426,549.1285714285714,4943]","[4298.2,4298.2,1929.3,2005.8,363.1,""smooth"",""down"",""down"",""good_move"",11130.6,6831.9,2886.8,7811.3,432.5,""smooth"",""down"",""down"",""good_move"",14298.9,3168.1,2730.4,11130.8,437.7,""smooth"",""down"",""down"",""good_move"",16776,2476.9,2073.5,14299.1,403.4,""smooth"",""left"",""left"",""good_move"",26781.4,10003.8,2187.6,24100.1,493.7,""oops"",""left"",""up"",""bad_move"",30170.1,3388.3,2978.9,26781.8,409.4,""smooth"",""left"",""left"",""good_move"",33067.8,2897.5,2485.6,30170.3,411.9,""smooth"",""left"",""left"",""good_move""]"
"13324","","<div style=""width:500px;"">
  <p>What determined the result of this run?</p>
  </div>","35","html-slider-response","19","800581","0.0-7.0-1.1","136","1","2025-08-06 08:52:08","36c45c0696341be0efffe67d72a12abb","41.114.198.60","Mozilla/5.0 (Windows NT 10.0; Win64; x64) AppleWebKit/537.36 (KHTML, like Gecko) Chrome/138.0.0.0 Safari/537.36","WebKit","Chrome","138.0.0.0","Windows","10.0","https://app.prolific.com/","en-US,en;q=0.9","6612e7f231d13a67b8e758cc","6877649eabb845cf142cd221","689317abb3889c2e20a147f2","1","6612e7f231d13a67b8e758cc","1","2025-08-06T09:05:31.869Z","","","","AttribQ","","","","","","","","","","","50","","","","","","","","","","","","","","","","","","","","","","","","","","",""
"8849","","<div style=""width:500px;"">
  <p>How much control did you have over the ball?</p>
  </div>","15","html-slider-response","20","809432","0.0-7.0-2.1","136","1","2025-08-06 08:52:08","36c45c0696341be0efffe67d72a12abb","41.114.198.60","Mozilla/5.0 (Windows NT 10.0; Win64; x64) AppleWebKit/537.36 (KHTML, like Gecko) Chrome/138.0.0.0 Safari/537.36","WebKit","Chrome","138.0.0.0","Windows","10.0","https://app.prolific.com/","en-US,en;q=0.9","6612e7f231d13a67b8e758cc","6877649eabb845cf142cd221","689317abb3889c2e20a147f2","1","6612e7f231d13a67b8e758cc","1","2025-08-06T09:05:40.721Z","","","","ControlQ","","","","","","","","","","","50","","","","","","","","","","","","","","","","","","","","","","","","","","",""
"5660","","<div style=""width:500px;"">
  <p>How would you describe your current emotional state?</p>
  </div>","0","html-slider-response","21","815094","0.0-7.0-3.1","136","1","2025-08-06 08:52:08","36c45c0696341be0efffe67d72a12abb","41.114.198.60","Mozilla/5.0 (Windows NT 10.0; Win64; x64) AppleWebKit/537.36 (KHTML, like Gecko) Chrome/138.0.0.0 Safari/537.36","WebKit","Chrome","138.0.0.0","Windows","10.0","https://app.prolific.com/","en-US,en;q=0.9","6612e7f231d13a67b8e758cc","6877649eabb845cf142cd221","689317abb3889c2e20a147f2","1","6612e7f231d13a67b8e758cc","1","2025-08-06T09:05:46.383Z","","","","StressQ","","","","","","","","","","","50","","","","","","","","","","","","","","","","","","","","","","","","","","",""
"4381","","<div style=""width:500px;"">
  <p>What best describes how you currently feel?</p>
  </div>","100","html-slider-response","22","819477","0.0-7.0-4.1","136","1","2025-08-06 08:52:08","36c45c0696341be0efffe67d72a12abb","41.114.198.60","Mozilla/5.0 (Windows NT 10.0; Win64; x64) AppleWebKit/537.36 (KHTML, like Gecko) Chrome/138.0.0.0 Safari/537.36","WebKit","Chrome","138.0.0.0","Windows","10.0","https://app.prolific.com/","en-US,en;q=0.9","6612e7f231d13a67b8e758cc","6877649eabb845cf142cd221","689317abb3889c2e20a147f2","1","6612e7f231d13a67b8e758cc","1","2025-08-06T09:05:50.765Z","","","","MotivationQ","","","","","","","","","","","50","","","","","","","","","","","","","","","","","","","","","","","","","","",""
"","","","","ctl-task-cpt","23","853431","0.0-7.0-0.2","136","1","2025-08-06 08:52:08","36c45c0696341be0efffe67d72a12abb","41.114.198.60","Mozilla/5.0 (Windows NT 10.0; Win64; x64) AppleWebKit/537.36 (KHTML, like Gecko) Chrome/138.0.0.0 Safari/537.36","WebKit","Chrome","138.0.0.0","Windows","10.0","https://app.prolific.com/","en-US,en;q=0.9","6612e7f231d13a67b8e758cc","6877649eabb845cf142cd221","689317abb3889c2e20a147f2","1","6612e7f231d13a67b8e758cc","1","2025-08-06T09:06:24.719Z","","","","","","","","","","","","","","","","win-only","3","g1:SW,g2:NE","0.8","3","0","822949.1","3559.5","8562.2","30940.8","1","4","4","6","2","4","4","4","0","0.030303030303030304","1687.1","3000","85","[""up"",""right""]","{""num_key_presses"":8,""num_perfect"":7,""num_errors"":0,""num_randdir"":1,""num_randdir_good_moves"":0,""num_whilered"":0,""num_whileblue"":0,""num_blue"":0,""num_good_moves"":7}","[300.22232142857143,289.12857142857143,0.4,300.22232142857143,289.12857142857143,102.6,300.22232142857143,289.12857142857143,206.4,300.22232142857143,289.12857142857143,306.6,300.22232142857143,289.12857142857143,407.1,300.22232142857143,289.12857142857143,516.2,330.22232142857143,257.12857142857143,622,432.22232142857143,60.128571428571426,722.2,531.2223214285714,-77.87142857142857,823.1,531.2223214285714,-77.87142857142857,927.5,589.2223214285714,-67.87142857142857,1035.8,579.2223214285714,-15.871428571428574,1136.7,544.2223214285714,36.128571428571426,1236.7,535.2223214285714,47.128571428571426,1338.4,533.2223214285714,49.128571428571426,1441.9,533.2223214285714,49.128571428571426,1551.5,533.2223214285714,49.128571428571426,1652.4,533.2223214285714,49.128571428571426,1753,533.2223214285714,49.128571428571426,1856.5,533.2223214285714,49.128571428571426,1956.6,533.2223214285714,49.128571428571426,2066,533.2223214285714,49.128571428571426,2166.1,533.2223214285714,49.128571428571426,2267.6,533.2223214285714,49.128571428571426,2367.6,533.2223214285714,49.128571428571426,2472.6,533.2223214285714,49.128571428571426,2576.1,533.2223214285714,49.128571428571426,2677.2,533.2223214285714,49.128571428571426,2785.3,533.2223214285714,49.128571428571426,2886.6,533.2223214285714,49.128571428571426,2986.8,533.2223214285714,49.128571428571426,3087.3,533.2223214285714,49.128571428571426,3192.4,533.2223214285714,49.128571428571426,3296.9,533.2223214285714,49.128571428571426,3398.6,533.2223214285714,49.128571428571426,3498.9,533.2223214285714,49.128571428571426,3602,533.2223214285714,49.128571428571426,3702.2,533.2223214285714,49.128571428571426,3803,533.2223214285714,49.128571428571426,3906.3,534.2223214285714,49.128571428571426,4007.7,533.2223214285714,49.128571428571426,4112.8,533.2223214285714,49.128571428571426,4215.7,533.2223214285714,49.128571428571426,4323.4,533.2223214285714,49.128571428571426,4426.1,533.2223214285714,49.128571428571426,4526.8,533.2223214285714,49.128571428571426,4627,533.2223214285714,49.128571428571426,4734.3,533.2223214285714,49.128571428571426,4835.1,533.2223214285714,49.128571428571426,4937.1]","[1417.3,1417.3,1000,0,417.3,""smooth"",""up"",""up"",""good_move"",4961.9,3544.2,3083.2,1417.7,461,""smooth"",""up"",""up"",""good_move"",7621.6,2659.5,2263.4,4962.1,396.1,""oops"",""up"",""down"",""bad_move"",10474,2852,2425.9,7622,426.1,""smooth"",""right"",""right"",""good_move"",13279,2804.2,2357.2,10474.9,447,""smooth"",""right"",""right"",""good_move"",16175.1,2895.3,2460.9,13279.8,434.4,""smooth"",""right"",""right"",""good_move"",18968.9,2793.5,2441.3,16175.5,352.2,""smooth"",""up"",""up"",""good_move"",22274.1,3304.6,2971,18969.5,333.6,""smooth"",""up"",""up"",""good_move""]"
"5762","","<div style=""width:500px;"">
  <p>What determined the result of this run?</p>
  </div>","73","html-slider-response","24","859194","0.0-7.0-1.2","136","1","2025-08-06 08:52:08","36c45c0696341be0efffe67d72a12abb","41.114.198.60","Mozilla/5.0 (Windows NT 10.0; Win64; x64) AppleWebKit/537.36 (KHTML, like Gecko) Chrome/138.0.0.0 Safari/537.36","WebKit","Chrome","138.0.0.0","Windows","10.0","https://app.prolific.com/","en-US,en;q=0.9","6612e7f231d13a67b8e758cc","6877649eabb845cf142cd221","689317abb3889c2e20a147f2","1","6612e7f231d13a67b8e758cc","1","2025-08-06T09:06:30.482Z","","","","AttribQ","","","","","","","","","","","50","","","","","","","","","","","","","","","","","","","","","","","","","","",""
"7010","","<div style=""width:500px;"">
  <p>How much control did you have over the ball?</p>
  </div>","61","html-slider-response","25","866206","0.0-7.0-2.2","136","1","2025-08-06 08:52:08","36c45c0696341be0efffe67d72a12abb","41.114.198.60","Mozilla/5.0 (Windows NT 10.0; Win64; x64) AppleWebKit/537.36 (KHTML, like Gecko) Chrome/138.0.0.0 Safari/537.36","WebKit","Chrome","138.0.0.0","Windows","10.0","https://app.prolific.com/","en-US,en;q=0.9","6612e7f231d13a67b8e758cc","6877649eabb845cf142cd221","689317abb3889c2e20a147f2","1","6612e7f231d13a67b8e758cc","1","2025-08-06T09:06:37.494Z","","","","ControlQ","","","","","","","","","","","50","","","","","","","","","","","","","","","","","","","","","","","","","","",""
"9592","","<div style=""width:500px;"">
  <p>How would you describe your current emotional state?</p>
  </div>","3","html-slider-response","26","875799","0.0-7.0-3.2","136","1","2025-08-06 08:52:08","36c45c0696341be0efffe67d72a12abb","41.114.198.60","Mozilla/5.0 (Windows NT 10.0; Win64; x64) AppleWebKit/537.36 (KHTML, like Gecko) Chrome/138.0.0.0 Safari/537.36","WebKit","Chrome","138.0.0.0","Windows","10.0","https://app.prolific.com/","en-US,en;q=0.9","6612e7f231d13a67b8e758cc","6877649eabb845cf142cd221","689317abb3889c2e20a147f2","1","6612e7f231d13a67b8e758cc","1","2025-08-06T09:06:47.087Z","","","","StressQ","","","","","","","","","","","50","","","","","","","","","","","","","","","","","","","","","","","","","","",""
"7177","","<div style=""width:500px;"">
  <p>What best describes how you currently feel?</p>
  </div>","100","html-slider-response","27","882979","0.0-7.0-4.2","136","1","2025-08-06 08:52:08","36c45c0696341be0efffe67d72a12abb","41.114.198.60","Mozilla/5.0 (Windows NT 10.0; Win64; x64) AppleWebKit/537.36 (KHTML, like Gecko) Chrome/138.0.0.0 Safari/537.36","WebKit","Chrome","138.0.0.0","Windows","10.0","https://app.prolific.com/","en-US,en;q=0.9","6612e7f231d13a67b8e758cc","6877649eabb845cf142cd221","689317abb3889c2e20a147f2","1","6612e7f231d13a67b8e758cc","1","2025-08-06T09:06:54.267Z","","","","MotivationQ","","","","","","","","","","","50","","","","","","","","","","","","","","","","","","","","","","","","","","",""
"","","","","ctl-task-cpt","28","923146","0.0-7.0-0.3","136","1","2025-08-06 08:52:08","36c45c0696341be0efffe67d72a12abb","41.114.198.60","Mozilla/5.0 (Windows NT 10.0; Win64; x64) AppleWebKit/537.36 (KHTML, like Gecko) Chrome/138.0.0.0 Safari/537.36","WebKit","Chrome","138.0.0.0","Windows","10.0","https://app.prolific.com/","en-US,en;q=0.9","6612e7f231d13a67b8e758cc","6877649eabb845cf142cd221","689317abb3889c2e20a147f2","1","6612e7f231d13a67b8e758cc","1","2025-08-06T09:07:34.434Z","","","","","","","","","","","","","","","","win-only","3","g1:SW,g2:NE","0.7","4","0","886451.3","2499.3","7501.3","37140.2","1","4","8","6","2","8","8","12","4","0.09090909090909091","1239.8","3000","715","[""up"",""right""]","{""num_key_presses"":6,""num_perfect"":6,""num_errors"":0,""num_randdir"":0,""num_randdir_good_moves"":0,""num_whilered"":0,""num_whileblue"":0,""num_blue"":3,""num_good_moves"":6}","[293.22232142857143,297.12857142857143,0.3,293.22232142857143,297.12857142857143,101.7,293.22232142857143,297.12857142857143,208.5,293.22232142857143,297.12857142857143,309.8,293.22232142857143,297.12857142857143,411.3,319.22232142857143,271.12857142857143,511.7,424.22232142857143,149.12857142857143,617.8,491.22232142857143,71.12857142857143,725.6,514.2223214285714,60.128571428571426,830.1,516.2223214285714,60.128571428571426,931.9,517.2223214285714,59.128571428571426,1042.5,519.2223214285714,58.128571428571426,1143.1,518.2223214285714,59.128571428571426,1246.6,518.2223214285714,59.128571428571426,1347,518.2223214285714,59.128571428571426,1450.9,518.2223214285714,59.128571428571426,1551.4,518.2223214285714,59.128571428571426,1651.8,518.2223214285714,59.128571428571426,1752.1,518.2223214285714,59.128571428571426,1857.4,518.2223214285714,59.128571428571426,1961.5,518.2223214285714,59.128571428571426,2061.6,518.2223214285714,59.128571428571426,2163.7,518.2223214285714,59.128571428571426,2263.7,518.2223214285714,59.128571428571426,2366.2,518.2223214285714,59.128571428571426,2466.5,518.2223214285714,59.128571428571426,2568,518.2223214285714,59.128571428571426,2672.5,518.2223214285714,59.128571428571426,2774.7,518.2223214285714,59.128571428571426,2876.8,518.2223214285714,59.128571428571426,2981,518.2223214285714,59.128571428571426,3081.6,518.2223214285714,59.128571428571426,3182,518.2223214285714,59.128571428571426,3289.4,518.2223214285714,59.128571428571426,3391.5,518.2223214285714,59.128571428571426,3496.4,518.2223214285714,59.128571428571426,3596.4,518.2223214285714,59.128571428571426,3701.7,518.2223214285714,59.128571428571426,3807.7,518.2223214285714,59.128571428571426,3909.1,518.2223214285714,59.128571428571426,4009.8,518.2223214285714,59.128571428571426,4112.2,518.2223214285714,59.128571428571426,4212.4,518.2223214285714,59.128571428571426,4313.9,518.2223214285714,59.128571428571426,4416.9,518.2223214285714,59.128571428571426,4517.2,518.2223214285714,59.128571428571426,4625.6,518.2223214285714,59.128571428571426,4726.4,518.2223214285714,59.128571428571426,4826.8,518.2223214285714,59.128571428571426,4927.1]","[1470.7,1470.8,1000,0,470.8,""smooth"",""up"",""up"",""good_move"",9120.3,7649.1,3453,5196,471.3,""smooth"",""up"",""up"",""good_move"",12204.7,3083.2,2592.3,9121.5,490.9,""smooth"",""up"",""up"",""good_move"",22461.2,10255.3,2870.4,19189.8,401,""smooth"",""right"",""right"",""good_move"",25908.4,3446.6,2951.9,22461.8,494.7,""smooth"",""right"",""right"",""good_move"",29528.3,3619.5,3221.6,25908.8,397.9,""smooth"",""right"",""right"",""good_move""]"
"14147","","<div style=""width:500px;"">
  <p>What determined the result of this run?</p>
  </div>","70","html-slider-response","29","937295","0.0-7.0-1.3","136","1","2025-08-06 08:52:08","36c45c0696341be0efffe67d72a12abb","41.114.198.60","Mozilla/5.0 (Windows NT 10.0; Win64; x64) AppleWebKit/537.36 (KHTML, like Gecko) Chrome/138.0.0.0 Safari/537.36","WebKit","Chrome","138.0.0.0","Windows","10.0","https://app.prolific.com/","en-US,en;q=0.9","6612e7f231d13a67b8e758cc","6877649eabb845cf142cd221","689317abb3889c2e20a147f2","1","6612e7f231d13a67b8e758cc","1","2025-08-06T09:07:48.583Z","","","","AttribQ","","","","","","","","","","","50","","","","","","","","","","","","","","","","","","","","","","","","","","",""
"4049","","<div style=""width:500px;"">
  <p>How much control did you have over the ball?</p>
  </div>","74","html-slider-response","30","941346","0.0-7.0-2.3","136","1","2025-08-06 08:52:08","36c45c0696341be0efffe67d72a12abb","41.114.198.60","Mozilla/5.0 (Windows NT 10.0; Win64; x64) AppleWebKit/537.36 (KHTML, like Gecko) Chrome/138.0.0.0 Safari/537.36","WebKit","Chrome","138.0.0.0","Windows","10.0","https://app.prolific.com/","en-US,en;q=0.9","6612e7f231d13a67b8e758cc","6877649eabb845cf142cd221","689317abb3889c2e20a147f2","1","6612e7f231d13a67b8e758cc","1","2025-08-06T09:07:52.634Z","","","","ControlQ","","","","","","","","","","","50","","","","","","","","","","","","","","","","","","","","","","","","","","",""
"3854","","<div style=""width:500px;"">
  <p>How would you describe your current emotional state?</p>
  </div>","1","html-slider-response","31","945201","0.0-7.0-3.3","136","1","2025-08-06 08:52:08","36c45c0696341be0efffe67d72a12abb","41.114.198.60","Mozilla/5.0 (Windows NT 10.0; Win64; x64) AppleWebKit/537.36 (KHTML, like Gecko) Chrome/138.0.0.0 Safari/537.36","WebKit","Chrome","138.0.0.0","Windows","10.0","https://app.prolific.com/","en-US,en;q=0.9","6612e7f231d13a67b8e758cc","6877649eabb845cf142cd221","689317abb3889c2e20a147f2","1","6612e7f231d13a67b8e758cc","1","2025-08-06T09:07:56.489Z","","","","StressQ","","","","","","","","","","","50","","","","","","","","","","","","","","","","","","","","","","","","","","",""
"12092","","<div style=""width:500px;"">
  <p>What best describes how you currently feel?</p>
  </div>","100","html-slider-response","32","957295","0.0-7.0-4.3","136","1","2025-08-06 08:52:08","36c45c0696341be0efffe67d72a12abb","41.114.198.60","Mozilla/5.0 (Windows NT 10.0; Win64; x64) AppleWebKit/537.36 (KHTML, like Gecko) Chrome/138.0.0.0 Safari/537.36","WebKit","Chrome","138.0.0.0","Windows","10.0","https://app.prolific.com/","en-US,en;q=0.9","6612e7f231d13a67b8e758cc","6877649eabb845cf142cd221","689317abb3889c2e20a147f2","1","6612e7f231d13a67b8e758cc","1","2025-08-06T09:08:08.583Z","","","","MotivationQ","","","","","","","","","","","50","","","","","","","","","","","","","","","","","","","","","","","","","","",""
"","","","","ctl-task-cpt","33","995377","0.0-7.0-0.4","136","1","2025-08-06 08:52:08","36c45c0696341be0efffe67d72a12abb","41.114.198.60","Mozilla/5.0 (Windows NT 10.0; Win64; x64) AppleWebKit/537.36 (KHTML, like Gecko) Chrome/138.0.0.0 Safari/537.36","WebKit","Chrome","138.0.0.0","Windows","10.0","https://app.prolific.com/","en-US,en;q=0.9","6612e7f231d13a67b8e758cc","6877649eabb845cf142cd221","689317abb3889c2e20a147f2","1","6612e7f231d13a67b8e758cc","1","2025-08-06T09:08:46.665Z","","","","","","","","","","","","","","","","win-only","3","g1:SW,g2:NE","0.6","5","0","960767.1","1548.3","6551","35065.7","1","4","8","6","2","-8","-8","4","12","0.030303030303030304","1332.3","3000","-2380","[""up"",""right""]","{""num_key_presses"":8,""num_perfect"":5,""num_errors"":0,""num_randdir"":3,""num_randdir_good_moves"":1,""num_whilered"":0,""num_whileblue"":0,""num_blue"":1,""num_good_moves"":6}","[299.22232142857143,302.12857142857143,0.4,299.22232142857143,302.12857142857143,101.9,299.22232142857143,302.12857142857143,203,299.22232142857143,302.12857142857143,303,299.22232142857143,302.12857142857143,403.1,299.22232142857143,302.12857142857143,512.4,314.22232142857143,262.12857142857143,612.4,472.22232142857143,48.128571428571426,713.1,512.2223214285714,9.128571428571426,813.6,512.2223214285714,9.128571428571426,918.4,516.2223214285714,10.128571428571426,1029,517.2223214285714,13.128571428571426,1133.3,517.2223214285714,13.128571428571426,1244.3,517.2223214285714,13.128571428571426,1348,517.2223214285714,13.128571428571426,1448.7,517.2223214285714,13.128571428571426,1551.1,517.2223214285714,13.128571428571426,1652.3,517.2223214285714,13.128571428571426,1752.6,517.2223214285714,13.128571428571426,1852.7,517.2223214285714,13.128571428571426,1954,517.2223214285714,13.128571428571426,2061.3,517.2223214285714,13.128571428571426,2162.7,517.2223214285714,13.128571428571426,2264.4,517.2223214285714,13.128571428571426,2367.1,517.2223214285714,13.128571428571426,2468.4,517.2223214285714,13.128571428571426,2568.4,517.2223214285714,13.128571428571426,2682.2,517.2223214285714,13.128571428571426,2785.1,517.2223214285714,13.128571428571426,2890.1,517.2223214285714,13.128571428571426,2993.3,517.2223214285714,13.128571428571426,3099.7,517.2223214285714,13.128571428571426,3203.7,517.2223214285714,13.128571428571426,3310.3,517.2223214285714,13.128571428571426,3412.1,517.2223214285714,13.128571428571426,3517.9,517.2223214285714,13.128571428571426,3625.4,517.2223214285714,13.128571428571426,3727.2,517.2223214285714,13.128571428571426,3829.2,517.2223214285714,13.128571428571426,3932.6,517.2223214285714,13.128571428571426,4037.6,517.2223214285714,13.128571428571426,4140.7,517.2223214285714,13.128571428571426,4242.8,517.2223214285714,13.128571428571426,4342.9,517.2223214285714,13.128571428571426,4453,517.2223214285714,13.128571428571426,4561.4,517.2223214285714,13.128571428571426,4663.9,517.2223214285714,13.128571428571426,4767.7,517.2223214285714,13.128571428571426,4878.2,517.2223214285714,13.128571428571426,4983]","[1590,1590,1000,0,590,""oops"",""up"",""left"",""bad_move"",8227.3,6636.9,2353.6,5427,446.8,""smooth"",""up"",""up"",""good_move"",11311.8,3083.3,2597.3,8228.5,486,""smooth"",""up"",""up"",""good_move"",14029,2717,2341.1,11312,375.9,""smooth"",""up"",""up"",""good_move"",16693.6,2664.3,2293.3,14029.3,371,""smooth"",""right"",""right"",""good_move"",19792.1,3097.8,2733.9,16694.3,364,""oops"",""right"",""down"",""bad_move"",23511.2,3718.4,3294.7,19792.8,423.7,""smooth"",""right"",""right"",""good_move"",26248,2736.3,2337.1,23511.7,399.2,""oops"",""right"",""up"",""good_move""]"
"4588","","<div style=""width:500px;"">
  <p>What determined the result of this run?</p>
  </div>","44","html-slider-response","34","999967","0.0-7.0-1.4","136","1","2025-08-06 08:52:08","36c45c0696341be0efffe67d72a12abb","41.114.198.60","Mozilla/5.0 (Windows NT 10.0; Win64; x64) AppleWebKit/537.36 (KHTML, like Gecko) Chrome/138.0.0.0 Safari/537.36","WebKit","Chrome","138.0.0.0","Windows","10.0","https://app.prolific.com/","en-US,en;q=0.9","6612e7f231d13a67b8e758cc","6877649eabb845cf142cd221","689317abb3889c2e20a147f2","1","6612e7f231d13a67b8e758cc","1","2025-08-06T09:08:51.256Z","","","","AttribQ","","","","","","","","","","","50","","","","","","","","","","","","","","","","","","","","","","","","","","",""
"4235","","<div style=""width:500px;"">
  <p>How much control did you have over the ball?</p>
  </div>","2","html-slider-response","35","1004205","0.0-7.0-2.4","136","1","2025-08-06 08:52:08","36c45c0696341be0efffe67d72a12abb","41.114.198.60","Mozilla/5.0 (Windows NT 10.0; Win64; x64) AppleWebKit/537.36 (KHTML, like Gecko) Chrome/138.0.0.0 Safari/537.36","WebKit","Chrome","138.0.0.0","Windows","10.0","https://app.prolific.com/","en-US,en;q=0.9","6612e7f231d13a67b8e758cc","6877649eabb845cf142cd221","689317abb3889c2e20a147f2","1","6612e7f231d13a67b8e758cc","1","2025-08-06T09:08:55.493Z","","","","ControlQ","","","","","","","","","","","50","","","","","","","","","","","","","","","","","","","","","","","","","","",""
"4574","","<div style=""width:500px;"">
  <p>How would you describe your current emotional state?</p>
  </div>","0","html-slider-response","36","1008780","0.0-7.0-3.4","136","1","2025-08-06 08:52:08","36c45c0696341be0efffe67d72a12abb","41.114.198.60","Mozilla/5.0 (Windows NT 10.0; Win64; x64) AppleWebKit/537.36 (KHTML, like Gecko) Chrome/138.0.0.0 Safari/537.36","WebKit","Chrome","138.0.0.0","Windows","10.0","https://app.prolific.com/","en-US,en;q=0.9","6612e7f231d13a67b8e758cc","6877649eabb845cf142cd221","689317abb3889c2e20a147f2","1","6612e7f231d13a67b8e758cc","1","2025-08-06T09:09:00.068Z","","","","StressQ","","","","","","","","","","","50","","","","","","","","","","","","","","","","","","","","","","","","","","",""
"3329","","<div style=""width:500px;"">
  <p>What best describes how you currently feel?</p>
  </div>","100","html-slider-response","37","1012111","0.0-7.0-4.4","136","1","2025-08-06 08:52:08","36c45c0696341be0efffe67d72a12abb","41.114.198.60","Mozilla/5.0 (Windows NT 10.0; Win64; x64) AppleWebKit/537.36 (KHTML, like Gecko) Chrome/138.0.0.0 Safari/537.36","WebKit","Chrome","138.0.0.0","Windows","10.0","https://app.prolific.com/","en-US,en;q=0.9","6612e7f231d13a67b8e758cc","6877649eabb845cf142cd221","689317abb3889c2e20a147f2","1","6612e7f231d13a67b8e758cc","1","2025-08-06T09:09:03.399Z","","","","MotivationQ","","","","","","","","","","","50","","","","","","","","","","","","","","","","","","","","","","","","","","",""
"","","","","ctl-task-cpt","38","1048677","0.0-7.0-0.5","136","1","2025-08-06 08:52:08","36c45c0696341be0efffe67d72a12abb","41.114.198.60","Mozilla/5.0 (Windows NT 10.0; Win64; x64) AppleWebKit/537.36 (KHTML, like Gecko) Chrome/138.0.0.0 Safari/537.36","WebKit","Chrome","138.0.0.0","Windows","10.0","https://app.prolific.com/","en-US,en;q=0.9","6612e7f231d13a67b8e758cc","6877649eabb845cf142cd221","689317abb3889c2e20a147f2","1","6612e7f231d13a67b8e758cc","1","2025-08-06T09:09:39.965Z","","","","","","","","","","","","","","","","win-only","3","g1:SW,g2:NE","0.5","6","0","1015584.5","1652.2","6654.9","33547.7","1","4","4","6","2","4","4","8","4","0.06060606060606061","1079.8","3000","345","[""up"",""right""]","{""num_key_presses"":10,""num_perfect"":5,""num_errors"":0,""num_randdir"":5,""num_randdir_good_moves"":3,""num_whilered"":0,""num_whileblue"":0,""num_blue"":0,""num_good_moves"":8}","[295.22232142857143,297.12857142857143,1.4,295.22232142857143,297.12857142857143,109.5,295.22232142857143,297.12857142857143,210,295.22232142857143,297.12857142857143,315.3,297.22232142857143,291.12857142857143,419.8,471.22232142857143,116.12857142857143,520.1,556.2223214285714,29.128571428571426,621.4,559.2223214285714,25.128571428571426,722.3,559.2223214285714,23.128571428571426,826.8,559.2223214285714,23.128571428571426,930.2,559.2223214285714,23.128571428571426,1030.4,559.2223214285714,23.128571428571426,1132.4,559.2223214285714,23.128571428571426,1239.8,559.2223214285714,23.128571428571426,1344.2,559.2223214285714,23.128571428571426,1447.2,559.2223214285714,23.128571428571426,1559.1,559.2223214285714,23.128571428571426,1659.9,559.2223214285714,23.128571428571426,1762,559.2223214285714,23.128571428571426,1863.4,559.2223214285714,23.128571428571426,1964.9,559.2223214285714,23.128571428571426,2065.1,559.2223214285714,23.128571428571426,2169.9,559.2223214285714,23.128571428571426,2271.4,559.2223214285714,23.128571428571426,2371.7,559.2223214285714,23.128571428571426,2477.8,559.2223214285714,23.128571428571426,2579.3,559.2223214285714,23.128571428571426,2680.2,559.2223214285714,23.128571428571426,2788.8,559.2223214285714,23.128571428571426,2893.3,559.2223214285714,23.128571428571426,2996.1,559.2223214285714,23.128571428571426,3099.3,559.2223214285714,23.128571428571426,3205,559.2223214285714,23.128571428571426,3310.9,559.2223214285714,23.128571428571426,3412.3,559.2223214285714,23.128571428571426,3518.3,559.2223214285714,23.128571428571426,3621.7,559.2223214285714,23.128571428571426,3722.7,559.2223214285714,23.128571428571426,3830.1,559.2223214285714,23.128571428571426,3931.3,559.2223214285714,23.128571428571426,4032.5,559.2223214285714,23.128571428571426,4142.2,559.2223214285714,23.128571428571426,4243.5,559.2223214285714,23.128571428571426,4344.5,559.2223214285714,23.128571428571426,4446.6,559.2223214285714,23.128571428571426,4549.3,559.2223214285714,23.128571428571426,4650,559.2223214285714,23.128571428571426,4754,559.2223214285714,23.128571428571426,4854.8,559.2223214285714,23.128571428571426,4963]","[1437.5,1437.5,1000,0,437.5,""oops"",""up"",""up"",""good_move"",4595.3,3156.8,2767.3,1438.6,389.4,""smooth"",""up"",""up"",""good_move"",7466.7,2870.9,2489,4595.8,381.9,""smooth"",""up"",""up"",""good_move"",10333.9,2866.6,2500.6,7467.3,366,""oops"",""right"",""down"",""bad_move"",12986.5,2651.6,2306,10334.9,345.6,""smooth"",""right"",""right"",""good_move"",16377.6,3390.3,2997,12987.3,393.3,""smooth"",""right"",""right"",""good_move"",18773.1,2395.3,1968.7,16377.8,426.6,""smooth"",""right"",""right"",""good_move"",20811.9,2038.5,1608.4,18773.5,430,""oops"",""up"",""left"",""bad_move"",23102.9,2288.8,1941.6,20814.1,347.2,""oops"",""up"",""up"",""good_move"",26767.7,3663.9,3336.9,23103.9,327,""oops"",""right"",""right"",""good_move""]"
"8848","","<div style=""width:500px;"">
  <p>What determined the result of this run?</p>
  </div>","67","html-slider-response","39","1057526","0.0-7.0-1.5","136","1","2025-08-06 08:52:08","36c45c0696341be0efffe67d72a12abb","41.114.198.60","Mozilla/5.0 (Windows NT 10.0; Win64; x64) AppleWebKit/537.36 (KHTML, like Gecko) Chrome/138.0.0.0 Safari/537.36","WebKit","Chrome","138.0.0.0","Windows","10.0","https://app.prolific.com/","en-US,en;q=0.9","6612e7f231d13a67b8e758cc","6877649eabb845cf142cd221","689317abb3889c2e20a147f2","1","6612e7f231d13a67b8e758cc","1","2025-08-06T09:09:48.814Z","","","","AttribQ","","","","","","","","","","","50","","","","","","","","","","","","","","","","","","","","","","","","","","",""
"3673","","<div style=""width:500px;"">
  <p>How much control did you have over the ball?</p>
  </div>","62","html-slider-response","40","1061201","0.0-7.0-2.5","136","1","2025-08-06 08:52:08","36c45c0696341be0efffe67d72a12abb","41.114.198.60","Mozilla/5.0 (Windows NT 10.0; Win64; x64) AppleWebKit/537.36 (KHTML, like Gecko) Chrome/138.0.0.0 Safari/537.36","WebKit","Chrome","138.0.0.0","Windows","10.0","https://app.prolific.com/","en-US,en;q=0.9","6612e7f231d13a67b8e758cc","6877649eabb845cf142cd221","689317abb3889c2e20a147f2","1","6612e7f231d13a67b8e758cc","1","2025-08-06T09:09:52.489Z","","","","ControlQ","","","","","","","","","","","50","","","","","","","","","","","","","","","","","","","","","","","","","","",""
"4004","","<div style=""width:500px;"">
  <p>How would you describe your current emotional state?</p>
  </div>","0","html-slider-response","41","1065207","0.0-7.0-3.5","136","1","2025-08-06 08:52:08","36c45c0696341be0efffe67d72a12abb","41.114.198.60","Mozilla/5.0 (Windows NT 10.0; Win64; x64) AppleWebKit/537.36 (KHTML, like Gecko) Chrome/138.0.0.0 Safari/537.36","WebKit","Chrome","138.0.0.0","Windows","10.0","https://app.prolific.com/","en-US,en;q=0.9","6612e7f231d13a67b8e758cc","6877649eabb845cf142cd221","689317abb3889c2e20a147f2","1","6612e7f231d13a67b8e758cc","1","2025-08-06T09:09:56.495Z","","","","StressQ","","","","","","","","","","","50","","","","","","","","","","","","","","","","","","","","","","","","","","",""
"3672","","<div style=""width:500px;"">
  <p>What best describes how you currently feel?</p>
  </div>","100","html-slider-response","42","1068881","0.0-7.0-4.5","136","1","2025-08-06 08:52:08","36c45c0696341be0efffe67d72a12abb","41.114.198.60","Mozilla/5.0 (Windows NT 10.0; Win64; x64) AppleWebKit/537.36 (KHTML, like Gecko) Chrome/138.0.0.0 Safari/537.36","WebKit","Chrome","138.0.0.0","Windows","10.0","https://app.prolific.com/","en-US,en;q=0.9","6612e7f231d13a67b8e758cc","6877649eabb845cf142cd221","689317abb3889c2e20a147f2","1","6612e7f231d13a67b8e758cc","1","2025-08-06T09:10:00.169Z","","","","MotivationQ","","","","","","","","","","","50","","","","","","","","","","","","","","","","","","","","","","","","","","",""
"","","","","ctl-task-cpt","43","1120715","0.0-7.0-0.6","136","1","2025-08-06 08:52:08","36c45c0696341be0efffe67d72a12abb","41.114.198.60","Mozilla/5.0 (Windows NT 10.0; Win64; x64) AppleWebKit/537.36 (KHTML, like Gecko) Chrome/138.0.0.0 Safari/537.36","WebKit","Chrome","138.0.0.0","Windows","10.0","https://app.prolific.com/","en-US,en;q=0.9","6612e7f231d13a67b8e758cc","6877649eabb845cf142cd221","689317abb3889c2e20a147f2","1","6612e7f231d13a67b8e758cc","1","2025-08-06T09:10:52.003Z","","","","","","","","","","","","","","","","win-only","2","g1:SE,g2:NW","0.4","7","0","1072355.9","1571.9","6577.8","48807.9","1","4","4","6","2","-4","-4","4","8","0.030303030303030304","1380.8","3000","-2090","[""left"",""up""]","{""num_key_presses"":9,""num_perfect"":4,""num_errors"":0,""num_randdir"":5,""num_randdir_good_moves"":2,""num_whilered"":0,""num_whileblue"":0,""num_blue"":4,""num_good_moves"":6}","[294.22232142857143,303.12857142857143,0.9,294.22232142857143,303.12857142857143,105.5,294.22232142857143,303.12857142857143,211.6,294.22232142857143,303.12857142857143,316.2,294.22232142857143,303.12857142857143,419.7,294.22232142857143,303.12857142857143,523.5,294.22232142857143,303.12857142857143,632.5,258.22232142857143,288.12857142857143,735.9,43.222321428571426,106.12857142857143,840.6,6.222321428571426,46.128571428571426,947.6,6.222321428571426,45.128571428571426,1060.6,6.222321428571426,45.128571428571426,1164.8,6.222321428571426,45.128571428571426,1274.6,6.222321428571426,44.128571428571426,1390.6,6.222321428571426,44.128571428571426,1497.9,6.222321428571426,44.128571428571426,1603,6.222321428571426,44.128571428571426,1706.2,6.222321428571426,44.128571428571426,1814.8,6.222321428571426,44.128571428571426,1916.4,6.222321428571426,44.128571428571426,2019.9,6.222321428571426,44.128571428571426,2120.4,6.222321428571426,44.128571428571426,2224.4,6.222321428571426,44.128571428571426,2324.7,6.222321428571426,44.128571428571426,2428.3,6.222321428571426,44.128571428571426,2540.6,6.222321428571426,44.128571428571426,2640.8,6.222321428571426,44.128571428571426,2745.9,6.222321428571426,44.128571428571426,2850.4,6.222321428571426,44.128571428571426,2956.6,6.222321428571426,44.128571428571426,3068.5,6.222321428571426,44.128571428571426,3170.9,6.222321428571426,44.128571428571426,3282.1,6.222321428571426,44.128571428571426,3389.4,6.222321428571426,44.128571428571426,3491.1,6.222321428571426,44.128571428571426,3595.8,6.222321428571426,44.128571428571426,3696.2,6.222321428571426,44.128571428571426,3796.5,6.222321428571426,44.128571428571426,3897.8,6.222321428571426,44.128571428571426,4003.1,6.222321428571426,44.128571428571426,4104.4,6.222321428571426,44.128571428571426,4204.6,6.222321428571426,44.128571428571426,4313.7,6.222321428571426,44.128571428571426,4415.1,6.222321428571426,44.128571428571426,4519.4,6.222321428571426,44.128571428571426,4622.3,6.222321428571426,44.128571428571426,4725.8,6.222321428571426,44.128571428571426,4828.3,6.222321428571426,44.128571428571426,4940.3]","[1654.8,1654.8,1000,0,654.8,""oops"",""up"",""down"",""bad_move"",4855.6,3199.4,2777.1,1656.2,422.3,""smooth"",""up"",""up"",""good_move"",14889.4,10032.2,2540.5,11882,466.9,""smooth"",""up"",""up"",""good_move"",17462.6,2572.7,2082.3,14889.9,490.4,""oops"",""up"",""up"",""good_move"",22983.3,5519.7,2410.2,20203.3,369.8,""oops"",""up"",""down"",""bad_move"",30244.6,7260.9,3266.5,26499.3,478.8,""smooth"",""up"",""up"",""good_move"",33616.9,3371.6,2930.1,30245.3,441.5,""smooth"",""up"",""up"",""good_move"",36159,2541.9,2161.8,33617.1,380.1,""oops"",""left"",""down"",""bad_move"",39071.5,2911.5,2426.3,36160,485.2,""oops"",""left"",""up"",""good_move""]"
"4427","","<div style=""width:500px;"">
  <p>What determined the result of this run?</p>
  </div>","40","html-slider-response","44","1125145","0.0-7.0-1.6","136","1","2025-08-06 08:52:08","36c45c0696341be0efffe67d72a12abb","41.114.198.60","Mozilla/5.0 (Windows NT 10.0; Win64; x64) AppleWebKit/537.36 (KHTML, like Gecko) Chrome/138.0.0.0 Safari/537.36","WebKit","Chrome","138.0.0.0","Windows","10.0","https://app.prolific.com/","en-US,en;q=0.9","6612e7f231d13a67b8e758cc","6877649eabb845cf142cd221","689317abb3889c2e20a147f2","1","6612e7f231d13a67b8e758cc","1","2025-08-06T09:10:56.433Z","","","","AttribQ","","","","","","","","","","","50","","","","","","","","","","","","","","","","","","","","","","","","","","",""
"2750","","<div style=""width:500px;"">
  <p>How much control did you have over the ball?</p>
  </div>","4","html-slider-response","45","1127897","0.0-7.0-2.6","136","1","2025-08-06 08:52:08","36c45c0696341be0efffe67d72a12abb","41.114.198.60","Mozilla/5.0 (Windows NT 10.0; Win64; x64) AppleWebKit/537.36 (KHTML, like Gecko) Chrome/138.0.0.0 Safari/537.36","WebKit","Chrome","138.0.0.0","Windows","10.0","https://app.prolific.com/","en-US,en;q=0.9","6612e7f231d13a67b8e758cc","6877649eabb845cf142cd221","689317abb3889c2e20a147f2","1","6612e7f231d13a67b8e758cc","1","2025-08-06T09:10:59.185Z","","","","ControlQ","","","","","","","","","","","50","","","","","","","","","","","","","","","","","","","","","","","","","","",""
"5775","","<div style=""width:500px;"">
  <p>How would you describe your current emotional state?</p>
  </div>","1","html-slider-response","46","1133673","0.0-7.0-3.6","136","1","2025-08-06 08:52:08","36c45c0696341be0efffe67d72a12abb","41.114.198.60","Mozilla/5.0 (Windows NT 10.0; Win64; x64) AppleWebKit/537.36 (KHTML, like Gecko) Chrome/138.0.0.0 Safari/537.36","WebKit","Chrome","138.0.0.0","Windows","10.0","https://app.prolific.com/","en-US,en;q=0.9","6612e7f231d13a67b8e758cc","6877649eabb845cf142cd221","689317abb3889c2e20a147f2","1","6612e7f231d13a67b8e758cc","1","2025-08-06T09:11:04.962Z","","","","StressQ","","","","","","","","","","","50","","","","","","","","","","","","","","","","","","","","","","","","","","",""
"4444","","<div style=""width:500px;"">
  <p>What best describes how you currently feel?</p>
  </div>","100","html-slider-response","47","1138120","0.0-7.0-4.6","136","1","2025-08-06 08:52:08","36c45c0696341be0efffe67d72a12abb","41.114.198.60","Mozilla/5.0 (Windows NT 10.0; Win64; x64) AppleWebKit/537.36 (KHTML, like Gecko) Chrome/138.0.0.0 Safari/537.36","WebKit","Chrome","138.0.0.0","Windows","10.0","https://app.prolific.com/","en-US,en;q=0.9","6612e7f231d13a67b8e758cc","6877649eabb845cf142cd221","689317abb3889c2e20a147f2","1","6612e7f231d13a67b8e758cc","1","2025-08-06T09:11:09.408Z","","","","MotivationQ","","","","","","","","","","","50","","","","","","","","","","","","","","","","","","","","","","","","","","",""
"","","","","ctl-task-cpt","48","1191818","0.0-7.0-0.7","136","1","2025-08-06 08:52:08","36c45c0696341be0efffe67d72a12abb","41.114.198.60","Mozilla/5.0 (Windows NT 10.0; Win64; x64) AppleWebKit/537.36 (KHTML, like Gecko) Chrome/138.0.0.0 Safari/537.36","WebKit","Chrome","138.0.0.0","Windows","10.0","https://app.prolific.com/","en-US,en;q=0.9","6612e7f231d13a67b8e758cc","6877649eabb845cf142cd221","689317abb3889c2e20a147f2","1","6612e7f231d13a67b8e758cc","1","2025-08-06T09:12:03.106Z","","","","","","","","","","","","","","","","win-only","1","g1:NE,g2:SW","0.3","8","0","1141596.8","4044.2","9048.1","50670.7","1","4","8","6","2","-8","-8","0","4","0","1449.5","3000","-1910","[""down"",""left""]","{""num_key_presses"":10,""num_perfect"":3,""num_errors"":0,""num_randdir"":7,""num_randdir_good_moves"":2,""num_whilered"":0,""num_whileblue"":0,""num_blue"":3,""num_good_moves"":5}","[300.22232142857143,295.12857142857143,0.9,300.22232142857143,295.12857142857143,101.7,300.22232142857143,295.12857142857143,208.4,300.22232142857143,295.12857142857143,310.9,300.22232142857143,295.12857142857143,415.3,300.22232142857143,295.12857142857143,516.5,302.22232142857143,294.12857142857143,618.4,315.22232142857143,279.12857142857143,722.8,226.22232142857143,390.12857142857143,824.7,110.22232142857143,482.12857142857143,925.4,57.222321428571426,512.1285714285714,1026.9,46.222321428571426,521.1285714285714,1131.4,45.222321428571426,522.1285714285714,1236.8,45.222321428571426,522.1285714285714,1338.8,45.222321428571426,522.1285714285714,1443,45.222321428571426,522.1285714285714,1543,45.222321428571426,522.1285714285714,1652.4,45.222321428571426,522.1285714285714,1761.1,45.222321428571426,522.1285714285714,1866.4,45.222321428571426,522.1285714285714,1977.1,45.222321428571426,522.1285714285714,2078.1,45.222321428571426,522.1285714285714,2182.5,45.222321428571426,522.1285714285714,2302.7,45.222321428571426,522.1285714285714,2403.2,45.222321428571426,522.1285714285714,2503.2,45.222321428571426,522.1285714285714,2605.8,45.222321428571426,522.1285714285714,2711.4,45.222321428571426,522.1285714285714,2816.3,45.222321428571426,522.1285714285714,2920.3,45.222321428571426,522.1285714285714,3023.6,45.222321428571426,522.1285714285714,3125.7,45.222321428571426,522.1285714285714,3232.4,45.222321428571426,522.1285714285714,3334.6,45.222321428571426,522.1285714285714,3447.5,45.222321428571426,522.1285714285714,3562.8,45.222321428571426,522.1285714285714,3664.2,45.222321428571426,522.1285714285714,3767.6,45.222321428571426,522.1285714285714,3873.8,45.222321428571426,522.1285714285714,3978.9,45.222321428571426,522.1285714285714,4098.6,45.222321428571426,522.1285714285714,4205.6,45.222321428571426,522.1285714285714,4309.1,45.222321428571426,522.1285714285714,4413.5,45.222321428571426,522.1285714285714,4513.8,45.222321428571426,522.1285714285714,4634.7,45.222321428571426,522.1285714285714,4738.4,45.222321428571426,522.1285714285714,4842.3,45.222321428571426,522.1285714285714,4949.6]","[1414.6,1414.7,1000,0,414.7,""oops"",""down"",""up"",""bad_move"",4078,2662.6,2200.1,1415.5,462.4,""smooth"",""down"",""down"",""good_move"",9071.1,4992.6,2181.1,6473.2,416.8,""oops"",""down"",""left"",""good_move"",12629.6,3557.9,3112.8,9071.7,445.1,""smooth"",""down"",""down"",""good_move"",15472.8,2842.5,2424,12630.3,418.5,""oops"",""down"",""up"",""bad_move"",17784.3,2310.7,1795.2,15473.7,515.5,""oops"",""left"",""up"",""bad_move"",21808.4,4023.4,3526.8,17785.1,496.5,""oops"",""left"",""down"",""good_move"",33183.8,11374.1,3599.1,29080.4,504.3,""oops"",""left"",""up"",""bad_move"",36231.5,3046.4,2476.6,33185.2,569.7,""oops"",""left"",""right"",""bad_move"",38892.9,2660.9,1965.8,36232.1,695.1,""smooth"",""left"",""left"",""good_move""]"
"5063","","<div style=""width:500px;"">
  <p>What determined the result of this run?</p>
  </div>","17","html-slider-response","49","1196883","0.0-7.0-1.7","136","1","2025-08-06 08:52:08","36c45c0696341be0efffe67d72a12abb","41.114.198.60","Mozilla/5.0 (Windows NT 10.0; Win64; x64) AppleWebKit/537.36 (KHTML, like Gecko) Chrome/138.0.0.0 Safari/537.36","WebKit","Chrome","138.0.0.0","Windows","10.0","https://app.prolific.com/","en-US,en;q=0.9","6612e7f231d13a67b8e758cc","6877649eabb845cf142cd221","689317abb3889c2e20a147f2","1","6612e7f231d13a67b8e758cc","1","2025-08-06T09:12:08.171Z","","","","AttribQ","","","","","","","","","","","50","","","","","","","","","","","","","","","","","","","","","","","","","","",""
"3043","","<div style=""width:500px;"">
  <p>How much control did you have over the ball?</p>
  </div>","0","html-slider-response","50","1199930","0.0-7.0-2.7","136","1","2025-08-06 08:52:08","36c45c0696341be0efffe67d72a12abb","41.114.198.60","Mozilla/5.0 (Windows NT 10.0; Win64; x64) AppleWebKit/537.36 (KHTML, like Gecko) Chrome/138.0.0.0 Safari/537.36","WebKit","Chrome","138.0.0.0","Windows","10.0","https://app.prolific.com/","en-US,en;q=0.9","6612e7f231d13a67b8e758cc","6877649eabb845cf142cd221","689317abb3889c2e20a147f2","1","6612e7f231d13a67b8e758cc","1","2025-08-06T09:12:11.218Z","","","","ControlQ","","","","","","","","","","","50","","","","","","","","","","","","","","","","","","","","","","","","","","",""
"3436","","<div style=""width:500px;"">
  <p>How would you describe your current emotional state?</p>
  </div>","0","html-slider-response","51","1203368","0.0-7.0-3.7","136","1","2025-08-06 08:52:08","36c45c0696341be0efffe67d72a12abb","41.114.198.60","Mozilla/5.0 (Windows NT 10.0; Win64; x64) AppleWebKit/537.36 (KHTML, like Gecko) Chrome/138.0.0.0 Safari/537.36","WebKit","Chrome","138.0.0.0","Windows","10.0","https://app.prolific.com/","en-US,en;q=0.9","6612e7f231d13a67b8e758cc","6877649eabb845cf142cd221","689317abb3889c2e20a147f2","1","6612e7f231d13a67b8e758cc","1","2025-08-06T09:12:14.656Z","","","","StressQ","","","","","","","","","","","50","","","","","","","","","","","","","","","","","","","","","","","","","","",""
"2763","","<div style=""width:500px;"">
  <p>What best describes how you currently feel?</p>
  </div>","100","html-slider-response","52","1206134","0.0-7.0-4.7","136","1","2025-08-06 08:52:08","36c45c0696341be0efffe67d72a12abb","41.114.198.60","Mozilla/5.0 (Windows NT 10.0; Win64; x64) AppleWebKit/537.36 (KHTML, like Gecko) Chrome/138.0.0.0 Safari/537.36","WebKit","Chrome","138.0.0.0","Windows","10.0","https://app.prolific.com/","en-US,en;q=0.9","6612e7f231d13a67b8e758cc","6877649eabb845cf142cd221","689317abb3889c2e20a147f2","1","6612e7f231d13a67b8e758cc","1","2025-08-06T09:12:17.423Z","","","","MotivationQ","","","","","","","","","","","50","","","","","","","","","","","","","","","","","","","","","","","","","","",""
"","","","","ctl-task-cpt","53","1265533","0.0-7.0-0.8","136","1","2025-08-06 08:52:08","36c45c0696341be0efffe67d72a12abb","41.114.198.60","Mozilla/5.0 (Windows NT 10.0; Win64; x64) AppleWebKit/537.36 (KHTML, like Gecko) Chrome/138.0.0.0 Safari/537.36","WebKit","Chrome","138.0.0.0","Windows","10.0","https://app.prolific.com/","en-US,en;q=0.9","6612e7f231d13a67b8e758cc","6877649eabb845cf142cd221","689317abb3889c2e20a147f2","1","6612e7f231d13a67b8e758cc","1","2025-08-06T09:13:16.821Z","","","","","","","","","","","","","","","","win-only","0","g1:NW,g2:SE","0.4","9","0","1209609","2956.3","7961","56371.2","1","4","4","6","2","4","4","4","0","0.030303030303030304","1629.2","3000","520","[""down"",""right""]","{""num_key_presses"":10,""num_perfect"":4,""num_errors"":0,""num_randdir"":6,""num_randdir_good_moves"":4,""num_whilered"":0,""num_whileblue"":0,""num_blue"":6,""num_good_moves"":8}","[293.22232142857143,291.12857142857143,1.3,293.22232142857143,291.12857142857143,109.3,293.22232142857143,291.12857142857143,217.7,293.22232142857143,291.12857142857143,326.5,293.22232142857143,291.12857142857143,434.7,293.22232142857143,291.12857142857143,536.5,293.22232142857143,291.12857142857143,638.4,293.22232142857143,290.12857142857143,746.3,477.22232142857143,428.12857142857143,851,609.2223214285714,587.1285714285714,960.3,622.2223214285714,619.1285714285714,1064.1,614.2223214285714,617.1285714285714,1168,567.2223214285714,559.1285714285714,1277.5,565.2223214285714,556.1285714285714,1384.7,565.2223214285714,556.1285714285714,1487.8,565.2223214285714,555.1285714285714,1590.1,565.2223214285714,555.1285714285714,1698.2,565.2223214285714,555.1285714285714,1810.9,565.2223214285714,555.1285714285714,1913.1,565.2223214285714,555.1285714285714,2019.3,565.2223214285714,555.1285714285714,2119.9,565.2223214285714,555.1285714285714,2225,565.2223214285714,555.1285714285714,2326.2,565.2223214285714,555.1285714285714,2437,565.2223214285714,555.1285714285714,2542.2,565.2223214285714,555.1285714285714,2646.5,565.2223214285714,555.1285714285714,2756,565.2223214285714,555.1285714285714,2857.8,565.2223214285714,555.1285714285714,2961.9,565.2223214285714,555.1285714285714,3077.2,565.2223214285714,555.1285714285714,3182.6,565.2223214285714,555.1285714285714,3286.3,565.2223214285714,555.1285714285714,3392.7,565.2223214285714,555.1285714285714,3493.7,565.2223214285714,555.1285714285714,3594.5,565.2223214285714,555.1285714285714,3707.6,565.2223214285714,555.1285714285714,3810.5,565.2223214285714,555.1285714285714,3916.8,565.2223214285714,555.1285714285714,4016.9,565.2223214285714,555.1285714285714,4117.5,565.2223214285714,555.1285714285714,4218.4,565.2223214285714,555.1285714285714,4320.6,565.2223214285714,555.1285714285714,4422.7,565.2223214285714,555.1285714285714,4528.1,565.2223214285714,555.1285714285714,4640.1,565.2223214285714,555.1285714285714,4746.1,565.2223214285714,555.1285714285714,4856,565.2223214285714,555.1285714285714,4961.1]","[9161.2,9161.2,3240.5,5468.5,452.2,""oops"",""right"",""up"",""bad_move"",11706.8,2544.4,1954.2,9162.4,590.2,""smooth"",""right"",""right"",""good_move"",18346.3,6638,2010.3,15863.2,472.8,""oops"",""right"",""right"",""good_move"",23986.3,5639.5,2029.5,21532.1,424.7,""smooth"",""right"",""right"",""good_move"",27088,3101.1,2596.9,23986.9,504.2,""oops"",""down"",""down"",""good_move"",30247.1,3158.4,2754.3,27088.7,404.1,""oops"",""down"",""up"",""bad_move"",39509,9260.7,1935.4,37101.3,472.3,""oops"",""down"",""down"",""good_move"",42186.7,2677.1,2215.7,39509.6,461.4,""oops"",""down"",""down"",""good_move"",45129.4,2942.1,2585.8,42187.3,356.3,""smooth"",""down"",""down"",""good_move"",48186.8,3056.3,2645.5,45130.5,410.8,""smooth"",""down"",""down"",""good_move""]"
"4991","","<div style=""width:500px;"">
  <p>What determined the result of this run?</p>
  </div>","55","html-slider-response","54","1270526","0.0-7.0-1.8","136","1","2025-08-06 08:52:08","36c45c0696341be0efffe67d72a12abb","41.114.198.60","Mozilla/5.0 (Windows NT 10.0; Win64; x64) AppleWebKit/537.36 (KHTML, like Gecko) Chrome/138.0.0.0 Safari/537.36","WebKit","Chrome","138.0.0.0","Windows","10.0","https://app.prolific.com/","en-US,en;q=0.9","6612e7f231d13a67b8e758cc","6877649eabb845cf142cd221","689317abb3889c2e20a147f2","1","6612e7f231d13a67b8e758cc","1","2025-08-06T09:13:21.815Z","","","","AttribQ","","","","","","","","","","","50","","","","","","","","","","","","","","","","","","","","","","","","","","",""
"3401","","<div style=""width:500px;"">
  <p>How much control did you have over the ball?</p>
  </div>","10","html-slider-response","55","1273930","0.0-7.0-2.8","136","1","2025-08-06 08:52:08","36c45c0696341be0efffe67d72a12abb","41.114.198.60","Mozilla/5.0 (Windows NT 10.0; Win64; x64) AppleWebKit/537.36 (KHTML, like Gecko) Chrome/138.0.0.0 Safari/537.36","WebKit","Chrome","138.0.0.0","Windows","10.0","https://app.prolific.com/","en-US,en;q=0.9","6612e7f231d13a67b8e758cc","6877649eabb845cf142cd221","689317abb3889c2e20a147f2","1","6612e7f231d13a67b8e758cc","1","2025-08-06T09:13:25.218Z","","","","ControlQ","","","","","","","","","","","50","","","","","","","","","","","","","","","","","","","","","","","","","","",""
"2916","","<div style=""width:500px;"">
  <p>How would you describe your current emotional state?</p>
  </div>","16","html-slider-response","56","1276848","0.0-7.0-3.8","136","1","2025-08-06 08:52:08","36c45c0696341be0efffe67d72a12abb","41.114.198.60","Mozilla/5.0 (Windows NT 10.0; Win64; x64) AppleWebKit/537.36 (KHTML, like Gecko) Chrome/138.0.0.0 Safari/537.36","WebKit","Chrome","138.0.0.0","Windows","10.0","https://app.prolific.com/","en-US,en;q=0.9","6612e7f231d13a67b8e758cc","6877649eabb845cf142cd221","689317abb3889c2e20a147f2","1","6612e7f231d13a67b8e758cc","1","2025-08-06T09:13:28.136Z","","","","StressQ","","","","","","","","","","","50","","","","","","","","","","","","","","","","","","","","","","","","","","",""
"5763","","<div style=""width:500px;"">
  <p>What best describes how you currently feel?</p>
  </div>","98","html-slider-response","57","1282615","0.0-7.0-4.8","136","1","2025-08-06 08:52:08","36c45c0696341be0efffe67d72a12abb","41.114.198.60","Mozilla/5.0 (Windows NT 10.0; Win64; x64) AppleWebKit/537.36 (KHTML, like Gecko) Chrome/138.0.0.0 Safari/537.36","WebKit","Chrome","138.0.0.0","Windows","10.0","https://app.prolific.com/","en-US,en;q=0.9","6612e7f231d13a67b8e758cc","6877649eabb845cf142cd221","689317abb3889c2e20a147f2","1","6612e7f231d13a67b8e758cc","1","2025-08-06T09:13:33.904Z","","","","MotivationQ","","","","","","","","","","","50","","","","","","","","","","","","","","","","","","","","","","","","","","",""
"","","","","ctl-task-cpt","58","1325611","0.0-7.0-0.9","136","1","2025-08-06 08:52:08","36c45c0696341be0efffe67d72a12abb","41.114.198.60","Mozilla/5.0 (Windows NT 10.0; Win64; x64) AppleWebKit/537.36 (KHTML, like Gecko) Chrome/138.0.0.0 Safari/537.36","WebKit","Chrome","138.0.0.0","Windows","10.0","https://app.prolific.com/","en-US,en;q=0.9","6612e7f231d13a67b8e758cc","6877649eabb845cf142cd221","689317abb3889c2e20a147f2","1","6612e7f231d13a67b8e758cc","1","2025-08-06T09:14:16.899Z","","","","","","","","","","","","","","","","win-only","1","g1:NE,g2:SW","0.5","10","0","1286091.1","2231.5","7242.7","39972.3","1","4","8","6","2","8","8","12","4","0.09090909090909091","1484.8","3000","725","[""down"",""left""]","{""num_key_presses"":10,""num_perfect"":5,""num_errors"":0,""num_randdir"":5,""num_randdir_good_moves"":3,""num_whilered"":0,""num_whileblue"":0,""num_blue"":1,""num_good_moves"":8}","[296.22232142857143,298.12857142857143,1.8,296.22232142857143,298.12857142857143,102.1,296.22232142857143,298.12857142857143,209.1,296.22232142857143,298.12857142857143,310.9,296.22232142857143,298.12857142857143,414.1,296.22232142857143,298.12857142857143,521.6,296.22232142857143,298.12857142857143,625.2,296.22232142857143,297.12857142857143,731.1,176.22232142857143,444.12857142857143,839.4,100.22232142857143,508.12857142857143,940.7,73.22232142857143,538.1285714285714,1048.4,49.222321428571426,557.1285714285714,1156.1,44.222321428571426,558.1285714285714,1262.5,44.222321428571426,558.1285714285714,1371.6,44.222321428571426,559.1285714285714,1488.3,44.222321428571426,559.1285714285714,1594.7,44.222321428571426,559.1285714285714,1703.1,44.222321428571426,559.1285714285714,1804.3,44.222321428571426,559.1285714285714,1905.8,44.222321428571426,559.1285714285714,2013.4,44.222321428571426,559.1285714285714,2116.8,44.222321428571426,559.1285714285714,2225.4,44.222321428571426,559.1285714285714,2331.2,44.222321428571426,559.1285714285714,2437.5,44.222321428571426,559.1285714285714,2537.7,44.222321428571426,559.1285714285714,2642.4,44.222321428571426,559.1285714285714,2751.2,44.222321428571426,559.1285714285714,2860.9,44.222321428571426,559.1285714285714,2961.6,44.222321428571426,559.1285714285714,3068.9,44.222321428571426,559.1285714285714,3169,44.222321428571426,559.1285714285714,3271.6,44.222321428571426,559.1285714285714,3372.9,44.222321428571426,559.1285714285714,3481.6,44.222321428571426,559.1285714285714,3587.9,44.222321428571426,559.1285714285714,3692.1,44.222321428571426,559.1285714285714,3806.1,44.222321428571426,559.1285714285714,3919,44.222321428571426,559.1285714285714,4023.2,44.222321428571426,559.1285714285714,4126,44.222321428571426,559.1285714285714,4227.7,44.222321428571426,559.1285714285714,4328.2,44.222321428571426,559.1285714285714,4435.8,44.222321428571426,559.1285714285714,4540.7,44.222321428571426,559.1285714285714,4641.2,44.222321428571426,559.1285714285714,4741.3,44.222321428571426,559.1285714285714,4845.6,44.222321428571426,559.1285714285714,4945.9]","[1391.8,1391.8,1000,0,391.8,""smooth"",""down"",""down"",""good_move"",4590.6,3198.3,2808.3,1392.3,390,""smooth"",""down"",""down"",""good_move"",7219.9,2628.7,2187.1,4591.3,441.5,""oops"",""down"",""down"",""good_move"",10780.8,3560.7,3122.8,7220.2,437.9,""oops"",""left"",""right"",""bad_move"",14590.2,3808.2,3211.5,10782,596.8,""oops"",""left"",""up"",""bad_move"",17148.4,2557.2,2097.8,14591.2,459.4,""smooth"",""left"",""left"",""good_move"",22915,5765,2141.1,20267.5,506.4,""smooth"",""left"",""left"",""good_move"",25950.8,3035.5,2592,22915.3,443.5,""oops"",""left"",""left"",""good_move"",28761.6,2809.4,2139,25952.2,670.4,""smooth"",""left"",""left"",""good_move"",32545.7,3783.5,3246.5,28762.2,537,""oops"",""down"",""down"",""good_move""]"
"9451","","<div style=""width:500px;"">
  <p>What determined the result of this run?</p>
  </div>","60","html-slider-response","59","1335065","0.0-7.0-1.9","136","1","2025-08-06 08:52:08","36c45c0696341be0efffe67d72a12abb","41.114.198.60","Mozilla/5.0 (Windows NT 10.0; Win64; x64) AppleWebKit/537.36 (KHTML, like Gecko) Chrome/138.0.0.0 Safari/537.36","WebKit","Chrome","138.0.0.0","Windows","10.0","https://app.prolific.com/","en-US,en;q=0.9","6612e7f231d13a67b8e758cc","6877649eabb845cf142cd221","689317abb3889c2e20a147f2","1","6612e7f231d13a67b8e758cc","1","2025-08-06T09:14:26.353Z","","","","AttribQ","","","","","","","","","","","50","","","","","","","","","","","","","","","","","","","","","","","","","","",""
"3130","","<div style=""width:500px;"">
  <p>How much control did you have over the ball?</p>
  </div>","34","html-slider-response","60","1338198","0.0-7.0-2.9","136","1","2025-08-06 08:52:08","36c45c0696341be0efffe67d72a12abb","41.114.198.60","Mozilla/5.0 (Windows NT 10.0; Win64; x64) AppleWebKit/537.36 (KHTML, like Gecko) Chrome/138.0.0.0 Safari/537.36","WebKit","Chrome","138.0.0.0","Windows","10.0","https://app.prolific.com/","en-US,en;q=0.9","6612e7f231d13a67b8e758cc","6877649eabb845cf142cd221","689317abb3889c2e20a147f2","1","6612e7f231d13a67b8e758cc","1","2025-08-06T09:14:29.486Z","","","","ControlQ","","","","","","","","","","","50","","","","","","","","","","","","","","","","","","","","","","","","","","",""
"4150","","<div style=""width:500px;"">
  <p>How would you describe your current emotional state?</p>
  </div>","6","html-slider-response","61","1342350","0.0-7.0-3.9","136","1","2025-08-06 08:52:08","36c45c0696341be0efffe67d72a12abb","41.114.198.60","Mozilla/5.0 (Windows NT 10.0; Win64; x64) AppleWebKit/537.36 (KHTML, like Gecko) Chrome/138.0.0.0 Safari/537.36","WebKit","Chrome","138.0.0.0","Windows","10.0","https://app.prolific.com/","en-US,en;q=0.9","6612e7f231d13a67b8e758cc","6877649eabb845cf142cd221","689317abb3889c2e20a147f2","1","6612e7f231d13a67b8e758cc","1","2025-08-06T09:14:33.638Z","","","","StressQ","","","","","","","","","","","50","","","","","","","","","","","","","","","","","","","","","","","","","","",""
"2408","","<div style=""width:500px;"">
  <p>What best describes how you currently feel?</p>
  </div>","98","html-slider-response","62","1344760","0.0-7.0-4.9","136","1","2025-08-06 08:52:08","36c45c0696341be0efffe67d72a12abb","41.114.198.60","Mozilla/5.0 (Windows NT 10.0; Win64; x64) AppleWebKit/537.36 (KHTML, like Gecko) Chrome/138.0.0.0 Safari/537.36","WebKit","Chrome","138.0.0.0","Windows","10.0","https://app.prolific.com/","en-US,en;q=0.9","6612e7f231d13a67b8e758cc","6877649eabb845cf142cd221","689317abb3889c2e20a147f2","1","6612e7f231d13a67b8e758cc","1","2025-08-06T09:14:36.048Z","","","","MotivationQ","","","","","","","","","","","50","","","","","","","","","","","","","","","","","","","","","","","","","","",""
"","","","","ctl-task-cpt","63","1397475","0.0-7.0-0.10","136","1","2025-08-06 08:52:08","36c45c0696341be0efffe67d72a12abb","41.114.198.60","Mozilla/5.0 (Windows NT 10.0; Win64; x64) AppleWebKit/537.36 (KHTML, like Gecko) Chrome/138.0.0.0 Safari/537.36","WebKit","Chrome","138.0.0.0","Windows","10.0","https://app.prolific.com/","en-US,en;q=0.9","6612e7f231d13a67b8e758cc","6877649eabb845cf142cd221","689317abb3889c2e20a147f2","1","6612e7f231d13a67b8e758cc","1","2025-08-06T09:15:28.763Z","","","","","","","","","","","","","","","","win-only","0","g1:NW,g2:SE","0.6","11","0","1348233.6","19000.8","24004.2","49698.8","1","4","8","6","2","8","8","20","12","0.15151515151515152","1421","3000","1440","[""down"",""right""]","{""num_key_presses"":8,""num_perfect"":5,""num_errors"":0,""num_randdir"":3,""num_randdir_good_moves"":2,""num_whilered"":0,""num_whileblue"":0,""num_blue"":1,""num_good_moves"":7}","[297.22232142857143,295.12857142857143,2.5,297.22232142857143,295.12857142857143,104.3,297.22232142857143,295.12857142857143,225.6,297.22232142857143,295.12857142857143,341.1,297.22232142857143,295.12857142857143,441.7,297.22232142857143,295.12857142857143,549.1,297.22232142857143,295.12857142857143,649.7,321.22232142857143,291.12857142857143,755.7,505.22232142857143,472.12857142857143,862.1,528.2223214285714,511.12857142857143,966,528.2223214285714,513.1285714285714,1068.1,530.2223214285714,525.1285714285714,1178.7,530.2223214285714,525.1285714285714,1282.4,530.2223214285714,525.1285714285714,1408.7,530.2223214285714,525.1285714285714,1512.5,530.2223214285714,525.1285714285714,1622.6,530.2223214285714,525.1285714285714,1723.6,530.2223214285714,525.1285714285714,1824,530.2223214285714,525.1285714285714,1932.1,530.2223214285714,525.1285714285714,2036.5,530.2223214285714,525.1285714285714,2151.5,530.2223214285714,525.1285714285714,2257.7,530.2223214285714,525.1285714285714,2361.5,530.2223214285714,525.1285714285714,2463,530.2223214285714,525.1285714285714,2570.9,530.2223214285714,525.1285714285714,2676.6,530.2223214285714,525.1285714285714,2778.3,530.2223214285714,525.1285714285714,2884.2,530.2223214285714,525.1285714285714,2986,530.2223214285714,525.1285714285714,3101,530.2223214285714,525.1285714285714,3205.3,530.2223214285714,525.1285714285714,3313,530.2223214285714,525.1285714285714,3415.9,530.2223214285714,525.1285714285714,3525,530.2223214285714,525.1285714285714,3634.8,530.2223214285714,525.1285714285714,3739.3,530.2223214285714,525.1285714285714,3843.7,530.2223214285714,525.1285714285714,3950.3,530.2223214285714,525.1285714285714,4061,530.2223214285714,525.1285714285714,4173,530.2223214285714,525.1285714285714,4278.1,530.2223214285714,525.1285714285714,4380.2,530.2223214285714,525.1285714285714,4483.6,530.2223214285714,525.1285714285714,4586.7,530.2223214285714,525.1285714285714,4691.9,530.2223214285714,525.1285714285714,4792,530.2223214285714,525.1285714285714,4896.2]","[1472.1,1472,1000,0.1,472,""smooth"",""down"",""down"",""good_move"",4604.3,3131.1,2655.7,1473.2,475.4,""oops"",""down"",""up"",""bad_move"",8131.2,3526.3,3052.2,4605,474.1,""oops"",""right"",""right"",""good_move"",11657.6,3525.2,3050.6,8132.4,474.6,""oops"",""right"",""down"",""good_move"",14590.9,2932.8,2475.7,11658.1,457.1,""smooth"",""down"",""down"",""good_move"",17054,2462.6,1993.7,14591.4,468.9,""smooth"",""down"",""down"",""good_move"",19740.1,2685.3,2212.1,17054.8,473.2,""smooth"",""right"",""right"",""good_move"",25462.7,5721.4,1840.9,23249.1,372.7,""smooth"",""right"",""right"",""good_move""]"
"7242","","<div style=""width:500px;"">
  <p>What determined the result of this run?</p>
  </div>","64","html-slider-response","64","1404718","0.0-7.0-1.10","136","1","2025-08-06 08:52:08","36c45c0696341be0efffe67d72a12abb","41.114.198.60","Mozilla/5.0 (Windows NT 10.0; Win64; x64) AppleWebKit/537.36 (KHTML, like Gecko) Chrome/138.0.0.0 Safari/537.36","WebKit","Chrome","138.0.0.0","Windows","10.0","https://app.prolific.com/","en-US,en;q=0.9","6612e7f231d13a67b8e758cc","6877649eabb845cf142cd221","689317abb3889c2e20a147f2","1","6612e7f231d13a67b8e758cc","1","2025-08-06T09:15:36.007Z","","","","AttribQ","","","","","","","","","","","50","","","","","","","","","","","","","","","","","","","","","","","","","","",""
"3614","","<div style=""width:500px;"">
  <p>How much control did you have over the ball?</p>
  </div>","62","html-slider-response","65","1408335","0.0-7.0-2.10","136","1","2025-08-06 08:52:08","36c45c0696341be0efffe67d72a12abb","41.114.198.60","Mozilla/5.0 (Windows NT 10.0; Win64; x64) AppleWebKit/537.36 (KHTML, like Gecko) Chrome/138.0.0.0 Safari/537.36","WebKit","Chrome","138.0.0.0","Windows","10.0","https://app.prolific.com/","en-US,en;q=0.9","6612e7f231d13a67b8e758cc","6877649eabb845cf142cd221","689317abb3889c2e20a147f2","1","6612e7f231d13a67b8e758cc","1","2025-08-06T09:15:39.624Z","","","","ControlQ","","","","","","","","","","","50","","","","","","","","","","","","","","","","","","","","","","","","","","",""
"2958","","<div style=""width:500px;"">
  <p>How would you describe your current emotional state?</p>
  </div>","3","html-slider-response","66","1411297","0.0-7.0-3.10","136","1","2025-08-06 08:52:08","36c45c0696341be0efffe67d72a12abb","41.114.198.60","Mozilla/5.0 (Windows NT 10.0; Win64; x64) AppleWebKit/537.36 (KHTML, like Gecko) Chrome/138.0.0.0 Safari/537.36","WebKit","Chrome","138.0.0.0","Windows","10.0","https://app.prolific.com/","en-US,en;q=0.9","6612e7f231d13a67b8e758cc","6877649eabb845cf142cd221","689317abb3889c2e20a147f2","1","6612e7f231d13a67b8e758cc","1","2025-08-06T09:15:42.585Z","","","","StressQ","","","","","","","","","","","50","","","","","","","","","","","","","","","","","","","","","","","","","","",""
"3267","","<div style=""width:500px;"">
  <p>What best describes how you currently feel?</p>
  </div>","100","html-slider-response","67","1414567","0.0-7.0-4.10","136","1","2025-08-06 08:52:08","36c45c0696341be0efffe67d72a12abb","41.114.198.60","Mozilla/5.0 (Windows NT 10.0; Win64; x64) AppleWebKit/537.36 (KHTML, like Gecko) Chrome/138.0.0.0 Safari/537.36","WebKit","Chrome","138.0.0.0","Windows","10.0","https://app.prolific.com/","en-US,en;q=0.9","6612e7f231d13a67b8e758cc","6877649eabb845cf142cd221","689317abb3889c2e20a147f2","1","6612e7f231d13a67b8e758cc","1","2025-08-06T09:15:45.855Z","","","","MotivationQ","","","","","","","","","","","50","","","","","","","","","","","","","","","","","","","","","","","","","","",""
"","","","","ctl-task-cpt","68","1483764","0.0-7.0-0.11","136","1","2025-08-06 08:52:08","36c45c0696341be0efffe67d72a12abb","41.114.198.60","Mozilla/5.0 (Windows NT 10.0; Win64; x64) AppleWebKit/537.36 (KHTML, like Gecko) Chrome/138.0.0.0 Safari/537.36","WebKit","Chrome","138.0.0.0","Windows","10.0","https://app.prolific.com/","en-US,en;q=0.9","6612e7f231d13a67b8e758cc","6877649eabb845cf142cd221","689317abb3889c2e20a147f2","1","6612e7f231d13a67b8e758cc","1","2025-08-06T09:16:55.052Z","","","","","","","","","","","","","","","","win-only","2","g1:SE,g2:NW","0.7","12","0","1418041.5","3708.7","8712.3","66170.1","1","4","4","6","2","4","4","24","20","0.18181818181818182","1405","3000","335","[""left"",""up""]","{""num_key_presses"":14,""num_perfect"":10,""num_errors"":0,""num_randdir"":4,""num_randdir_good_moves"":0,""num_whilered"":0,""num_whileblue"":0,""num_blue"":4,""num_good_moves"":10}","[298.22232142857143,293.12857142857143,0.8,298.22232142857143,293.12857142857143,104,298.22232142857143,293.12857142857143,213.9,298.22232142857143,293.12857142857143,322.3,298.22232142857143,293.12857142857143,433.6,298.22232142857143,293.12857142857143,549.3,298.22232142857143,293.12857142857143,652.3,296.22232142857143,293.12857142857143,761.7,144.22232142857143,167.12857142857143,873,64.22232142857143,68.12857142857143,975.2,62.222321428571426,61.128571428571426,1089.3,62.222321428571426,61.128571428571426,1204.3,62.222321428571426,61.128571428571426,1313.9,62.222321428571426,61.128571428571426,1420.3,62.222321428571426,61.128571428571426,1520.7,62.222321428571426,61.128571428571426,1622.9,62.222321428571426,61.128571428571426,1727.8,62.222321428571426,61.128571428571426,1828.6,62.222321428571426,61.128571428571426,1945.9,62.222321428571426,61.128571428571426,2050.9,62.222321428571426,61.128571428571426,2156.5,62.222321428571426,61.128571428571426,2257,62.222321428571426,61.128571428571426,2366.2,62.222321428571426,61.128571428571426,2466.5,62.222321428571426,61.128571428571426,2572.4,62.222321428571426,61.128571428571426,2682.5,62.222321428571426,61.128571428571426,2793.2,62.222321428571426,61.128571428571426,2894.7,62.222321428571426,61.128571428571426,3012.5,62.222321428571426,61.128571428571426,3115.2,62.222321428571426,61.128571428571426,3227,62.222321428571426,61.128571428571426,3332.7,62.222321428571426,61.128571428571426,3433.8,62.222321428571426,61.128571428571426,3539.1,62.222321428571426,61.128571428571426,3652.8,283.22232142857143,-14.871428571428574,3755,605.2223214285714,-16.871428571428574,3861.2,608.2223214285714,115.12857142857143,3963,463.22232142857143,294.12857142857143,4074.6,397.22232142857143,330.12857142857143,4176.2,396.22232142857143,330.12857142857143,4281.5,396.22232142857143,330.12857142857143,4382.2,396.22232142857143,330.12857142857143,4493.4,396.22232142857143,330.12857142857143,4604.3,396.22232142857143,330.12857142857143,4715.5,396.22232142857143,330.12857142857143,4827.8,396.22232142857143,330.12857142857143,4933.1]","[1456.4,1456.4,1000,0,456.4,""smooth"",""left"",""left"",""good_move"",4471.6,3014.7,1969,1456.9,1045.8,""smooth"",""left"",""left"",""good_move"",7744.6,3272.5,2464.6,4472.1,807.9,""oops"",""left"",""right"",""bad_move"",11371,3625.5,3023.6,7745.5,601.9,""smooth"",""up"",""up"",""good_move"",21827.1,10455.1,2356.4,19013.9,456.8,""smooth"",""left"",""left"",""good_move"",24555.6,2727.9,2116.3,21827.7,611.6,""oops"",""left"",""down"",""bad_move"",28348.5,3792.1,3234.2,24556.4,557.9,""smooth"",""left"",""left"",""good_move"",31212.6,2863.6,2359.8,28349,503.8,""oops"",""up"",""right"",""bad_move"",38284.1,7070.3,2130,35646.2,507.9,""smooth"",""up"",""up"",""good_move"",41788.4,3503.6,2944.7,38284.8,558.9,""smooth"",""up"",""up"",""good_move"",48366.9,6578.2,3066.2,44807.6,493.1,""smooth"",""left"",""left"",""good_move"",51277.9,2910.3,2518,48367.6,392.3,""oops"",""up"",""down"",""bad_move"",54011.4,2732.2,2230.2,51279.2,502,""smooth"",""up"",""up"",""good_move"",57234.1,3221.2,2848.6,54013.1,372.4,""smooth"",""up"",""up"",""good_move""]"
"6263","","<div style=""width:500px;"">
  <p>What determined the result of this run?</p>
  </div>","60","html-slider-response","69","1490030","0.0-7.0-1.11","136","1","2025-08-06 08:52:08","36c45c0696341be0efffe67d72a12abb","41.114.198.60","Mozilla/5.0 (Windows NT 10.0; Win64; x64) AppleWebKit/537.36 (KHTML, like Gecko) Chrome/138.0.0.0 Safari/537.36","WebKit","Chrome","138.0.0.0","Windows","10.0","https://app.prolific.com/","en-US,en;q=0.9","6612e7f231d13a67b8e758cc","6877649eabb845cf142cd221","689317abb3889c2e20a147f2","1","6612e7f231d13a67b8e758cc","1","2025-08-06T09:17:01.318Z","","","","AttribQ","","","","","","","","","","","50","","","","","","","","","","","","","","","","","","","","","","","","","","",""
"11846","","<div style=""width:500px;"">
  <p>How much control did you have over the ball?</p>
  </div>","35","html-slider-response","70","1501879","0.0-7.0-2.11","136","1","2025-08-06 08:52:08","36c45c0696341be0efffe67d72a12abb","41.114.198.60","Mozilla/5.0 (Windows NT 10.0; Win64; x64) AppleWebKit/537.36 (KHTML, like Gecko) Chrome/138.0.0.0 Safari/537.36","WebKit","Chrome","138.0.0.0","Windows","10.0","https://app.prolific.com/","en-US,en;q=0.9","6612e7f231d13a67b8e758cc","6877649eabb845cf142cd221","689317abb3889c2e20a147f2","1","6612e7f231d13a67b8e758cc","1","2025-08-06T09:17:13.167Z","","","","ControlQ","","","","","","","","","","","50","","","","","","","","","","","","","","","","","","","","","","","","","","",""
"6281","","<div style=""width:500px;"">
  <p>How would you describe your current emotional state?</p>
  </div>","2","html-slider-response","71","1508163","0.0-7.0-3.11","136","1","2025-08-06 08:52:08","36c45c0696341be0efffe67d72a12abb","41.114.198.60","Mozilla/5.0 (Windows NT 10.0; Win64; x64) AppleWebKit/537.36 (KHTML, like Gecko) Chrome/138.0.0.0 Safari/537.36","WebKit","Chrome","138.0.0.0","Windows","10.0","https://app.prolific.com/","en-US,en;q=0.9","6612e7f231d13a67b8e758cc","6877649eabb845cf142cd221","689317abb3889c2e20a147f2","1","6612e7f231d13a67b8e758cc","1","2025-08-06T09:17:19.451Z","","","","StressQ","","","","","","","","","","","50","","","","","","","","","","","","","","","","","","","","","","","","","","",""
"6848","","<div style=""width:500px;"">
  <p>What best describes how you currently feel?</p>
  </div>","100","html-slider-response","72","1515013","0.0-7.0-4.11","136","1","2025-08-06 08:52:08","36c45c0696341be0efffe67d72a12abb","41.114.198.60","Mozilla/5.0 (Windows NT 10.0; Win64; x64) AppleWebKit/537.36 (KHTML, like Gecko) Chrome/138.0.0.0 Safari/537.36","WebKit","Chrome","138.0.0.0","Windows","10.0","https://app.prolific.com/","en-US,en;q=0.9","6612e7f231d13a67b8e758cc","6877649eabb845cf142cd221","689317abb3889c2e20a147f2","1","6612e7f231d13a67b8e758cc","1","2025-08-06T09:17:26.301Z","","","","MotivationQ","","","","","","","","","","","50","","","","","","","","","","","","","","","","","","","","","","","","","","",""
"","","","","ctl-task-cpt","73","1563385","0.0-7.0-0.12","136","1","2025-08-06 08:52:08","36c45c0696341be0efffe67d72a12abb","41.114.198.60","Mozilla/5.0 (Windows NT 10.0; Win64; x64) AppleWebKit/537.36 (KHTML, like Gecko) Chrome/138.0.0.0 Safari/537.36","WebKit","Chrome","138.0.0.0","Windows","10.0","https://app.prolific.com/","en-US,en;q=0.9","6612e7f231d13a67b8e758cc","6877649eabb845cf142cd221","689317abb3889c2e20a147f2","1","6612e7f231d13a67b8e758cc","1","2025-08-06T09:18:14.674Z","","","","","","","","","","","","","","","","win-only","1","g1:NE,g2:SW","0.8","13","0","1518486.9","11380.4","16387.4","45345.7","1","4","8","6","2","8","7","31","24","0.23484848484848486","1803.5","3000","1455","[""down"",""left""]","{""num_key_presses"":10,""num_perfect"":7,""num_errors"":1,""num_randdir"":2,""num_randdir_good_moves"":0,""num_whilered"":0,""num_whileblue"":1,""num_blue"":1,""num_good_moves"":8}","[297.22232142857143,303.12857142857143,2.8,297.22232142857143,303.12857142857143,106.2,297.22232142857143,303.12857142857143,228,297.22232142857143,303.12857142857143,336.4,297.22232142857143,303.12857142857143,439,297.22232142857143,303.12857142857143,542.1,297.22232142857143,303.12857142857143,647,297.22232142857143,303.12857142857143,768.4,275.22232142857143,319.12857142857143,868.5,120.22232142857143,479.12857142857143,970.5,29.222321428571426,569.1285714285714,1080.1,21.222321428571426,577.1285714285714,1190,20.222321428571426,578.1285714285714,1297,30.222321428571426,567.1285714285714,1404.1,43.222321428571426,555.1285714285714,1507.1,43.222321428571426,555.1285714285714,1619,43.222321428571426,555.1285714285714,1725.3,43.222321428571426,555.1285714285714,1837.4,43.222321428571426,555.1285714285714,1947.4,43.222321428571426,555.1285714285714,2052.2,43.222321428571426,555.1285714285714,2159.6,43.222321428571426,555.1285714285714,2272.5,43.222321428571426,555.1285714285714,2377.6,43.222321428571426,555.1285714285714,2491,43.222321428571426,555.1285714285714,2597.5,43.222321428571426,555.1285714285714,2708,43.222321428571426,555.1285714285714,2817.1,43.222321428571426,555.1285714285714,2924,43.222321428571426,555.1285714285714,3026.6,43.222321428571426,555.1285714285714,3138.3,43.222321428571426,555.1285714285714,3244.9,43.222321428571426,555.1285714285714,3347.7,43.222321428571426,555.1285714285714,3448.3,43.222321428571426,555.1285714285714,3549.4,43.222321428571426,555.1285714285714,3652.7,43.222321428571426,555.1285714285714,3755.6,43.222321428571426,555.1285714285714,3880.2,43.222321428571426,555.1285714285714,3981.3,43.222321428571426,555.1285714285714,4088.1,43.222321428571426,555.1285714285714,4207.9,43.222321428571426,555.1285714285714,4311.2,43.222321428571426,555.1285714285714,4417.6,43.222321428571426,555.1285714285714,4526.4,43.222321428571426,555.1285714285714,4630.6,43.222321428571426,555.1285714285714,4736.8,43.222321428571426,555.1285714285714,4838.5,43.222321428571426,555.1285714285714,4946.4]","[1440.3,1440.3,1000,0,440.3,""smooth"",""down"",""down"",""good_move"",4858,3416.9,2917.4,1441.1,499.5,""smooth"",""left"",""left"",""good_move"",8048.5,3189.1,2725.8,4859.5,463.2,""oops"",""left"",""up"",""bad_move"",11102.5,3052.8,2323.8,8049.7,729,""smooth"",""left"",""left"",""good_move"",14045.1,2942,2441.4,11103.2,500.5,""oops"",""left"",""up"",""bad_move"",17286.2,3240.5,2796.9,14045.8,443.6,""smooth"",""left"",""left"",""good_move"",19751,2464.2,1965.1,17286.8,499.1,""smooth"",""down"",""down"",""good_move"",23024.8,3272.8,2850.9,19752,421.9,""while_blue"",""down"",""down"",""good_move"",25714.6,2688.9,2110.5,23025.7,578.4,""smooth"",""down"",""down"",""good_move"",28706.1,2991,2553.9,25715.1,437.1,""smooth"",""down"",""down"",""good_move""]"
"5288","","<div style=""width:500px;"">
  <p>What determined the result of this run?</p>
  </div>","63","html-slider-response","74","1568675","0.0-7.0-1.12","136","1","2025-08-06 08:52:08","36c45c0696341be0efffe67d72a12abb","41.114.198.60","Mozilla/5.0 (Windows NT 10.0; Win64; x64) AppleWebKit/537.36 (KHTML, like Gecko) Chrome/138.0.0.0 Safari/537.36","WebKit","Chrome","138.0.0.0","Windows","10.0","https://app.prolific.com/","en-US,en;q=0.9","6612e7f231d13a67b8e758cc","6877649eabb845cf142cd221","689317abb3889c2e20a147f2","1","6612e7f231d13a67b8e758cc","1","2025-08-06T09:18:19.963Z","","","","AttribQ","","","","","","","","","","","50","","","","","","","","","","","","","","","","","","","","","","","","","","",""
"3172","","<div style=""width:500px;"">
  <p>How much control did you have over the ball?</p>
  </div>","81","html-slider-response","75","1571850","0.0-7.0-2.12","136","1","2025-08-06 08:52:08","36c45c0696341be0efffe67d72a12abb","41.114.198.60","Mozilla/5.0 (Windows NT 10.0; Win64; x64) AppleWebKit/537.36 (KHTML, like Gecko) Chrome/138.0.0.0 Safari/537.36","WebKit","Chrome","138.0.0.0","Windows","10.0","https://app.prolific.com/","en-US,en;q=0.9","6612e7f231d13a67b8e758cc","6877649eabb845cf142cd221","689317abb3889c2e20a147f2","1","6612e7f231d13a67b8e758cc","1","2025-08-06T09:18:23.138Z","","","","ControlQ","","","","","","","","","","","50","","","","","","","","","","","","","","","","","","","","","","","","","","",""
"4928","","<div style=""width:500px;"">
  <p>How would you describe your current emotional state?</p>
  </div>","1","html-slider-response","76","1576781","0.0-7.0-3.12","136","1","2025-08-06 08:52:08","36c45c0696341be0efffe67d72a12abb","41.114.198.60","Mozilla/5.0 (Windows NT 10.0; Win64; x64) AppleWebKit/537.36 (KHTML, like Gecko) Chrome/138.0.0.0 Safari/537.36","WebKit","Chrome","138.0.0.0","Windows","10.0","https://app.prolific.com/","en-US,en;q=0.9","6612e7f231d13a67b8e758cc","6877649eabb845cf142cd221","689317abb3889c2e20a147f2","1","6612e7f231d13a67b8e758cc","1","2025-08-06T09:18:28.070Z","","","","StressQ","","","","","","","","","","","50","","","","","","","","","","","","","","","","","","","","","","","","","","",""
"3577","","<div style=""width:500px;"">
  <p>What best describes how you currently feel?</p>
  </div>","100","html-slider-response","77","1580362","0.0-7.0-4.12","136","1","2025-08-06 08:52:08","36c45c0696341be0efffe67d72a12abb","41.114.198.60","Mozilla/5.0 (Windows NT 10.0; Win64; x64) AppleWebKit/537.36 (KHTML, like Gecko) Chrome/138.0.0.0 Safari/537.36","WebKit","Chrome","138.0.0.0","Windows","10.0","https://app.prolific.com/","en-US,en;q=0.9","6612e7f231d13a67b8e758cc","6877649eabb845cf142cd221","689317abb3889c2e20a147f2","1","6612e7f231d13a67b8e758cc","1","2025-08-06T09:18:31.650Z","","","","MotivationQ","","","","","","","","","","","50","","","","","","","","","","","","","","","","","","","","","","","","","","",""
