"rt","response_timestamp","stimulus","response","trial_type","trial_index","time_elapsed","internal_node_id","run_id","condition","recorded_at","source_code_version","ip","user_agent","device","browser","browser_version","platform","platform_version","referer","accept_language","PROLIFIC_PID","STUDY_ID","SESSION_ID","BATCH","prolific_id","batch","realtime","success","question_order","question_id","eventType","responses","item_order","radio_event_ids","radio_event_times","key_event_times","mouse_event_times","straightlining","zigzagging","honeypot","view_history","slider_start","which_type","canvas_config","goals_layout","control_level","trial_number","tutorial_trial_number","trial_start_time","phase1_start_time","phase2_start_time","phase3_start_time","goal_1_value","goal_1_distance","goal_2_value","goal_2_distance","goal_selected","outcome","outcome_total","participant_final_score","participant_initial_score","participant_final_score_prop","goal_choice_rt","allocated_time","allocated_time_remaining","goal_direction","counts","mouse_movements","key_presses"
"14025","1754470256911","<p style='font-size:40px;line-height:1.25'><strong>Welcome to the experiment!</strong></p><p style='font-size:1.1em;line-height:1.25'>Thank you for participanting in our experiment again! You will be asked to play the Dysfunctional Ball Game again. We will briefly recap the rules before we start.</p><p style='font-size:1.1em;line-height:1.25'>Press <strong>Next</strong> to continue.</p>","0","custom-html-button-response","0","14028","0.0-0.0","129","1","2025-08-06 08:50:41","36c45c0696341be0efffe67d72a12abb","90.227.165.225","Mozilla/5.0 (Macintosh; Intel Mac OS X 10_15_7) AppleWebKit/537.36 (KHTML, like Gecko) Chrome/138.0.0.0 Safari/537.36","Macintosh","Chrome","138.0.0.0","OS X","10_15_7","https://app.prolific.com/","en-GB,en-US;q=0.9,en;q=0.8","6617c54a41ce14946db85944","687a1a965b9f5b85a264363e","6893175d4f34c5a92f86bc65","1","6617c54a41ce14946db85944","1","2025-08-06T08:50:56.913Z","","","","","","","","","","","","","","","","","","","","","","","","","","","","","","","","","","","","","","","","","",""
"10046","","","","fullscreen","1","25079","0.0-1.0","129","1","2025-08-06 08:50:41","36c45c0696341be0efffe67d72a12abb","90.227.165.225","Mozilla/5.0 (Macintosh; Intel Mac OS X 10_15_7) AppleWebKit/537.36 (KHTML, like Gecko) Chrome/138.0.0.0 Safari/537.36","Macintosh","Chrome","138.0.0.0","OS X","10_15_7","https://app.prolific.com/","en-GB,en-US;q=0.9,en;q=0.8","6617c54a41ce14946db85944","687a1a965b9f5b85a264363e","6893175d4f34c5a92f86bc65","1","6617c54a41ce14946db85944","1","","true","","","","","","","","","","","","","","","","","","","","","","","","","","","","","","","","","","","","","","","","",""
"2044","1754470270010"," <p style='font-size:1.1em;line-height:1.25'>Thank you for closing all other tabs.</p><p style='font-size:1.1em;line-height:1.25'>We will now invite you to fill in some questionnaires, before starting the game.<br>This will take about 5 minutes.<br></p><p style='font-size:1.1em;line-height:1.25'>Press the <strong>Next</strong> button to continue.</p>","0","custom-html-button-response","2","27125","0.0-2.0","129","1","2025-08-06 08:50:41","36c45c0696341be0efffe67d72a12abb","90.227.165.225","Mozilla/5.0 (Macintosh; Intel Mac OS X 10_15_7) AppleWebKit/537.36 (KHTML, like Gecko) Chrome/138.0.0.0 Safari/537.36","Macintosh","Chrome","138.0.0.0","OS X","10_15_7","https://app.prolific.com/","en-GB,en-US;q=0.9,en;q=0.8","6617c54a41ce14946db85944","687a1a965b9f5b85a264363e","6893175d4f34c5a92f86bc65","1","6617c54a41ce14946db85944","1","2025-08-06T08:51:10.010Z","","","","","","","","","","","","","","","","","","","","","","","","","","","","","","","","","","","","","","","","","",""
"2184","","","{""assigned_sex"":""female""}","survey-multi-choice","3","29312","0.0-3.0-0.0","129","1","2025-08-06 08:50:41","36c45c0696341be0efffe67d72a12abb","90.227.165.225","Mozilla/5.0 (Macintosh; Intel Mac OS X 10_15_7) AppleWebKit/537.36 (KHTML, like Gecko) Chrome/138.0.0.0 Safari/537.36","Macintosh","Chrome","138.0.0.0","OS X","10_15_7","https://app.prolific.com/","en-GB,en-US;q=0.9,en;q=0.8","6617c54a41ce14946db85944","687a1a965b9f5b85a264363e","6893175d4f34c5a92f86bc65","1","6617c54a41ce14946db85944","1","","","[0]","0","demographics","","","","","","","","","","","","","","","","","","","","","","","","","","","","","","","","","","","","","",""
"2828","1754470275026","<p style='font-size:1.1em;line-height:1.25'>In the following, we will perform a baseline assessment. This means that we will ask you a few questions relating to your experiences over the past month.<br></p><p style='font-size:1.1em;line-height:1.25'>Press the <strong>Next</strong> button to continue.</p>","0","custom-html-button-response","4","32142","0.0-4.0-0.0","129","1","2025-08-06 08:50:41","36c45c0696341be0efffe67d72a12abb","90.227.165.225","Mozilla/5.0 (Macintosh; Intel Mac OS X 10_15_7) AppleWebKit/537.36 (KHTML, like Gecko) Chrome/138.0.0.0 Safari/537.36","Macintosh","Chrome","138.0.0.0","OS X","10_15_7","https://app.prolific.com/","en-GB,en-US;q=0.9,en;q=0.8","6617c54a41ce14946db85944","687a1a965b9f5b85a264363e","6893175d4f34c5a92f86bc65","1","6617c54a41ce14946db85944","1","2025-08-06T08:51:15.027Z","","","","","","","","","","","","","","","","","","","","","","","","","","","","","","","","","","","","","","","","","",""
"46649.299999952316","","","","survey-template","5","78795","0.0-4.0-1.0","129","1","2025-08-06 08:50:41","36c45c0696341be0efffe67d72a12abb","90.227.165.225","Mozilla/5.0 (Macintosh; Intel Mac OS X 10_15_7) AppleWebKit/537.36 (KHTML, like Gecko) Chrome/138.0.0.0 Safari/537.36","Macintosh","Chrome","138.0.0.0","OS X","10_15_7","https://app.prolific.com/","en-GB,en-US;q=0.9,en;q=0.8","6617c54a41ce14946db85944","687a1a965b9f5b85a264363e","6893175d4f34c5a92f86bc65","1","6617c54a41ce14946db85944","1","2025-08-06T08:52:01.680Z","","","","pss","{""Q01"":""1"",""Q02"":""2"",""Q03"":""1"",""Q04"":""1"",""Q05"":""1"",""Q06"":""1"",""Q07"":""0"",""Q08"":""1"",""Q09"":""0"",""Q10"":""0""}","[0,1,2,3,4,5,6,7,8,9]","[""Q01"",""Q02"",""Q03"",""Q04"",""Q05"",""Q06"",""Q07"",""Q08"",""Q08"",""Q09"",""Q10""]","[4196.299999952316,9382.799999952316,10829.5,14130,16379.600000143051,29430.900000095367,31299,33930.60000014305,35930.90000009537,43414.299999952316,45864.200000047684]","[]","[0.10000014305114746,3429.4000000953674,4196.299999952316,7182.700000047684,8312.900000095367,9382.799999952316,10829.5,14130,16379.600000143051,28429.799999952316,29430.900000095367,31299,33930.60000014305,35930.90000009537,43414.299999952316,45214.299999952316,45864.200000047684,46646.90000009537]","0.3","0.3333333333333333","0","","","","","","","","","","","","","","","","","","","","","","","","","","","","",""
"1844","1754470323526","<p style='font-size:1.1em;line-height:1.25'>Thank you for your answers! Now we will ask you a few more questions relating to your feelings in the last 24 hours.<br></p><p style='font-size:1.1em;line-height:1.25'>Press the <strong>Next</strong> button to continue.</p>","0","custom-html-button-response","6","80642","0.0-4.0-2.0","129","1","2025-08-06 08:50:41","36c45c0696341be0efffe67d72a12abb","90.227.165.225","Mozilla/5.0 (Macintosh; Intel Mac OS X 10_15_7) AppleWebKit/537.36 (KHTML, like Gecko) Chrome/138.0.0.0 Safari/537.36","Macintosh","Chrome","138.0.0.0","OS X","10_15_7","https://app.prolific.com/","en-GB,en-US;q=0.9,en;q=0.8","6617c54a41ce14946db85944","687a1a965b9f5b85a264363e","6893175d4f34c5a92f86bc65","1","6617c54a41ce14946db85944","1","2025-08-06T08:52:03.527Z","","","","","","","","","","","","","","","","","","","","","","","","","","","","","","","","","","","","","","","","","",""
"48236.5","","","","survey-template","7","128881","0.0-4.0-3.0","129","1","2025-08-06 08:50:41","36c45c0696341be0efffe67d72a12abb","90.227.165.225","Mozilla/5.0 (Macintosh; Intel Mac OS X 10_15_7) AppleWebKit/537.36 (KHTML, like Gecko) Chrome/138.0.0.0 Safari/537.36","Macintosh","Chrome","138.0.0.0","OS X","10_15_7","https://app.prolific.com/","en-GB,en-US;q=0.9,en;q=0.8","6617c54a41ce14946db85944","687a1a965b9f5b85a264363e","6893175d4f34c5a92f86bc65","1","6617c54a41ce14946db85944","1","2025-08-06T08:52:51.766Z","","","","drsp","{""Q01"":""0"",""Q02"":""1"",""Q03"":""0"",""Q04"":""1"",""Q05"":""0"",""Q06"":""0"",""Q07"":""0"",""Q08"":""1"",""Q09"":""1"",""Q10"":""2"",""Q11"":""1"",""Q12"":""0"",""Q13"":""5"",""Q14"":""1"",""Q15"":""2"",""Q16"":""2"",""Q17"":""0"",""Q18"":""0"",""Q19"":""0"",""Q20"":""1"",""Q21"":""1"",""Q22"":""1""}","[0,1,2,3,4,5,6,7,8,9,10,11,12,13,14,15,16,17,18,19,20,21]","[""Q01"",""Q02"",""Q03"",""Q04"",""Q05"",""Q06"",""Q07"",""Q08"",""Q09"",""Q10"",""Q11"",""Q12"",""Q13"",""Q14"",""Q15"",""Q16"",""Q16"",""Q17"",""Q18"",""Q19"",""Q20"",""Q21"",""Q22""]","[3030,4230.200000047684,4880.400000095367,6080.5,6815.300000190735,7997.5,8831.600000143051,10081.100000143051,12213.600000143051,14480.800000190735,16331.100000143051,18916.200000047684,20647.900000095367,23632,28765,32033,32648.200000047684,34065.200000047684,35247.800000190735,36847.90000009537,40097.800000190735,44348.200000047684,46531.700000047684]","[]","[0.10000014305114746,1563.5,2431.300000190735,3030,3716.100000143051,4230.200000047684,4880.400000095367,6080.5,6815.300000190735,7997.5,8831.600000143051,10081.100000143051,12213.600000143051,14480.800000190735,16331.100000143051,18916.200000047684,20647.900000095367,23632,28765,32033,32648.200000047684,34065.200000047684,35247.800000190735,36847.90000009537,40097.800000190735,44348.200000047684,46531.700000047684,48232]","0.4090909090909091","0.5238095238095238","0","","","","","","","","","","","","","","","","","","","","","","","","","","","","",""
"7976","","","","survey-template","8","136860","0.0-4.0-4.0","129","1","2025-08-06 08:50:41","36c45c0696341be0efffe67d72a12abb","90.227.165.225","Mozilla/5.0 (Macintosh; Intel Mac OS X 10_15_7) AppleWebKit/537.36 (KHTML, like Gecko) Chrome/138.0.0.0 Safari/537.36","Macintosh","Chrome","138.0.0.0","OS X","10_15_7","https://app.prolific.com/","en-GB,en-US;q=0.9,en;q=0.8","6617c54a41ce14946db85944","687a1a965b9f5b85a264363e","6893175d4f34c5a92f86bc65","1","6617c54a41ce14946db85944","1","2025-08-06T08:52:59.745Z","","","","stress","{""Q01"":""1"",""Q02"":""2"",""Q03"":""0""}","[0,1,2]","[""Q01"",""Q02"",""Q03"",""Q03""]","[2341.5,4425.900000095367,6340.700000047684,6858.400000095367]","[]","[2341.5,4425.900000095367,6340.700000047684,6858.400000095367,7974.5]","0.3333333333333333","0","0","","","","","","","","","","","","","","","","","","","","","","","","","","","","",""
"15348","","","","instructions","9","152209","0.0-5.0-0.0","129","1","2025-08-06 08:50:41","36c45c0696341be0efffe67d72a12abb","90.227.165.225","Mozilla/5.0 (Macintosh; Intel Mac OS X 10_15_7) AppleWebKit/537.36 (KHTML, like Gecko) Chrome/138.0.0.0 Safari/537.36","Macintosh","Chrome","138.0.0.0","OS X","10_15_7","https://app.prolific.com/","en-GB,en-US;q=0.9,en;q=0.8","6617c54a41ce14946db85944","687a1a965b9f5b85a264363e","6893175d4f34c5a92f86bc65","1","6617c54a41ce14946db85944","1","","","","","","","","","","","","","","","[{""page_index"":0,""viewing_time"":15347}]","","","","","","","","","","","","","","","","","","","","","","","","","","","",""
"3277","","<p>Before you start with this game please answer the following three questions yourself. </p>
  <p>Through this game, we measure several aspects of your cognitive performance, such as reaction times, multi-tasking capabilities </p>
  <p>and the ability to assess the situation you are in.</p>
  <p></p>
  <p><b>How good do you usually are in such tasks?</b></p>","20","html-slider-response","10","155491","0.0-6.0-0.0","129","1","2025-08-06 08:50:41","36c45c0696341be0efffe67d72a12abb","90.227.165.225","Mozilla/5.0 (Macintosh; Intel Mac OS X 10_15_7) AppleWebKit/537.36 (KHTML, like Gecko) Chrome/138.0.0.0 Safari/537.36","Macintosh","Chrome","138.0.0.0","OS X","10_15_7","https://app.prolific.com/","en-GB,en-US;q=0.9,en;q=0.8","6617c54a41ce14946db85944","687a1a965b9f5b85a264363e","6893175d4f34c5a92f86bc65","1","6617c54a41ce14946db85944","1","2025-08-06T08:53:18.376Z","","","","PreSkillQ","","","","","","","","","","","50","","","","","","","","","","","","","","","","","","","","","","","","","","",""
"3566","","<div style=""width:500px;"">
  <p>How well do you think you will perform in this task compared to other participants?</p>
  </div>","36","html-slider-response","11","159058","0.0-6.0-1.0","129","1","2025-08-06 08:50:41","36c45c0696341be0efffe67d72a12abb","90.227.165.225","Mozilla/5.0 (Macintosh; Intel Mac OS X 10_15_7) AppleWebKit/537.36 (KHTML, like Gecko) Chrome/138.0.0.0 Safari/537.36","Macintosh","Chrome","138.0.0.0","OS X","10_15_7","https://app.prolific.com/","en-GB,en-US;q=0.9,en;q=0.8","6617c54a41ce14946db85944","687a1a965b9f5b85a264363e","6893175d4f34c5a92f86bc65","1","6617c54a41ce14946db85944","1","2025-08-06T08:53:21.943Z","","","","PrePerfQ","","","","","","","","","","","50","","","","","","","","","","","","","","","","","","","","","","","","","","",""
"3333","","<div style=""width:500px;"">
  <p>What best describes how you currently feel?</p>
  </div>","59","html-slider-response","12","162393","0.0-6.0-2.0","129","1","2025-08-06 08:50:41","36c45c0696341be0efffe67d72a12abb","90.227.165.225","Mozilla/5.0 (Macintosh; Intel Mac OS X 10_15_7) AppleWebKit/537.36 (KHTML, like Gecko) Chrome/138.0.0.0 Safari/537.36","Macintosh","Chrome","138.0.0.0","OS X","10_15_7","https://app.prolific.com/","en-GB,en-US;q=0.9,en;q=0.8","6617c54a41ce14946db85944","687a1a965b9f5b85a264363e","6893175d4f34c5a92f86bc65","1","6617c54a41ce14946db85944","1","2025-08-06T08:53:25.278Z","","","","PreMotivationQ","","","","","","","","","","","50","","","","","","","","","","","","","","","","","","","","","","","","","","",""
"","","","","ctl-task-cpt","13","193181","0.0-7.0-0.0","129","1","2025-08-06 08:50:41","36c45c0696341be0efffe67d72a12abb","90.227.165.225","Mozilla/5.0 (Macintosh; Intel Mac OS X 10_15_7) AppleWebKit/537.36 (KHTML, like Gecko) Chrome/138.0.0.0 Safari/537.36","Macintosh","Chrome","138.0.0.0","OS X","10_15_7","https://app.prolific.com/","en-GB,en-US;q=0.9,en;q=0.8","6617c54a41ce14946db85944","687a1a965b9f5b85a264363e","6893175d4f34c5a92f86bc65","1","6617c54a41ce14946db85944","1","2025-08-06T08:53:56.066Z","","","","","","","","","","","","","","","","win-only","3","g1:SW,g2:NE","1","1","0","163498.5","1296.3","6301.3","27781.9","1","4","8","6","2","8","7","7","0","0.05303030303030303","2152.6","3000","630","[""up"",""right""]","{""num_key_presses"":7,""num_perfect"":6,""num_errors"":1,""num_randdir"":0,""num_randdir_good_moves"":0,""num_whilered"":0,""num_whileblue"":0,""num_blue"":1,""num_good_moves"":6}","[696.2857142857143,702.0825892857143,0.2,696.2857142857143,702.0825892857143,104.1,696.2857142857143,702.0825892857143,204.9,696.2857142857143,702.0825892857143,309.7,696.2857142857143,702.0825892857143,409.7,696.2857142857143,702.0825892857143,510.2,696.2857142857143,702.0825892857143,615.1,696.2857142857143,702.0825892857143,715.2,696.2857142857143,702.0825892857143,815.7,696.2857142857143,702.0825892857143,919.2,696.2857142857143,702.0825892857143,1024.5,696.2857142857143,702.0825892857143,1125.5,696.2857142857143,702.0825892857143,1230.4,696.2857142857143,702.0825892857143,1334.9,696.2857142857143,702.0825892857143,1435.1,696.2857142857143,702.0825892857143,1540.2,700.2857142857143,700.0825892857143,1644.5,1158.2857142857142,258.0825892857143,1744.9,1270.2857142857142,142.08258928571428,1849.8,1264.2857142857142,142.08258928571428,1950,1262.2857142857142,138.08258928571428,2054.3,1262.2857142857142,138.08258928571428,2155.3,1262.2857142857142,138.08258928571428,2260.5,1262.2857142857142,138.08258928571428,2365.5,1262.2857142857142,138.08258928571428,2465.7,1262.2857142857142,138.08258928571428,2569.6,1262.2857142857142,138.08258928571428,2674.7,1262.2857142857142,138.08258928571428,2775.5,1262.2857142857142,138.08258928571428,2879.7,1262.2857142857142,138.08258928571428,2980.8,1262.2857142857142,138.08258928571428,3084.7,1262.2857142857142,138.08258928571428,3184.7,1262.2857142857142,138.08258928571428,3290,1262.2857142857142,138.08258928571428,3394.6,1262.2857142857142,138.08258928571428,3495.5,1262.2857142857142,138.08258928571428,3600.3,1262.2857142857142,138.08258928571428,3704.3,1262.2857142857142,138.08258928571428,3809.8,1262.2857142857142,138.08258928571428,3915.6,1262.2857142857142,138.08258928571428,4019.1,1262.2857142857142,138.08258928571428,4119.1,1262.2857142857142,138.08258928571428,4219.1,1262.2857142857142,138.08258928571428,4319.2,1262.2857142857142,138.08258928571428,4424.7,1262.2857142857142,138.08258928571428,4524.7,1262.2857142857142,138.08258928571428,4630.7,1262.2857142857142,138.08258928571428,4735,1262.2857142857142,138.08258928571428,4835,1262.2857142857142,138.08258928571428,4935]","[633.5,633.5,1000,0,-366.5,""error"",""-"",""-"",""no_move"",4369.2,3735.5,2243.5,1634.6,491.1,""smooth"",""up"",""up"",""good_move"",7127.3,2757.6,2366.7,4369.7,390.9,""smooth"",""up"",""up"",""good_move"",10188,3060.5,2680.1,7127.6,380.3,""smooth"",""up"",""up"",""good_move"",13000,2811.7,2378,10188.3,433.7,""smooth"",""right"",""right"",""good_move"",15701.8,2701.5,2335,13000.3,366.5,""smooth"",""right"",""right"",""good_move"",21379.6,5677.6,1721.6,19310.6,347.5,""smooth"",""right"",""right"",""good_move""]"
"3292","","<div style=""width:500px;"">
  <p>What determined the result of this run?</p>
  </div>","26","html-slider-response","14","196475","0.0-7.0-1.0","129","1","2025-08-06 08:50:41","36c45c0696341be0efffe67d72a12abb","90.227.165.225","Mozilla/5.0 (Macintosh; Intel Mac OS X 10_15_7) AppleWebKit/537.36 (KHTML, like Gecko) Chrome/138.0.0.0 Safari/537.36","Macintosh","Chrome","138.0.0.0","OS X","10_15_7","https://app.prolific.com/","en-GB,en-US;q=0.9,en;q=0.8","6617c54a41ce14946db85944","687a1a965b9f5b85a264363e","6893175d4f34c5a92f86bc65","1","6617c54a41ce14946db85944","1","2025-08-06T08:53:59.360Z","","","","AttribQ","","","","","","","","","","","50","","","","","","","","","","","","","","","","","","","","","","","","","","",""
"2597","","<div style=""width:500px;"">
  <p>How much control did you have over the ball?</p>
  </div>","100","html-slider-response","15","199074","0.0-7.0-2.0","129","1","2025-08-06 08:50:41","36c45c0696341be0efffe67d72a12abb","90.227.165.225","Mozilla/5.0 (Macintosh; Intel Mac OS X 10_15_7) AppleWebKit/537.36 (KHTML, like Gecko) Chrome/138.0.0.0 Safari/537.36","Macintosh","Chrome","138.0.0.0","OS X","10_15_7","https://app.prolific.com/","en-GB,en-US;q=0.9,en;q=0.8","6617c54a41ce14946db85944","687a1a965b9f5b85a264363e","6893175d4f34c5a92f86bc65","1","6617c54a41ce14946db85944","1","2025-08-06T08:54:01.959Z","","","","ControlQ","","","","","","","","","","","50","","","","","","","","","","","","","","","","","","","","","","","","","","",""
"2732","","<div style=""width:500px;"">
  <p>How would you describe your current emotional state?</p>
  </div>","2","html-slider-response","16","201808","0.0-7.0-3.0","129","1","2025-08-06 08:50:41","36c45c0696341be0efffe67d72a12abb","90.227.165.225","Mozilla/5.0 (Macintosh; Intel Mac OS X 10_15_7) AppleWebKit/537.36 (KHTML, like Gecko) Chrome/138.0.0.0 Safari/537.36","Macintosh","Chrome","138.0.0.0","OS X","10_15_7","https://app.prolific.com/","en-GB,en-US;q=0.9,en;q=0.8","6617c54a41ce14946db85944","687a1a965b9f5b85a264363e","6893175d4f34c5a92f86bc65","1","6617c54a41ce14946db85944","1","2025-08-06T08:54:04.693Z","","","","StressQ","","","","","","","","","","","50","","","","","","","","","","","","","","","","","","","","","","","","","","",""
"3148","","<div style=""width:500px;"">
  <p>What best describes how you currently feel?</p>
  </div>","62","html-slider-response","17","204957","0.0-7.0-4.0","129","1","2025-08-06 08:50:41","36c45c0696341be0efffe67d72a12abb","90.227.165.225","Mozilla/5.0 (Macintosh; Intel Mac OS X 10_15_7) AppleWebKit/537.36 (KHTML, like Gecko) Chrome/138.0.0.0 Safari/537.36","Macintosh","Chrome","138.0.0.0","OS X","10_15_7","https://app.prolific.com/","en-GB,en-US;q=0.9,en;q=0.8","6617c54a41ce14946db85944","687a1a965b9f5b85a264363e","6893175d4f34c5a92f86bc65","1","6617c54a41ce14946db85944","1","2025-08-06T08:54:07.842Z","","","","MotivationQ","","","","","","","","","","","50","","","","","","","","","","","","","","","","","","","","","","","","","","",""
"","","","","ctl-task-cpt","18","227621","0.0-7.0-0.1","129","1","2025-08-06 08:50:41","36c45c0696341be0efffe67d72a12abb","90.227.165.225","Mozilla/5.0 (Macintosh; Intel Mac OS X 10_15_7) AppleWebKit/537.36 (KHTML, like Gecko) Chrome/138.0.0.0 Safari/537.36","Macintosh","Chrome","138.0.0.0","OS X","10_15_7","https://app.prolific.com/","en-GB,en-US;q=0.9,en;q=0.8","6617c54a41ce14946db85944","687a1a965b9f5b85a264363e","6893175d4f34c5a92f86bc65","1","6617c54a41ce14946db85944","1","2025-08-06T08:54:30.506Z","","","","","","","","","","","","","","","","win-only","2","g1:SE,g2:NW","0.9","2","0","206062.3","4200.4","9201.9","19656.3","1","4","4","6","1","1","1","8","7","0.06060606060606061","1400.3","3000","1425","[""down"",""right""]","{""num_key_presses"":4,""num_perfect"":4,""num_errors"":0,""num_randdir"":0,""num_randdir_good_moves"":0,""num_whilered"":0,""num_whileblue"":0,""num_blue"":0,""num_good_moves"":4}","[706.2857142857143,702.0825892857143,0.3,706.2857142857143,702.0825892857143,105.7,706.2857142857143,702.0825892857143,210.6,706.2857142857143,702.0825892857143,310.9,706.2857142857143,702.0825892857143,415.3,680.2857142857143,650.0825892857143,515.3,422.2857142857143,422.0825892857143,615.6,442.2857142857143,444.0825892857143,720.6,1324.2857142857142,1448.0825892857142,825.3,1422.2857142857142,1528.0825892857142,925.9,1392.2857142857142,1442.0825892857142,1025.9,1266.2857142857142,1286.0825892857142,1125.9,1264.2857142857142,1284.0825892857142,1226,1264.2857142857142,1284.0825892857142,1331.3,1264.2857142857142,1284.0825892857142,1435.1,1264.2857142857142,1284.0825892857142,1535.1,1436.2857142857142,1212.0825892857142,1635.5,1484.2857142857142,1182.0825892857142,1740.9,1484.2857142857142,1182.0825892857142,1846.2,1484.2857142857142,1182.0825892857142,1946.7,1484.2857142857142,1182.0825892857142,2050.5,1484.2857142857142,1182.0825892857142,2156.2,1484.2857142857142,1182.0825892857142,2260.7,1484.2857142857142,1182.0825892857142,2360.7,1484.2857142857142,1182.0825892857142,2461.1,1484.2857142857142,1182.0825892857142,2561.3,1484.2857142857142,1182.0825892857142,2665.6,1484.2857142857142,1182.0825892857142,2766.3,1484.2857142857142,1182.0825892857142,2870.9,1484.2857142857142,1182.0825892857142,2975.5,1484.2857142857142,1182.0825892857142,3075.8,1484.2857142857142,1182.0825892857142,3181.3,1484.2857142857142,1182.0825892857142,3285.3,1484.2857142857142,1182.0825892857142,3391.2,1484.2857142857142,1182.0825892857142,3496.1,1484.2857142857142,1182.0825892857142,3600.9,1484.2857142857142,1182.0825892857142,3705.6,1484.2857142857142,1182.0825892857142,3810.3,1484.2857142857142,1182.0825892857142,3911,1484.2857142857142,1182.0825892857142,4016.5,1484.2857142857142,1182.0825892857142,4120.5,1484.2857142857142,1182.0825892857142,4225.7,1484.2857142857142,1182.0825892857142,4326,1484.2857142857142,1182.0825892857142,4426.1,1484.2857142857142,1182.0825892857142,4531.2,1484.2857142857142,1182.0825892857142,4631.6,1484.2857142857142,1182.0825892857142,4735.1,1484.2857142857142,1182.0825892857142,4835.3,1484.2857142857142,1182.0825892857142,4935.6]","[1438.1,1438.1,1000,0,438.1,""smooth"",""down"",""down"",""good_move"",4300.3,2862,2464.8,1438.4,397.2,""smooth"",""right"",""right"",""good_move"",7432.9,3132.3,2720.9,4300.6,411.4,""smooth"",""right"",""right"",""good_move"",10367.3,2934.2,2584.2,7433.1,350,""smooth"",""down"",""down"",""good_move""]"
"3051","","<div style=""width:500px;"">
  <p>What determined the result of this run?</p>
  </div>","100","html-slider-response","19","230673","0.0-7.0-1.1","129","1","2025-08-06 08:50:41","36c45c0696341be0efffe67d72a12abb","90.227.165.225","Mozilla/5.0 (Macintosh; Intel Mac OS X 10_15_7) AppleWebKit/537.36 (KHTML, like Gecko) Chrome/138.0.0.0 Safari/537.36","Macintosh","Chrome","138.0.0.0","OS X","10_15_7","https://app.prolific.com/","en-GB,en-US;q=0.9,en;q=0.8","6617c54a41ce14946db85944","687a1a965b9f5b85a264363e","6893175d4f34c5a92f86bc65","1","6617c54a41ce14946db85944","1","2025-08-06T08:54:33.558Z","","","","AttribQ","","","","","","","","","","","50","","","","","","","","","","","","","","","","","","","","","","","","","","",""
"1551","","<div style=""width:500px;"">
  <p>How much control did you have over the ball?</p>
  </div>","100","html-slider-response","20","232225","0.0-7.0-2.1","129","1","2025-08-06 08:50:41","36c45c0696341be0efffe67d72a12abb","90.227.165.225","Mozilla/5.0 (Macintosh; Intel Mac OS X 10_15_7) AppleWebKit/537.36 (KHTML, like Gecko) Chrome/138.0.0.0 Safari/537.36","Macintosh","Chrome","138.0.0.0","OS X","10_15_7","https://app.prolific.com/","en-GB,en-US;q=0.9,en;q=0.8","6617c54a41ce14946db85944","687a1a965b9f5b85a264363e","6893175d4f34c5a92f86bc65","1","6617c54a41ce14946db85944","1","2025-08-06T08:54:35.110Z","","","","ControlQ","","","","","","","","","","","50","","","","","","","","","","","","","","","","","","","","","","","","","","",""
"4781","","<div style=""width:500px;"">
  <p>How would you describe your current emotional state?</p>
  </div>","24","html-slider-response","21","237007","0.0-7.0-3.1","129","1","2025-08-06 08:50:41","36c45c0696341be0efffe67d72a12abb","90.227.165.225","Mozilla/5.0 (Macintosh; Intel Mac OS X 10_15_7) AppleWebKit/537.36 (KHTML, like Gecko) Chrome/138.0.0.0 Safari/537.36","Macintosh","Chrome","138.0.0.0","OS X","10_15_7","https://app.prolific.com/","en-GB,en-US;q=0.9,en;q=0.8","6617c54a41ce14946db85944","687a1a965b9f5b85a264363e","6893175d4f34c5a92f86bc65","1","6617c54a41ce14946db85944","1","2025-08-06T08:54:39.892Z","","","","StressQ","","","","","","","","","","","50","","","","","","","","","","","","","","","","","","","","","","","","","","",""
"2349","","<div style=""width:500px;"">
  <p>What best describes how you currently feel?</p>
  </div>","44","html-slider-response","22","239356","0.0-7.0-4.1","129","1","2025-08-06 08:50:41","36c45c0696341be0efffe67d72a12abb","90.227.165.225","Mozilla/5.0 (Macintosh; Intel Mac OS X 10_15_7) AppleWebKit/537.36 (KHTML, like Gecko) Chrome/138.0.0.0 Safari/537.36","Macintosh","Chrome","138.0.0.0","OS X","10_15_7","https://app.prolific.com/","en-GB,en-US;q=0.9,en;q=0.8","6617c54a41ce14946db85944","687a1a965b9f5b85a264363e","6893175d4f34c5a92f86bc65","1","6617c54a41ce14946db85944","1","2025-08-06T08:54:42.241Z","","","","MotivationQ","","","","","","","","","","","50","","","","","","","","","","","","","","","","","","","","","","","","","","",""
"","","","","ctl-task-cpt","23","264969","0.0-7.0-0.2","129","1","2025-08-06 08:50:41","36c45c0696341be0efffe67d72a12abb","90.227.165.225","Mozilla/5.0 (Macintosh; Intel Mac OS X 10_15_7) AppleWebKit/537.36 (KHTML, like Gecko) Chrome/138.0.0.0 Safari/537.36","Macintosh","Chrome","138.0.0.0","OS X","10_15_7","https://app.prolific.com/","en-GB,en-US;q=0.9,en;q=0.8","6617c54a41ce14946db85944","687a1a965b9f5b85a264363e","6893175d4f34c5a92f86bc65","1","6617c54a41ce14946db85944","1","2025-08-06T08:55:07.854Z","","","","","","","","","","","","","","","","win-only","2","g1:SE,g2:NW","0.8","3","0","240463.6","2184.8","7186.1","22602.8","1","4","8","6","2","8","7","15","8","0.11363636363636363","2021.9","3000","1155","[""left"",""up""]","{""num_key_presses"":6,""num_perfect"":4,""num_errors"":1,""num_randdir"":1,""num_randdir_good_moves"":1,""num_whilered"":0,""num_whileblue"":1,""num_blue"":1,""num_good_moves"":6}","[692.2857142857143,690.0825892857143,0.3,692.2857142857143,690.0825892857143,101.7,692.2857142857143,690.0825892857143,205.9,692.2857142857143,690.0825892857143,307,544.2857142857143,522.0825892857143,411.1,234.28571428571428,206.08258928571428,515.7,230.28571428571428,204.08258928571428,616.1,228.28571428571428,202.08258928571428,716.1,226.28571428571428,200.08258928571428,816.4,176.28571428571428,190.08258928571428,916.8,174.28571428571428,190.08258928571428,1021.6,174.28571428571428,190.08258928571428,1126.1,174.28571428571428,190.08258928571428,1226.7,174.28571428571428,190.08258928571428,1326.7,174.28571428571428,190.08258928571428,1431.3,174.28571428571428,190.08258928571428,1531.5,174.28571428571428,190.08258928571428,1636.8,174.28571428571428,190.08258928571428,1741.1,174.28571428571428,190.08258928571428,1841.6,174.28571428571428,190.08258928571428,1946.3,174.28571428571428,190.08258928571428,2046.6,174.28571428571428,190.08258928571428,2146.8,174.28571428571428,190.08258928571428,2251.2,174.28571428571428,190.08258928571428,2356.6,174.28571428571428,190.08258928571428,2456.6,174.28571428571428,190.08258928571428,2556.8,174.28571428571428,190.08258928571428,2661.4,174.28571428571428,190.08258928571428,2766.2,174.28571428571428,190.08258928571428,2871.3,174.28571428571428,190.08258928571428,2976.5,174.28571428571428,190.08258928571428,3076.6,174.28571428571428,190.08258928571428,3176.9,174.28571428571428,190.08258928571428,3281.5,174.28571428571428,190.08258928571428,3381.8,174.28571428571428,190.08258928571428,3485.7,174.28571428571428,190.08258928571428,3586.2,174.28571428571428,190.08258928571428,3686.4,174.28571428571428,190.08258928571428,3791.8,174.28571428571428,190.08258928571428,3896.5,174.28571428571428,190.08258928571428,4001.1,174.28571428571428,190.08258928571428,4106.7,174.28571428571428,190.08258928571428,4206.9,174.28571428571428,190.08258928571428,4312.1,174.28571428571428,190.08258928571428,4416,174.28571428571428,190.08258928571428,4521.2,174.28571428571428,190.08258928571428,4627,174.28571428571428,190.08258928571428,4731.7,174.28571428571428,190.08258928571428,4831.7,174.28571428571428,190.08258928571428,4932.7]","[1449,1449,1000,0,449,""smooth"",""left"",""left"",""good_move"",4387.3,2937.9,2616.9,1449.4,321,""smooth"",""left"",""left"",""good_move"",7164.8,2777.4,2522.2,4387.5,255.2,""while_blue"",""up"",""up"",""good_move"",10223.7,3058.4,2729.6,7165.3,328.8,""smooth"",""up"",""up"",""good_move"",12654.8,2430.9,2063.1,10223.9,367.8,""oops"",""up"",""up"",""good_move"",15319.9,2664.9,2256.5,12655,408.4,""smooth"",""left"",""left"",""good_move""]"
"1547","","<div style=""width:500px;"">
  <p>What determined the result of this run?</p>
  </div>","60","html-slider-response","24","266518","0.0-7.0-1.2","129","1","2025-08-06 08:50:41","36c45c0696341be0efffe67d72a12abb","90.227.165.225","Mozilla/5.0 (Macintosh; Intel Mac OS X 10_15_7) AppleWebKit/537.36 (KHTML, like Gecko) Chrome/138.0.0.0 Safari/537.36","Macintosh","Chrome","138.0.0.0","OS X","10_15_7","https://app.prolific.com/","en-GB,en-US;q=0.9,en;q=0.8","6617c54a41ce14946db85944","687a1a965b9f5b85a264363e","6893175d4f34c5a92f86bc65","1","6617c54a41ce14946db85944","1","2025-08-06T08:55:09.403Z","","","","AttribQ","","","","","","","","","","","50","","","","","","","","","","","","","","","","","","","","","","","","","","",""
"2922","","<div style=""width:500px;"">
  <p>How much control did you have over the ball?</p>
  </div>","43","html-slider-response","25","269441","0.0-7.0-2.2","129","1","2025-08-06 08:50:41","36c45c0696341be0efffe67d72a12abb","90.227.165.225","Mozilla/5.0 (Macintosh; Intel Mac OS X 10_15_7) AppleWebKit/537.36 (KHTML, like Gecko) Chrome/138.0.0.0 Safari/537.36","Macintosh","Chrome","138.0.0.0","OS X","10_15_7","https://app.prolific.com/","en-GB,en-US;q=0.9,en;q=0.8","6617c54a41ce14946db85944","687a1a965b9f5b85a264363e","6893175d4f34c5a92f86bc65","1","6617c54a41ce14946db85944","1","2025-08-06T08:55:12.326Z","","","","ControlQ","","","","","","","","","","","50","","","","","","","","","","","","","","","","","","","","","","","","","","",""
"8652","","<div style=""width:500px;"">
  <p>How would you describe your current emotional state?</p>
  </div>","45","html-slider-response","26","278093","0.0-7.0-3.2","129","1","2025-08-06 08:50:41","36c45c0696341be0efffe67d72a12abb","90.227.165.225","Mozilla/5.0 (Macintosh; Intel Mac OS X 10_15_7) AppleWebKit/537.36 (KHTML, like Gecko) Chrome/138.0.0.0 Safari/537.36","Macintosh","Chrome","138.0.0.0","OS X","10_15_7","https://app.prolific.com/","en-GB,en-US;q=0.9,en;q=0.8","6617c54a41ce14946db85944","687a1a965b9f5b85a264363e","6893175d4f34c5a92f86bc65","1","6617c54a41ce14946db85944","1","2025-08-06T08:55:20.979Z","","","","StressQ","","","","","","","","","","","50","","","","","","","","","","","","","","","","","","","","","","","","","","",""
"2236","","<div style=""width:500px;"">
  <p>What best describes how you currently feel?</p>
  </div>","57","html-slider-response","27","280331","0.0-7.0-4.2","129","1","2025-08-06 08:50:41","36c45c0696341be0efffe67d72a12abb","90.227.165.225","Mozilla/5.0 (Macintosh; Intel Mac OS X 10_15_7) AppleWebKit/537.36 (KHTML, like Gecko) Chrome/138.0.0.0 Safari/537.36","Macintosh","Chrome","138.0.0.0","OS X","10_15_7","https://app.prolific.com/","en-GB,en-US;q=0.9,en;q=0.8","6617c54a41ce14946db85944","687a1a965b9f5b85a264363e","6893175d4f34c5a92f86bc65","1","6617c54a41ce14946db85944","1","2025-08-06T08:55:23.216Z","","","","MotivationQ","","","","","","","","","","","50","","","","","","","","","","","","","","","","","","","","","","","","","","",""
"","","","","ctl-task-cpt","28","329086","0.0-7.0-0.3","129","1","2025-08-06 08:50:41","36c45c0696341be0efffe67d72a12abb","90.227.165.225","Mozilla/5.0 (Macintosh; Intel Mac OS X 10_15_7) AppleWebKit/537.36 (KHTML, like Gecko) Chrome/138.0.0.0 Safari/537.36","Macintosh","Chrome","138.0.0.0","OS X","10_15_7","https://app.prolific.com/","en-GB,en-US;q=0.9,en;q=0.8","6617c54a41ce14946db85944","687a1a965b9f5b85a264363e","6893175d4f34c5a92f86bc65","1","6617c54a41ce14946db85944","1","2025-08-06T08:56:11.971Z","","","","","","","","","","","","","","","","win-only","0","g1:NW,g2:SE","0.7","4","0","281439.3","817.6","5820.6","45745.8","1","4","4","6","1","-1","-1","14","15","0.10606060606060606","2658.1","3000","-3005","[""left"",""up""]","{""num_key_presses"":8,""num_perfect"":5,""num_errors"":0,""num_randdir"":3,""num_randdir_good_moves"":0,""num_whilered"":0,""num_whileblue"":0,""num_blue"":4,""num_good_moves"":5}","[696.2857142857143,704.0825892857143,0.1,696.2857142857143,704.0825892857143,102.8,696.2857142857143,704.0825892857143,202.9,696.2857142857143,704.0825892857143,308.2,696.2857142857143,704.0825892857143,412.9,840.2857142857143,960.0825892857143,518.6,962.2857142857143,1066.0825892857142,622.9,468.2857142857143,580.0825892857143,723.6,362.2857142857143,386.0825892857143,823.7,274.2857142857143,256.0825892857143,927.6,146.28571428571428,164.08258928571428,1028.2,138.28571428571428,158.08258928571428,1128.4,138.28571428571428,158.08258928571428,1229.2,138.28571428571428,158.08258928571428,1329.5,138.28571428571428,158.08258928571428,1433.6,138.28571428571428,158.08258928571428,1538.7,692.2857142857143,846.0825892857143,1644,334.2857142857143,492.0825892857143,1748.6,-19.714285714285708,184.08258928571428,1852.8,-7.714285714285708,176.08258928571428,1953,60.28571428571429,162.08258928571428,2053.7,92.28571428571429,136.08258928571428,2159.1,92.28571428571429,136.08258928571428,2263.8,92.28571428571429,136.08258928571428,2368.7,92.28571428571429,136.08258928571428,2473.5,92.28571428571429,136.08258928571428,2578.4,92.28571428571429,136.08258928571428,2683.2,92.28571428571429,136.08258928571428,2788.7,92.28571428571429,136.08258928571428,2893.4,92.28571428571429,136.08258928571428,2996.2,92.28571428571429,136.08258928571428,3098,92.28571428571429,136.08258928571428,3198.5,92.28571428571429,136.08258928571428,3298.7,260.2857142857143,246.08258928571428,3403.4,482.2857142857143,410.0825892857143,3508.6,482.2857142857143,410.0825892857143,3613,482.2857142857143,410.0825892857143,3713.7,482.2857142857143,410.0825892857143,3818.7,482.2857142857143,410.0825892857143,3923,482.2857142857143,410.0825892857143,4023,482.2857142857143,410.0825892857143,4128,482.2857142857143,410.0825892857143,4233.6,482.2857142857143,410.0825892857143,4333.6,482.2857142857143,410.0825892857143,4438.5,482.2857142857143,410.0825892857143,4538.5,482.2857142857143,410.0825892857143,4644.2,482.2857142857143,410.0825892857143,4748.8,482.2857142857143,410.0825892857143,4853.5,482.2857142857143,410.0825892857143,4957.7]","[1372.1,1372.1,1000,0,372.1,""smooth"",""left"",""left"",""good_move"",4673.7,3301.3,2961.5,1372.4,339.8,""oops"",""up"",""down"",""bad_move"",7181.5,2507.6,2169.2,4673.9,338.4,""smooth"",""up"",""up"",""good_move"",10723.9,3541.9,3144.2,7182,397.7,""smooth"",""up"",""up"",""good_move"",17380.6,6656.5,2180.1,14720,480.5,""smooth"",""up"",""up"",""good_move"",31177.8,13796.9,2955,27775.5,447.3,""oops"",""left"",""right"",""bad_move"",34257.2,3079.1,2766.6,31178.1,312.5,""oops"",""left"",""right"",""bad_move"",37080.2,2822.6,2553.1,34257.6,269.5,""smooth"",""left"",""left"",""good_move""]"
"4422","","<div style=""width:500px;"">
  <p>What determined the result of this run?</p>
  </div>","5","html-slider-response","29","333509","0.0-7.0-1.3","129","1","2025-08-06 08:50:41","36c45c0696341be0efffe67d72a12abb","90.227.165.225","Mozilla/5.0 (Macintosh; Intel Mac OS X 10_15_7) AppleWebKit/537.36 (KHTML, like Gecko) Chrome/138.0.0.0 Safari/537.36","Macintosh","Chrome","138.0.0.0","OS X","10_15_7","https://app.prolific.com/","en-GB,en-US;q=0.9,en;q=0.8","6617c54a41ce14946db85944","687a1a965b9f5b85a264363e","6893175d4f34c5a92f86bc65","1","6617c54a41ce14946db85944","1","2025-08-06T08:56:16.394Z","","","","AttribQ","","","","","","","","","","","50","","","","","","","","","","","","","","","","","","","","","","","","","","",""
"1867","","<div style=""width:500px;"">
  <p>How much control did you have over the ball?</p>
  </div>","23","html-slider-response","30","335377","0.0-7.0-2.3","129","1","2025-08-06 08:50:41","36c45c0696341be0efffe67d72a12abb","90.227.165.225","Mozilla/5.0 (Macintosh; Intel Mac OS X 10_15_7) AppleWebKit/537.36 (KHTML, like Gecko) Chrome/138.0.0.0 Safari/537.36","Macintosh","Chrome","138.0.0.0","OS X","10_15_7","https://app.prolific.com/","en-GB,en-US;q=0.9,en;q=0.8","6617c54a41ce14946db85944","687a1a965b9f5b85a264363e","6893175d4f34c5a92f86bc65","1","6617c54a41ce14946db85944","1","2025-08-06T08:56:18.262Z","","","","ControlQ","","","","","","","","","","","50","","","","","","","","","","","","","","","","","","","","","","","","","","",""
"3632","","<div style=""width:500px;"">
  <p>How would you describe your current emotional state?</p>
  </div>","41","html-slider-response","31","339011","0.0-7.0-3.3","129","1","2025-08-06 08:50:41","36c45c0696341be0efffe67d72a12abb","90.227.165.225","Mozilla/5.0 (Macintosh; Intel Mac OS X 10_15_7) AppleWebKit/537.36 (KHTML, like Gecko) Chrome/138.0.0.0 Safari/537.36","Macintosh","Chrome","138.0.0.0","OS X","10_15_7","https://app.prolific.com/","en-GB,en-US;q=0.9,en;q=0.8","6617c54a41ce14946db85944","687a1a965b9f5b85a264363e","6893175d4f34c5a92f86bc65","1","6617c54a41ce14946db85944","1","2025-08-06T08:56:21.896Z","","","","StressQ","","","","","","","","","","","50","","","","","","","","","","","","","","","","","","","","","","","","","","",""
"1721","","<div style=""width:500px;"">
  <p>What best describes how you currently feel?</p>
  </div>","29","html-slider-response","32","340733","0.0-7.0-4.3","129","1","2025-08-06 08:50:41","36c45c0696341be0efffe67d72a12abb","90.227.165.225","Mozilla/5.0 (Macintosh; Intel Mac OS X 10_15_7) AppleWebKit/537.36 (KHTML, like Gecko) Chrome/138.0.0.0 Safari/537.36","Macintosh","Chrome","138.0.0.0","OS X","10_15_7","https://app.prolific.com/","en-GB,en-US;q=0.9,en;q=0.8","6617c54a41ce14946db85944","687a1a965b9f5b85a264363e","6893175d4f34c5a92f86bc65","1","6617c54a41ce14946db85944","1","2025-08-06T08:56:23.618Z","","","","MotivationQ","","","","","","","","","","","50","","","","","","","","","","","","","","","","","","","","","","","","","","",""
"","","","","ctl-task-cpt","33","382867","0.0-7.0-0.4","129","1","2025-08-06 08:50:41","36c45c0696341be0efffe67d72a12abb","90.227.165.225","Mozilla/5.0 (Macintosh; Intel Mac OS X 10_15_7) AppleWebKit/537.36 (KHTML, like Gecko) Chrome/138.0.0.0 Safari/537.36","Macintosh","Chrome","138.0.0.0","OS X","10_15_7","https://app.prolific.com/","en-GB,en-US;q=0.9,en;q=0.8","6617c54a41ce14946db85944","687a1a965b9f5b85a264363e","6893175d4f34c5a92f86bc65","1","6617c54a41ce14946db85944","1","2025-08-06T08:57:05.752Z","","","","","","","","","","","","","","","","win-only","3","g1:SW,g2:NE","0.6","5","0","341842.7","929.8","5931.4","39126","1","4","8","6","2","-8","-8","6","14","0.045454545454545456","1294.8","3000","-3005","[""up"",""right""]","{""num_key_presses"":8,""num_perfect"":5,""num_errors"":0,""num_randdir"":3,""num_randdir_good_moves"":1,""num_whilered"":0,""num_whileblue"":0,""num_blue"":2,""num_good_moves"":6}","[698.2857142857143,684.0825892857143,0.2,698.2857142857143,684.0825892857143,101.5,698.2857142857143,684.0825892857143,201.6,698.2857142857143,684.0825892857143,305.5,692.2857142857143,690.0825892857143,406.7,336.2857142857143,984.0825892857143,511.1,330.2857142857143,996.0825892857143,611.5,1196.2857142857142,452.0825892857143,717.3,1380.2857142857142,250.08258928571428,821.3,1374.2857142857142,204.08258928571428,926.2,1312.2857142857142,140.08258928571428,1032,1288.2857142857142,116.08258928571429,1135.9,1288.2857142857142,116.08258928571429,1236.5,1288.2857142857142,116.08258928571429,1336.7,1288.2857142857142,116.08258928571429,1441.7,1288.2857142857142,116.08258928571429,1545.4,1288.2857142857142,116.08258928571429,1645.6,1288.2857142857142,116.08258928571429,1745.6,1288.2857142857142,116.08258928571429,1851.3,1288.2857142857142,116.08258928571429,1955.5,1288.2857142857142,116.08258928571429,2056.2,1288.2857142857142,116.08258928571429,2163.1,1288.2857142857142,116.08258928571429,2266,1288.2857142857142,116.08258928571429,2367.2,1288.2857142857142,116.08258928571429,2470.5,1288.2857142857142,116.08258928571429,2571.8,1288.2857142857142,116.08258928571429,2675.6,1288.2857142857142,116.08258928571429,2776.4,1288.2857142857142,116.08258928571429,2880.4,1288.2857142857142,116.08258928571429,2981.3,1288.2857142857142,116.08258928571429,3081.4,1288.2857142857142,116.08258928571429,3186.1,1288.2857142857142,116.08258928571429,3286.2,1288.2857142857142,116.08258928571429,3386.3,1288.2857142857142,116.08258928571429,3490.9,1288.2857142857142,116.08258928571429,3591,1288.2857142857142,116.08258928571429,3691.7,1288.2857142857142,116.08258928571429,3795.7,1288.2857142857142,116.08258928571429,3895.8,1288.2857142857142,116.08258928571429,3997.4,1288.2857142857142,116.08258928571429,4101.1,1288.2857142857142,116.08258928571429,4205.9,1288.2857142857142,116.08258928571429,4312.1,1288.2857142857142,116.08258928571429,4413.6,1288.2857142857142,116.08258928571429,4516.4,1288.2857142857142,116.08258928571429,4620.5,1288.2857142857142,116.08258928571429,4721,1288.2857142857142,116.08258928571429,4826.7,1288.2857142857142,116.08258928571429,4930.4]","[1331.9,1331.9,1000,0,331.9,""smooth"",""right"",""right"",""good_move"",4553,3220.7,2880.2,1332.3,340.5,""smooth"",""right"",""right"",""good_move"",7741.8,3188.6,2875.1,4553.2,313.5,""oops"",""right"",""up"",""good_move"",14291.8,6549.8,2865.5,11094.8,331.5,""smooth"",""right"",""right"",""good_move"",18026.4,3734.4,3366.2,14292,368.2,""oops"",""up"",""down"",""bad_move"",21843,3816.2,3458,18026.8,358.2,""smooth"",""up"",""up"",""good_move"",24977.9,3134.5,2791.8,21843.4,342.7,""smooth"",""up"",""up"",""good_move"",31197.1,6219.2,2334.9,28504.5,357.8,""oops"",""up"",""left"",""bad_move""]"
"3629","","<div style=""width:500px;"">
  <p>What determined the result of this run?</p>
  </div>","17","html-slider-response","34","386496","0.0-7.0-1.4","129","1","2025-08-06 08:50:41","36c45c0696341be0efffe67d72a12abb","90.227.165.225","Mozilla/5.0 (Macintosh; Intel Mac OS X 10_15_7) AppleWebKit/537.36 (KHTML, like Gecko) Chrome/138.0.0.0 Safari/537.36","Macintosh","Chrome","138.0.0.0","OS X","10_15_7","https://app.prolific.com/","en-GB,en-US;q=0.9,en;q=0.8","6617c54a41ce14946db85944","687a1a965b9f5b85a264363e","6893175d4f34c5a92f86bc65","1","6617c54a41ce14946db85944","1","2025-08-06T08:57:09.381Z","","","","AttribQ","","","","","","","","","","","50","","","","","","","","","","","","","","","","","","","","","","","","","","",""
"1912","","<div style=""width:500px;"">
  <p>How much control did you have over the ball?</p>
  </div>","33","html-slider-response","35","388408","0.0-7.0-2.4","129","1","2025-08-06 08:50:41","36c45c0696341be0efffe67d72a12abb","90.227.165.225","Mozilla/5.0 (Macintosh; Intel Mac OS X 10_15_7) AppleWebKit/537.36 (KHTML, like Gecko) Chrome/138.0.0.0 Safari/537.36","Macintosh","Chrome","138.0.0.0","OS X","10_15_7","https://app.prolific.com/","en-GB,en-US;q=0.9,en;q=0.8","6617c54a41ce14946db85944","687a1a965b9f5b85a264363e","6893175d4f34c5a92f86bc65","1","6617c54a41ce14946db85944","1","2025-08-06T08:57:11.293Z","","","","ControlQ","","","","","","","","","","","50","","","","","","","","","","","","","","","","","","","","","","","","","","",""
"1934","","<div style=""width:500px;"">
  <p>How would you describe your current emotional state?</p>
  </div>","63","html-slider-response","36","390344","0.0-7.0-3.4","129","1","2025-08-06 08:50:41","36c45c0696341be0efffe67d72a12abb","90.227.165.225","Mozilla/5.0 (Macintosh; Intel Mac OS X 10_15_7) AppleWebKit/537.36 (KHTML, like Gecko) Chrome/138.0.0.0 Safari/537.36","Macintosh","Chrome","138.0.0.0","OS X","10_15_7","https://app.prolific.com/","en-GB,en-US;q=0.9,en;q=0.8","6617c54a41ce14946db85944","687a1a965b9f5b85a264363e","6893175d4f34c5a92f86bc65","1","6617c54a41ce14946db85944","1","2025-08-06T08:57:13.229Z","","","","StressQ","","","","","","","","","","","50","","","","","","","","","","","","","","","","","","","","","","","","","","",""
"1901","","<div style=""width:500px;"">
  <p>What best describes how you currently feel?</p>
  </div>","56","html-slider-response","37","392246","0.0-7.0-4.4","129","1","2025-08-06 08:50:41","36c45c0696341be0efffe67d72a12abb","90.227.165.225","Mozilla/5.0 (Macintosh; Intel Mac OS X 10_15_7) AppleWebKit/537.36 (KHTML, like Gecko) Chrome/138.0.0.0 Safari/537.36","Macintosh","Chrome","138.0.0.0","OS X","10_15_7","https://app.prolific.com/","en-GB,en-US;q=0.9,en;q=0.8","6617c54a41ce14946db85944","687a1a965b9f5b85a264363e","6893175d4f34c5a92f86bc65","1","6617c54a41ce14946db85944","1","2025-08-06T08:57:15.131Z","","","","MotivationQ","","","","","","","","","","","50","","","","","","","","","","","","","","","","","","","","","","","","","","",""
"","","","","ctl-task-cpt","38","411935","0.0-7.0-0.5","129","1","2025-08-06 08:50:41","36c45c0696341be0efffe67d72a12abb","90.227.165.225","Mozilla/5.0 (Macintosh; Intel Mac OS X 10_15_7) AppleWebKit/537.36 (KHTML, like Gecko) Chrome/138.0.0.0 Safari/537.36","Macintosh","Chrome","138.0.0.0","OS X","10_15_7","https://app.prolific.com/","en-GB,en-US;q=0.9,en;q=0.8","6617c54a41ce14946db85944","687a1a965b9f5b85a264363e","6893175d4f34c5a92f86bc65","1","6617c54a41ce14946db85944","1","2025-08-06T08:57:34.820Z","","","","","","","","","","","","","","","","win-only","0","g1:NW,g2:SE","0.5","6","0","393357.1","1053.9","6056.2","16681.2","1","4","4","6","1","1","1","7","6","0.05303030303030303","1148.8","3000","1260","[""left"",""up""]","{""num_key_presses"":4,""num_perfect"":3,""num_errors"":0,""num_randdir"":1,""num_randdir_good_moves"":1,""num_whilered"":0,""num_whileblue"":0,""num_blue"":0,""num_good_moves"":4}","[692.2857142857143,688.0825892857143,0.2,692.2857142857143,688.0825892857143,102.4,692.2857142857143,688.0825892857143,208.5,692.2857142857143,688.0825892857143,308.8,692.2857142857143,688.0825892857143,413.4,936.2857142857143,994.0825892857143,516.6,846.2857142857143,764.0825892857143,616.8,410.2857142857143,360.0825892857143,721.3,354.2857142857143,318.0825892857143,822.3,78.28571428571429,146.08258928571428,927,76.28571428571429,144.08258928571428,1028.5,76.28571428571429,144.08258928571428,1132,76.28571428571429,144.08258928571428,1232.3,76.28571428571429,144.08258928571428,1337.2,162.28571428571428,156.08258928571428,1437.5,302.2857142857143,172.08258928571428,1541.4,302.2857142857143,172.08258928571428,1641.4,302.2857142857143,172.08258928571428,1741.5,302.2857142857143,172.08258928571428,1841.5,302.2857142857143,172.08258928571428,1946.7,302.2857142857143,172.08258928571428,2052.5,302.2857142857143,172.08258928571428,2156.8,302.2857142857143,172.08258928571428,2258.6,302.2857142857143,172.08258928571428,2361.5,302.2857142857143,172.08258928571428,2461.8,302.2857142857143,172.08258928571428,2562,302.2857142857143,172.08258928571428,2666.7,302.2857142857143,172.08258928571428,2766.8,302.2857142857143,172.08258928571428,2866.9,302.2857142857143,172.08258928571428,2973,302.2857142857143,172.08258928571428,3077.1,302.2857142857143,172.08258928571428,3181.5,302.2857142857143,172.08258928571428,3281.7,302.2857142857143,172.08258928571428,3386.7,302.2857142857143,172.08258928571428,3494.1,302.2857142857143,172.08258928571428,3596.6,302.2857142857143,172.08258928571428,3701.7,302.2857142857143,172.08258928571428,3802.4,302.2857142857143,172.08258928571428,3907.5,302.2857142857143,172.08258928571428,4012.1,302.2857142857143,172.08258928571428,4112.3,302.2857142857143,172.08258928571428,4217,302.2857142857143,172.08258928571428,4317.2,302.2857142857143,172.08258928571428,4421.8,302.2857142857143,172.08258928571428,4526.2,302.2857142857143,172.08258928571428,4626.6,302.2857142857143,172.08258928571428,4732.2,302.2857142857143,172.08258928571428,4832.2,302.2857142857143,172.08258928571428,4934.8]","[1485.6,1485.6,1000,0,485.6,""smooth"",""left"",""left"",""good_move"",4393.5,2907.6,2247.4,1485.9,660.2,""oops"",""left"",""up"",""good_move"",7152.8,2759,2447.6,4393.8,311.4,""smooth"",""up"",""up"",""good_move"",10538.3,3385.2,3077.9,7153.1,307.3,""smooth"",""left"",""left"",""good_move""]"
"1482","","<div style=""width:500px;"">
  <p>What determined the result of this run?</p>
  </div>","59","html-slider-response","39","413418","0.0-7.0-1.5","129","1","2025-08-06 08:50:41","36c45c0696341be0efffe67d72a12abb","90.227.165.225","Mozilla/5.0 (Macintosh; Intel Mac OS X 10_15_7) AppleWebKit/537.36 (KHTML, like Gecko) Chrome/138.0.0.0 Safari/537.36","Macintosh","Chrome","138.0.0.0","OS X","10_15_7","https://app.prolific.com/","en-GB,en-US;q=0.9,en;q=0.8","6617c54a41ce14946db85944","687a1a965b9f5b85a264363e","6893175d4f34c5a92f86bc65","1","6617c54a41ce14946db85944","1","2025-08-06T08:57:36.303Z","","","","AttribQ","","","","","","","","","","","50","","","","","","","","","","","","","","","","","","","","","","","","","","",""
"4003","","<div style=""width:500px;"">
  <p>How much control did you have over the ball?</p>
  </div>","43","html-slider-response","40","417421","0.0-7.0-2.5","129","1","2025-08-06 08:50:41","36c45c0696341be0efffe67d72a12abb","90.227.165.225","Mozilla/5.0 (Macintosh; Intel Mac OS X 10_15_7) AppleWebKit/537.36 (KHTML, like Gecko) Chrome/138.0.0.0 Safari/537.36","Macintosh","Chrome","138.0.0.0","OS X","10_15_7","https://app.prolific.com/","en-GB,en-US;q=0.9,en;q=0.8","6617c54a41ce14946db85944","687a1a965b9f5b85a264363e","6893175d4f34c5a92f86bc65","1","6617c54a41ce14946db85944","1","2025-08-06T08:57:40.306Z","","","","ControlQ","","","","","","","","","","","50","","","","","","","","","","","","","","","","","","","","","","","","","","",""
"2172","","<div style=""width:500px;"">
  <p>How would you describe your current emotional state?</p>
  </div>","56","html-slider-response","41","419594","0.0-7.0-3.5","129","1","2025-08-06 08:50:41","36c45c0696341be0efffe67d72a12abb","90.227.165.225","Mozilla/5.0 (Macintosh; Intel Mac OS X 10_15_7) AppleWebKit/537.36 (KHTML, like Gecko) Chrome/138.0.0.0 Safari/537.36","Macintosh","Chrome","138.0.0.0","OS X","10_15_7","https://app.prolific.com/","en-GB,en-US;q=0.9,en;q=0.8","6617c54a41ce14946db85944","687a1a965b9f5b85a264363e","6893175d4f34c5a92f86bc65","1","6617c54a41ce14946db85944","1","2025-08-06T08:57:42.479Z","","","","StressQ","","","","","","","","","","","50","","","","","","","","","","","","","","","","","","","","","","","","","","",""
"2339","","<div style=""width:500px;"">
  <p>What best describes how you currently feel?</p>
  </div>","61","html-slider-response","42","421933","0.0-7.0-4.5","129","1","2025-08-06 08:50:41","36c45c0696341be0efffe67d72a12abb","90.227.165.225","Mozilla/5.0 (Macintosh; Intel Mac OS X 10_15_7) AppleWebKit/537.36 (KHTML, like Gecko) Chrome/138.0.0.0 Safari/537.36","Macintosh","Chrome","138.0.0.0","OS X","10_15_7","https://app.prolific.com/","en-GB,en-US;q=0.9,en;q=0.8","6617c54a41ce14946db85944","687a1a965b9f5b85a264363e","6893175d4f34c5a92f86bc65","1","6617c54a41ce14946db85944","1","2025-08-06T08:57:44.818Z","","","","MotivationQ","","","","","","","","","","","50","","","","","","","","","","","","","","","","","","","","","","","","","","",""
"","","","","ctl-task-cpt","43","461084","0.0-7.0-0.6","129","1","2025-08-06 08:50:41","36c45c0696341be0efffe67d72a12abb","90.227.165.225","Mozilla/5.0 (Macintosh; Intel Mac OS X 10_15_7) AppleWebKit/537.36 (KHTML, like Gecko) Chrome/138.0.0.0 Safari/537.36","Macintosh","Chrome","138.0.0.0","OS X","10_15_7","https://app.prolific.com/","en-GB,en-US;q=0.9,en;q=0.8","6617c54a41ce14946db85944","687a1a965b9f5b85a264363e","6893175d4f34c5a92f86bc65","1","6617c54a41ce14946db85944","1","2025-08-06T08:58:23.969Z","","","","","","","","","","","","","","","","win-only","2","g1:SE,g2:NW","0.4","7","0","423045","911.1","5916.2","36140.6","1","4","8","6","2","-8","-9","0","7","0","1230.2","3000","-2995","[""left"",""up""]","{""num_key_presses"":9,""num_perfect"":3,""num_errors"":1,""num_randdir"":5,""num_randdir_good_moves"":2,""num_whilered"":0,""num_whileblue"":0,""num_blue"":2,""num_good_moves"":5}","[686.2857142857143,700.0825892857143,0,686.2857142857143,700.0825892857143,104.4,686.2857142857143,700.0825892857143,204.5,686.2857142857143,700.0825892857143,304.9,686.2857142857143,700.0825892857143,409.4,470.2857142857143,540.0825892857143,514.2,224.28571428571428,298.0825892857143,615,196.28571428571428,196.08258928571428,715.2,192.28571428571428,188.08258928571428,819.3,188.28571428571428,180.08258928571428,919.6,186.28571428571428,180.08258928571428,1019.7,186.28571428571428,180.08258928571428,1120,186.28571428571428,180.08258928571428,1224.4,186.28571428571428,180.08258928571428,1329.3,186.28571428571428,180.08258928571428,1434.8,186.28571428571428,180.08258928571428,1536,186.28571428571428,180.08258928571428,1639,186.28571428571428,180.08258928571428,1739.3,186.28571428571428,180.08258928571428,1840,186.28571428571428,180.08258928571428,1944.8,186.28571428571428,180.08258928571428,2049.1,186.28571428571428,180.08258928571428,2149.4,186.28571428571428,180.08258928571428,2254.3,186.28571428571428,180.08258928571428,2359.3,186.28571428571428,180.08258928571428,2460.7,186.28571428571428,180.08258928571428,2564.9,186.28571428571428,180.08258928571428,2670,186.28571428571428,180.08258928571428,2774,186.28571428571428,180.08258928571428,2874.5,186.28571428571428,180.08258928571428,2974.5,186.28571428571428,180.08258928571428,3074.8,186.28571428571428,180.08258928571428,3179.4,186.28571428571428,180.08258928571428,3280.3,186.28571428571428,180.08258928571428,3384.3,186.28571428571428,180.08258928571428,3486.3,186.28571428571428,180.08258928571428,3586.6,186.28571428571428,180.08258928571428,3689.1,186.28571428571428,180.08258928571428,3789.5,186.28571428571428,180.08258928571428,3894.1,186.28571428571428,180.08258928571428,3994.3,186.28571428571428,180.08258928571428,4094.3,186.28571428571428,180.08258928571428,4195.5,186.28571428571428,180.08258928571428,4299.3,186.28571428571428,180.08258928571428,4400.7,186.28571428571428,180.08258928571428,4505,186.28571428571428,180.08258928571428,4606,186.28571428571428,180.08258928571428,4709.4,186.28571428571428,180.08258928571428,4809.4,186.28571428571428,180.08258928571428,4916.1]","[1373.5,1373.5,1000,0,373.5,""oops"",""up"",""down"",""bad_move"",3733.8,2360,1906.1,1373.8,453.9,""oops"",""left"",""up"",""good_move"",6856.3,3122.1,2845.6,3734.2,276.5,""oops"",""left"",""up"",""good_move"",9179.5,2323,2041.6,6856.5,281.4,""smooth"",""left"",""left"",""good_move"",19524.2,10344.4,3098.5,16089.6,336.1,""oops"",""left"",""down"",""bad_move"",22080.4,2556,2235.9,19524.4,320.1,""smooth"",""left"",""left"",""good_move"",24410.3,2329.6,2038.3,22080.7,291.3,""smooth"",""left"",""left"",""good_move"",26940.8,2530.4,1994.4,24410.4,536,""oops"",""up"",""right"",""bad_move"",27044.6,103.4,3048.7,26941.2,-2945.3,""error"",""-"",""-"",""no_move""]"
"1562","","<div style=""width:500px;"">
  <p>What determined the result of this run?</p>
  </div>","74","html-slider-response","44","462647","0.0-7.0-1.6","129","1","2025-08-06 08:50:41","36c45c0696341be0efffe67d72a12abb","90.227.165.225","Mozilla/5.0 (Macintosh; Intel Mac OS X 10_15_7) AppleWebKit/537.36 (KHTML, like Gecko) Chrome/138.0.0.0 Safari/537.36","Macintosh","Chrome","138.0.0.0","OS X","10_15_7","https://app.prolific.com/","en-GB,en-US;q=0.9,en;q=0.8","6617c54a41ce14946db85944","687a1a965b9f5b85a264363e","6893175d4f34c5a92f86bc65","1","6617c54a41ce14946db85944","1","2025-08-06T08:58:25.532Z","","","","AttribQ","","","","","","","","","","","50","","","","","","","","","","","","","","","","","","","","","","","","","","",""
"1518","","<div style=""width:500px;"">
  <p>How much control did you have over the ball?</p>
  </div>","19","html-slider-response","45","464166","0.0-7.0-2.6","129","1","2025-08-06 08:50:41","36c45c0696341be0efffe67d72a12abb","90.227.165.225","Mozilla/5.0 (Macintosh; Intel Mac OS X 10_15_7) AppleWebKit/537.36 (KHTML, like Gecko) Chrome/138.0.0.0 Safari/537.36","Macintosh","Chrome","138.0.0.0","OS X","10_15_7","https://app.prolific.com/","en-GB,en-US;q=0.9,en;q=0.8","6617c54a41ce14946db85944","687a1a965b9f5b85a264363e","6893175d4f34c5a92f86bc65","1","6617c54a41ce14946db85944","1","2025-08-06T08:58:27.051Z","","","","ControlQ","","","","","","","","","","","50","","","","","","","","","","","","","","","","","","","","","","","","","","",""
"2339","","<div style=""width:500px;"">
  <p>How would you describe your current emotional state?</p>
  </div>","71","html-slider-response","46","466505","0.0-7.0-3.6","129","1","2025-08-06 08:50:41","36c45c0696341be0efffe67d72a12abb","90.227.165.225","Mozilla/5.0 (Macintosh; Intel Mac OS X 10_15_7) AppleWebKit/537.36 (KHTML, like Gecko) Chrome/138.0.0.0 Safari/537.36","Macintosh","Chrome","138.0.0.0","OS X","10_15_7","https://app.prolific.com/","en-GB,en-US;q=0.9,en;q=0.8","6617c54a41ce14946db85944","687a1a965b9f5b85a264363e","6893175d4f34c5a92f86bc65","1","6617c54a41ce14946db85944","1","2025-08-06T08:58:29.390Z","","","","StressQ","","","","","","","","","","","50","","","","","","","","","","","","","","","","","","","","","","","","","","",""
"1598","","<div style=""width:500px;"">
  <p>What best describes how you currently feel?</p>
  </div>","62","html-slider-response","47","468104","0.0-7.0-4.6","129","1","2025-08-06 08:50:41","36c45c0696341be0efffe67d72a12abb","90.227.165.225","Mozilla/5.0 (Macintosh; Intel Mac OS X 10_15_7) AppleWebKit/537.36 (KHTML, like Gecko) Chrome/138.0.0.0 Safari/537.36","Macintosh","Chrome","138.0.0.0","OS X","10_15_7","https://app.prolific.com/","en-GB,en-US;q=0.9,en;q=0.8","6617c54a41ce14946db85944","687a1a965b9f5b85a264363e","6893175d4f34c5a92f86bc65","1","6617c54a41ce14946db85944","1","2025-08-06T08:58:30.989Z","","","","MotivationQ","","","","","","","","","","","50","","","","","","","","","","","","","","","","","","","","","","","","","","",""
"","","","","ctl-task-cpt","48","505074","0.0-7.0-0.7","129","1","2025-08-06 08:50:41","36c45c0696341be0efffe67d72a12abb","90.227.165.225","Mozilla/5.0 (Macintosh; Intel Mac OS X 10_15_7) AppleWebKit/537.36 (KHTML, like Gecko) Chrome/138.0.0.0 Safari/537.36","Macintosh","Chrome","138.0.0.0","OS X","10_15_7","https://app.prolific.com/","en-GB,en-US;q=0.9,en;q=0.8","6617c54a41ce14946db85944","687a1a965b9f5b85a264363e","6893175d4f34c5a92f86bc65","1","6617c54a41ce14946db85944","1","2025-08-06T08:59:07.959Z","","","","","","","","","","","","","","","","win-only","0","g1:NW,g2:SE","0.3","8","0","469216.3","628.4","5631","33960.8","1","4","4","6","1","-1","-1","0","0","0","1247.9","3000","-2995","[""left"",""up""]","{""num_key_presses"":9,""num_perfect"":2,""num_errors"":0,""num_randdir"":7,""num_randdir_good_moves"":3,""num_whilered"":0,""num_whileblue"":0,""num_blue"":1,""num_good_moves"":5}","[682.2857142857143,688.0825892857143,0.1,682.2857142857143,688.0825892857143,101.8,682.2857142857143,688.0825892857143,202.2,682.2857142857143,688.0825892857143,307.5,682.2857142857143,688.0825892857143,407.8,682.2857142857143,688.0825892857143,508,926.2857142857143,984.0825892857143,612.2,682.2857142857143,668.0825892857143,714,352.2857142857143,368.0825892857143,817.2,336.2857142857143,316.0825892857143,917.9,238.28571428571428,202.08258928571428,1022,144.28571428571428,152.08258928571428,1122,144.28571428571428,152.08258928571428,1222.1,144.28571428571428,152.08258928571428,1326.9,144.28571428571428,152.08258928571428,1427.2,144.28571428571428,152.08258928571428,1527.7,144.28571428571428,152.08258928571428,1632.8,144.28571428571428,152.08258928571428,1738,144.28571428571428,152.08258928571428,1842.3,144.28571428571428,152.08258928571428,1947.3,144.28571428571428,152.08258928571428,2048.6,144.28571428571428,152.08258928571428,2152.7,144.28571428571428,152.08258928571428,2257.9,144.28571428571428,152.08258928571428,2362.4,144.28571428571428,152.08258928571428,2467.1,144.28571428571428,152.08258928571428,2572.2,144.28571428571428,152.08258928571428,2677.2,144.28571428571428,152.08258928571428,2777.6,144.28571428571428,152.08258928571428,2882.9,144.28571428571428,152.08258928571428,2987.1,144.28571428571428,152.08258928571428,3087.9,144.28571428571428,152.08258928571428,3188,144.28571428571428,152.08258928571428,3292.1,144.28571428571428,152.08258928571428,3397.7,144.28571428571428,152.08258928571428,3502,144.28571428571428,152.08258928571428,3602.2,144.28571428571428,152.08258928571428,3702.9,144.28571428571428,152.08258928571428,3807.4,144.28571428571428,152.08258928571428,3912.9,144.28571428571428,152.08258928571428,4013.9,144.28571428571428,152.08258928571428,4117.3,144.28571428571428,152.08258928571428,4217.7,144.28571428571428,152.08258928571428,4317.7,144.28571428571428,152.08258928571428,4422,144.28571428571428,152.08258928571428,4522.7,144.28571428571428,152.08258928571428,4627.3,144.28571428571428,152.08258928571428,4732.7,144.28571428571428,152.08258928571428,4837.8,144.28571428571428,152.08258928571428,4942.3]","[1330.6,1330.6,1000,0,330.6,""smooth"",""left"",""left"",""good_move"",4092.9,2762.1,2434.3,1330.8,327.8,""smooth"",""left"",""left"",""good_move"",6778.6,2685.6,2381.6,4093,304,""oops"",""up"",""right"",""bad_move"",9308.2,2529.4,2219.7,6778.8,309.7,""oops"",""up"",""up"",""good_move"",15374.2,6065.8,2583.4,12450,340.8,""oops"",""up"",""right"",""bad_move"",17715.7,2341.1,2004.9,15374.6,336.2,""oops"",""left"",""left"",""good_move"",20593.5,2877.6,2560.5,17715.9,317.1,""oops"",""left"",""right"",""bad_move"",22957.1,2363.6,2058.3,20593.5,305.3,""oops"",""left"",""up"",""good_move"",25944.8,2987.5,2700.9,22957.3,286.6,""oops"",""left"",""right"",""bad_move""]"
"1503","","<div style=""width:500px;"">
  <p>What determined the result of this run?</p>
  </div>","9","html-slider-response","49","506578","0.0-7.0-1.7","129","1","2025-08-06 08:50:41","36c45c0696341be0efffe67d72a12abb","90.227.165.225","Mozilla/5.0 (Macintosh; Intel Mac OS X 10_15_7) AppleWebKit/537.36 (KHTML, like Gecko) Chrome/138.0.0.0 Safari/537.36","Macintosh","Chrome","138.0.0.0","OS X","10_15_7","https://app.prolific.com/","en-GB,en-US;q=0.9,en;q=0.8","6617c54a41ce14946db85944","687a1a965b9f5b85a264363e","6893175d4f34c5a92f86bc65","1","6617c54a41ce14946db85944","1","2025-08-06T08:59:09.463Z","","","","AttribQ","","","","","","","","","","","50","","","","","","","","","","","","","","","","","","","","","","","","","","",""
"1676","","<div style=""width:500px;"">
  <p>How much control did you have over the ball?</p>
  </div>","4","html-slider-response","50","508254","0.0-7.0-2.7","129","1","2025-08-06 08:50:41","36c45c0696341be0efffe67d72a12abb","90.227.165.225","Mozilla/5.0 (Macintosh; Intel Mac OS X 10_15_7) AppleWebKit/537.36 (KHTML, like Gecko) Chrome/138.0.0.0 Safari/537.36","Macintosh","Chrome","138.0.0.0","OS X","10_15_7","https://app.prolific.com/","en-GB,en-US;q=0.9,en;q=0.8","6617c54a41ce14946db85944","687a1a965b9f5b85a264363e","6893175d4f34c5a92f86bc65","1","6617c54a41ce14946db85944","1","2025-08-06T08:59:11.140Z","","","","ControlQ","","","","","","","","","","","50","","","","","","","","","","","","","","","","","","","","","","","","","","",""
"2541","","<div style=""width:500px;"">
  <p>How would you describe your current emotional state?</p>
  </div>","81","html-slider-response","51","510796","0.0-7.0-3.7","129","1","2025-08-06 08:50:41","36c45c0696341be0efffe67d72a12abb","90.227.165.225","Mozilla/5.0 (Macintosh; Intel Mac OS X 10_15_7) AppleWebKit/537.36 (KHTML, like Gecko) Chrome/138.0.0.0 Safari/537.36","Macintosh","Chrome","138.0.0.0","OS X","10_15_7","https://app.prolific.com/","en-GB,en-US;q=0.9,en;q=0.8","6617c54a41ce14946db85944","687a1a965b9f5b85a264363e","6893175d4f34c5a92f86bc65","1","6617c54a41ce14946db85944","1","2025-08-06T08:59:13.681Z","","","","StressQ","","","","","","","","","","","50","","","","","","","","","","","","","","","","","","","","","","","","","","",""
"3431","","<div style=""width:500px;"">
  <p>What best describes how you currently feel?</p>
  </div>","73","html-slider-response","52","514228","0.0-7.0-4.7","129","1","2025-08-06 08:50:41","36c45c0696341be0efffe67d72a12abb","90.227.165.225","Mozilla/5.0 (Macintosh; Intel Mac OS X 10_15_7) AppleWebKit/537.36 (KHTML, like Gecko) Chrome/138.0.0.0 Safari/537.36","Macintosh","Chrome","138.0.0.0","OS X","10_15_7","https://app.prolific.com/","en-GB,en-US;q=0.9,en;q=0.8","6617c54a41ce14946db85944","687a1a965b9f5b85a264363e","6893175d4f34c5a92f86bc65","1","6617c54a41ce14946db85944","1","2025-08-06T08:59:17.113Z","","","","MotivationQ","","","","","","","","","","","50","","","","","","","","","","","","","","","","","","","","","","","","","","",""
"","","","","ctl-task-cpt","53","562348","0.0-7.0-0.8","129","1","2025-08-06 08:50:41","36c45c0696341be0efffe67d72a12abb","90.227.165.225","Mozilla/5.0 (Macintosh; Intel Mac OS X 10_15_7) AppleWebKit/537.36 (KHTML, like Gecko) Chrome/138.0.0.0 Safari/537.36","Macintosh","Chrome","138.0.0.0","OS X","10_15_7","https://app.prolific.com/","en-GB,en-US;q=0.9,en;q=0.8","6617c54a41ce14946db85944","687a1a965b9f5b85a264363e","6893175d4f34c5a92f86bc65","1","6617c54a41ce14946db85944","1","2025-08-06T09:00:05.233Z","","","","","","","","","","","","","","","","win-only","0","g1:NW,g2:SE","0.4","9","0","515341.9","774.8","5775.8","45111.8","1","4","8","6","1","-1","-1","0","0","0","1034.7","3000","-2995","[""left"",""up""]","{""num_key_presses"":9,""num_perfect"":4,""num_errors"":0,""num_randdir"":5,""num_randdir_good_moves"":0,""num_whilered"":0,""num_whileblue"":0,""num_blue"":4,""num_good_moves"":4}","[686.2857142857143,690.0825892857143,0.1,686.2857142857143,690.0825892857143,101.1,686.2857142857143,690.0825892857143,205.6,686.2857142857143,690.0825892857143,307,670.2857142857143,678.0825892857143,407.3,650.2857142857143,632.0825892857143,511.1,380.2857142857143,368.0825892857143,611.5,288.2857142857143,246.08258928571428,715.7,188.28571428571428,162.08258928571428,816.5,170.28571428571428,146.08258928571428,921.3,170.28571428571428,144.08258928571428,1021.3,170.28571428571428,144.08258928571428,1121.6,170.28571428571428,144.08258928571428,1226,170.28571428571428,144.08258928571428,1330.8,170.28571428571428,144.08258928571428,1431.3,170.28571428571428,144.08258928571428,1531.3,170.28571428571428,144.08258928571428,1636,170.28571428571428,144.08258928571428,1740.5,170.28571428571428,144.08258928571428,1842.9,170.28571428571428,144.08258928571428,1946,170.28571428571428,144.08258928571428,2050.7,170.28571428571428,144.08258928571428,2156.4,170.28571428571428,144.08258928571428,2260.4,170.28571428571428,144.08258928571428,2360.4,170.28571428571428,144.08258928571428,2461.4,170.28571428571428,144.08258928571428,2566.1,170.28571428571428,144.08258928571428,2670.4,170.28571428571428,144.08258928571428,2770.5,170.28571428571428,144.08258928571428,2871.3,170.28571428571428,144.08258928571428,2976.1,170.28571428571428,144.08258928571428,3076.4,170.28571428571428,144.08258928571428,3181.4,170.28571428571428,144.08258928571428,3286.2,170.28571428571428,144.08258928571428,3391.4,170.28571428571428,144.08258928571428,3496,170.28571428571428,144.08258928571428,3600.7,170.28571428571428,144.08258928571428,3700.8,170.28571428571428,144.08258928571428,3800.9,170.28571428571428,144.08258928571428,3901.4,170.28571428571428,144.08258928571428,4006.4,170.28571428571428,144.08258928571428,4106.4,170.28571428571428,144.08258928571428,4206.7,170.28571428571428,144.08258928571428,4306.9,170.28571428571428,144.08258928571428,4411,170.28571428571428,144.08258928571428,4511,170.28571428571428,144.08258928571428,4616.3,170.28571428571428,144.08258928571428,4716.3,170.28571428571428,144.08258928571428,4821.2,170.28571428571428,144.08258928571428,4926]","[1308.1,1308.1,1000,0,308.1,""smooth"",""up"",""up"",""good_move"",3918,2609.5,2327.5,1308.5,282,""oops"",""up"",""down"",""bad_move"",16393.1,12474.8,2250.4,13760.5,382.2,""oops"",""up"",""right"",""bad_move"",19452.7,3059.3,2762.1,16393.4,297.2,""smooth"",""up"",""up"",""good_move"",25257.2,5804.3,2329.3,22560.4,367.5,""smooth"",""up"",""up"",""good_move"",28578.7,3321.3,3002.3,25257.4,319,""smooth"",""left"",""left"",""good_move"",32003.8,3425.1,3096.6,28578.9,328.4,""oops"",""left"",""right"",""bad_move"",34609.3,2605.3,2278.9,32004,326.4,""oops"",""left"",""right"",""bad_move"",36953.8,2344.2,2070.2,34609.6,274,""oops"",""left"",""down"",""bad_move""]"
"7960","","<div style=""width:500px;"">
  <p>What determined the result of this run?</p>
  </div>","29","html-slider-response","54","570309","0.0-7.0-1.8","129","1","2025-08-06 08:50:41","36c45c0696341be0efffe67d72a12abb","90.227.165.225","Mozilla/5.0 (Macintosh; Intel Mac OS X 10_15_7) AppleWebKit/537.36 (KHTML, like Gecko) Chrome/138.0.0.0 Safari/537.36","Macintosh","Chrome","138.0.0.0","OS X","10_15_7","https://app.prolific.com/","en-GB,en-US;q=0.9,en;q=0.8","6617c54a41ce14946db85944","687a1a965b9f5b85a264363e","6893175d4f34c5a92f86bc65","1","6617c54a41ce14946db85944","1","2025-08-06T09:00:13.194Z","","","","AttribQ","","","","","","","","","","","50","","","","","","","","","","","","","","","","","","","","","","","","","","",""
"1799","","<div style=""width:500px;"">
  <p>How much control did you have over the ball?</p>
  </div>","7","html-slider-response","55","572109","0.0-7.0-2.8","129","1","2025-08-06 08:50:41","36c45c0696341be0efffe67d72a12abb","90.227.165.225","Mozilla/5.0 (Macintosh; Intel Mac OS X 10_15_7) AppleWebKit/537.36 (KHTML, like Gecko) Chrome/138.0.0.0 Safari/537.36","Macintosh","Chrome","138.0.0.0","OS X","10_15_7","https://app.prolific.com/","en-GB,en-US;q=0.9,en;q=0.8","6617c54a41ce14946db85944","687a1a965b9f5b85a264363e","6893175d4f34c5a92f86bc65","1","6617c54a41ce14946db85944","1","2025-08-06T09:00:14.994Z","","","","ControlQ","","","","","","","","","","","50","","","","","","","","","","","","","","","","","","","","","","","","","","",""
"3825","","<div style=""width:500px;"">
  <p>How would you describe your current emotional state?</p>
  </div>","66","html-slider-response","56","575934","0.0-7.0-3.8","129","1","2025-08-06 08:50:41","36c45c0696341be0efffe67d72a12abb","90.227.165.225","Mozilla/5.0 (Macintosh; Intel Mac OS X 10_15_7) AppleWebKit/537.36 (KHTML, like Gecko) Chrome/138.0.0.0 Safari/537.36","Macintosh","Chrome","138.0.0.0","OS X","10_15_7","https://app.prolific.com/","en-GB,en-US;q=0.9,en;q=0.8","6617c54a41ce14946db85944","687a1a965b9f5b85a264363e","6893175d4f34c5a92f86bc65","1","6617c54a41ce14946db85944","1","2025-08-06T09:00:18.819Z","","","","StressQ","","","","","","","","","","","50","","","","","","","","","","","","","","","","","","","","","","","","","","",""
"4712","","<div style=""width:500px;"">
  <p>What best describes how you currently feel?</p>
  </div>","64","html-slider-response","57","580646","0.0-7.0-4.8","129","1","2025-08-06 08:50:41","36c45c0696341be0efffe67d72a12abb","90.227.165.225","Mozilla/5.0 (Macintosh; Intel Mac OS X 10_15_7) AppleWebKit/537.36 (KHTML, like Gecko) Chrome/138.0.0.0 Safari/537.36","Macintosh","Chrome","138.0.0.0","OS X","10_15_7","https://app.prolific.com/","en-GB,en-US;q=0.9,en;q=0.8","6617c54a41ce14946db85944","687a1a965b9f5b85a264363e","6893175d4f34c5a92f86bc65","1","6617c54a41ce14946db85944","1","2025-08-06T09:00:23.531Z","","","","MotivationQ","","","","","","","","","","","50","","","","","","","","","","","","","","","","","","","","","","","","","","",""
"","","","","ctl-task-cpt","58","611592","0.0-7.0-0.9","129","1","2025-08-06 08:50:41","36c45c0696341be0efffe67d72a12abb","90.227.165.225","Mozilla/5.0 (Macintosh; Intel Mac OS X 10_15_7) AppleWebKit/537.36 (KHTML, like Gecko) Chrome/138.0.0.0 Safari/537.36","Macintosh","Chrome","138.0.0.0","OS X","10_15_7","https://app.prolific.com/","en-GB,en-US;q=0.9,en;q=0.8","6617c54a41ce14946db85944","687a1a965b9f5b85a264363e","6893175d4f34c5a92f86bc65","1","6617c54a41ce14946db85944","1","2025-08-06T09:00:54.477Z","","","","","","","","","","","","","","","","win-only","0","g1:NW,g2:SE","0.5","10","0","581762.2","761.6","5766.6","27935.8","1","4","4","6","1","1","0","0","0","0","1316.5","3000","1665","[""left"",""up""]","{""num_key_presses"":5,""num_perfect"":2,""num_errors"":1,""num_randdir"":2,""num_randdir_good_moves"":2,""num_whilered"":0,""num_whileblue"":0,""num_blue"":3,""num_good_moves"":4}","[704.2857142857143,704.0825892857143,0.2,704.2857142857143,704.0825892857143,104,704.2857142857143,704.0825892857143,208.9,704.2857142857143,704.0825892857143,309.2,704.2857142857143,704.0825892857143,409.2,704.2857142857143,704.0825892857143,514.1,676.2857142857143,672.0825892857143,614.6,346.2857142857143,384.0825892857143,714.6,240.28571428571428,278.0825892857143,819.3,140.28571428571428,202.08258928571428,919.9,110.28571428571429,164.08258928571428,1020.5,110.28571428571429,164.08258928571428,1124.4,110.28571428571429,164.08258928571428,1230.4,110.28571428571429,164.08258928571428,1334.8,110.28571428571429,164.08258928571428,1436.3,110.28571428571429,164.08258928571428,1538.7,110.28571428571429,164.08258928571428,1639.6,110.28571428571429,164.08258928571428,1744.2,110.28571428571429,164.08258928571428,1844.7,110.28571428571429,164.08258928571428,1949,110.28571428571429,164.08258928571428,2054.1,110.28571428571429,164.08258928571428,2158.9,110.28571428571429,164.08258928571428,2259.4,110.28571428571429,164.08258928571428,2359.8,110.28571428571429,164.08258928571428,2462.4,110.28571428571429,164.08258928571428,2564.3,110.28571428571429,164.08258928571428,2669,110.28571428571429,164.08258928571428,2769.5,110.28571428571429,164.08258928571428,2869.7,110.28571428571429,164.08258928571428,2973.7,110.28571428571429,164.08258928571428,3073.8,110.28571428571429,164.08258928571428,3174.6,110.28571428571429,164.08258928571428,3278.9,110.28571428571429,164.08258928571428,3384.2,110.28571428571429,164.08258928571428,3484.7,110.28571428571429,164.08258928571428,3584.9,110.28571428571429,164.08258928571428,3685,110.28571428571429,164.08258928571428,3788.8,110.28571428571429,164.08258928571428,3889.1,110.28571428571429,164.08258928571428,3989.1,110.28571428571429,164.08258928571428,4089.8,110.28571428571429,164.08258928571428,4194.3,110.28571428571429,164.08258928571428,4294.3,110.28571428571429,164.08258928571428,4399.2,110.28571428571429,164.08258928571428,4499.7,110.28571428571429,164.08258928571428,4604.3,110.28571428571429,164.08258928571428,4704.3,110.28571428571429,164.08258928571428,4804.7,110.28571428571429,164.08258928571428,4908.6]","[1297.3,1297.3,1000,0,297.3,""smooth"",""left"",""left"",""good_move"",4908.5,3610.9,2731.4,4589.3,-2412.2,""error"",""-"",""-"",""no_move"",8798.1,3889.5,2550.9,5915.5,331.8,""oops"",""left"",""up"",""good_move"",15108.2,6309.8,2486.4,12263.8,358,""oops"",""left"",""up"",""good_move"",22066.7,6958.1,1978.9,19704.1,383.7,""smooth"",""left"",""left"",""good_move""]"
"5471","","<div style=""width:500px;"">
  <p>What determined the result of this run?</p>
  </div>","25","html-slider-response","59","617064","0.0-7.0-1.9","129","1","2025-08-06 08:50:41","36c45c0696341be0efffe67d72a12abb","90.227.165.225","Mozilla/5.0 (Macintosh; Intel Mac OS X 10_15_7) AppleWebKit/537.36 (KHTML, like Gecko) Chrome/138.0.0.0 Safari/537.36","Macintosh","Chrome","138.0.0.0","OS X","10_15_7","https://app.prolific.com/","en-GB,en-US;q=0.9,en;q=0.8","6617c54a41ce14946db85944","687a1a965b9f5b85a264363e","6893175d4f34c5a92f86bc65","1","6617c54a41ce14946db85944","1","2025-08-06T09:00:59.949Z","","","","AttribQ","","","","","","","","","","","50","","","","","","","","","","","","","","","","","","","","","","","","","","",""
"2148","","<div style=""width:500px;"">
  <p>How much control did you have over the ball?</p>
  </div>","32","html-slider-response","60","619212","0.0-7.0-2.9","129","1","2025-08-06 08:50:41","36c45c0696341be0efffe67d72a12abb","90.227.165.225","Mozilla/5.0 (Macintosh; Intel Mac OS X 10_15_7) AppleWebKit/537.36 (KHTML, like Gecko) Chrome/138.0.0.0 Safari/537.36","Macintosh","Chrome","138.0.0.0","OS X","10_15_7","https://app.prolific.com/","en-GB,en-US;q=0.9,en;q=0.8","6617c54a41ce14946db85944","687a1a965b9f5b85a264363e","6893175d4f34c5a92f86bc65","1","6617c54a41ce14946db85944","1","2025-08-06T09:01:02.097Z","","","","ControlQ","","","","","","","","","","","50","","","","","","","","","","","","","","","","","","","","","","","","","","",""
"2227","","<div style=""width:500px;"">
  <p>How would you describe your current emotional state?</p>
  </div>","73","html-slider-response","61","621440","0.0-7.0-3.9","129","1","2025-08-06 08:50:41","36c45c0696341be0efffe67d72a12abb","90.227.165.225","Mozilla/5.0 (Macintosh; Intel Mac OS X 10_15_7) AppleWebKit/537.36 (KHTML, like Gecko) Chrome/138.0.0.0 Safari/537.36","Macintosh","Chrome","138.0.0.0","OS X","10_15_7","https://app.prolific.com/","en-GB,en-US;q=0.9,en;q=0.8","6617c54a41ce14946db85944","687a1a965b9f5b85a264363e","6893175d4f34c5a92f86bc65","1","6617c54a41ce14946db85944","1","2025-08-06T09:01:04.325Z","","","","StressQ","","","","","","","","","","","50","","","","","","","","","","","","","","","","","","","","","","","","","","",""
"1832","","<div style=""width:500px;"">
  <p>What best describes how you currently feel?</p>
  </div>","66","html-slider-response","62","623273","0.0-7.0-4.9","129","1","2025-08-06 08:50:41","36c45c0696341be0efffe67d72a12abb","90.227.165.225","Mozilla/5.0 (Macintosh; Intel Mac OS X 10_15_7) AppleWebKit/537.36 (KHTML, like Gecko) Chrome/138.0.0.0 Safari/537.36","Macintosh","Chrome","138.0.0.0","OS X","10_15_7","https://app.prolific.com/","en-GB,en-US;q=0.9,en;q=0.8","6617c54a41ce14946db85944","687a1a965b9f5b85a264363e","6893175d4f34c5a92f86bc65","1","6617c54a41ce14946db85944","1","2025-08-06T09:01:06.158Z","","","","MotivationQ","","","","","","","","","","","50","","","","","","","","","","","","","","","","","","","","","","","","","","",""
"","","","","ctl-task-cpt","63","662268","0.0-7.0-0.10","129","1","2025-08-06 08:50:41","36c45c0696341be0efffe67d72a12abb","90.227.165.225","Mozilla/5.0 (Macintosh; Intel Mac OS X 10_15_7) AppleWebKit/537.36 (KHTML, like Gecko) Chrome/138.0.0.0 Safari/537.36","Macintosh","Chrome","138.0.0.0","OS X","10_15_7","https://app.prolific.com/","en-GB,en-US;q=0.9,en;q=0.8","6617c54a41ce14946db85944","687a1a965b9f5b85a264363e","6893175d4f34c5a92f86bc65","1","6617c54a41ce14946db85944","1","2025-08-06T09:01:45.153Z","","","","","","","","","","","","","","","","win-only","3","g1:SW,g2:NE","0.6","11","0","624390.3","880.7","5881.2","35985.9","1","4","4","6","1","1","1","1","0","0.007575757575757576","1323.3","3000","225","[""down"",""left""]","{""num_key_presses"":8,""num_perfect"":5,""num_errors"":0,""num_randdir"":3,""num_randdir_good_moves"":1,""num_whilered"":0,""num_whileblue"":0,""num_blue"":3,""num_good_moves"":6}","[688.2857142857143,700.0825892857143,0.2,688.2857142857143,700.0825892857143,105.1,688.2857142857143,700.0825892857143,205.3,688.2857142857143,700.0825892857143,305.4,688.2857142857143,700.0825892857143,405.6,690.2857142857143,698.0825892857143,510.5,482.2857142857143,868.0825892857143,615.7,180.28571428571428,1186.0825892857142,721.2,160.28571428571428,1208.0825892857142,825.2,124.28571428571429,1254.0825892857142,925.3,122.28571428571429,1258.0825892857142,1029.8,122.28571428571429,1258.0825892857142,1130,122.28571428571429,1258.0825892857142,1230.6,122.28571428571429,1258.0825892857142,1337.9,122.28571428571429,1258.0825892857142,1440,122.28571428571429,1258.0825892857142,1545.4,122.28571428571429,1258.0825892857142,1649.9,122.28571428571429,1258.0825892857142,1756.9,122.28571428571429,1258.0825892857142,1860.1,122.28571428571429,1258.0825892857142,1960.5,122.28571428571429,1258.0825892857142,2065.3,122.28571428571429,1258.0825892857142,2169.4,122.28571428571429,1258.0825892857142,2270.2,122.28571428571429,1258.0825892857142,2375.3,122.28571428571429,1258.0825892857142,2480.1,122.28571428571429,1258.0825892857142,2585.3,122.28571428571429,1258.0825892857142,2685.4,122.28571428571429,1258.0825892857142,2790.5,122.28571428571429,1258.0825892857142,2894.9,122.28571428571429,1258.0825892857142,2995.1,122.28571428571429,1258.0825892857142,3100.5,122.28571428571429,1258.0825892857142,3207.2,122.28571428571429,1258.0825892857142,3309.7,122.28571428571429,1258.0825892857142,3410.4,122.28571428571429,1258.0825892857142,3515.1,122.28571428571429,1258.0825892857142,3615.1,122.28571428571429,1258.0825892857142,3715.6,122.28571428571429,1258.0825892857142,3822.7,122.28571428571429,1258.0825892857142,3925.1,122.28571428571429,1258.0825892857142,4030.7,122.28571428571429,1258.0825892857142,4134.5,122.28571428571429,1258.0825892857142,4234.8,122.28571428571429,1258.0825892857142,4335.6,122.28571428571429,1258.0825892857142,4439.8,122.28571428571429,1258.0825892857142,4541.4,122.28571428571429,1258.0825892857142,4645.5,122.28571428571429,1258.0825892857142,4749.7,122.28571428571429,1258.0825892857142,4849.9,122.28571428571429,1258.0825892857142,4955.3]","[1322.1,1322.1,1000,0,322.1,""smooth"",""left"",""left"",""good_move"",3887.1,2564.5,2221.8,1322.6,342.7,""smooth"",""left"",""left"",""good_move"",10158.7,6271.5,2474.7,7324.5,359.6,""oops"",""down"",""down"",""good_move"",15765.1,5606,2329,13065.8,370.3,""oops"",""down"",""right"",""bad_move"",19168.5,3403,3064.9,15765.5,338.1,""smooth"",""down"",""down"",""good_move"",21838.5,2670,2270.5,19168.6,399.5,""oops"",""left"",""up"",""bad_move"",24570.3,2731.4,2403.2,21838.9,328.2,""smooth"",""left"",""left"",""good_move"",30017,5446.4,2289.1,27359.1,368.8,""smooth"",""down"",""down"",""good_move""]"
"1673","","<div style=""width:500px;"">
  <p>What determined the result of this run?</p>
  </div>","17","html-slider-response","64","663942","0.0-7.0-1.10","129","1","2025-08-06 08:50:41","36c45c0696341be0efffe67d72a12abb","90.227.165.225","Mozilla/5.0 (Macintosh; Intel Mac OS X 10_15_7) AppleWebKit/537.36 (KHTML, like Gecko) Chrome/138.0.0.0 Safari/537.36","Macintosh","Chrome","138.0.0.0","OS X","10_15_7","https://app.prolific.com/","en-GB,en-US;q=0.9,en;q=0.8","6617c54a41ce14946db85944","687a1a965b9f5b85a264363e","6893175d4f34c5a92f86bc65","1","6617c54a41ce14946db85944","1","2025-08-06T09:01:46.827Z","","","","AttribQ","","","","","","","","","","","50","","","","","","","","","","","","","","","","","","","","","","","","","","",""
"1461","","<div style=""width:500px;"">
  <p>How much control did you have over the ball?</p>
  </div>","30","html-slider-response","65","665403","0.0-7.0-2.10","129","1","2025-08-06 08:50:41","36c45c0696341be0efffe67d72a12abb","90.227.165.225","Mozilla/5.0 (Macintosh; Intel Mac OS X 10_15_7) AppleWebKit/537.36 (KHTML, like Gecko) Chrome/138.0.0.0 Safari/537.36","Macintosh","Chrome","138.0.0.0","OS X","10_15_7","https://app.prolific.com/","en-GB,en-US;q=0.9,en;q=0.8","6617c54a41ce14946db85944","687a1a965b9f5b85a264363e","6893175d4f34c5a92f86bc65","1","6617c54a41ce14946db85944","1","2025-08-06T09:01:48.288Z","","","","ControlQ","","","","","","","","","","","50","","","","","","","","","","","","","","","","","","","","","","","","","","",""
"1710","","<div style=""width:500px;"">
  <p>How would you describe your current emotional state?</p>
  </div>","77","html-slider-response","66","667114","0.0-7.0-3.10","129","1","2025-08-06 08:50:41","36c45c0696341be0efffe67d72a12abb","90.227.165.225","Mozilla/5.0 (Macintosh; Intel Mac OS X 10_15_7) AppleWebKit/537.36 (KHTML, like Gecko) Chrome/138.0.0.0 Safari/537.36","Macintosh","Chrome","138.0.0.0","OS X","10_15_7","https://app.prolific.com/","en-GB,en-US;q=0.9,en;q=0.8","6617c54a41ce14946db85944","687a1a965b9f5b85a264363e","6893175d4f34c5a92f86bc65","1","6617c54a41ce14946db85944","1","2025-08-06T09:01:49.999Z","","","","StressQ","","","","","","","","","","","50","","","","","","","","","","","","","","","","","","","","","","","","","","",""
"11037","","<div style=""width:500px;"">
  <p>What best describes how you currently feel?</p>
  </div>","70","html-slider-response","67","678151","0.0-7.0-4.10","129","1","2025-08-06 08:50:41","36c45c0696341be0efffe67d72a12abb","90.227.165.225","Mozilla/5.0 (Macintosh; Intel Mac OS X 10_15_7) AppleWebKit/537.36 (KHTML, like Gecko) Chrome/138.0.0.0 Safari/537.36","Macintosh","Chrome","138.0.0.0","OS X","10_15_7","https://app.prolific.com/","en-GB,en-US;q=0.9,en;q=0.8","6617c54a41ce14946db85944","687a1a965b9f5b85a264363e","6893175d4f34c5a92f86bc65","1","6617c54a41ce14946db85944","1","2025-08-06T09:02:01.036Z","","","","MotivationQ","","","","","","","","","","","50","","","","","","","","","","","","","","","","","","","","","","","","","","",""
"","","","","ctl-task-cpt","68","701672","0.0-7.0-0.11","129","1","2025-08-06 08:50:41","36c45c0696341be0efffe67d72a12abb","90.227.165.225","Mozilla/5.0 (Macintosh; Intel Mac OS X 10_15_7) AppleWebKit/537.36 (KHTML, like Gecko) Chrome/138.0.0.0 Safari/537.36","Macintosh","Chrome","138.0.0.0","OS X","10_15_7","https://app.prolific.com/","en-GB,en-US;q=0.9,en;q=0.8","6617c54a41ce14946db85944","687a1a965b9f5b85a264363e","6893175d4f34c5a92f86bc65","1","6617c54a41ce14946db85944","1","2025-08-06T09:02:24.557Z","","","","","","","","","","","","","","","","win-only","3","g1:SW,g2:NE","0.7","12","0","679270","1291.2","6295.6","20511.2","1","4","8","6","1","1","1","2","1","0.015151515151515152","2577.3","3000","1675","[""down"",""left""]","{""num_key_presses"":4,""num_perfect"":3,""num_errors"":0,""num_randdir"":1,""num_randdir_good_moves"":1,""num_whilered"":0,""num_whileblue"":0,""num_blue"":1,""num_good_moves"":4}","[690.2857142857143,696.0825892857143,0.2,690.2857142857143,696.0825892857143,104.8,690.2857142857143,696.0825892857143,205,690.2857142857143,696.0825892857143,309.6,726.2857142857143,658.0825892857143,414.5,1216.2857142857142,112.08258928571429,514.8,1238.2857142857142,86.08258928571429,619.7,1240.2857142857142,84.08258928571429,724.7,1248.2857142857142,110.08258928571429,829.1,1248.2857142857142,110.08258928571429,929.6,1248.2857142857142,110.08258928571429,1029.7,1248.2857142857142,110.08258928571429,1134.1,1248.2857142857142,110.08258928571429,1234.3,1248.2857142857142,110.08258928571429,1334.3,1248.2857142857142,110.08258928571429,1440,1248.2857142857142,110.08258928571429,1544.4,1248.2857142857142,110.08258928571429,1644.9,1058.2857142857142,392.0825892857143,1749.5,642.2857142857143,878.0825892857143,1854.7,836.2857142857143,542.0825892857143,1954.9,332.2857142857143,1098.0825892857142,2054.9,210.28571428571428,1280.0825892857142,2159.8,210.28571428571428,1282.0825892857142,2260,150.28571428571428,1310.0825892857142,2364.4,150.28571428571428,1310.0825892857142,2471.9,150.28571428571428,1310.0825892857142,2574.3,150.28571428571428,1310.0825892857142,2674.8,150.28571428571428,1310.0825892857142,2779.1,150.28571428571428,1310.0825892857142,2880,150.28571428571428,1310.0825892857142,2984.5,150.28571428571428,1310.0825892857142,3089.7,150.28571428571428,1310.0825892857142,3194.7,150.28571428571428,1310.0825892857142,3299.6,150.28571428571428,1310.0825892857142,3400,150.28571428571428,1310.0825892857142,3504.1,150.28571428571428,1310.0825892857142,3605.4,150.28571428571428,1310.0825892857142,3709.8,150.28571428571428,1310.0825892857142,3809.9,150.28571428571428,1310.0825892857142,3914.5,150.28571428571428,1310.0825892857142,4019.4,150.28571428571428,1310.0825892857142,4119.6,150.28571428571428,1310.0825892857142,4222.8,150.28571428571428,1310.0825892857142,4324.5,150.28571428571428,1310.0825892857142,4425,150.28571428571428,1310.0825892857142,4529.5,150.28571428571428,1310.0825892857142,4629.8,150.28571428571428,1310.0825892857142,4734.1,150.28571428571428,1310.0825892857142,4834.1,150.28571428571428,1310.0825892857142,4934.3]","[1341.1,1341.1,1000,0,341.1,""oops"",""down"",""left"",""good_move"",4806.7,3465.2,3151.1,1341.5,314.1,""smooth"",""down"",""down"",""good_move"",10718.7,5911.8,2792.9,7579.8,346,""smooth"",""down"",""down"",""good_move"",14110.4,3391.4,3048.9,10719,342.5,""smooth"",""left"",""left"",""good_move""]"
"3725","","<div style=""width:500px;"">
  <p>What determined the result of this run?</p>
  </div>","31","html-slider-response","69","705397","0.0-7.0-1.11","129","1","2025-08-06 08:50:41","36c45c0696341be0efffe67d72a12abb","90.227.165.225","Mozilla/5.0 (Macintosh; Intel Mac OS X 10_15_7) AppleWebKit/537.36 (KHTML, like Gecko) Chrome/138.0.0.0 Safari/537.36","Macintosh","Chrome","138.0.0.0","OS X","10_15_7","https://app.prolific.com/","en-GB,en-US;q=0.9,en;q=0.8","6617c54a41ce14946db85944","687a1a965b9f5b85a264363e","6893175d4f34c5a92f86bc65","1","6617c54a41ce14946db85944","1","2025-08-06T09:02:28.282Z","","","","AttribQ","","","","","","","","","","","50","","","","","","","","","","","","","","","","","","","","","","","","","","",""
"2791","","<div style=""width:500px;"">
  <p>How much control did you have over the ball?</p>
  </div>","29","html-slider-response","70","708188","0.0-7.0-2.11","129","1","2025-08-06 08:50:41","36c45c0696341be0efffe67d72a12abb","90.227.165.225","Mozilla/5.0 (Macintosh; Intel Mac OS X 10_15_7) AppleWebKit/537.36 (KHTML, like Gecko) Chrome/138.0.0.0 Safari/537.36","Macintosh","Chrome","138.0.0.0","OS X","10_15_7","https://app.prolific.com/","en-GB,en-US;q=0.9,en;q=0.8","6617c54a41ce14946db85944","687a1a965b9f5b85a264363e","6893175d4f34c5a92f86bc65","1","6617c54a41ce14946db85944","1","2025-08-06T09:02:31.073Z","","","","ControlQ","","","","","","","","","","","50","","","","","","","","","","","","","","","","","","","","","","","","","","",""
"2024","","<div style=""width:500px;"">
  <p>How would you describe your current emotional state?</p>
  </div>","58","html-slider-response","71","710213","0.0-7.0-3.11","129","1","2025-08-06 08:50:41","36c45c0696341be0efffe67d72a12abb","90.227.165.225","Mozilla/5.0 (Macintosh; Intel Mac OS X 10_15_7) AppleWebKit/537.36 (KHTML, like Gecko) Chrome/138.0.0.0 Safari/537.36","Macintosh","Chrome","138.0.0.0","OS X","10_15_7","https://app.prolific.com/","en-GB,en-US;q=0.9,en;q=0.8","6617c54a41ce14946db85944","687a1a965b9f5b85a264363e","6893175d4f34c5a92f86bc65","1","6617c54a41ce14946db85944","1","2025-08-06T09:02:33.098Z","","","","StressQ","","","","","","","","","","","50","","","","","","","","","","","","","","","","","","","","","","","","","","",""
"1766","","<div style=""width:500px;"">
  <p>What best describes how you currently feel?</p>
  </div>","58","html-slider-response","72","711980","0.0-7.0-4.11","129","1","2025-08-06 08:50:41","36c45c0696341be0efffe67d72a12abb","90.227.165.225","Mozilla/5.0 (Macintosh; Intel Mac OS X 10_15_7) AppleWebKit/537.36 (KHTML, like Gecko) Chrome/138.0.0.0 Safari/537.36","Macintosh","Chrome","138.0.0.0","OS X","10_15_7","https://app.prolific.com/","en-GB,en-US;q=0.9,en;q=0.8","6617c54a41ce14946db85944","687a1a965b9f5b85a264363e","6893175d4f34c5a92f86bc65","1","6617c54a41ce14946db85944","1","2025-08-06T09:02:34.865Z","","","","MotivationQ","","","","","","","","","","","50","","","","","","","","","","","","","","","","","","","","","","","","","","",""
"","","","","ctl-task-cpt","73","754791","0.0-7.0-0.12","129","1","2025-08-06 08:50:41","36c45c0696341be0efffe67d72a12abb","90.227.165.225","Mozilla/5.0 (Macintosh; Intel Mac OS X 10_15_7) AppleWebKit/537.36 (KHTML, like Gecko) Chrome/138.0.0.0 Safari/537.36","Macintosh","Chrome","138.0.0.0","OS X","10_15_7","https://app.prolific.com/","en-GB,en-US;q=0.9,en;q=0.8","6617c54a41ce14946db85944","687a1a965b9f5b85a264363e","6893175d4f34c5a92f86bc65","1","6617c54a41ce14946db85944","1","2025-08-06T09:03:17.676Z","","","","","","","","","","","","","","","","win-only","3","g1:SW,g2:NE","0.8","13","0","713099.3","1228.2","6231.3","39801","1","4","4","6","1","1","1","3","2","0.022727272727272728","1289.5","3000","425","[""down"",""left""]","{""num_key_presses"":8,""num_perfect"":6,""num_errors"":0,""num_randdir"":2,""num_randdir_good_moves"":0,""num_whilered"":0,""num_whileblue"":0,""num_blue"":3,""num_good_moves"":6}","[692.2857142857143,684.0825892857143,0.1,692.2857142857143,684.0825892857143,103.1,692.2857142857143,684.0825892857143,207.5,692.2857142857143,684.0825892857143,307.8,692.2857142857143,684.0825892857143,412.7,692.2857142857143,684.0825892857143,517.3,692.2857142857143,684.0825892857143,622.6,546.2857142857143,852.0825892857143,722.8,268.2857142857143,1156.0825892857142,822.8,190.28571428571428,1224.0825892857142,928,190.28571428571428,1226.0825892857142,1028,186.28571428571428,1228.0825892857142,1132.1,186.28571428571428,1228.0825892857142,1232.5,186.28571428571428,1228.0825892857142,1333,186.28571428571428,1228.0825892857142,1437.9,186.28571428571428,1228.0825892857142,1542.2,186.28571428571428,1228.0825892857142,1642.2,186.28571428571428,1228.0825892857142,1742.7,186.28571428571428,1228.0825892857142,1847.6,186.28571428571428,1228.0825892857142,1952.2,186.28571428571428,1228.0825892857142,2052.6,186.28571428571428,1228.0825892857142,2152.6,186.28571428571428,1228.0825892857142,2252.6,186.28571428571428,1228.0825892857142,2352.6,186.28571428571428,1228.0825892857142,2457.4,186.28571428571428,1228.0825892857142,2557.9,186.28571428571428,1228.0825892857142,2663,186.28571428571428,1228.0825892857142,2767.5,186.28571428571428,1228.0825892857142,2868.1,186.28571428571428,1228.0825892857142,2972.9,186.28571428571428,1228.0825892857142,3077,186.28571428571428,1228.0825892857142,3177.1,186.28571428571428,1228.0825892857142,3277.6,186.28571428571428,1228.0825892857142,3382.8,186.28571428571428,1228.0825892857142,3482.8,186.28571428571428,1228.0825892857142,3583,186.28571428571428,1228.0825892857142,3687.9,186.28571428571428,1228.0825892857142,3787.9,186.28571428571428,1228.0825892857142,3892.9,186.28571428571428,1228.0825892857142,3993.2,186.28571428571428,1228.0825892857142,4102.4,186.28571428571428,1228.0825892857142,4203.9,186.28571428571428,1228.0825892857142,4308.1,186.28571428571428,1228.0825892857142,4408.8,186.28571428571428,1228.0825892857142,4513,186.28571428571428,1228.0825892857142,4618.5,186.28571428571428,1228.0825892857142,4722.5,186.28571428571428,1228.0825892857142,4827.8,186.28571428571428,1228.0825892857142,4932.2]","[1395.5,1395.6,1000,0,395.6,""smooth"",""left"",""left"",""good_move"",7887,6491.1,2563.6,4999.4,324,""smooth"",""left"",""left"",""good_move"",10327,2439.7,2108.3,7887.3,331.4,""smooth"",""down"",""down"",""good_move"",16086.5,5759.1,1868.8,13842.9,374.8,""oops"",""down"",""up"",""bad_move"",19625.3,3538.5,3184.8,16086.8,353.7,""smooth"",""down"",""down"",""good_move"",22801.2,3175.4,2838.9,19625.8,336.5,""oops"",""down"",""up"",""bad_move"",26069.9,3268.5,2988.7,22801.4,279.8,""smooth"",""down"",""down"",""good_move"",33461.4,7391.1,3357,29799.8,304.6,""smooth"",""down"",""down"",""good_move""]"
"1353","","<div style=""width:500px;"">
  <p>What determined the result of this run?</p>
  </div>","0","html-slider-response","74","756145","0.0-7.0-1.12","129","1","2025-08-06 08:50:41","36c45c0696341be0efffe67d72a12abb","90.227.165.225","Mozilla/5.0 (Macintosh; Intel Mac OS X 10_15_7) AppleWebKit/537.36 (KHTML, like Gecko) Chrome/138.0.0.0 Safari/537.36","Macintosh","Chrome","138.0.0.0","OS X","10_15_7","https://app.prolific.com/","en-GB,en-US;q=0.9,en;q=0.8","6617c54a41ce14946db85944","687a1a965b9f5b85a264363e","6893175d4f34c5a92f86bc65","1","6617c54a41ce14946db85944","1","2025-08-06T09:03:19.030Z","","","","AttribQ","","","","","","","","","","","50","","","","","","","","","","","","","","","","","","","","","","","","","","",""
"2814","","<div style=""width:500px;"">
  <p>How much control did you have over the ball?</p>
  </div>","39","html-slider-response","75","758959","0.0-7.0-2.12","129","1","2025-08-06 08:50:41","36c45c0696341be0efffe67d72a12abb","90.227.165.225","Mozilla/5.0 (Macintosh; Intel Mac OS X 10_15_7) AppleWebKit/537.36 (KHTML, like Gecko) Chrome/138.0.0.0 Safari/537.36","Macintosh","Chrome","138.0.0.0","OS X","10_15_7","https://app.prolific.com/","en-GB,en-US;q=0.9,en;q=0.8","6617c54a41ce14946db85944","687a1a965b9f5b85a264363e","6893175d4f34c5a92f86bc65","1","6617c54a41ce14946db85944","1","2025-08-06T09:03:21.845Z","","","","ControlQ","","","","","","","","","","","50","","","","","","","","","","","","","","","","","","","","","","","","","","",""
"1381","","<div style=""width:500px;"">
  <p>How would you describe your current emotional state?</p>
  </div>","57","html-slider-response","76","760342","0.0-7.0-3.12","129","1","2025-08-06 08:50:41","36c45c0696341be0efffe67d72a12abb","90.227.165.225","Mozilla/5.0 (Macintosh; Intel Mac OS X 10_15_7) AppleWebKit/537.36 (KHTML, like Gecko) Chrome/138.0.0.0 Safari/537.36","Macintosh","Chrome","138.0.0.0","OS X","10_15_7","https://app.prolific.com/","en-GB,en-US;q=0.9,en;q=0.8","6617c54a41ce14946db85944","687a1a965b9f5b85a264363e","6893175d4f34c5a92f86bc65","1","6617c54a41ce14946db85944","1","2025-08-06T09:03:23.227Z","","","","StressQ","","","","","","","","","","","50","","","","","","","","","","","","","","","","","","","","","","","","","","",""
"1993","","<div style=""width:500px;"">
  <p>What best describes how you currently feel?</p>
  </div>","56","html-slider-response","77","762336","0.0-7.0-4.12","129","1","2025-08-06 08:50:41","36c45c0696341be0efffe67d72a12abb","90.227.165.225","Mozilla/5.0 (Macintosh; Intel Mac OS X 10_15_7) AppleWebKit/537.36 (KHTML, like Gecko) Chrome/138.0.0.0 Safari/537.36","Macintosh","Chrome","138.0.0.0","OS X","10_15_7","https://app.prolific.com/","en-GB,en-US;q=0.9,en;q=0.8","6617c54a41ce14946db85944","687a1a965b9f5b85a264363e","6893175d4f34c5a92f86bc65","1","6617c54a41ce14946db85944","1","2025-08-06T09:03:25.221Z","","","","MotivationQ","","","","","","","","","","","50","","","","","","","","","","","","","","","","","","","","","","","","","","",""
