"rt","response_timestamp","stimulus","response","trial_type","trial_index","time_elapsed","internal_node_id","run_id","condition","recorded_at","source_code_version","ip","user_agent","device","browser","browser_version","platform","platform_version","referer","accept_language","PROLIFIC_PID","STUDY_ID","SESSION_ID","BATCH","prolific_id","batch","realtime","success","question_order","question_id","eventType","responses","item_order","radio_event_ids","radio_event_times","key_event_times","mouse_event_times","straightlining","zigzagging","honeypot","view_history","slider_start","which_type","canvas_config","goals_layout","control_level","trial_number","tutorial_trial_number","trial_start_time","phase1_start_time","phase2_start_time","phase3_start_time","goal_1_value","goal_1_distance","goal_2_value","goal_2_distance","goal_selected","outcome","outcome_total","participant_final_score","participant_initial_score","participant_final_score_prop","goal_choice_rt","allocated_time","allocated_time_remaining","goal_direction","counts","mouse_movements","key_presses"
"4537","1753865993137","<p style='font-size:40px;line-height:1.25'><strong>Welcome to the experiment!</strong></p><p style='font-size:1.1em;line-height:1.25'>Thank you for participanting in our experiment again! You will be asked to play the Dysfunctional Ball Game again. We will briefly recap the rules before we start.</p><p style='font-size:1.1em;line-height:1.25'>Press <strong>Next</strong> to continue.</p>","0","custom-html-button-response","0","4541","0.0-0.0","70","1","2025-07-30 08:59:46","36c45c0696341be0efffe67d72a12abb","86.174.212.28","Mozilla/5.0 (X11; Linux x86_64) AppleWebKit/537.36 (KHTML, like Gecko) Chrome/138.0.0.0 Safari/537.36 Edg/138.0.3351.83","WebKit","Edge","138.0.3351.83","Linux","","https://app.prolific.com/","en-GB,en-US;q=0.9,en;q=0.8","661d1672f01169fe41f1f001","687a19d2168e237449fb8af4","6889defbe8a6e3abad9d7e2d","0","661d1672f01169fe41f1f001","0","2025-07-30T08:59:53.140Z","","","","","","","","","","","","","","","","","","","","","","","","","","","","","","","","","","","","","","","","","",""
"3109","","","","fullscreen","1","8656","0.0-1.0","70","1","2025-07-30 08:59:46","36c45c0696341be0efffe67d72a12abb","86.174.212.28","Mozilla/5.0 (X11; Linux x86_64) AppleWebKit/537.36 (KHTML, like Gecko) Chrome/138.0.0.0 Safari/537.36 Edg/138.0.3351.83","WebKit","Edge","138.0.3351.83","Linux","","https://app.prolific.com/","en-GB,en-US;q=0.9,en;q=0.8","661d1672f01169fe41f1f001","687a19d2168e237449fb8af4","6889defbe8a6e3abad9d7e2d","0","661d1672f01169fe41f1f001","0","","true","","","","","","","","","","","","","","","","","","","","","","","","","","","","","","","","","","","","","","","","",""
"3391","1753866000647"," <p style='font-size:1.1em;line-height:1.25'>Thank you for closing all other tabs.</p><p style='font-size:1.1em;line-height:1.25'>We will now invite you to fill in some questionnaires, before starting the game.<br>This will take about 5 minutes.<br></p><p style='font-size:1.1em;line-height:1.25'>Press the <strong>Next</strong> button to continue.</p>","0","custom-html-button-response","2","12050","0.0-2.0","70","1","2025-07-30 08:59:46","36c45c0696341be0efffe67d72a12abb","86.174.212.28","Mozilla/5.0 (X11; Linux x86_64) AppleWebKit/537.36 (KHTML, like Gecko) Chrome/138.0.0.0 Safari/537.36 Edg/138.0.3351.83","WebKit","Edge","138.0.3351.83","Linux","","https://app.prolific.com/","en-GB,en-US;q=0.9,en;q=0.8","661d1672f01169fe41f1f001","687a19d2168e237449fb8af4","6889defbe8a6e3abad9d7e2d","0","661d1672f01169fe41f1f001","0","2025-07-30T09:00:00.648Z","","","","","","","","","","","","","","","","","","","","","","","","","","","","","","","","","","","","","","","","","",""
"3008","","","{""assigned_sex"":""male""}","survey-multi-choice","3","15062","0.0-3.0-0.0","70","1","2025-07-30 08:59:46","36c45c0696341be0efffe67d72a12abb","86.174.212.28","Mozilla/5.0 (X11; Linux x86_64) AppleWebKit/537.36 (KHTML, like Gecko) Chrome/138.0.0.0 Safari/537.36 Edg/138.0.3351.83","WebKit","Edge","138.0.3351.83","Linux","","https://app.prolific.com/","en-GB,en-US;q=0.9,en;q=0.8","661d1672f01169fe41f1f001","687a19d2168e237449fb8af4","6889defbe8a6e3abad9d7e2d","0","661d1672f01169fe41f1f001","0","","","[0]","0","demographics","","","","","","","","","","","","","","","","","","","","","","","","","","","","","","","","","","","","","",""
"1204","1753866004867","<p style='font-size:1.1em;line-height:1.25'>In the following, we will perform a baseline assessment. This means that we will ask you a few questions relating to your experiences over the past month.<br></p><p style='font-size:1.1em;line-height:1.25'>Press the <strong>Next</strong> button to continue.</p>","0","custom-html-button-response","4","16269","0.0-4.0-0.0","70","1","2025-07-30 08:59:46","36c45c0696341be0efffe67d72a12abb","86.174.212.28","Mozilla/5.0 (X11; Linux x86_64) AppleWebKit/537.36 (KHTML, like Gecko) Chrome/138.0.0.0 Safari/537.36 Edg/138.0.3351.83","WebKit","Edge","138.0.3351.83","Linux","","https://app.prolific.com/","en-GB,en-US;q=0.9,en;q=0.8","661d1672f01169fe41f1f001","687a19d2168e237449fb8af4","6889defbe8a6e3abad9d7e2d","0","661d1672f01169fe41f1f001","0","2025-07-30T09:00:04.868Z","","","","","","","","","","","","","","","","","","","","","","","","","","","","","","","","","","","","","","","","","",""
"26016.5","","","","survey-template","5","42292","0.0-4.0-1.0","70","1","2025-07-30 08:59:46","36c45c0696341be0efffe67d72a12abb","86.174.212.28","Mozilla/5.0 (X11; Linux x86_64) AppleWebKit/537.36 (KHTML, like Gecko) Chrome/138.0.0.0 Safari/537.36 Edg/138.0.3351.83","WebKit","Edge","138.0.3351.83","Linux","","https://app.prolific.com/","en-GB,en-US;q=0.9,en;q=0.8","661d1672f01169fe41f1f001","687a19d2168e237449fb8af4","6889defbe8a6e3abad9d7e2d","0","661d1672f01169fe41f1f001","0","2025-07-30T09:00:30.890Z","","","","pss","{""Q01"":""0"",""Q02"":""0"",""Q03"":""0"",""Q04"":""1"",""Q05"":""1"",""Q06"":""0"",""Q07"":""1"",""Q08"":""1"",""Q09"":""1"",""Q10"":""0""}","[0,1,2,3,4,5,6,7,8,9]","[""Q01"",""Q02"",""Q03"",""Q04"",""Q05"",""Q06"",""Q07"",""Q08"",""Q09"",""Q10""]","[3865.300000011921,5034.599999964237,6480.199999988079,9173.899999976158,12805.300000011921,14500.5,18319.19999998808,21072.5,22726.099999964237,25273.399999976158]","[]","[0.09999996423721313,3865.300000011921,5034.599999964237,6480.199999988079,9173.899999976158,12805.300000011921,14500.5,18319.19999998808,21072.5,22726.099999964237,25273.399999976158,26013.899999976158]","0.5","0.1111111111111111","0","","","","","","","","","","","","","","","","","","","","","","","","","","","","",""
"1680","1753866032572","<p style='font-size:1.1em;line-height:1.25'>Thank you for your answers! Now we will ask you a few more questions relating to your feelings in the last 24 hours.<br></p><p style='font-size:1.1em;line-height:1.25'>Press the <strong>Next</strong> button to continue.</p>","0","custom-html-button-response","6","43976","0.0-4.0-2.0","70","1","2025-07-30 08:59:46","36c45c0696341be0efffe67d72a12abb","86.174.212.28","Mozilla/5.0 (X11; Linux x86_64) AppleWebKit/537.36 (KHTML, like Gecko) Chrome/138.0.0.0 Safari/537.36 Edg/138.0.3351.83","WebKit","Edge","138.0.3351.83","Linux","","https://app.prolific.com/","en-GB,en-US;q=0.9,en;q=0.8","661d1672f01169fe41f1f001","687a19d2168e237449fb8af4","6889defbe8a6e3abad9d7e2d","0","661d1672f01169fe41f1f001","0","2025-07-30T09:00:32.575Z","","","","","","","","","","","","","","","","","","","","","","","","","","","","","","","","","","","","","","","","","",""
"36610.80000001192","","","","survey-template","7","80597","0.0-4.0-3.0","70","1","2025-07-30 08:59:46","36c45c0696341be0efffe67d72a12abb","86.174.212.28","Mozilla/5.0 (X11; Linux x86_64) AppleWebKit/537.36 (KHTML, like Gecko) Chrome/138.0.0.0 Safari/537.36 Edg/138.0.3351.83","WebKit","Edge","138.0.3351.83","Linux","","https://app.prolific.com/","en-GB,en-US;q=0.9,en;q=0.8","661d1672f01169fe41f1f001","687a19d2168e237449fb8af4","6889defbe8a6e3abad9d7e2d","0","661d1672f01169fe41f1f001","0","2025-07-30T09:01:09.196Z","","","","drsp","{""Q01"":""0"",""Q02"":""0"",""Q03"":""0"",""Q04"":""0"",""Q05"":""0"",""Q06"":""0"",""Q07"":""0"",""Q08"":""0"",""Q09"":""0"",""Q10"":""0"",""Q11"":""1"",""Q12"":""0"",""Q13"":""5"",""Q14"":""2"",""Q15"":""2"",""Q16"":""2"",""Q17"":""0"",""Q18"":""0"",""Q19"":""0"",""Q20"":""0"",""Q21"":""0"",""Q22"":""0""}","[0,1,2,3,4,5,6,7,8,9,10,11,12,13,14,15,16,17,18,19,20,21]","[""Q01"",""Q04"",""Q03"",""Q02"",""Q05"",""Q06"",""Q08"",""Q07"",""Q09"",""Q10"",""Q11"",""Q12"",""Q13"",""Q14"",""Q15"",""Q16"",""Q17"",""Q18"",""Q19"",""Q20"",""Q21"",""Q22""]","[2662.600000023842,4791.899999976158,5113.899999976158,5505.899999976158,6951.100000023842,8067.5,9849.5,10170.300000011921,10909.300000011921,11422.699999988079,13967.399999976158,15359.899999976158,16892,19450.600000023842,21267.600000023842,24950.30000001192,25990.69999998808,26738.80000001192,29106.600000023842,31705.600000023842,32336.5,35009.5]","[]","[0.19999998807907104,2662.600000023842,3296,3993.5,4791.899999976158,5113.899999976158,5505.899999976158,6951.100000023842,8067.5,8735.899999976158,9050.600000023842,9849.5,10170.300000011921,10909.300000011921,11422.699999988079,13967.399999976158,15359.899999976158,16892,19450.600000023842,21267.600000023842,24950.30000001192,25990.69999998808,26738.80000001192,29106.600000023842,31705.600000023842,32336.5,32967,35009.5,36604.69999998808]","0.7727272727272727","0.14285714285714285","0","","","","","","","","","","","","","","","","","","","","","","","","","","","","",""
"6633.100000023842","","","","survey-template","8","87234","0.0-4.0-4.0","70","1","2025-07-30 08:59:46","36c45c0696341be0efffe67d72a12abb","86.174.212.28","Mozilla/5.0 (X11; Linux x86_64) AppleWebKit/537.36 (KHTML, like Gecko) Chrome/138.0.0.0 Safari/537.36 Edg/138.0.3351.83","WebKit","Edge","138.0.3351.83","Linux","","https://app.prolific.com/","en-GB,en-US;q=0.9,en;q=0.8","661d1672f01169fe41f1f001","687a19d2168e237449fb8af4","6889defbe8a6e3abad9d7e2d","0","661d1672f01169fe41f1f001","0","2025-07-30T09:01:15.832Z","","","","stress","{""Q01"":""0"",""Q02"":""5"",""Q03"":""0""}","[0,1,2]","[""Q01"",""Q02"",""Q03""]","[2091.600000023842,3477.600000023842,5617.100000023842]","[]","[2091.600000023842,3477.600000023842,5617.100000023842,6631.800000011921]","1","0","0","","","","","","","","","","","","","","","","","","","","","","","","","","","","",""
"25365","","","","instructions","9","112601","0.0-5.0-0.0","70","1","2025-07-30 08:59:46","36c45c0696341be0efffe67d72a12abb","86.174.212.28","Mozilla/5.0 (X11; Linux x86_64) AppleWebKit/537.36 (KHTML, like Gecko) Chrome/138.0.0.0 Safari/537.36 Edg/138.0.3351.83","WebKit","Edge","138.0.3351.83","Linux","","https://app.prolific.com/","en-GB,en-US;q=0.9,en;q=0.8","661d1672f01169fe41f1f001","687a19d2168e237449fb8af4","6889defbe8a6e3abad9d7e2d","0","661d1672f01169fe41f1f001","0","","","","","","","","","","","","","","","[{""page_index"":0,""viewing_time"":25364}]","","","","","","","","","","","","","","","","","","","","","","","","","","","",""
"7757","","<p>Before you start with this game please answer the following three questions yourself. </p>
  <p>Through this game, we measure several aspects of your cognitive performance, such as reaction times, multi-tasking capabilities </p>
  <p>and the ability to assess the situation you are in.</p>
  <p></p>
  <p><b>How good do you usually are in such tasks?</b></p>","61","html-slider-response","10","120363","0.0-6.0-0.0","70","1","2025-07-30 08:59:46","36c45c0696341be0efffe67d72a12abb","86.174.212.28","Mozilla/5.0 (X11; Linux x86_64) AppleWebKit/537.36 (KHTML, like Gecko) Chrome/138.0.0.0 Safari/537.36 Edg/138.0.3351.83","WebKit","Edge","138.0.3351.83","Linux","","https://app.prolific.com/","en-GB,en-US;q=0.9,en;q=0.8","661d1672f01169fe41f1f001","687a19d2168e237449fb8af4","6889defbe8a6e3abad9d7e2d","0","661d1672f01169fe41f1f001","0","2025-07-30T09:01:48.961Z","","","","PreSkillQ","","","","","","","","","","","50","","","","","","","","","","","","","","","","","","","","","","","","","","",""
"2458","","<div style=""width:500px;"">
  <p>How well do you think you will perform in this task compared to other participants?</p>
  </div>","51","html-slider-response","11","122826","0.0-6.0-1.0","70","1","2025-07-30 08:59:46","36c45c0696341be0efffe67d72a12abb","86.174.212.28","Mozilla/5.0 (X11; Linux x86_64) AppleWebKit/537.36 (KHTML, like Gecko) Chrome/138.0.0.0 Safari/537.36 Edg/138.0.3351.83","WebKit","Edge","138.0.3351.83","Linux","","https://app.prolific.com/","en-GB,en-US;q=0.9,en;q=0.8","661d1672f01169fe41f1f001","687a19d2168e237449fb8af4","6889defbe8a6e3abad9d7e2d","0","661d1672f01169fe41f1f001","0","2025-07-30T09:01:51.424Z","","","","PrePerfQ","","","","","","","","","","","50","","","","","","","","","","","","","","","","","","","","","","","","","","",""
"2495","","<div style=""width:500px;"">
  <p>What best describes how you currently feel?</p>
  </div>","68","html-slider-response","12","125323","0.0-6.0-2.0","70","1","2025-07-30 08:59:46","36c45c0696341be0efffe67d72a12abb","86.174.212.28","Mozilla/5.0 (X11; Linux x86_64) AppleWebKit/537.36 (KHTML, like Gecko) Chrome/138.0.0.0 Safari/537.36 Edg/138.0.3351.83","WebKit","Edge","138.0.3351.83","Linux","","https://app.prolific.com/","en-GB,en-US;q=0.9,en;q=0.8","661d1672f01169fe41f1f001","687a19d2168e237449fb8af4","6889defbe8a6e3abad9d7e2d","0","661d1672f01169fe41f1f001","0","2025-07-30T09:01:53.922Z","","","","PreMotivationQ","","","","","","","","","","","50","","","","","","","","","","","","","","","","","","","","","","","","","","",""
"","","","","ctl-task-cpt","13","160852","0.0-7.0-0.0","70","1","2025-07-30 08:59:46","36c45c0696341be0efffe67d72a12abb","86.174.212.28","Mozilla/5.0 (X11; Linux x86_64) AppleWebKit/537.36 (KHTML, like Gecko) Chrome/138.0.0.0 Safari/537.36 Edg/138.0.3351.83","WebKit","Edge","138.0.3351.83","Linux","","https://app.prolific.com/","en-GB,en-US;q=0.9,en;q=0.8","661d1672f01169fe41f1f001","687a19d2168e237449fb8af4","6889defbe8a6e3abad9d7e2d","0","661d1672f01169fe41f1f001","0","2025-07-30T09:02:29.451Z","","","","","","","","","","","","","","","","win-only","1","g1:NE,g2:SW","1","1","0","126458.1","2692.2","7696.5","32516.5","1","4","8","6","1","1","-4","0","0","0","5004.3","3000","995","[""up"",""right""]","{""num_key_presses"":13,""num_perfect"":6,""num_errors"":5,""num_randdir"":0,""num_randdir_good_moves"":0,""num_whilered"":2,""num_whileblue"":0,""num_blue"":0,""num_good_moves"":5}","[415.3214133126395,416.57142761775424,0.6,415.3214133126395,416.57142761775424,127.1,415.3214133126395,416.57142761775424,229,415.3214133126395,416.57142761775424,329,415.3214133126395,416.57142761775424,439.9,415.3214133126395,416.57142761775424,540,415.3214133126395,416.57142761775424,640.2,415.3214133126395,416.57142761775424,765.5,415.3214133126395,416.57142761775424,865.7,415.3214133126395,416.57142761775424,968.9,415.3214133126395,416.57142761775424,1088.5,415.3214133126395,416.57142761775424,1198,415.3214133126395,416.57142761775424,1303.1,415.3214133126395,416.57142761775424,1422.8,415.3214133126395,416.57142761775424,1544.9,415.3214133126395,416.57142761775424,1664.1,415.3214133126395,416.57142761775424,1768.2,415.3214133126395,416.57142761775424,1873.2,415.3214133126395,416.57142761775424,1988.1,415.3214133126395,416.57142761775424,2110.1,415.3214133126395,416.57142761775424,2212.3,415.3214133126395,416.57142761775424,2314,415.3214133126395,416.57142761775424,2417.7,415.3214133126395,416.57142761775424,2517.7,415.3214133126395,416.57142761775424,2619.1,415.3214133126395,416.57142761775424,2747.7,415.3214133126395,416.57142761775424,2863.2,415.3214133126395,416.57142761775424,2975.4,415.3214133126395,416.57142761775424,3078.9,415.3214133126395,416.57142761775424,3193.8,415.3214133126395,416.57142761775424,3298.7,415.3214133126395,416.57142761775424,3398.7,415.3214133126395,416.57142761775424,3505,415.3214133126395,416.57142761775424,3632.9,415.3214133126395,416.57142761775424,3734.2,415.3214133126395,416.57142761775424,3841.5,415.3214133126395,416.57142761775424,3942,415.3214133126395,416.57142761775424,4058.4,415.3214133126395,416.57142761775424,4160.2,415.3214133126395,416.57142761775424,4284.3,415.3214133126395,416.57142761775424,4387.2,415.3214133126395,416.57142761775424,4496.8,415.3214133126395,416.57142761775424,4599.4,415.3214133126395,416.57142761775424,4702,415.3214133126395,416.57142761775424,4805.6,415.3214133126395,416.57142761775424,4910.5]","[86.7,86.7,1000,0,-913.3,""error"",""-"",""-"",""no_move"",407.8,320.6,1000,0,-592.1,""while_red"",""-"",""-"",""no_move"",1445.8,1358.5,2422.8,1087.8,-2064.8,""error"",""-"",""-"",""no_move"",5025,3578.8,1996.8,2463.2,565.1,""smooth"",""left"",""left"",""bad_move"",6147,1120.8,2520.5,5026.2,-1399.7,""error"",""-"",""-"",""no_move"",6437.1,289.5,2520.5,5026.2,-1109.5,""while_red"",""-"",""-"",""no_move"",7321.7,1174.1,2187.7,7152.9,-2018.9,""error"",""-"",""-"",""no_move"",11911.4,4588.5,2811.2,8332.3,767.9,""smooth"",""up"",""up"",""good_move"",12134.9,222.2,2767.9,11912.8,-2545.8,""error"",""-"",""-"",""no_move"",16740.5,4604.1,3107.5,13157.5,475.5,""smooth"",""up"",""up"",""good_move"",19225.1,2482.9,2072.7,16742.2,410.2,""smooth"",""right"",""right"",""good_move"",22372.8,3145.2,2604.2,19227.7,540.9,""smooth"",""right"",""right"",""good_move"",24661,2287.6,1886.5,22373.5,401.1,""smooth"",""right"",""right"",""good_move""]"
"4002","","<div style=""width:500px;"">
  <p>What determined the result of this run?</p>
  </div>","88","html-slider-response","14","164857","0.0-7.0-1.0","70","1","2025-07-30 08:59:46","36c45c0696341be0efffe67d72a12abb","86.174.212.28","Mozilla/5.0 (X11; Linux x86_64) AppleWebKit/537.36 (KHTML, like Gecko) Chrome/138.0.0.0 Safari/537.36 Edg/138.0.3351.83","WebKit","Edge","138.0.3351.83","Linux","","https://app.prolific.com/","en-GB,en-US;q=0.9,en;q=0.8","661d1672f01169fe41f1f001","687a19d2168e237449fb8af4","6889defbe8a6e3abad9d7e2d","0","661d1672f01169fe41f1f001","0","2025-07-30T09:02:33.456Z","","","","AttribQ","","","","","","","","","","","50","","","","","","","","","","","","","","","","","","","","","","","","","","",""
"2902","","<div style=""width:500px;"">
  <p>How much control did you have over the ball?</p>
  </div>","74","html-slider-response","15","167764","0.0-7.0-2.0","70","1","2025-07-30 08:59:46","36c45c0696341be0efffe67d72a12abb","86.174.212.28","Mozilla/5.0 (X11; Linux x86_64) AppleWebKit/537.36 (KHTML, like Gecko) Chrome/138.0.0.0 Safari/537.36 Edg/138.0.3351.83","WebKit","Edge","138.0.3351.83","Linux","","https://app.prolific.com/","en-GB,en-US;q=0.9,en;q=0.8","661d1672f01169fe41f1f001","687a19d2168e237449fb8af4","6889defbe8a6e3abad9d7e2d","0","661d1672f01169fe41f1f001","0","2025-07-30T09:02:36.362Z","","","","ControlQ","","","","","","","","","","","50","","","","","","","","","","","","","","","","","","","","","","","","","","",""
"2955","","<div style=""width:500px;"">
  <p>How would you describe your current emotional state?</p>
  </div>","87","html-slider-response","16","170721","0.0-7.0-3.0","70","1","2025-07-30 08:59:46","36c45c0696341be0efffe67d72a12abb","86.174.212.28","Mozilla/5.0 (X11; Linux x86_64) AppleWebKit/537.36 (KHTML, like Gecko) Chrome/138.0.0.0 Safari/537.36 Edg/138.0.3351.83","WebKit","Edge","138.0.3351.83","Linux","","https://app.prolific.com/","en-GB,en-US;q=0.9,en;q=0.8","661d1672f01169fe41f1f001","687a19d2168e237449fb8af4","6889defbe8a6e3abad9d7e2d","0","661d1672f01169fe41f1f001","0","2025-07-30T09:02:39.319Z","","","","StressQ","","","","","","","","","","","50","","","","","","","","","","","","","","","","","","","","","","","","","","",""
"3511","","<div style=""width:500px;"">
  <p>What best describes how you currently feel?</p>
  </div>","41","html-slider-response","17","174234","0.0-7.0-4.0","70","1","2025-07-30 08:59:46","36c45c0696341be0efffe67d72a12abb","86.174.212.28","Mozilla/5.0 (X11; Linux x86_64) AppleWebKit/537.36 (KHTML, like Gecko) Chrome/138.0.0.0 Safari/537.36 Edg/138.0.3351.83","WebKit","Edge","138.0.3351.83","Linux","","https://app.prolific.com/","en-GB,en-US;q=0.9,en;q=0.8","661d1672f01169fe41f1f001","687a19d2168e237449fb8af4","6889defbe8a6e3abad9d7e2d","0","661d1672f01169fe41f1f001","0","2025-07-30T09:02:42.832Z","","","","MotivationQ","","","","","","","","","","","50","","","","","","","","","","","","","","","","","","","","","","","","","","",""
"","","","","ctl-task-cpt","18","216711","0.0-7.0-0.1","70","1","2025-07-30 08:59:46","36c45c0696341be0efffe67d72a12abb","86.174.212.28","Mozilla/5.0 (X11; Linux x86_64) AppleWebKit/537.36 (KHTML, like Gecko) Chrome/138.0.0.0 Safari/537.36 Edg/138.0.3351.83","WebKit","Edge","138.0.3351.83","Linux","","https://app.prolific.com/","en-GB,en-US;q=0.9,en;q=0.8","661d1672f01169fe41f1f001","687a19d2168e237449fb8af4","6889defbe8a6e3abad9d7e2d","0","661d1672f01169fe41f1f001","0","2025-07-30T09:03:25.309Z","","","","","","","","","","","","","","","","win-only","2","g1:SE,g2:NW","0.9","2","0","175364.3","4716.7","9721.5","39454.1","1","4","4","6","2","4","0","0","0","0","5004.8","3000","1360","[""left"",""up""]","{""num_key_presses"":9,""num_perfect"":4,""num_errors"":4,""num_randdir"":1,""num_randdir_good_moves"":1,""num_whilered"":0,""num_whileblue"":1,""num_blue"":3,""num_good_moves"":6}","[419.0714133126395,411.57142761775424,0.6,419.0714133126395,411.57142761775424,102.9,419.0714133126395,411.57142761775424,208.1,419.0714133126395,411.57142761775424,316.9,419.0714133126395,411.57142761775424,417.3,419.0714133126395,411.57142761775424,519,419.0714133126395,411.57142761775424,625.3,419.0714133126395,411.57142761775424,736.6,419.0714133126395,411.57142761775424,839,419.0714133126395,411.57142761775424,942.7,419.0714133126395,411.57142761775424,1045.8,419.0714133126395,411.57142761775424,1160.5,419.0714133126395,411.57142761775424,1268.3,419.0714133126395,411.57142761775424,1376.3,419.0714133126395,411.57142761775424,1481.2,419.0714133126395,411.57142761775424,1600.6,419.0714133126395,411.57142761775424,1704.5,419.0714133126395,411.57142761775424,1812.9,419.0714133126395,411.57142761775424,1915.5,419.0714133126395,411.57142761775424,2016.1,419.0714133126395,411.57142761775424,2121.5,419.0714133126395,411.57142761775424,2224.2,419.0714133126395,411.57142761775424,2332.6,419.0714133126395,411.57142761775424,2434.2,419.0714133126395,411.57142761775424,2547.7,419.0714133126395,411.57142761775424,2652.2,419.0714133126395,411.57142761775424,2754.3,419.0714133126395,411.57142761775424,2854.7,419.0714133126395,411.57142761775424,2957.4,419.0714133126395,411.57142761775424,3060.2,419.0714133126395,411.57142761775424,3167.5,419.0714133126395,411.57142761775424,3267.6,419.0714133126395,411.57142761775424,3369.4,419.0714133126395,411.57142761775424,3474.1,419.0714133126395,411.57142761775424,3574.6,419.0714133126395,411.57142761775424,3675.3,419.0714133126395,411.57142761775424,3796.5,419.0714133126395,411.57142761775424,3900.7,419.0714133126395,411.57142761775424,4012.6,419.0714133126395,411.57142761775424,4115.3,419.0714133126395,411.57142761775424,4219.3,419.0714133126395,411.57142761775424,4324.2,419.0714133126395,411.57142761775424,4424.6,419.0714133126395,411.57142761775424,4544.5,419.0714133126395,411.57142761775424,4648.5,419.0714133126395,411.57142761775424,4752,419.0714133126395,411.57142761775424,4854.3,419.0714133126395,411.57142761775424,4967.1]","[518.5,518.5,1000,0,-481.5,""error"",""-"",""-"",""no_move"",2867.4,2346.9,1648.3,1520.6,-301.4,""error"",""-"",""-"",""no_move"",7495.9,4627.1,3218.9,3869.2,407.8,""smooth"",""left"",""left"",""good_move"",7872.5,375.7,2273.8,7496.8,-1898.1,""error"",""-"",""-"",""no_move"",11600.1,3726.9,2353,8874.7,372.5,""while_blue"",""up"",""left"",""good_move"",14371.6,2770.6,2183.9,11601.1,586.7,""oops"",""up"",""left"",""good_move"",20011.7,5638.9,2223.2,17379,409.5,""smooth"",""up"",""up"",""good_move"",26373.4,6360.9,2689.4,23269.1,414.9,""smooth"",""up"",""up"",""good_move"",29587.2,3213.2,2525.9,26374,687.3,""smooth"",""up"",""up"",""good_move""]"
"2341","","<div style=""width:500px;"">
  <p>What determined the result of this run?</p>
  </div>","83","html-slider-response","19","219055","0.0-7.0-1.1","70","1","2025-07-30 08:59:46","36c45c0696341be0efffe67d72a12abb","86.174.212.28","Mozilla/5.0 (X11; Linux x86_64) AppleWebKit/537.36 (KHTML, like Gecko) Chrome/138.0.0.0 Safari/537.36 Edg/138.0.3351.83","WebKit","Edge","138.0.3351.83","Linux","","https://app.prolific.com/","en-GB,en-US;q=0.9,en;q=0.8","661d1672f01169fe41f1f001","687a19d2168e237449fb8af4","6889defbe8a6e3abad9d7e2d","0","661d1672f01169fe41f1f001","0","2025-07-30T09:03:27.653Z","","","","AttribQ","","","","","","","","","","","50","","","","","","","","","","","","","","","","","","","","","","","","","","",""
"2469","","<div style=""width:500px;"">
  <p>How much control did you have over the ball?</p>
  </div>","74","html-slider-response","20","221525","0.0-7.0-2.1","70","1","2025-07-30 08:59:46","36c45c0696341be0efffe67d72a12abb","86.174.212.28","Mozilla/5.0 (X11; Linux x86_64) AppleWebKit/537.36 (KHTML, like Gecko) Chrome/138.0.0.0 Safari/537.36 Edg/138.0.3351.83","WebKit","Edge","138.0.3351.83","Linux","","https://app.prolific.com/","en-GB,en-US;q=0.9,en;q=0.8","661d1672f01169fe41f1f001","687a19d2168e237449fb8af4","6889defbe8a6e3abad9d7e2d","0","661d1672f01169fe41f1f001","0","2025-07-30T09:03:30.124Z","","","","ControlQ","","","","","","","","","","","50","","","","","","","","","","","","","","","","","","","","","","","","","","",""
"1976","","<div style=""width:500px;"">
  <p>How would you describe your current emotional state?</p>
  </div>","94","html-slider-response","21","223504","0.0-7.0-3.1","70","1","2025-07-30 08:59:46","36c45c0696341be0efffe67d72a12abb","86.174.212.28","Mozilla/5.0 (X11; Linux x86_64) AppleWebKit/537.36 (KHTML, like Gecko) Chrome/138.0.0.0 Safari/537.36 Edg/138.0.3351.83","WebKit","Edge","138.0.3351.83","Linux","","https://app.prolific.com/","en-GB,en-US;q=0.9,en;q=0.8","661d1672f01169fe41f1f001","687a19d2168e237449fb8af4","6889defbe8a6e3abad9d7e2d","0","661d1672f01169fe41f1f001","0","2025-07-30T09:03:32.102Z","","","","StressQ","","","","","","","","","","","50","","","","","","","","","","","","","","","","","","","","","","","","","","",""
"2010","","<div style=""width:500px;"">
  <p>What best describes how you currently feel?</p>
  </div>","23","html-slider-response","22","225515","0.0-7.0-4.1","70","1","2025-07-30 08:59:46","36c45c0696341be0efffe67d72a12abb","86.174.212.28","Mozilla/5.0 (X11; Linux x86_64) AppleWebKit/537.36 (KHTML, like Gecko) Chrome/138.0.0.0 Safari/537.36 Edg/138.0.3351.83","WebKit","Edge","138.0.3351.83","Linux","","https://app.prolific.com/","en-GB,en-US;q=0.9,en;q=0.8","661d1672f01169fe41f1f001","687a19d2168e237449fb8af4","6889defbe8a6e3abad9d7e2d","0","661d1672f01169fe41f1f001","0","2025-07-30T09:03:34.114Z","","","","MotivationQ","","","","","","","","","","","50","","","","","","","","","","","","","","","","","","","","","","","","","","",""
"","","","","ctl-task-cpt","23","274735","0.0-7.0-0.2","70","1","2025-07-30 08:59:46","36c45c0696341be0efffe67d72a12abb","86.174.212.28","Mozilla/5.0 (X11; Linux x86_64) AppleWebKit/537.36 (KHTML, like Gecko) Chrome/138.0.0.0 Safari/537.36 Edg/138.0.3351.83","WebKit","Edge","138.0.3351.83","Linux","","https://app.prolific.com/","en-GB,en-US;q=0.9,en;q=0.8","661d1672f01169fe41f1f001","687a19d2168e237449fb8af4","6889defbe8a6e3abad9d7e2d","0","661d1672f01169fe41f1f001","0","2025-07-30T09:04:23.333Z","","","","","","","","","","","","","","","","win-only","3","g1:SW,g2:NE","0.8","3","0","226646.5","3207.7","8211.5","46192.8","1","4","8","6","2","8","7","7","0","0.05303030303030303","5003.8","3000","185","[""up"",""right""]","{""num_key_presses"":11,""num_perfect"":8,""num_errors"":1,""num_randdir"":2,""num_randdir_good_moves"":0,""num_whilered"":0,""num_whileblue"":0,""num_blue"":2,""num_good_moves"":8}","[411.5714133126395,411.57142761775424,2.3,411.5714133126395,411.57142761775424,133.2,411.5714133126395,411.57142761775424,242.7,411.5714133126395,411.57142761775424,355.2,411.5714133126395,411.57142761775424,455.2,411.5714133126395,411.57142761775424,558.4,411.5714133126395,411.57142761775424,670.5,411.5714133126395,411.57142761775424,773,411.5714133126395,411.57142761775424,890.8,411.5714133126395,411.57142761775424,1008.6,411.5714133126395,411.57142761775424,1111,411.5714133126395,411.57142761775424,1213.3,411.5714133126395,411.57142761775424,1318.4,411.5714133126395,411.57142761775424,1430.4,411.5714133126395,411.57142761775424,1533.4,411.5714133126395,411.57142761775424,1635.1,411.5714133126395,411.57142761775424,1740.1,411.5714133126395,411.57142761775424,1843.5,411.5714133126395,411.57142761775424,1954.5,411.5714133126395,411.57142761775424,2060.9,411.5714133126395,411.57142761775424,2165.8,411.5714133126395,411.57142761775424,2268.2,411.5714133126395,411.57142761775424,2375.9,411.5714133126395,411.57142761775424,2493.4,411.5714133126395,411.57142761775424,2594.2,411.5714133126395,411.57142761775424,2694.5,411.5714133126395,411.57142761775424,2797.3,411.5714133126395,411.57142761775424,2907,411.5714133126395,411.57142761775424,3008,411.5714133126395,411.57142761775424,3109.1,411.5714133126395,411.57142761775424,3215.3,411.5714133126395,411.57142761775424,3318.2,411.5714133126395,411.57142761775424,3418.3,411.5714133126395,411.57142761775424,3537,411.5714133126395,411.57142761775424,3643.4,411.5714133126395,411.57142761775424,3745.1,411.5714133126395,411.57142761775424,3848,411.5714133126395,411.57142761775424,3948.1,411.5714133126395,411.57142761775424,4063.1,411.5714133126395,411.57142761775424,4173.1,411.5714133126395,411.57142761775424,4274.3,411.5714133126395,411.57142761775424,4394.2,411.5714133126395,411.57142761775424,4498.2,411.5714133126395,411.57142761775424,4601.9,411.5714133126395,411.57142761775424,4703.1,411.5714133126395,411.57142761775424,4803.7,411.5714133126395,411.57142761775424,4905.5]","[4985,4985,2548.5,2009,427.5,""smooth"",""up"",""up"",""good_move"",7222.2,2235.5,1690.6,4986.7,544.9,""smooth"",""up"",""up"",""good_move"",10604.2,3381.5,2914.7,7222.7,466.8,""smooth"",""up"",""up"",""good_move"",16668.4,6063.8,2665.9,14293.2,-290.6,""error"",""-"",""-"",""no_move"",20012.2,3341.8,1918,17675.2,419,""smooth"",""right"",""right"",""good_move"",22532.2,2519,1857.5,20013.2,661.5,""oops"",""right"",""down"",""bad_move"",25940.4,3407.3,2945.8,22533.1,461.5,""smooth"",""right"",""right"",""good_move"",29196.6,3255.6,2791.5,25941,464.1,""smooth"",""right"",""right"",""good_move"",31749.5,2550.5,2112,29199,438.5,""oops"",""up"",""left"",""bad_move"",34947.8,3197,2806.2,31750.8,390.8,""smooth"",""up"",""up"",""good_move"",37852.6,2904.2,2500,34948.4,404.2,""smooth"",""right"",""right"",""good_move""]"
"2500","","<div style=""width:500px;"">
  <p>What determined the result of this run?</p>
  </div>","73","html-slider-response","24","277238","0.0-7.0-1.2","70","1","2025-07-30 08:59:46","36c45c0696341be0efffe67d72a12abb","86.174.212.28","Mozilla/5.0 (X11; Linux x86_64) AppleWebKit/537.36 (KHTML, like Gecko) Chrome/138.0.0.0 Safari/537.36 Edg/138.0.3351.83","WebKit","Edge","138.0.3351.83","Linux","","https://app.prolific.com/","en-GB,en-US;q=0.9,en;q=0.8","661d1672f01169fe41f1f001","687a19d2168e237449fb8af4","6889defbe8a6e3abad9d7e2d","0","661d1672f01169fe41f1f001","0","2025-07-30T09:04:25.836Z","","","","AttribQ","","","","","","","","","","","50","","","","","","","","","","","","","","","","","","","","","","","","","","",""
"1606","","<div style=""width:500px;"">
  <p>How much control did you have over the ball?</p>
  </div>","72","html-slider-response","25","278846","0.0-7.0-2.2","70","1","2025-07-30 08:59:46","36c45c0696341be0efffe67d72a12abb","86.174.212.28","Mozilla/5.0 (X11; Linux x86_64) AppleWebKit/537.36 (KHTML, like Gecko) Chrome/138.0.0.0 Safari/537.36 Edg/138.0.3351.83","WebKit","Edge","138.0.3351.83","Linux","","https://app.prolific.com/","en-GB,en-US;q=0.9,en;q=0.8","661d1672f01169fe41f1f001","687a19d2168e237449fb8af4","6889defbe8a6e3abad9d7e2d","0","661d1672f01169fe41f1f001","0","2025-07-30T09:04:27.445Z","","","","ControlQ","","","","","","","","","","","50","","","","","","","","","","","","","","","","","","","","","","","","","","",""
"1324","","<div style=""width:500px;"">
  <p>How would you describe your current emotional state?</p>
  </div>","76","html-slider-response","26","280173","0.0-7.0-3.2","70","1","2025-07-30 08:59:46","36c45c0696341be0efffe67d72a12abb","86.174.212.28","Mozilla/5.0 (X11; Linux x86_64) AppleWebKit/537.36 (KHTML, like Gecko) Chrome/138.0.0.0 Safari/537.36 Edg/138.0.3351.83","WebKit","Edge","138.0.3351.83","Linux","","https://app.prolific.com/","en-GB,en-US;q=0.9,en;q=0.8","661d1672f01169fe41f1f001","687a19d2168e237449fb8af4","6889defbe8a6e3abad9d7e2d","0","661d1672f01169fe41f1f001","0","2025-07-30T09:04:28.772Z","","","","StressQ","","","","","","","","","","","50","","","","","","","","","","","","","","","","","","","","","","","","","","",""
"1475","","<div style=""width:500px;"">
  <p>What best describes how you currently feel?</p>
  </div>","26","html-slider-response","27","281650","0.0-7.0-4.2","70","1","2025-07-30 08:59:46","36c45c0696341be0efffe67d72a12abb","86.174.212.28","Mozilla/5.0 (X11; Linux x86_64) AppleWebKit/537.36 (KHTML, like Gecko) Chrome/138.0.0.0 Safari/537.36 Edg/138.0.3351.83","WebKit","Edge","138.0.3351.83","Linux","","https://app.prolific.com/","en-GB,en-US;q=0.9,en;q=0.8","661d1672f01169fe41f1f001","687a19d2168e237449fb8af4","6889defbe8a6e3abad9d7e2d","0","661d1672f01169fe41f1f001","0","2025-07-30T09:04:30.248Z","","","","MotivationQ","","","","","","","","","","","50","","","","","","","","","","","","","","","","","","","","","","","","","","",""
"","","","","ctl-task-cpt","28","333597","0.0-7.0-0.3","70","1","2025-07-30 08:59:46","36c45c0696341be0efffe67d72a12abb","86.174.212.28","Mozilla/5.0 (X11; Linux x86_64) AppleWebKit/537.36 (KHTML, like Gecko) Chrome/138.0.0.0 Safari/537.36 Edg/138.0.3351.83","WebKit","Edge","138.0.3351.83","Linux","","https://app.prolific.com/","en-GB,en-US;q=0.9,en;q=0.8","661d1672f01169fe41f1f001","687a19d2168e237449fb8af4","6889defbe8a6e3abad9d7e2d","0","661d1672f01169fe41f1f001","0","2025-07-30T09:05:22.195Z","","","","","","","","","","","","","","","","win-only","0","g1:NW,g2:SE","0.7","4","0","282781.3","2927.9","7931.8","48930.7","1","4","4","6","1","-1","-2","5","7","0.03787878787878788","5003.9","3000","-2025","[""left"",""up""]","{""num_key_presses"":10,""num_perfect"":6,""num_errors"":1,""num_randdir"":3,""num_randdir_good_moves"":1,""num_whilered"":0,""num_whileblue"":1,""num_blue"":4,""num_good_moves"":3}","[411.5714133126395,426.57142761775424,0.8,411.5714133126395,426.57142761775424,108.5,411.5714133126395,426.57142761775424,208.6,411.5714133126395,426.57142761775424,311.5,411.5714133126395,426.57142761775424,417.2,411.5714133126395,426.57142761775424,517.6,411.5714133126395,426.57142761775424,617.7,411.5714133126395,426.57142761775424,718.3,411.5714133126395,426.57142761775424,832.9,411.5714133126395,426.57142761775424,933,411.5714133126395,426.57142761775424,1033,411.5714133126395,426.57142761775424,1153.3,411.5714133126395,426.57142761775424,1254.8,411.5714133126395,426.57142761775424,1356.5,411.5714133126395,426.57142761775424,1460.5,411.5714133126395,426.57142761775424,1562.7,411.5714133126395,426.57142761775424,1675.6,411.5714133126395,426.57142761775424,1780.4,411.5714133126395,426.57142761775424,1883,411.5714133126395,426.57142761775424,1983,411.5714133126395,426.57142761775424,2085.7,411.5714133126395,426.57142761775424,2206.8,411.5714133126395,426.57142761775424,2308.2,411.5714133126395,426.57142761775424,2413,411.5714133126395,426.57142761775424,2527.3,411.5714133126395,426.57142761775424,2629.8,411.5714133126395,426.57142761775424,2746,411.5714133126395,426.57142761775424,2859.5,411.5714133126395,426.57142761775424,2981.4,411.5714133126395,426.57142761775424,3091.3,411.5714133126395,426.57142761775424,3194.8,411.5714133126395,426.57142761775424,3296.4,411.5714133126395,426.57142761775424,3399.2,411.5714133126395,426.57142761775424,3503.1,411.5714133126395,426.57142761775424,3612.1,411.5714133126395,426.57142761775424,3716.2,411.5714133126395,426.57142761775424,3820.8,411.5714133126395,426.57142761775424,3935.8,411.5714133126395,426.57142761775424,4040.6,411.5714133126395,426.57142761775424,4158.6,411.5714133126395,426.57142761775424,4260,411.5714133126395,426.57142761775424,4370.1,411.5714133126395,426.57142761775424,4470.3,411.5714133126395,426.57142761775424,4595.3,411.5714133126395,426.57142761775424,4698.9,411.5714133126395,426.57142761775424,4801.1,411.5714133126395,426.57142761775424,4916.4]","[1544.7,1544.8,1000,0,544.8,""smooth"",""right"",""right"",""bad_move"",8201.3,6654.5,2890.1,4848.9,462.3,""smooth"",""right"",""right"",""bad_move"",11480.7,3279,2832,8201.8,446.9,""smooth"",""right"",""right"",""bad_move"",14527.3,3045.4,2607.3,11481.9,438.1,""smooth"",""down"",""down"",""bad_move"",16902.7,2374,1884.9,14528.7,489.1,""smooth"",""down"",""down"",""bad_move"",20131.9,3228.8,2845.5,16903.1,383.3,""oops"",""down"",""down"",""bad_move"",23515.3,3382.9,2839.4,20132.4,543.5,""oops"",""left"",""left"",""good_move"",26547.7,3031.1,2642.7,23516.6,388.4,""while_blue"",""left"",""up"",""good_move"",29146.5,2597.4,1962.8,26549.1,634.6,""smooth"",""left"",""left"",""good_move"",37750,8602.1,1877.1,35394,478.9,""oops"",""up"",""down"",""bad_move""]"
"3580","","<div style=""width:500px;"">
  <p>What determined the result of this run?</p>
  </div>","63","html-slider-response","29","337179","0.0-7.0-1.3","70","1","2025-07-30 08:59:46","36c45c0696341be0efffe67d72a12abb","86.174.212.28","Mozilla/5.0 (X11; Linux x86_64) AppleWebKit/537.36 (KHTML, like Gecko) Chrome/138.0.0.0 Safari/537.36 Edg/138.0.3351.83","WebKit","Edge","138.0.3351.83","Linux","","https://app.prolific.com/","en-GB,en-US;q=0.9,en;q=0.8","661d1672f01169fe41f1f001","687a19d2168e237449fb8af4","6889defbe8a6e3abad9d7e2d","0","661d1672f01169fe41f1f001","0","2025-07-30T09:05:25.777Z","","","","AttribQ","","","","","","","","","","","50","","","","","","","","","","","","","","","","","","","","","","","","","","",""
"1857","","<div style=""width:500px;"">
  <p>How much control did you have over the ball?</p>
  </div>","22","html-slider-response","30","339038","0.0-7.0-2.3","70","1","2025-07-30 08:59:46","36c45c0696341be0efffe67d72a12abb","86.174.212.28","Mozilla/5.0 (X11; Linux x86_64) AppleWebKit/537.36 (KHTML, like Gecko) Chrome/138.0.0.0 Safari/537.36 Edg/138.0.3351.83","WebKit","Edge","138.0.3351.83","Linux","","https://app.prolific.com/","en-GB,en-US;q=0.9,en;q=0.8","661d1672f01169fe41f1f001","687a19d2168e237449fb8af4","6889defbe8a6e3abad9d7e2d","0","661d1672f01169fe41f1f001","0","2025-07-30T09:05:27.637Z","","","","ControlQ","","","","","","","","","","","50","","","","","","","","","","","","","","","","","","","","","","","","","","",""
"4406","","<div style=""width:500px;"">
  <p>How would you describe your current emotional state?</p>
  </div>","92","html-slider-response","31","343447","0.0-7.0-3.3","70","1","2025-07-30 08:59:46","36c45c0696341be0efffe67d72a12abb","86.174.212.28","Mozilla/5.0 (X11; Linux x86_64) AppleWebKit/537.36 (KHTML, like Gecko) Chrome/138.0.0.0 Safari/537.36 Edg/138.0.3351.83","WebKit","Edge","138.0.3351.83","Linux","","https://app.prolific.com/","en-GB,en-US;q=0.9,en;q=0.8","661d1672f01169fe41f1f001","687a19d2168e237449fb8af4","6889defbe8a6e3abad9d7e2d","0","661d1672f01169fe41f1f001","0","2025-07-30T09:05:32.045Z","","","","StressQ","","","","","","","","","","","50","","","","","","","","","","","","","","","","","","","","","","","","","","",""
"2810","","<div style=""width:500px;"">
  <p>What best describes how you currently feel?</p>
  </div>","17","html-slider-response","32","346259","0.0-7.0-4.3","70","1","2025-07-30 08:59:46","36c45c0696341be0efffe67d72a12abb","86.174.212.28","Mozilla/5.0 (X11; Linux x86_64) AppleWebKit/537.36 (KHTML, like Gecko) Chrome/138.0.0.0 Safari/537.36 Edg/138.0.3351.83","WebKit","Edge","138.0.3351.83","Linux","","https://app.prolific.com/","en-GB,en-US;q=0.9,en;q=0.8","661d1672f01169fe41f1f001","687a19d2168e237449fb8af4","6889defbe8a6e3abad9d7e2d","0","661d1672f01169fe41f1f001","0","2025-07-30T09:05:34.857Z","","","","MotivationQ","","","","","","","","","","","50","","","","","","","","","","","","","","","","","","","","","","","","","","",""
"","","","","ctl-task-cpt","33","409418","0.0-7.0-0.4","70","1","2025-07-30 08:59:46","36c45c0696341be0efffe67d72a12abb","86.174.212.28","Mozilla/5.0 (X11; Linux x86_64) AppleWebKit/537.36 (KHTML, like Gecko) Chrome/138.0.0.0 Safari/537.36 Edg/138.0.3351.83","WebKit","Edge","138.0.3351.83","Linux","","https://app.prolific.com/","en-GB,en-US;q=0.9,en;q=0.8","661d1672f01169fe41f1f001","687a19d2168e237449fb8af4","6889defbe8a6e3abad9d7e2d","0","661d1672f01169fe41f1f001","0","2025-07-30T09:06:38.016Z","","","","","","","","","","","","","","","","win-only","1","g1:NE,g2:SW","0.6","5","0","347390.2","6393.9","11403.7","60137.4","1","4","8","6","2","8","5","10","5","0.07575757575757576","5009.8","3000","1060","[""down"",""left""]","{""num_key_presses"":11,""num_perfect"":6,""num_errors"":3,""num_randdir"":2,""num_randdir_good_moves"":2,""num_whilered"":0,""num_whileblue"":2,""num_blue"":6,""num_good_moves"":8}","[411.5714133126395,421.57142761775424,0.8,411.5714133126395,421.57142761775424,101,411.5714133126395,421.57142761775424,229.9,411.5714133126395,421.57142761775424,331.9,411.5714133126395,421.57142761775424,433,411.5714133126395,421.57142761775424,535.4,411.5714133126395,421.57142761775424,637.6,411.5714133126395,421.57142761775424,743.2,411.5714133126395,421.57142761775424,852.3,411.5714133126395,421.57142761775424,953.1,411.5714133126395,421.57142761775424,1055.4,411.5714133126395,421.57142761775424,1167.7,411.5714133126395,421.57142761775424,1273.1,411.5714133126395,421.57142761775424,1381.6,411.5714133126395,421.57142761775424,1483.2,411.5714133126395,421.57142761775424,1604.4,411.5714133126395,421.57142761775424,1709.3,411.5714133126395,421.57142761775424,1811.9,411.5714133126395,421.57142761775424,1912.1,411.5714133126395,421.57142761775424,2015.4,411.5714133126395,421.57142761775424,2122,411.5714133126395,421.57142761775424,2225.1,411.5714133126395,421.57142761775424,2326.3,411.5714133126395,421.57142761775424,2436.7,411.5714133126395,421.57142761775424,2553.4,411.5714133126395,421.57142761775424,2655.2,411.5714133126395,421.57142761775424,2756.9,411.5714133126395,421.57142761775424,2865.2,411.5714133126395,421.57142761775424,2966.7,411.5714133126395,421.57142761775424,3069.8,411.5714133126395,421.57142761775424,3171.8,411.5714133126395,421.57142761775424,3273.5,411.5714133126395,421.57142761775424,3392.5,411.5714133126395,421.57142761775424,3500.4,411.5714133126395,421.57142761775424,3605,411.5714133126395,421.57142761775424,3708.5,411.5714133126395,421.57142761775424,3810.2,411.5714133126395,421.57142761775424,3913.1,411.5714133126395,421.57142761775424,4029.5,411.5714133126395,421.57142761775424,4139.4,411.5714133126395,421.57142761775424,4250.4,411.5714133126395,421.57142761775424,4366.9,411.5714133126395,421.57142761775424,4488.6,411.5714133126395,421.57142761775424,4609.1,411.5714133126395,421.57142761775424,4711.1,411.5714133126395,421.57142761775424,4819,411.5714133126395,421.57142761775424,4920.3]","[517.3,517.4,1000,0,-482.6,""error"",""-"",""-"",""no_move"",8008.6,7490.6,2822.9,4705.2,480.5,""smooth"",""left"",""left"",""good_move"",11497.9,3487.7,3079.9,8010.2,407.8,""smooth"",""left"",""left"",""good_move"",17911.4,6412.9,2735.4,14749.4,426.6,""smooth"",""left"",""left"",""good_move"",21286.4,3374.5,2856.7,17911.9,517.8,""smooth"",""down"",""down"",""good_move"",24934.3,3647.2,3122.9,21287.1,524.3,""oops"",""down"",""down"",""good_move"",27316.6,2381.6,1947.3,24935,434.3,""while_blue"",""down"",""up"",""bad_move"",34604.3,7286.5,2994.9,31177.2,432.2,""smooth"",""down"",""down"",""good_move"",41684.8,7079.8,2698.9,38595.7,390.2,""while_blue"",""down"",""up"",""bad_move"",45355.9,3670.5,2992.3,41685.4,678.2,""oops"",""down"",""down"",""good_move"",48531.2,3174.6,2677.8,45356.6,496.8,""smooth"",""down"",""down"",""good_move""]"
"2077","","<div style=""width:500px;"">
  <p>What determined the result of this run?</p>
  </div>","63","html-slider-response","34","411499","0.0-7.0-1.4","70","1","2025-07-30 08:59:46","36c45c0696341be0efffe67d72a12abb","86.174.212.28","Mozilla/5.0 (X11; Linux x86_64) AppleWebKit/537.36 (KHTML, like Gecko) Chrome/138.0.0.0 Safari/537.36 Edg/138.0.3351.83","WebKit","Edge","138.0.3351.83","Linux","","https://app.prolific.com/","en-GB,en-US;q=0.9,en;q=0.8","661d1672f01169fe41f1f001","687a19d2168e237449fb8af4","6889defbe8a6e3abad9d7e2d","0","661d1672f01169fe41f1f001","0","2025-07-30T09:06:40.097Z","","","","AttribQ","","","","","","","","","","","50","","","","","","","","","","","","","","","","","","","","","","","","","","",""
"1843","","<div style=""width:500px;"">
  <p>How much control did you have over the ball?</p>
  </div>","63","html-slider-response","35","413344","0.0-7.0-2.4","70","1","2025-07-30 08:59:46","36c45c0696341be0efffe67d72a12abb","86.174.212.28","Mozilla/5.0 (X11; Linux x86_64) AppleWebKit/537.36 (KHTML, like Gecko) Chrome/138.0.0.0 Safari/537.36 Edg/138.0.3351.83","WebKit","Edge","138.0.3351.83","Linux","","https://app.prolific.com/","en-GB,en-US;q=0.9,en;q=0.8","661d1672f01169fe41f1f001","687a19d2168e237449fb8af4","6889defbe8a6e3abad9d7e2d","0","661d1672f01169fe41f1f001","0","2025-07-30T09:06:41.942Z","","","","ControlQ","","","","","","","","","","","50","","","","","","","","","","","","","","","","","","","","","","","","","","",""
"2190","","<div style=""width:500px;"">
  <p>How would you describe your current emotional state?</p>
  </div>","67","html-slider-response","36","415536","0.0-7.0-3.4","70","1","2025-07-30 08:59:46","36c45c0696341be0efffe67d72a12abb","86.174.212.28","Mozilla/5.0 (X11; Linux x86_64) AppleWebKit/537.36 (KHTML, like Gecko) Chrome/138.0.0.0 Safari/537.36 Edg/138.0.3351.83","WebKit","Edge","138.0.3351.83","Linux","","https://app.prolific.com/","en-GB,en-US;q=0.9,en;q=0.8","661d1672f01169fe41f1f001","687a19d2168e237449fb8af4","6889defbe8a6e3abad9d7e2d","0","661d1672f01169fe41f1f001","0","2025-07-30T09:06:44.135Z","","","","StressQ","","","","","","","","","","","50","","","","","","","","","","","","","","","","","","","","","","","","","","",""
"899","","<div style=""width:500px;"">
  <p>What best describes how you currently feel?</p>
  </div>","19","html-slider-response","37","416438","0.0-7.0-4.4","70","1","2025-07-30 08:59:46","36c45c0696341be0efffe67d72a12abb","86.174.212.28","Mozilla/5.0 (X11; Linux x86_64) AppleWebKit/537.36 (KHTML, like Gecko) Chrome/138.0.0.0 Safari/537.36 Edg/138.0.3351.83","WebKit","Edge","138.0.3351.83","Linux","","https://app.prolific.com/","en-GB,en-US;q=0.9,en;q=0.8","661d1672f01169fe41f1f001","687a19d2168e237449fb8af4","6889defbe8a6e3abad9d7e2d","0","661d1672f01169fe41f1f001","0","2025-07-30T09:06:45.036Z","","","","MotivationQ","","","","","","","","","","","50","","","","","","","","","","","","","","","","","","","","","","","","","","",""
"","","","","ctl-task-cpt","38","471420","0.0-7.0-0.5","70","1","2025-07-30 08:59:46","36c45c0696341be0efffe67d72a12abb","86.174.212.28","Mozilla/5.0 (X11; Linux x86_64) AppleWebKit/537.36 (KHTML, like Gecko) Chrome/138.0.0.0 Safari/537.36 Edg/138.0.3351.83","WebKit","Edge","138.0.3351.83","Linux","","https://app.prolific.com/","en-GB,en-US;q=0.9,en;q=0.8","661d1672f01169fe41f1f001","687a19d2168e237449fb8af4","6889defbe8a6e3abad9d7e2d","0","661d1672f01169fe41f1f001","0","2025-07-30T09:07:40.019Z","","","","","","","","","","","","","","","","win-only","2","g1:SE,g2:NW","0.5","6","0","417569.1","3006.2","8013.4","51965.9","1","4","4","6","2","4","3","13","10","0.09848484848484848","1397.2","3000","500","[""left"",""up""]","{""num_key_presses"":14,""num_perfect"":7,""num_errors"":1,""num_randdir"":6,""num_randdir_good_moves"":2,""num_whilered"":0,""num_whileblue"":1,""num_blue"":2,""num_good_moves"":10}","[404.0714133126395,421.57142761775424,0.5,404.0714133126395,421.57142761775424,119.1,404.0714133126395,421.57142761775424,224.8,404.0714133126395,421.57142761775424,330.6,404.0714133126395,421.57142761775424,434.3,404.0714133126395,421.57142761775424,535.5,404.0714133126395,421.57142761775424,639.3,404.0714133126395,421.57142761775424,745.2,404.0714133126395,421.57142761775424,848.5,404.0714133126395,421.57142761775424,950.1,404.0714133126395,421.57142761775424,1054.4,404.0714133126395,421.57142761775424,1169.8,404.0714133126395,421.57142761775424,1273,61.57141331263951,75.32142761775425,1419.3,61.57141331263951,75.32142761775425,1519.7,61.57141331263951,75.32142761775425,1636.7,70.3214133126395,57.82142761775425,1744.6,70.3214133126395,57.82142761775425,1853.4,70.3214133126395,57.82142761775425,1954.7,70.3214133126395,57.82142761775425,2064.5,70.3214133126395,57.82142761775425,2167.1,70.3214133126395,57.82142761775425,2277.4,70.3214133126395,57.82142761775425,2378,70.3214133126395,57.82142761775425,2479.3,70.3214133126395,57.82142761775425,2600.1,70.3214133126395,57.82142761775425,2706.2,70.3214133126395,57.82142761775425,2808.4,70.3214133126395,57.82142761775425,2911.4,70.3214133126395,57.82142761775425,3011.4,70.3214133126395,57.82142761775425,3139.4,70.3214133126395,57.82142761775425,3246,70.3214133126395,57.82142761775425,3352.3,70.3214133126395,57.82142761775425,3470.4,70.3214133126395,57.82142761775425,3574.8,70.3214133126395,57.82142761775425,3681.9,70.3214133126395,57.82142761775425,3784.3,70.3214133126395,57.82142761775425,3887.3,70.3214133126395,57.82142761775425,3987.9,70.3214133126395,57.82142761775425,4093.8,70.3214133126395,57.82142761775425,4194,70.3214133126395,57.82142761775425,4299.9,70.3214133126395,57.82142761775425,4418.1,70.3214133126395,57.82142761775425,4534.3,70.3214133126395,57.82142761775425,4642.3,70.3214133126395,57.82142761775425,4749.1,70.3214133126395,57.82142761775425,4856.9,70.3214133126395,57.82142761775425,4966.2]","[1512.5,1512.5,1000,0,512.5,""oops"",""left"",""right"",""bad_move"",3680.1,2166.5,1742.1,1513.7,424.3,""smooth"",""up"",""up"",""good_move"",6243.4,2561.7,2162.9,3681.7,398.8,""oops"",""up"",""left"",""good_move"",8544.8,2300.2,1881.6,6244.6,418.6,""smooth"",""up"",""up"",""good_move"",11476.6,2931.1,2552,8545.5,379.1,""smooth"",""up"",""up"",""good_move"",14196.6,2719.1,2339.9,11477.5,379.2,""while_blue"",""left"",""left"",""good_move"",21813,7615.6,3114.2,18255.1,443.7,""oops"",""left"",""right"",""bad_move"",25099.3,3285.4,2838.1,21813.9,447.3,""oops"",""left"",""right"",""bad_move"",28854.4,3754.4,3300.7,25100,453.7,""smooth"",""left"",""left"",""good_move"",31455.3,2599.6,2102.3,28855.7,497.3,""oops"",""left"",""left"",""good_move"",34528.4,3072.4,2702.7,31456,369.7,""smooth"",""left"",""left"",""good_move"",37892.6,3363.7,2976.2,34528.9,387.5,""oops"",""left"",""right"",""bad_move"",41024.9,3131.6,2747.7,37893.3,383.9,""smooth"",""left"",""left"",""good_move"",43701.7,2676.3,1993.6,41025.4,682.7,""smooth"",""left"",""left"",""good_move""]"
"2295","","<div style=""width:500px;"">
  <p>What determined the result of this run?</p>
  </div>","65","html-slider-response","39","473718","0.0-7.0-1.5","70","1","2025-07-30 08:59:46","36c45c0696341be0efffe67d72a12abb","86.174.212.28","Mozilla/5.0 (X11; Linux x86_64) AppleWebKit/537.36 (KHTML, like Gecko) Chrome/138.0.0.0 Safari/537.36 Edg/138.0.3351.83","WebKit","Edge","138.0.3351.83","Linux","","https://app.prolific.com/","en-GB,en-US;q=0.9,en;q=0.8","661d1672f01169fe41f1f001","687a19d2168e237449fb8af4","6889defbe8a6e3abad9d7e2d","0","661d1672f01169fe41f1f001","0","2025-07-30T09:07:42.316Z","","","","AttribQ","","","","","","","","","","","50","","","","","","","","","","","","","","","","","","","","","","","","","","",""
"2055","","<div style=""width:500px;"">
  <p>How much control did you have over the ball?</p>
  </div>","26","html-slider-response","40","475776","0.0-7.0-2.5","70","1","2025-07-30 08:59:46","36c45c0696341be0efffe67d72a12abb","86.174.212.28","Mozilla/5.0 (X11; Linux x86_64) AppleWebKit/537.36 (KHTML, like Gecko) Chrome/138.0.0.0 Safari/537.36 Edg/138.0.3351.83","WebKit","Edge","138.0.3351.83","Linux","","https://app.prolific.com/","en-GB,en-US;q=0.9,en;q=0.8","661d1672f01169fe41f1f001","687a19d2168e237449fb8af4","6889defbe8a6e3abad9d7e2d","0","661d1672f01169fe41f1f001","0","2025-07-30T09:07:44.374Z","","","","ControlQ","","","","","","","","","","","50","","","","","","","","","","","","","","","","","","","","","","","","","","",""
"4337","","<div style=""width:500px;"">
  <p>How would you describe your current emotional state?</p>
  </div>","86","html-slider-response","41","480114","0.0-7.0-3.5","70","1","2025-07-30 08:59:46","36c45c0696341be0efffe67d72a12abb","86.174.212.28","Mozilla/5.0 (X11; Linux x86_64) AppleWebKit/537.36 (KHTML, like Gecko) Chrome/138.0.0.0 Safari/537.36 Edg/138.0.3351.83","WebKit","Edge","138.0.3351.83","Linux","","https://app.prolific.com/","en-GB,en-US;q=0.9,en;q=0.8","661d1672f01169fe41f1f001","687a19d2168e237449fb8af4","6889defbe8a6e3abad9d7e2d","0","661d1672f01169fe41f1f001","0","2025-07-30T09:07:48.713Z","","","","StressQ","","","","","","","","","","","50","","","","","","","","","","","","","","","","","","","","","","","","","","",""
"1418","","<div style=""width:500px;"">
  <p>What best describes how you currently feel?</p>
  </div>","29","html-slider-response","42","481535","0.0-7.0-4.5","70","1","2025-07-30 08:59:46","36c45c0696341be0efffe67d72a12abb","86.174.212.28","Mozilla/5.0 (X11; Linux x86_64) AppleWebKit/537.36 (KHTML, like Gecko) Chrome/138.0.0.0 Safari/537.36 Edg/138.0.3351.83","WebKit","Edge","138.0.3351.83","Linux","","https://app.prolific.com/","en-GB,en-US;q=0.9,en;q=0.8","661d1672f01169fe41f1f001","687a19d2168e237449fb8af4","6889defbe8a6e3abad9d7e2d","0","661d1672f01169fe41f1f001","0","2025-07-30T09:07:50.133Z","","","","MotivationQ","","","","","","","","","","","50","","","","","","","","","","","","","","","","","","","","","","","","","","",""
"","","","","ctl-task-cpt","43","541645","0.0-7.0-0.6","70","1","2025-07-30 08:59:46","36c45c0696341be0efffe67d72a12abb","86.174.212.28","Mozilla/5.0 (X11; Linux x86_64) AppleWebKit/537.36 (KHTML, like Gecko) Chrome/138.0.0.0 Safari/537.36 Edg/138.0.3351.83","WebKit","Edge","138.0.3351.83","Linux","","https://app.prolific.com/","en-GB,en-US;q=0.9,en;q=0.8","661d1672f01169fe41f1f001","687a19d2168e237449fb8af4","6889defbe8a6e3abad9d7e2d","0","661d1672f01169fe41f1f001","0","2025-07-30T09:08:50.243Z","","","","","","","","","","","","","","","","win-only","2","g1:SE,g2:NW","0.4","7","0","482666.5","2438.3","7443.7","57078.3","1","4","4","6","2","4","3","16","13","0.12121212121212122","1009.5","3000","1000","[""left"",""up""]","{""num_key_presses"":14,""num_perfect"":6,""num_errors"":1,""num_randdir"":7,""num_randdir_good_moves"":4,""num_whilered"":0,""num_whileblue"":1,""num_blue"":3,""num_good_moves"":10}","[416.5714133126395,407.82142761775424,2.3,416.5714133126395,407.82142761775424,101.9,416.5714133126395,407.82142761775424,207.4,416.5714133126395,407.82142761775424,314.3,416.5714133126395,407.82142761775424,458.1,416.5714133126395,407.82142761775424,564.6,416.5714133126395,407.82142761775424,671.1,416.5714133126395,407.82142761775424,779.9,416.5714133126395,407.82142761775424,884,80.3214133126395,66.57142761775425,1030.2,80.3214133126395,66.57142761775425,1151.6,80.3214133126395,66.57142761775425,1262.3,80.3214133126395,66.57142761775425,1371.4,80.3214133126395,66.57142761775425,1480.7,80.3214133126395,66.57142761775425,1582.7,80.3214133126395,66.57142761775425,1684.4,80.3214133126395,66.57142761775425,1784.9,80.3214133126395,66.57142761775425,1891.1,80.3214133126395,66.57142761775425,1991.1,80.3214133126395,66.57142761775425,2091.3,80.3214133126395,66.57142761775425,2197.8,80.3214133126395,66.57142761775425,2307.3,80.3214133126395,66.57142761775425,2416.6,80.3214133126395,66.57142761775425,2523.3,80.3214133126395,66.57142761775425,2625.6,80.3214133126395,66.57142761775425,2727.3,80.3214133126395,66.57142761775425,2827.4,80.3214133126395,66.57142761775425,2938.2,80.3214133126395,66.57142761775425,3041.9,80.3214133126395,66.57142761775425,3145.6,80.3214133126395,66.57142761775425,3248,80.3214133126395,66.57142761775425,3351.8,80.3214133126395,66.57142761775425,3452,80.3214133126395,66.57142761775425,3561.6,80.3214133126395,66.57142761775425,3667.6,80.3214133126395,66.57142761775425,3767.6,80.3214133126395,66.57142761775425,3876.9,80.3214133126395,66.57142761775425,3983.2,80.3214133126395,66.57142761775425,4083.7,80.3214133126395,66.57142761775425,4187.3,80.3214133126395,66.57142761775425,4294.2,80.3214133126395,66.57142761775425,4396.7,80.3214133126395,66.57142761775425,4500.3,80.3214133126395,66.57142761775425,4610.8,80.3214133126395,66.57142761775425,4711.5,80.3214133126395,66.57142761775425,4821.3,80.3214133126395,66.57142761775425,4931.4]","[1426.2,1426.2,1000,0,426.2,""smooth"",""left"",""left"",""good_move"",5138.2,3710.8,3302.7,1427.4,408.1,""oops"",""left"",""down"",""bad_move"",7713.3,2573.8,2189.7,5139.5,384.1,""while_blue"",""up"",""down"",""bad_move"",11025.3,3311.4,2911.4,7713.9,400,""smooth"",""left"",""left"",""good_move"",21043,10017.3,2190.9,18387,465.1,""oops"",""left"",""left"",""good_move"",25140.4,4096.8,3622.4,21043.6,474.4,""smooth"",""up"",""up"",""good_move"",28321.6,3180.2,2785,25141.4,395.2,""smooth"",""up"",""up"",""good_move"",31923.3,3600.8,3141.8,28322.5,459,""oops"",""up"",""down"",""bad_move"",34994.9,3071,2615.3,31923.9,455.7,""oops"",""up"",""up"",""good_move"",38162.6,3167.3,2777.8,34995.4,389.4,""oops"",""up"",""right"",""bad_move"",40851.6,2688.1,2308.3,38163.6,379.8,""oops"",""up"",""left"",""good_move"",43380.6,2524.9,2112.2,40855.9,412.5,""smooth"",""up"",""up"",""good_move"",46259.7,2878.6,1779.8,43381.1,1098.8,""smooth"",""up"",""up"",""good_move"",49359.9,3099.4,2724.6,46260.5,374.9,""oops"",""up"",""up"",""good_move""]"
"2173","","<div style=""width:500px;"">
  <p>What determined the result of this run?</p>
  </div>","58","html-slider-response","44","543820","0.0-7.0-1.6","70","1","2025-07-30 08:59:46","36c45c0696341be0efffe67d72a12abb","86.174.212.28","Mozilla/5.0 (X11; Linux x86_64) AppleWebKit/537.36 (KHTML, like Gecko) Chrome/138.0.0.0 Safari/537.36 Edg/138.0.3351.83","WebKit","Edge","138.0.3351.83","Linux","","https://app.prolific.com/","en-GB,en-US;q=0.9,en;q=0.8","661d1672f01169fe41f1f001","687a19d2168e237449fb8af4","6889defbe8a6e3abad9d7e2d","0","661d1672f01169fe41f1f001","0","2025-07-30T09:08:52.418Z","","","","AttribQ","","","","","","","","","","","50","","","","","","","","","","","","","","","","","","","","","","","","","","",""
"1856","","<div style=""width:500px;"">
  <p>How much control did you have over the ball?</p>
  </div>","35","html-slider-response","45","545678","0.0-7.0-2.6","70","1","2025-07-30 08:59:46","36c45c0696341be0efffe67d72a12abb","86.174.212.28","Mozilla/5.0 (X11; Linux x86_64) AppleWebKit/537.36 (KHTML, like Gecko) Chrome/138.0.0.0 Safari/537.36 Edg/138.0.3351.83","WebKit","Edge","138.0.3351.83","Linux","","https://app.prolific.com/","en-GB,en-US;q=0.9,en;q=0.8","661d1672f01169fe41f1f001","687a19d2168e237449fb8af4","6889defbe8a6e3abad9d7e2d","0","661d1672f01169fe41f1f001","0","2025-07-30T09:08:54.276Z","","","","ControlQ","","","","","","","","","","","50","","","","","","","","","","","","","","","","","","","","","","","","","","",""
"1797","","<div style=""width:500px;"">
  <p>How would you describe your current emotional state?</p>
  </div>","92","html-slider-response","46","547477","0.0-7.0-3.6","70","1","2025-07-30 08:59:46","36c45c0696341be0efffe67d72a12abb","86.174.212.28","Mozilla/5.0 (X11; Linux x86_64) AppleWebKit/537.36 (KHTML, like Gecko) Chrome/138.0.0.0 Safari/537.36 Edg/138.0.3351.83","WebKit","Edge","138.0.3351.83","Linux","","https://app.prolific.com/","en-GB,en-US;q=0.9,en;q=0.8","661d1672f01169fe41f1f001","687a19d2168e237449fb8af4","6889defbe8a6e3abad9d7e2d","0","661d1672f01169fe41f1f001","0","2025-07-30T09:08:56.075Z","","","","StressQ","","","","","","","","","","","50","","","","","","","","","","","","","","","","","","","","","","","","","","",""
"3893","","<div style=""width:500px;"">
  <p>What best describes how you currently feel?</p>
  </div>","21","html-slider-response","47","551372","0.0-7.0-4.6","70","1","2025-07-30 08:59:46","36c45c0696341be0efffe67d72a12abb","86.174.212.28","Mozilla/5.0 (X11; Linux x86_64) AppleWebKit/537.36 (KHTML, like Gecko) Chrome/138.0.0.0 Safari/537.36 Edg/138.0.3351.83","WebKit","Edge","138.0.3351.83","Linux","","https://app.prolific.com/","en-GB,en-US;q=0.9,en;q=0.8","661d1672f01169fe41f1f001","687a19d2168e237449fb8af4","6889defbe8a6e3abad9d7e2d","0","661d1672f01169fe41f1f001","0","2025-07-30T09:08:59.971Z","","","","MotivationQ","","","","","","","","","","","50","","","","","","","","","","","","","","","","","","","","","","","","","","",""
"","","","","ctl-task-cpt","48","665905","0.0-7.0-0.7","70","1","2025-07-30 08:59:46","36c45c0696341be0efffe67d72a12abb","86.174.212.28","Mozilla/5.0 (X11; Linux x86_64) AppleWebKit/537.36 (KHTML, like Gecko) Chrome/138.0.0.0 Safari/537.36 Edg/138.0.3351.83","WebKit","Edge","138.0.3351.83","Linux","","https://app.prolific.com/","en-GB,en-US;q=0.9,en;q=0.8","661d1672f01169fe41f1f001","687a19d2168e237449fb8af4","6889defbe8a6e3abad9d7e2d","0","661d1672f01169fe41f1f001","0","2025-07-30T09:10:54.503Z","","","","","","","","","","","","","","","","win-only","2","g1:SE,g2:NW","0.3","8","0","552503.5","2457.2","7462.6","111509.1","1","4","8","6","2","8","4","20","16","0.15151515151515152","922.2","3000","235","[""left"",""up""]","{""num_key_presses"":27,""num_perfect"":8,""num_errors"":4,""num_randdir"":15,""num_randdir_good_moves"":6,""num_whilered"":0,""num_whileblue"":3,""num_blue"":7,""num_good_moves"":16}","[426.5714133126395,414.07142761775424,0.4,426.5714133126395,414.07142761775424,130.4,426.5714133126395,414.07142761775424,231.7,426.5714133126395,414.07142761775424,337.8,426.5714133126395,414.07142761775424,439.5,426.5714133126395,414.07142761775424,540.7,426.5714133126395,414.07142761775424,645.7,426.5714133126395,414.07142761775424,747.9,426.5714133126395,414.07142761775424,849.4,67.8214133126395,57.82142761775425,957.9,67.8214133126395,57.82142761775425,1068.1,67.8214133126395,57.82142761775425,1169.7,67.8214133126395,57.82142761775425,1273,67.8214133126395,57.82142761775425,1376.3,67.8214133126395,57.82142761775425,1486.1,67.8214133126395,57.82142761775425,1591.6,67.8214133126395,57.82142761775425,1706.6,67.8214133126395,57.82142761775425,1811.7,67.8214133126395,57.82142761775425,1920.3,67.8214133126395,57.82142761775425,2022.7,67.8214133126395,57.82142761775425,2125.2,67.8214133126395,57.82142761775425,2232.6,67.8214133126395,57.82142761775425,2338.6,67.8214133126395,57.82142761775425,2448.8,67.8214133126395,57.82142761775425,2560.5,67.8214133126395,57.82142761775425,2663,67.8214133126395,57.82142761775425,2773.6,67.8214133126395,57.82142761775425,2878.7,67.8214133126395,57.82142761775425,2987.7,67.8214133126395,57.82142761775425,3088.4,67.8214133126395,57.82142761775425,3198.8,67.8214133126395,57.82142761775425,3303.6,67.8214133126395,57.82142761775425,3407.5,67.8214133126395,57.82142761775425,3515,67.8214133126395,57.82142761775425,3622.5,67.8214133126395,57.82142761775425,3730.3,67.8214133126395,57.82142761775425,3837.7,67.8214133126395,57.82142761775425,3942.9,67.8214133126395,57.82142761775425,4049.3,67.8214133126395,57.82142761775425,4160.9,67.8214133126395,57.82142761775425,4268,67.8214133126395,57.82142761775425,4377.4,67.8214133126395,57.82142761775425,4488.7,67.8214133126395,57.82142761775425,4596.9,67.8214133126395,57.82142761775425,4705.4,67.8214133126395,57.82142761775425,4815.2,67.8214133126395,57.82142761775425,4922.7]","[1521,1521,1000,0,521,""smooth"",""up"",""up"",""good_move"",4706.4,3183.1,2502.3,1523.3,680.8,""smooth"",""up"",""up"",""good_move"",8083.7,3376.6,1742.7,4707.1,1633.9,""smooth"",""left"",""left"",""good_move"",11440.2,3355.8,2210.2,8084.6,1145.5,""oops"",""left"",""up"",""good_move"",13957.5,2515.3,2081.5,11442.3,433.7,""while_blue"",""left"",""down"",""bad_move"",16865,2906,2362.2,13959,543.8,""oops"",""left"",""up"",""good_move"",19607.9,2742.4,2037,16865.5,705.4,""oops"",""left"",""right"",""bad_move"",22323.4,2714.9,2306.4,19608.5,408.5,""oops"",""left"",""left"",""good_move"",25636.9,3312.7,2625.2,22324.2,687.5,""oops"",""left"",""right"",""bad_move"",26384.9,746.6,2616,25638.3,-1869.4,""error"",""-"",""-"",""no_move"",30068.6,3683.1,2181.6,27402,485,""oops"",""left"",""right"",""bad_move"",36053.1,5983.9,2265.2,33387.5,400.4,""oops"",""left"",""down"",""bad_move"",49175.5,13122,1792.7,46910.4,472.4,""while_blue"",""left"",""left"",""good_move"",54319.6,5143.4,2802.3,49176.2,2341.1,""smooth"",""left"",""left"",""good_move"",59523.4,5203.2,2207,54320.2,2996.2,""oops"",""left"",""left"",""good_move"",66035.6,6511.5,2162.6,59524.1,4348.9,""smooth"",""left"",""left"",""good_move"",72893.2,6856.9,2684.3,66036.3,4172.6,""oops"",""up"",""right"",""bad_move"",75952,3058.1,2498.6,72893.9,559.5,""oops"",""up"",""down"",""bad_move"",78401.3,2448.6,1750.9,75952.8,697.7,""oops"",""up"",""down"",""bad_move"",81204.1,2802.2,2346.4,78402,455.8,""while_blue"",""left"",""up"",""good_move"",84442,3236.7,2780.9,81205.4,455.8,""smooth"",""up"",""up"",""good_move"",87679.4,3236.7,2332.2,84442.7,904.5,""oops"",""up"",""left"",""good_move"",91040.3,3360.4,2479,87679.9,881.4,""oops"",""up"",""right"",""bad_move"",94370.4,3328.8,2892.8,91041.6,436,""oops"",""up"",""left"",""good_move"",97844.6,3473.7,3055.9,94370.9,417.8,""oops"",""up"",""down"",""bad_move"",100882.6,3037.4,2582.4,97845.2,455,""smooth"",""up"",""up"",""good_move"",103791.9,2908.6,2092.2,100883.4,816.3,""smooth"",""up"",""up"",""good_move""]"
"6644","","<div style=""width:500px;"">
  <p>What determined the result of this run?</p>
  </div>","24","html-slider-response","49","672552","0.0-7.0-1.7","70","1","2025-07-30 08:59:46","36c45c0696341be0efffe67d72a12abb","86.174.212.28","Mozilla/5.0 (X11; Linux x86_64) AppleWebKit/537.36 (KHTML, like Gecko) Chrome/138.0.0.0 Safari/537.36 Edg/138.0.3351.83","WebKit","Edge","138.0.3351.83","Linux","","https://app.prolific.com/","en-GB,en-US;q=0.9,en;q=0.8","661d1672f01169fe41f1f001","687a19d2168e237449fb8af4","6889defbe8a6e3abad9d7e2d","0","661d1672f01169fe41f1f001","0","2025-07-30T09:11:01.150Z","","","","AttribQ","","","","","","","","","","","50","","","","","","","","","","","","","","","","","","","","","","","","","","",""
"4212","","<div style=""width:500px;"">
  <p>How much control did you have over the ball?</p>
  </div>","18","html-slider-response","50","676767","0.0-7.0-2.7","70","1","2025-07-30 08:59:46","36c45c0696341be0efffe67d72a12abb","86.174.212.28","Mozilla/5.0 (X11; Linux x86_64) AppleWebKit/537.36 (KHTML, like Gecko) Chrome/138.0.0.0 Safari/537.36 Edg/138.0.3351.83","WebKit","Edge","138.0.3351.83","Linux","","https://app.prolific.com/","en-GB,en-US;q=0.9,en;q=0.8","661d1672f01169fe41f1f001","687a19d2168e237449fb8af4","6889defbe8a6e3abad9d7e2d","0","661d1672f01169fe41f1f001","0","2025-07-30T09:11:05.365Z","","","","ControlQ","","","","","","","","","","","50","","","","","","","","","","","","","","","","","","","","","","","","","","",""
"1916","","<div style=""width:500px;"">
  <p>How would you describe your current emotional state?</p>
  </div>","98","html-slider-response","51","678686","0.0-7.0-3.7","70","1","2025-07-30 08:59:46","36c45c0696341be0efffe67d72a12abb","86.174.212.28","Mozilla/5.0 (X11; Linux x86_64) AppleWebKit/537.36 (KHTML, like Gecko) Chrome/138.0.0.0 Safari/537.36 Edg/138.0.3351.83","WebKit","Edge","138.0.3351.83","Linux","","https://app.prolific.com/","en-GB,en-US;q=0.9,en;q=0.8","661d1672f01169fe41f1f001","687a19d2168e237449fb8af4","6889defbe8a6e3abad9d7e2d","0","661d1672f01169fe41f1f001","0","2025-07-30T09:11:07.284Z","","","","StressQ","","","","","","","","","","","50","","","","","","","","","","","","","","","","","","","","","","","","","","",""
"4308","","<div style=""width:500px;"">
  <p>What best describes how you currently feel?</p>
  </div>","21","html-slider-response","52","682996","0.0-7.0-4.7","70","1","2025-07-30 08:59:46","36c45c0696341be0efffe67d72a12abb","86.174.212.28","Mozilla/5.0 (X11; Linux x86_64) AppleWebKit/537.36 (KHTML, like Gecko) Chrome/138.0.0.0 Safari/537.36 Edg/138.0.3351.83","WebKit","Edge","138.0.3351.83","Linux","","https://app.prolific.com/","en-GB,en-US;q=0.9,en;q=0.8","661d1672f01169fe41f1f001","687a19d2168e237449fb8af4","6889defbe8a6e3abad9d7e2d","0","661d1672f01169fe41f1f001","0","2025-07-30T09:11:11.594Z","","","","MotivationQ","","","","","","","","","","","50","","","","","","","","","","","","","","","","","","","","","","","","","","",""
"","","","","ctl-task-cpt","53","732219","0.0-7.0-0.8","70","1","2025-07-30 08:59:46","36c45c0696341be0efffe67d72a12abb","86.174.212.28","Mozilla/5.0 (X11; Linux x86_64) AppleWebKit/537.36 (KHTML, like Gecko) Chrome/138.0.0.0 Safari/537.36 Edg/138.0.3351.83","WebKit","Edge","138.0.3351.83","Linux","","https://app.prolific.com/","en-GB,en-US;q=0.9,en;q=0.8","661d1672f01169fe41f1f001","687a19d2168e237449fb8af4","6889defbe8a6e3abad9d7e2d","0","661d1672f01169fe41f1f001","0","2025-07-30T09:12:00.817Z","","","","","","","","","","","","","","","","win-only","0","g1:NW,g2:SE","0.4","9","0","684127.9","6360.3","11369.1","46201.7","1","4","8","6","2","8","6","26","20","0.19696969696969696","943","3000","1585","[""down"",""right""]","{""num_key_presses"":12,""num_perfect"":4,""num_errors"":2,""num_randdir"":6,""num_randdir_good_moves"":4,""num_whilered"":0,""num_whileblue"":2,""num_blue"":2,""num_good_moves"":9}","[415.3214133126395,416.57142761775424,0.4,415.3214133126395,416.57142761775424,106.8,415.3214133126395,416.57142761775424,211,415.3214133126395,416.57142761775424,316.3,415.3214133126395,416.57142761775424,425.6,415.3214133126395,416.57142761775424,548.8,415.3214133126395,416.57142761775424,657.8,415.3214133126395,416.57142761775424,763.1,415.3214133126395,416.57142761775424,863.2,770.3214133126395,744.0714276177542,971.4,770.3214133126395,744.0714276177542,1080.3,770.3214133126395,744.0714276177542,1184.1,770.3214133126395,744.0714276177542,1288.2,770.3214133126395,744.0714276177542,1409.9,770.3214133126395,744.0714276177542,1517.7,770.3214133126395,744.0714276177542,1621.4,770.3214133126395,744.0714276177542,1732.5,770.3214133126395,744.0714276177542,1844.4,770.3214133126395,744.0714276177542,1951.2,770.3214133126395,744.0714276177542,2065.2,770.3214133126395,744.0714276177542,2177.6,770.3214133126395,744.0714276177542,2283.6,770.3214133126395,744.0714276177542,2396.9,770.3214133126395,744.0714276177542,2497.8,770.3214133126395,744.0714276177542,2601.6,770.3214133126395,744.0714276177542,2709.1,770.3214133126395,744.0714276177542,2815.8,770.3214133126395,744.0714276177542,2917.8,770.3214133126395,744.0714276177542,3027.3,770.3214133126395,744.0714276177542,3132.3,770.3214133126395,744.0714276177542,3239.3,770.3214133126395,744.0714276177542,3346.1,770.3214133126395,744.0714276177542,3453.8,770.3214133126395,744.0714276177542,3558.2,770.3214133126395,744.0714276177542,3666.3,770.3214133126395,744.0714276177542,3775.6,770.3214133126395,744.0714276177542,3880.7,770.3214133126395,744.0714276177542,3992.6,770.3214133126395,744.0714276177542,4102.9,770.3214133126395,744.0714276177542,4212.7,770.3214133126395,744.0714276177542,4323.8,770.3214133126395,744.0714276177542,4429.4,770.3214133126395,744.0714276177542,4540.4,770.3214133126395,744.0714276177542,4653.5,770.3214133126395,744.0714276177542,4758.1,770.3214133126395,744.0714276177542,4868.2,770.3214133126395,744.0714276177542,4976.7]","[1446.1,1446.1,1000,0,446.1,""smooth"",""right"",""right"",""good_move"",5191.4,3744.5,3329.8,1446.9,414.7,""oops"",""right"",""down"",""good_move"",8537.3,3345.1,2920.5,5192.2,424.7,""smooth"",""right"",""right"",""good_move"",10821.4,2283,1625.4,8538.6,657.4,""oops"",""down"",""right"",""good_move"",13048.7,2226.5,1804.7,10822.2,421.8,""oops"",""down"",""left"",""bad_move"",16373.6,3324.2,2911.7,13049.4,412.5,""while_blue"",""down"",""down"",""good_move"",19255.1,2880.8,2448.7,16374.3,432.1,""while_blue"",""right"",""up"",""bad_move"",21974.5,2718.6,2238.5,19255.9,480.1,""oops"",""down"",""down"",""good_move"",24298.7,2323.6,1914.1,21975.1,409.5,""smooth"",""down"",""down"",""good_move"",27542.4,3243.2,2832.3,24299.2,410.9,""oops"",""right"",""left"",""bad_move"",31238.1,3694.9,1687.8,27543.2,2007.1,""oops"",""right"",""right"",""good_move"",34582.6,3343.5,2862.1,31239.1,481.4,""smooth"",""right"",""right"",""good_move""]"
"3200","","<div style=""width:500px;"">
  <p>What determined the result of this run?</p>
  </div>","8","html-slider-response","54","735421","0.0-7.0-1.8","70","1","2025-07-30 08:59:46","36c45c0696341be0efffe67d72a12abb","86.174.212.28","Mozilla/5.0 (X11; Linux x86_64) AppleWebKit/537.36 (KHTML, like Gecko) Chrome/138.0.0.0 Safari/537.36 Edg/138.0.3351.83","WebKit","Edge","138.0.3351.83","Linux","","https://app.prolific.com/","en-GB,en-US;q=0.9,en;q=0.8","661d1672f01169fe41f1f001","687a19d2168e237449fb8af4","6889defbe8a6e3abad9d7e2d","0","661d1672f01169fe41f1f001","0","2025-07-30T09:12:04.019Z","","","","AttribQ","","","","","","","","","","","50","","","","","","","","","","","","","","","","","","","","","","","","","","",""
"2117","","<div style=""width:500px;"">
  <p>How much control did you have over the ball?</p>
  </div>","17","html-slider-response","55","737541","0.0-7.0-2.8","70","1","2025-07-30 08:59:46","36c45c0696341be0efffe67d72a12abb","86.174.212.28","Mozilla/5.0 (X11; Linux x86_64) AppleWebKit/537.36 (KHTML, like Gecko) Chrome/138.0.0.0 Safari/537.36 Edg/138.0.3351.83","WebKit","Edge","138.0.3351.83","Linux","","https://app.prolific.com/","en-GB,en-US;q=0.9,en;q=0.8","661d1672f01169fe41f1f001","687a19d2168e237449fb8af4","6889defbe8a6e3abad9d7e2d","0","661d1672f01169fe41f1f001","0","2025-07-30T09:12:06.139Z","","","","ControlQ","","","","","","","","","","","50","","","","","","","","","","","","","","","","","","","","","","","","","","",""
"3645","","<div style=""width:500px;"">
  <p>How would you describe your current emotional state?</p>
  </div>","98","html-slider-response","56","741188","0.0-7.0-3.8","70","1","2025-07-30 08:59:46","36c45c0696341be0efffe67d72a12abb","86.174.212.28","Mozilla/5.0 (X11; Linux x86_64) AppleWebKit/537.36 (KHTML, like Gecko) Chrome/138.0.0.0 Safari/537.36 Edg/138.0.3351.83","WebKit","Edge","138.0.3351.83","Linux","","https://app.prolific.com/","en-GB,en-US;q=0.9,en;q=0.8","661d1672f01169fe41f1f001","687a19d2168e237449fb8af4","6889defbe8a6e3abad9d7e2d","0","661d1672f01169fe41f1f001","0","2025-07-30T09:12:09.787Z","","","","StressQ","","","","","","","","","","","50","","","","","","","","","","","","","","","","","","","","","","","","","","",""
"1302","","<div style=""width:500px;"">
  <p>What best describes how you currently feel?</p>
  </div>","19","html-slider-response","57","742494","0.0-7.0-4.8","70","1","2025-07-30 08:59:46","36c45c0696341be0efffe67d72a12abb","86.174.212.28","Mozilla/5.0 (X11; Linux x86_64) AppleWebKit/537.36 (KHTML, like Gecko) Chrome/138.0.0.0 Safari/537.36 Edg/138.0.3351.83","WebKit","Edge","138.0.3351.83","Linux","","https://app.prolific.com/","en-GB,en-US;q=0.9,en;q=0.8","661d1672f01169fe41f1f001","687a19d2168e237449fb8af4","6889defbe8a6e3abad9d7e2d","0","661d1672f01169fe41f1f001","0","2025-07-30T09:12:11.092Z","","","","MotivationQ","","","","","","","","","","","50","","","","","","","","","","","","","","","","","","","","","","","","","","",""
"","","","","ctl-task-cpt","58","845518","0.0-7.0-0.9","70","1","2025-07-30 08:59:46","36c45c0696341be0efffe67d72a12abb","86.174.212.28","Mozilla/5.0 (X11; Linux x86_64) AppleWebKit/537.36 (KHTML, like Gecko) Chrome/138.0.0.0 Safari/537.36 Edg/138.0.3351.83","WebKit","Edge","138.0.3351.83","Linux","","https://app.prolific.com/","en-GB,en-US;q=0.9,en;q=0.8","661d1672f01169fe41f1f001","687a19d2168e237449fb8af4","6889defbe8a6e3abad9d7e2d","0","661d1672f01169fe41f1f001","0","2025-07-30T09:13:54.116Z","","","","","","","","","","","","","","","","win-only","2","g1:SE,g2:NW","0.5","10","0","743624.8","2493.7","7499.9","99989.9","1","4","4","6","2","4","-1","25","26","0.1893939393939394","2250.7","3000","355","[""left"",""up""]","{""num_key_presses"":26,""num_perfect"":11,""num_errors"":5,""num_randdir"":10,""num_randdir_good_moves"":4,""num_whilered"":0,""num_whileblue"":3,""num_blue"":6,""num_good_moves"":15}","[412.8214133126395,421.57142761775424,0.7,412.8214133126395,421.57142761775424,101.6,412.8214133126395,421.57142761775424,208.9,412.8214133126395,421.57142761775424,311.3,412.8214133126395,421.57142761775424,415.9,412.8214133126395,421.57142761775424,523.6,412.8214133126395,421.57142761775424,628.1,412.8214133126395,421.57142761775424,730.5,412.8214133126395,421.57142761775424,845.4,412.8214133126395,421.57142761775424,949.4,412.8214133126395,421.57142761775424,1058,412.8214133126395,421.57142761775424,1161.2,412.8214133126395,421.57142761775424,1262.8,412.8214133126395,421.57142761775424,1373.4,412.8214133126395,421.57142761775424,1476.1,412.8214133126395,421.57142761775424,1583.5,412.8214133126395,421.57142761775424,1684.3,412.8214133126395,421.57142761775424,1789.8,412.8214133126395,421.57142761775424,1894.8,412.8214133126395,421.57142761775424,1996.3,412.8214133126395,421.57142761775424,2098,412.8214133126395,421.57142761775424,2249.3,76.5714133126395,46.57142761775425,2357.1,76.5714133126395,46.57142761775425,2463,76.5714133126395,46.57142761775425,2578.5,76.5714133126395,46.57142761775425,2681.2,76.5714133126395,46.57142761775425,2793.6,76.5714133126395,46.57142761775425,2896.2,76.5714133126395,46.57142761775425,3007,76.5714133126395,46.57142761775425,3112.9,76.5714133126395,46.57142761775425,3217.2,76.5714133126395,46.57142761775425,3325,76.5714133126395,46.57142761775425,3430.2,76.5714133126395,46.57142761775425,3537.2,76.5714133126395,46.57142761775425,3641.7,76.5714133126395,46.57142761775425,3752.1,76.5714133126395,46.57142761775425,3859.6,76.5714133126395,46.57142761775425,3961.4,76.5714133126395,46.57142761775425,4064.2,76.5714133126395,46.57142761775425,4176.9,76.5714133126395,46.57142761775425,4283.2,76.5714133126395,46.57142761775425,4392.9,76.5714133126395,46.57142761775425,4501,76.5714133126395,46.57142761775425,4602.6,76.5714133126395,46.57142761775425,4711.3,76.5714133126395,46.57142761775425,4822.6,76.5714133126395,46.57142761775425,4922.6]","[1436.3,1436.3,1000,0,436.3,""oops"",""left"",""up"",""good_move"",4862.3,3424.8,3007.9,1437.6,416.8,""smooth"",""left"",""left"",""good_move"",8730.9,3867.3,2295.8,4863.6,1571.5,""oops"",""left"",""right"",""bad_move"",11724.9,2993.1,2607.2,8731.8,385.9,""oops"",""left"",""down"",""bad_move"",14825.1,3099.4,2676,11725.7,423.4,""smooth"",""left"",""left"",""good_move"",18026.9,3201.1,2774.5,14825.8,426.6,""oops"",""up"",""down"",""bad_move"",21690.2,3662.5,3213.7,18027.7,448.8,""while_blue"",""up"",""down"",""bad_move"",24588.9,2897.8,2413.2,21691.1,484.6,""smooth"",""left"",""left"",""good_move"",27867.7,3278.3,2912.4,24589.4,365.9,""while_blue"",""left"",""right"",""bad_move"",31018.9,3150.2,2705.6,27868.7,444.6,""smooth"",""left"",""left"",""good_move"",34315.1,3295.7,2859.6,31019.4,436.1,""smooth"",""left"",""left"",""good_move"",38268.5,3952.7,2254.5,34315.8,1698.2,""oops"",""up"",""up"",""good_move"",42361.4,4092,3672.9,38269.5,419,""while_blue"",""up"",""down"",""bad_move"",45577.4,3215.2,2654.8,42362.2,560.4,""oops"",""up"",""left"",""good_move"",48681.8,3103.6,2302.9,45578.2,800.7,""oops"",""up"",""right"",""bad_move"",52139.4,3455.8,3049.3,48683.6,406.6,""smooth"",""up"",""up"",""good_move"",55419.4,3279.3,2782,52140.1,497.3,""oops"",""up"",""right"",""bad_move"",61930.5,6509.3,2789.5,58677.7,463.3,""oops"",""up"",""up"",""good_move"",65608.5,3677.5,2851.8,61931,825.7,""oops"",""up"",""right"",""bad_move"",68746,3137,2492.2,65609,644.8,""smooth"",""up"",""up"",""good_move"",68910.5,163.9,2046.4,68746.6,-1882.5,""error"",""-"",""-"",""no_move"",72412.9,3501.6,2063.9,69915.3,433.7,""smooth"",""up"",""up"",""good_move"",76139.2,3722.8,2348.6,75654,-1863.4,""error"",""-"",""-"",""no_move"",83068.7,6928.6,2394.2,80224.7,449.8,""smooth"",""up"",""up"",""good_move"",87290.9,4221.6,2015.1,83069.3,2206.5,""smooth"",""left"",""left"",""good_move"",91994.7,4702.1,2655.3,87292.6,2046.8,""smooth"",""left"",""left"",""good_move""]"
"2529","","<div style=""width:500px;"">
  <p>What determined the result of this run?</p>
  </div>","10","html-slider-response","59","848051","0.0-7.0-1.9","70","1","2025-07-30 08:59:46","36c45c0696341be0efffe67d72a12abb","86.174.212.28","Mozilla/5.0 (X11; Linux x86_64) AppleWebKit/537.36 (KHTML, like Gecko) Chrome/138.0.0.0 Safari/537.36 Edg/138.0.3351.83","WebKit","Edge","138.0.3351.83","Linux","","https://app.prolific.com/","en-GB,en-US;q=0.9,en;q=0.8","661d1672f01169fe41f1f001","687a19d2168e237449fb8af4","6889defbe8a6e3abad9d7e2d","0","661d1672f01169fe41f1f001","0","2025-07-30T09:13:56.649Z","","","","AttribQ","","","","","","","","","","","50","","","","","","","","","","","","","","","","","","","","","","","","","","",""
"1212","","<div style=""width:500px;"">
  <p>How much control did you have over the ball?</p>
  </div>","5","html-slider-response","60","849266","0.0-7.0-2.9","70","1","2025-07-30 08:59:46","36c45c0696341be0efffe67d72a12abb","86.174.212.28","Mozilla/5.0 (X11; Linux x86_64) AppleWebKit/537.36 (KHTML, like Gecko) Chrome/138.0.0.0 Safari/537.36 Edg/138.0.3351.83","WebKit","Edge","138.0.3351.83","Linux","","https://app.prolific.com/","en-GB,en-US;q=0.9,en;q=0.8","661d1672f01169fe41f1f001","687a19d2168e237449fb8af4","6889defbe8a6e3abad9d7e2d","0","661d1672f01169fe41f1f001","0","2025-07-30T09:13:57.864Z","","","","ControlQ","","","","","","","","","","","50","","","","","","","","","","","","","","","","","","","","","","","","","","",""
"2350","","<div style=""width:500px;"">
  <p>How would you describe your current emotional state?</p>
  </div>","97","html-slider-response","61","851619","0.0-7.0-3.9","70","1","2025-07-30 08:59:46","36c45c0696341be0efffe67d72a12abb","86.174.212.28","Mozilla/5.0 (X11; Linux x86_64) AppleWebKit/537.36 (KHTML, like Gecko) Chrome/138.0.0.0 Safari/537.36 Edg/138.0.3351.83","WebKit","Edge","138.0.3351.83","Linux","","https://app.prolific.com/","en-GB,en-US;q=0.9,en;q=0.8","661d1672f01169fe41f1f001","687a19d2168e237449fb8af4","6889defbe8a6e3abad9d7e2d","0","661d1672f01169fe41f1f001","0","2025-07-30T09:14:00.217Z","","","","StressQ","","","","","","","","","","","50","","","","","","","","","","","","","","","","","","","","","","","","","","",""
"3102","","<div style=""width:500px;"">
  <p>What best describes how you currently feel?</p>
  </div>","9","html-slider-response","62","854723","0.0-7.0-4.9","70","1","2025-07-30 08:59:46","36c45c0696341be0efffe67d72a12abb","86.174.212.28","Mozilla/5.0 (X11; Linux x86_64) AppleWebKit/537.36 (KHTML, like Gecko) Chrome/138.0.0.0 Safari/537.36 Edg/138.0.3351.83","WebKit","Edge","138.0.3351.83","Linux","","https://app.prolific.com/","en-GB,en-US;q=0.9,en;q=0.8","661d1672f01169fe41f1f001","687a19d2168e237449fb8af4","6889defbe8a6e3abad9d7e2d","0","661d1672f01169fe41f1f001","0","2025-07-30T09:14:03.322Z","","","","MotivationQ","","","","","","","","","","","50","","","","","","","","","","","","","","","","","","","","","","","","","","",""
"","","","","ctl-task-cpt","63","904439","0.0-7.0-0.10","70","1","2025-07-30 08:59:46","36c45c0696341be0efffe67d72a12abb","86.174.212.28","Mozilla/5.0 (X11; Linux x86_64) AppleWebKit/537.36 (KHTML, like Gecko) Chrome/138.0.0.0 Safari/537.36 Edg/138.0.3351.83","WebKit","Edge","138.0.3351.83","Linux","","https://app.prolific.com/","en-GB,en-US;q=0.9,en;q=0.8","661d1672f01169fe41f1f001","687a19d2168e237449fb8af4","6889defbe8a6e3abad9d7e2d","0","661d1672f01169fe41f1f001","0","2025-07-30T09:14:53.038Z","","","","","","","","","","","","","","","","win-only","1","g1:NE,g2:SW","0.6","11","0","855855.8","6327.2","11342.1","46690.3","1","4","8","6","2","8","6","31","25","0.23484848484848486","1024.2","3000","1980","[""down"",""left""]","{""num_key_presses"":10,""num_perfect"":5,""num_errors"":2,""num_randdir"":3,""num_randdir_good_moves"":1,""num_whilered"":0,""num_whileblue"":2,""num_blue"":3,""num_good_moves"":8}","[410.3214133126395,414.07142761775424,0.7,410.3214133126395,414.07142761775424,111.2,410.3214133126395,414.07142761775424,212.1,410.3214133126395,414.07142761775424,315.2,410.3214133126395,414.07142761775424,426.3,410.3214133126395,414.07142761775424,529.3,410.3214133126395,414.07142761775424,638.8,410.3214133126395,414.07142761775424,749,410.3214133126395,414.07142761775424,854.6,410.3214133126395,414.07142761775424,960.2,42.82141331263951,781.5714276177542,1073,42.82141331263951,781.5714276177542,1181.9,42.82141331263951,781.5714276177542,1296.3,42.82141331263951,781.5714276177542,1409.6,42.82141331263951,781.5714276177542,1516.7,42.82141331263951,781.5714276177542,1626.9,42.82141331263951,781.5714276177542,1737.8,42.82141331263951,781.5714276177542,1846.5,42.82141331263951,781.5714276177542,1964.1,42.82141331263951,781.5714276177542,2076.5,42.82141331263951,781.5714276177542,2184.7,42.82141331263951,781.5714276177542,2295.6,42.82141331263951,781.5714276177542,2404.2,42.82141331263951,781.5714276177542,2514.2,42.82141331263951,781.5714276177542,2623.3,42.82141331263951,781.5714276177542,2728.9,42.82141331263951,781.5714276177542,2839.3,42.82141331263951,781.5714276177542,2951.4,42.82141331263951,781.5714276177542,3057.1,42.82141331263951,781.5714276177542,3170.9,42.82141331263951,781.5714276177542,3280.8,42.82141331263951,781.5714276177542,3385.7,42.82141331263951,781.5714276177542,3499.3,42.82141331263951,781.5714276177542,3610.8,42.82141331263951,781.5714276177542,3717.2,42.82141331263951,781.5714276177542,3829.1,42.82141331263951,781.5714276177542,3939.1,42.82141331263951,781.5714276177542,4047.8,42.82141331263951,781.5714276177542,4162.7,42.82141331263951,781.5714276177542,4273.1,42.82141331263951,781.5714276177542,4385.3,42.82141331263951,781.5714276177542,4496.2,42.82141331263951,781.5714276177542,4607.4,42.82141331263951,781.5714276177542,4718.7,42.82141331263951,781.5714276177542,4838.6,42.82141331263951,781.5714276177542,4947.1]","[1504.9,1504.9,1000,0,504.9,""smooth"",""down"",""down"",""good_move"",4273.8,2768,2283.2,1505.9,484.8,""smooth"",""down"",""down"",""good_move"",7522.2,3248,2805.7,4274.3,442.3,""oops"",""down"",""up"",""bad_move"",11506,3983,3473,7523,510,""smooth"",""left"",""left"",""good_move"",14595.4,3088.7,2649.2,11506.8,439.5,""oops"",""left"",""right"",""bad_move"",17638.3,3039.6,2566.9,14598.8,472.6,""smooth"",""down"",""down"",""good_move"",20436.4,2797.7,2366.2,17638.8,431.4,""oops"",""left"",""left"",""good_move"",24450.7,4013.8,3611.7,20437,402,""while_blue"",""left"",""left"",""good_move"",28773,4321.3,3879,24451.7,442.3,""while_blue"",""down"",""down"",""good_move"",35075.3,6301.7,2250.8,32405.5,419,""smooth"",""left"",""left"",""good_move""]"
"1752","","<div style=""width:500px;"">
  <p>What determined the result of this run?</p>
  </div>","17","html-slider-response","64","906194","0.0-7.0-1.10","70","1","2025-07-30 08:59:46","36c45c0696341be0efffe67d72a12abb","86.174.212.28","Mozilla/5.0 (X11; Linux x86_64) AppleWebKit/537.36 (KHTML, like Gecko) Chrome/138.0.0.0 Safari/537.36 Edg/138.0.3351.83","WebKit","Edge","138.0.3351.83","Linux","","https://app.prolific.com/","en-GB,en-US;q=0.9,en;q=0.8","661d1672f01169fe41f1f001","687a19d2168e237449fb8af4","6889defbe8a6e3abad9d7e2d","0","661d1672f01169fe41f1f001","0","2025-07-30T09:14:54.792Z","","","","AttribQ","","","","","","","","","","","50","","","","","","","","","","","","","","","","","","","","","","","","","","",""
"1664","","<div style=""width:500px;"">
  <p>How much control did you have over the ball?</p>
  </div>","25","html-slider-response","65","907861","0.0-7.0-2.10","70","1","2025-07-30 08:59:46","36c45c0696341be0efffe67d72a12abb","86.174.212.28","Mozilla/5.0 (X11; Linux x86_64) AppleWebKit/537.36 (KHTML, like Gecko) Chrome/138.0.0.0 Safari/537.36 Edg/138.0.3351.83","WebKit","Edge","138.0.3351.83","Linux","","https://app.prolific.com/","en-GB,en-US;q=0.9,en;q=0.8","661d1672f01169fe41f1f001","687a19d2168e237449fb8af4","6889defbe8a6e3abad9d7e2d","0","661d1672f01169fe41f1f001","0","2025-07-30T09:14:56.459Z","","","","ControlQ","","","","","","","","","","","50","","","","","","","","","","","","","","","","","","","","","","","","","","",""
"1615","","<div style=""width:500px;"">
  <p>How would you describe your current emotional state?</p>
  </div>","95","html-slider-response","66","909479","0.0-7.0-3.10","70","1","2025-07-30 08:59:46","36c45c0696341be0efffe67d72a12abb","86.174.212.28","Mozilla/5.0 (X11; Linux x86_64) AppleWebKit/537.36 (KHTML, like Gecko) Chrome/138.0.0.0 Safari/537.36 Edg/138.0.3351.83","WebKit","Edge","138.0.3351.83","Linux","","https://app.prolific.com/","en-GB,en-US;q=0.9,en;q=0.8","661d1672f01169fe41f1f001","687a19d2168e237449fb8af4","6889defbe8a6e3abad9d7e2d","0","661d1672f01169fe41f1f001","0","2025-07-30T09:14:58.077Z","","","","StressQ","","","","","","","","","","","50","","","","","","","","","","","","","","","","","","","","","","","","","","",""
"1081","","<div style=""width:500px;"">
  <p>What best describes how you currently feel?</p>
  </div>","15","html-slider-response","67","910563","0.0-7.0-4.10","70","1","2025-07-30 08:59:46","36c45c0696341be0efffe67d72a12abb","86.174.212.28","Mozilla/5.0 (X11; Linux x86_64) AppleWebKit/537.36 (KHTML, like Gecko) Chrome/138.0.0.0 Safari/537.36 Edg/138.0.3351.83","WebKit","Edge","138.0.3351.83","Linux","","https://app.prolific.com/","en-GB,en-US;q=0.9,en;q=0.8","661d1672f01169fe41f1f001","687a19d2168e237449fb8af4","6889defbe8a6e3abad9d7e2d","0","661d1672f01169fe41f1f001","0","2025-07-30T09:14:59.161Z","","","","MotivationQ","","","","","","","","","","","50","","","","","","","","","","","","","","","","","","","","","","","","","","",""
"","","","","ctl-task-cpt","68","966350","0.0-7.0-0.11","70","1","2025-07-30 08:59:46","36c45c0696341be0efffe67d72a12abb","86.174.212.28","Mozilla/5.0 (X11; Linux x86_64) AppleWebKit/537.36 (KHTML, like Gecko) Chrome/138.0.0.0 Safari/537.36 Edg/138.0.3351.83","WebKit","Edge","138.0.3351.83","Linux","","https://app.prolific.com/","en-GB,en-US;q=0.9,en;q=0.8","661d1672f01169fe41f1f001","687a19d2168e237449fb8af4","6889defbe8a6e3abad9d7e2d","0","661d1672f01169fe41f1f001","0","2025-07-30T09:15:54.948Z","","","","","","","","","","","","","","","","win-only","1","g1:NE,g2:SW","0.7","12","0","911693.9","3467.1","8494.3","52748.7","1","4","4","6","2","4","2","33","31","0.25","1105.6","3000","1980","[""down"",""left""]","{""num_key_presses"":10,""num_perfect"":6,""num_errors"":2,""num_randdir"":2,""num_randdir_good_moves"":1,""num_whilered"":0,""num_whileblue"":2,""num_blue"":5,""num_good_moves"":8}","[417.8214133126395,420.32142761775424,1.7,417.8214133126395,420.32142761775424,105,417.8214133126395,420.32142761775424,207.5,417.8214133126395,420.32142761775424,323.2,417.8214133126395,420.32142761775424,439.2,417.8214133126395,420.32142761775424,541.2,417.8214133126395,420.32142761775424,655.7,417.8214133126395,420.32142761775424,771.2,417.8214133126395,420.32142761775424,874.7,417.8214133126395,420.32142761775424,984.5,50.32141331263951,786.5714276177542,1133.1,50.32141331263951,786.5714276177542,1250.3,50.32141331263951,786.5714276177542,1365.3,50.32141331263951,786.5714276177542,1469,50.32141331263951,786.5714276177542,1572.6,50.32141331263951,786.5714276177542,1675.2,50.32141331263951,786.5714276177542,1776.4,50.32141331263951,786.5714276177542,1894.7,50.32141331263951,786.5714276177542,1995.6,50.32141331263951,786.5714276177542,2103.9,50.32141331263951,786.5714276177542,2204.2,50.32141331263951,786.5714276177542,2312.6,50.32141331263951,786.5714276177542,2419.1,50.32141331263951,786.5714276177542,2520.4,50.32141331263951,786.5714276177542,2625.8,50.32141331263951,786.5714276177542,2733.7,50.32141331263951,786.5714276177542,2837.8,50.32141331263951,786.5714276177542,2942.1,50.32141331263951,786.5714276177542,3050.4,50.32141331263951,786.5714276177542,3155.1,50.32141331263951,786.5714276177542,3259.6,50.32141331263951,786.5714276177542,3367.2,50.32141331263951,786.5714276177542,3471.9,50.32141331263951,786.5714276177542,3577.7,50.32141331263951,786.5714276177542,3683.3,50.32141331263951,786.5714276177542,3786.5,50.32141331263951,786.5714276177542,3894.1,50.32141331263951,786.5714276177542,3998.3,50.32141331263951,786.5714276177542,4108.3,50.32141331263951,786.5714276177542,4216.4,50.32141331263951,786.5714276177542,4324.3,50.32141331263951,786.5714276177542,4428.3,50.32141331263951,786.5714276177542,4552.9,50.32141331263951,786.5714276177542,4678.7,50.32141331263951,786.5714276177542,4800.6,50.32141331263951,786.5714276177542,4902.3]","[1463.4,1463.4,1000,0,463.4,""smooth"",""left"",""left"",""good_move"",6051.8,4587.3,2609.3,1464.5,1978,""oops"",""left"",""down"",""good_move"",8596.2,2543.5,2069.4,6052.7,474.1,""smooth"",""left"",""left"",""good_move"",12185,3588.1,2397.1,8596.9,1191,""oops"",""left"",""up"",""bad_move"",15717.6,3531.9,3107.8,12185.7,424.1,""while_blue"",""left"",""down"",""good_move"",18914.7,3195.5,2685.9,15719.3,509.5,""smooth"",""left"",""left"",""good_move"",23657.2,4741.4,4315.1,18915.8,426.3,""while_blue"",""down"",""right"",""bad_move"",26353.9,2695.7,1942.1,23658.2,753.6,""smooth"",""down"",""down"",""good_move"",36516.1,10161.7,2594.6,33345.6,575.9,""smooth"",""down"",""down"",""good_move"",43826,7309.5,2888.7,40475.6,461.7,""smooth"",""left"",""left"",""good_move""]"
"2570","","<div style=""width:500px;"">
  <p>What determined the result of this run?</p>
  </div>","0","html-slider-response","69","968924","0.0-7.0-1.11","70","1","2025-07-30 08:59:46","36c45c0696341be0efffe67d72a12abb","86.174.212.28","Mozilla/5.0 (X11; Linux x86_64) AppleWebKit/537.36 (KHTML, like Gecko) Chrome/138.0.0.0 Safari/537.36 Edg/138.0.3351.83","WebKit","Edge","138.0.3351.83","Linux","","https://app.prolific.com/","en-GB,en-US;q=0.9,en;q=0.8","661d1672f01169fe41f1f001","687a19d2168e237449fb8af4","6889defbe8a6e3abad9d7e2d","0","661d1672f01169fe41f1f001","0","2025-07-30T09:15:57.522Z","","","","AttribQ","","","","","","","","","","","50","","","","","","","","","","","","","","","","","","","","","","","","","","",""
"1734","","<div style=""width:500px;"">
  <p>How much control did you have over the ball?</p>
  </div>","10","html-slider-response","70","970660","0.0-7.0-2.11","70","1","2025-07-30 08:59:46","36c45c0696341be0efffe67d72a12abb","86.174.212.28","Mozilla/5.0 (X11; Linux x86_64) AppleWebKit/537.36 (KHTML, like Gecko) Chrome/138.0.0.0 Safari/537.36 Edg/138.0.3351.83","WebKit","Edge","138.0.3351.83","Linux","","https://app.prolific.com/","en-GB,en-US;q=0.9,en;q=0.8","661d1672f01169fe41f1f001","687a19d2168e237449fb8af4","6889defbe8a6e3abad9d7e2d","0","661d1672f01169fe41f1f001","0","2025-07-30T09:15:59.259Z","","","","ControlQ","","","","","","","","","","","50","","","","","","","","","","","","","","","","","","","","","","","","","","",""
"1134","","<div style=""width:500px;"">
  <p>How would you describe your current emotional state?</p>
  </div>","94","html-slider-response","71","971797","0.0-7.0-3.11","70","1","2025-07-30 08:59:46","36c45c0696341be0efffe67d72a12abb","86.174.212.28","Mozilla/5.0 (X11; Linux x86_64) AppleWebKit/537.36 (KHTML, like Gecko) Chrome/138.0.0.0 Safari/537.36 Edg/138.0.3351.83","WebKit","Edge","138.0.3351.83","Linux","","https://app.prolific.com/","en-GB,en-US;q=0.9,en;q=0.8","661d1672f01169fe41f1f001","687a19d2168e237449fb8af4","6889defbe8a6e3abad9d7e2d","0","661d1672f01169fe41f1f001","0","2025-07-30T09:16:00.395Z","","","","StressQ","","","","","","","","","","","50","","","","","","","","","","","","","","","","","","","","","","","","","","",""
"4566","","<div style=""width:500px;"">
  <p>What best describes how you currently feel?</p>
  </div>","9","html-slider-response","72","976365","0.0-7.0-4.11","70","1","2025-07-30 08:59:46","36c45c0696341be0efffe67d72a12abb","86.174.212.28","Mozilla/5.0 (X11; Linux x86_64) AppleWebKit/537.36 (KHTML, like Gecko) Chrome/138.0.0.0 Safari/537.36 Edg/138.0.3351.83","WebKit","Edge","138.0.3351.83","Linux","","https://app.prolific.com/","en-GB,en-US;q=0.9,en;q=0.8","661d1672f01169fe41f1f001","687a19d2168e237449fb8af4","6889defbe8a6e3abad9d7e2d","0","661d1672f01169fe41f1f001","0","2025-07-30T09:16:04.964Z","","","","MotivationQ","","","","","","","","","","","50","","","","","","","","","","","","","","","","","","","","","","","","","","",""
