"rt","response_timestamp","stimulus","response","trial_type","trial_index","time_elapsed","internal_node_id","run_id","condition","recorded_at","source_code_version","ip","user_agent","device","browser","browser_version","platform","platform_version","referer","accept_language","PROLIFIC_PID","STUDY_ID","SESSION_ID","BATCH","prolific_id","batch","realtime","success","question_order","question_id","eventType","responses","item_order","radio_event_ids","radio_event_times","key_event_times","mouse_event_times","straightlining","zigzagging","honeypot","view_history","slider_start","which_type","canvas_config","goals_layout","control_level","trial_number","tutorial_trial_number","trial_start_time","phase1_start_time","phase2_start_time","phase3_start_time","goal_1_value","goal_1_distance","goal_2_value","goal_2_distance","goal_selected","outcome","outcome_total","participant_final_score","participant_initial_score","participant_final_score_prop","goal_choice_rt","allocated_time","allocated_time_remaining","goal_direction","counts","mouse_movements","key_presses"
"3505","1753949893863","<p style='font-size:40px;line-height:1.25'><strong>Welcome to the experiment!</strong></p><p style='font-size:1.1em;line-height:1.25'>Thank you for participanting in our experiment again! You will be asked to play the Dysfunctional Ball Game again. We will briefly recap the rules before we start.</p><p style='font-size:1.1em;line-height:1.25'>Press <strong>Next</strong> to continue.</p>","0","custom-html-button-response","0","3507","0.0-0.0","107","1","2025-07-31 08:18:09","36c45c0696341be0efffe67d72a12abb","86.1.242.218","Mozilla/5.0 (Macintosh; Intel Mac OS X 10_15_7) AppleWebKit/537.36 (KHTML, like Gecko) Chrome/137.0.0.0 Safari/537.36","Macintosh","Chrome","137.0.0.0","OS X","10_15_7","https://app.prolific.com/","en-GB,en-US;q=0.9,en;q=0.8","6620f5de5edae6e60f556986","683dba9a53627eb9ab41b36a","688b26a3c93366dd52a32794","0","6620f5de5edae6e60f556986","0","2025-07-31T08:18:13.865Z","","","","","","","","","","","","","","","","","","","","","","","","","","","","","","","","","","","","","","","","","",""
"2695","","","","fullscreen","1","7209","0.0-1.0","107","1","2025-07-31 08:18:09","36c45c0696341be0efffe67d72a12abb","86.1.242.218","Mozilla/5.0 (Macintosh; Intel Mac OS X 10_15_7) AppleWebKit/537.36 (KHTML, like Gecko) Chrome/137.0.0.0 Safari/537.36","Macintosh","Chrome","137.0.0.0","OS X","10_15_7","https://app.prolific.com/","en-GB,en-US;q=0.9,en;q=0.8","6620f5de5edae6e60f556986","683dba9a53627eb9ab41b36a","688b26a3c93366dd52a32794","0","6620f5de5edae6e60f556986","0","","true","","","","","","","","","","","","","","","","","","","","","","","","","","","","","","","","","","","","","","","","",""
"20279","1753949917845"," <p style='font-size:1.1em;line-height:1.25'>Thank you for closing all other tabs.</p><p style='font-size:1.1em;line-height:1.25'>We will now invite you to fill in some questionnaires, before starting the game.<br>This will take about 5 minutes.<br></p><p style='font-size:1.1em;line-height:1.25'>Press the <strong>Next</strong> button to continue.</p>","0","custom-html-button-response","2","27489","0.0-2.0","107","1","2025-07-31 08:18:09","36c45c0696341be0efffe67d72a12abb","86.1.242.218","Mozilla/5.0 (Macintosh; Intel Mac OS X 10_15_7) AppleWebKit/537.36 (KHTML, like Gecko) Chrome/137.0.0.0 Safari/537.36","Macintosh","Chrome","137.0.0.0","OS X","10_15_7","https://app.prolific.com/","en-GB,en-US;q=0.9,en;q=0.8","6620f5de5edae6e60f556986","683dba9a53627eb9ab41b36a","688b26a3c93366dd52a32794","0","6620f5de5edae6e60f556986","0","2025-07-31T08:18:37.846Z","","","","","","","","","","","","","","","","","","","","","","","","","","","","","","","","","","","","","","","","","",""
"2115","","","{""assigned_sex"":""female""}","survey-multi-choice","3","29608","0.0-3.0-0.0","107","1","2025-07-31 08:18:09","36c45c0696341be0efffe67d72a12abb","86.1.242.218","Mozilla/5.0 (Macintosh; Intel Mac OS X 10_15_7) AppleWebKit/537.36 (KHTML, like Gecko) Chrome/137.0.0.0 Safari/537.36","Macintosh","Chrome","137.0.0.0","OS X","10_15_7","https://app.prolific.com/","en-GB,en-US;q=0.9,en;q=0.8","6620f5de5edae6e60f556986","683dba9a53627eb9ab41b36a","688b26a3c93366dd52a32794","0","6620f5de5edae6e60f556986","0","","","[0]","0","demographics","","","","","","","","","","","","","","","","","","","","","","","","","","","","","","","","","","","","","",""
"3046","1753949923012","<p style='font-size:1.1em;line-height:1.25'>In the following, we will perform a baseline assessment. This means that we will ask you a few questions relating to your experiences over the past month.<br></p><p style='font-size:1.1em;line-height:1.25'>Press the <strong>Next</strong> button to continue.</p>","0","custom-html-button-response","4","32656","0.0-4.0-0.0","107","1","2025-07-31 08:18:09","36c45c0696341be0efffe67d72a12abb","86.1.242.218","Mozilla/5.0 (Macintosh; Intel Mac OS X 10_15_7) AppleWebKit/537.36 (KHTML, like Gecko) Chrome/137.0.0.0 Safari/537.36","Macintosh","Chrome","137.0.0.0","OS X","10_15_7","https://app.prolific.com/","en-GB,en-US;q=0.9,en;q=0.8","6620f5de5edae6e60f556986","683dba9a53627eb9ab41b36a","688b26a3c93366dd52a32794","0","6620f5de5edae6e60f556986","0","2025-07-31T08:18:43.013Z","","","","","","","","","","","","","","","","","","","","","","","","","","","","","","","","","","","","","","","","","",""
"27598.19999998808","","","","survey-template","5","60258","0.0-4.0-1.0","107","1","2025-07-31 08:18:09","36c45c0696341be0efffe67d72a12abb","86.1.242.218","Mozilla/5.0 (Macintosh; Intel Mac OS X 10_15_7) AppleWebKit/537.36 (KHTML, like Gecko) Chrome/137.0.0.0 Safari/537.36","Macintosh","Chrome","137.0.0.0","OS X","10_15_7","https://app.prolific.com/","en-GB,en-US;q=0.9,en;q=0.8","6620f5de5edae6e60f556986","683dba9a53627eb9ab41b36a","688b26a3c93366dd52a32794","0","6620f5de5edae6e60f556986","0","2025-07-31T08:19:10.615Z","","","","pss","{""Q01"":""1"",""Q02"":""2"",""Q03"":""3"",""Q04"":""2"",""Q05"":""2"",""Q06"":""2"",""Q07"":""2"",""Q08"":""2"",""Q09"":""1"",""Q10"":""2""}","[0,1,2,3,4,5,6,7,8,9]","[""Q01"",""Q02"",""Q03"",""Q04"",""Q05"",""Q06"",""Q06"",""Q07"",""Q08"",""Q09"",""Q10"",""Q10""]","[3112.399999976158,5345.599999964237,7278.199999988079,10278.399999976158,12944.5,15012,16278,17829.599999964237,20363.399999976158,22245.19999998808,24179.799999952316,26746.5]","[]","[0.2999999523162842,3112.399999976158,5345.599999964237,7278.199999988079,9391.299999952316,10278.399999976158,12944.5,15012,16278,17829.599999964237,20363.399999976158,22245.19999998808,24179.799999952316,26196.19999998808,26746.5,27595.799999952316]","0.7","0.5555555555555556","0","","","","","","","","","","","","","","","","","","","","","","","","","","","","",""
"1862","1753949952478","<p style='font-size:1.1em;line-height:1.25'>Thank you for your answers! Now we will ask you a few more questions relating to your feelings in the last 24 hours.<br></p><p style='font-size:1.1em;line-height:1.25'>Press the <strong>Next</strong> button to continue.</p>","0","custom-html-button-response","6","62122","0.0-4.0-2.0","107","1","2025-07-31 08:18:09","36c45c0696341be0efffe67d72a12abb","86.1.242.218","Mozilla/5.0 (Macintosh; Intel Mac OS X 10_15_7) AppleWebKit/537.36 (KHTML, like Gecko) Chrome/137.0.0.0 Safari/537.36","Macintosh","Chrome","137.0.0.0","OS X","10_15_7","https://app.prolific.com/","en-GB,en-US;q=0.9,en;q=0.8","6620f5de5edae6e60f556986","683dba9a53627eb9ab41b36a","688b26a3c93366dd52a32794","0","6620f5de5edae6e60f556986","0","2025-07-31T08:19:12.479Z","","","","","","","","","","","","","","","","","","","","","","","","","","","","","","","","","","","","","","","","","",""
"39783.5","","","","survey-template","7","101911","0.0-4.0-3.0","107","1","2025-07-31 08:18:09","36c45c0696341be0efffe67d72a12abb","86.1.242.218","Mozilla/5.0 (Macintosh; Intel Mac OS X 10_15_7) AppleWebKit/537.36 (KHTML, like Gecko) Chrome/137.0.0.0 Safari/537.36","Macintosh","Chrome","137.0.0.0","OS X","10_15_7","https://app.prolific.com/","en-GB,en-US;q=0.9,en;q=0.8","6620f5de5edae6e60f556986","683dba9a53627eb9ab41b36a","688b26a3c93366dd52a32794","0","6620f5de5edae6e60f556986","0","2025-07-31T08:19:52.268Z","","","","drsp","{""Q01"":""1"",""Q02"":""2"",""Q03"":""0"",""Q04"":""3"",""Q05"":""1"",""Q06"":""1"",""Q07"":""0"",""Q08"":""0"",""Q09"":""0"",""Q10"":""3"",""Q11"":""3"",""Q12"":""3"",""Q13"":""5"",""Q14"":""3"",""Q15"":""3"",""Q16"":""1"",""Q17"":""2"",""Q18"":""1"",""Q19"":""3"",""Q20"":""2"",""Q21"":""1"",""Q22"":""1""}","[0,1,2,3,4,5,6,7,8,9,10,11,12,13,14,15,16,17,18,19,20,21]","[""Q01"",""Q02"",""Q03"",""Q04"",""Q05"",""Q06"",""Q08"",""Q07"",""Q09"",""Q10"",""Q11"",""Q12"",""Q13"",""Q14"",""Q15"",""Q16"",""Q17"",""Q18"",""Q19"",""Q20"",""Q21"",""Q22""]","[1877.3999999761581,2944,4111.699999988079,5243.899999976158,6293.699999988079,7693.800000011921,11144.300000011921,12415.800000011921,13827.800000011921,15544.599999964237,17212.5,18228.599999964237,19495.30000001192,20827.899999976158,23311.099999964237,25844.899999976158,28111.899999976158,28911,30695.80000001192,34645.39999997616,36478,38911.5]","[]","[0.19999998807907104,1877.3999999761581,2944,4111.699999988079,5243.899999976158,6293.699999988079,7693.800000011921,8995.199999988079,9810.300000011921,11144.300000011921,12415.800000011921,13827.800000011921,15544.599999964237,17212.5,18228.599999964237,19495.30000001192,20827.899999976158,23311.099999964237,25844.899999976158,27127.399999976158,28111.899999976158,28911,30695.80000001192,34645.39999997616,36478,38095,38911.5,39778.59999996424]","0.3181818181818182","0.2857142857142857","0","","","","","","","","","","","","","","","","","","","","","","","","","","","","",""
"7059.199999988079","","","","survey-template","8","108972","0.0-4.0-4.0","107","1","2025-07-31 08:18:09","36c45c0696341be0efffe67d72a12abb","86.1.242.218","Mozilla/5.0 (Macintosh; Intel Mac OS X 10_15_7) AppleWebKit/537.36 (KHTML, like Gecko) Chrome/137.0.0.0 Safari/537.36","Macintosh","Chrome","137.0.0.0","OS X","10_15_7","https://app.prolific.com/","en-GB,en-US;q=0.9,en;q=0.8","6620f5de5edae6e60f556986","683dba9a53627eb9ab41b36a","688b26a3c93366dd52a32794","0","6620f5de5edae6e60f556986","0","2025-07-31T08:19:59.330Z","","","","stress","{""Q01"":""3"",""Q02"":""3"",""Q03"":""2""}","[0,1,2]","[""Q01"",""Q02"",""Q03""]","[2623.699999988079,3607.199999988079,6291.199999988079]","[]","[2623.699999988079,3607.199999988079,5224.399999976158,5824,6291.199999988079,7057.800000011921]","0.6666666666666666","0.5","0","","","","","","","","","","","","","","","","","","","","","","","","","","","","",""
"77499","","","","instructions","9","186470","0.0-5.0-0.0","107","1","2025-07-31 08:18:09","36c45c0696341be0efffe67d72a12abb","86.1.242.218","Mozilla/5.0 (Macintosh; Intel Mac OS X 10_15_7) AppleWebKit/537.36 (KHTML, like Gecko) Chrome/137.0.0.0 Safari/537.36","Macintosh","Chrome","137.0.0.0","OS X","10_15_7","https://app.prolific.com/","en-GB,en-US;q=0.9,en;q=0.8","6620f5de5edae6e60f556986","683dba9a53627eb9ab41b36a","688b26a3c93366dd52a32794","0","6620f5de5edae6e60f556986","0","","","","","","","","","","","","","","","[{""page_index"":0,""viewing_time"":77499}]","","","","","","","","","","","","","","","","","","","","","","","","","","","",""
"3196","","<p>Before you start with this game please answer the following three questions yourself. </p>
  <p>Through this game, we measure several aspects of your cognitive performance, such as reaction times, multi-tasking capabilities </p>
  <p>and the ability to assess the situation you are in.</p>
  <p></p>
  <p><b>How good do you usually are in such tasks?</b></p>","58","html-slider-response","10","189671","0.0-6.0-0.0","107","1","2025-07-31 08:18:09","36c45c0696341be0efffe67d72a12abb","86.1.242.218","Mozilla/5.0 (Macintosh; Intel Mac OS X 10_15_7) AppleWebKit/537.36 (KHTML, like Gecko) Chrome/137.0.0.0 Safari/537.36","Macintosh","Chrome","137.0.0.0","OS X","10_15_7","https://app.prolific.com/","en-GB,en-US;q=0.9,en;q=0.8","6620f5de5edae6e60f556986","683dba9a53627eb9ab41b36a","688b26a3c93366dd52a32794","0","6620f5de5edae6e60f556986","0","2025-07-31T08:21:20.029Z","","","","PreSkillQ","","","","","","","","","","","50","","","","","","","","","","","","","","","","","","","","","","","","","","",""
"2796","","<div style=""width:500px;"">
  <p>How well do you think you will perform in this task compared to other participants?</p>
  </div>","61","html-slider-response","11","192470","0.0-6.0-1.0","107","1","2025-07-31 08:18:09","36c45c0696341be0efffe67d72a12abb","86.1.242.218","Mozilla/5.0 (Macintosh; Intel Mac OS X 10_15_7) AppleWebKit/537.36 (KHTML, like Gecko) Chrome/137.0.0.0 Safari/537.36","Macintosh","Chrome","137.0.0.0","OS X","10_15_7","https://app.prolific.com/","en-GB,en-US;q=0.9,en;q=0.8","6620f5de5edae6e60f556986","683dba9a53627eb9ab41b36a","688b26a3c93366dd52a32794","0","6620f5de5edae6e60f556986","0","2025-07-31T08:21:22.827Z","","","","PrePerfQ","","","","","","","","","","","50","","","","","","","","","","","","","","","","","","","","","","","","","","",""
"3031","","<div style=""width:500px;"">
  <p>What best describes how you currently feel?</p>
  </div>","5","html-slider-response","12","195503","0.0-6.0-2.0","107","1","2025-07-31 08:18:09","36c45c0696341be0efffe67d72a12abb","86.1.242.218","Mozilla/5.0 (Macintosh; Intel Mac OS X 10_15_7) AppleWebKit/537.36 (KHTML, like Gecko) Chrome/137.0.0.0 Safari/537.36","Macintosh","Chrome","137.0.0.0","OS X","10_15_7","https://app.prolific.com/","en-GB,en-US;q=0.9,en;q=0.8","6620f5de5edae6e60f556986","683dba9a53627eb9ab41b36a","688b26a3c93366dd52a32794","0","6620f5de5edae6e60f556986","0","2025-07-31T08:21:25.860Z","","","","PreMotivationQ","","","","","","","","","","","50","","","","","","","","","","","","","","","","","","","","","","","","","","",""
"","","","","ctl-task-cpt","13","230933","0.0-7.0-0.0","107","1","2025-07-31 08:18:09","36c45c0696341be0efffe67d72a12abb","86.1.242.218","Mozilla/5.0 (Macintosh; Intel Mac OS X 10_15_7) AppleWebKit/537.36 (KHTML, like Gecko) Chrome/137.0.0.0 Safari/537.36","Macintosh","Chrome","137.0.0.0","OS X","10_15_7","https://app.prolific.com/","en-GB,en-US;q=0.9,en;q=0.8","6620f5de5edae6e60f556986","683dba9a53627eb9ab41b36a","688b26a3c93366dd52a32794","0","6620f5de5edae6e60f556986","0","2025-07-31T08:22:01.290Z","","","","","","","","","","","","","","","","win-only","2","g1:SE,g2:NW","1","1","0","196736.7","1129.1","6131","32422.3","1","4","8","6","2","8","7","7","0","0.05303030303030303","1914.3","3000","1055","[""left"",""up""]","{""num_key_presses"":7,""num_perfect"":6,""num_errors"":1,""num_randdir"":0,""num_randdir_good_moves"":0,""num_whilered"":0,""num_whileblue"":0,""num_blue"":2,""num_good_moves"":6}","[814,813.796875,0.1,814,813.796875,101.8,814,813.796875,201.9,814,813.796875,307.3,814,813.796875,412.6,814,813.796875,517.9,1030,1081.796875,621.7,1170,1261.796875,727.7,1252,1341.796875,832,1252,1341.796875,937.1,1372,1537.796875,1042,1428,1613.796875,1142.3,1368,1521.796875,1242.3,862,1059.796875,1347,346,371.796875,1451.6,346,371.796875,1551.6,272,305.796875,1652.1,224,245.796875,1752.3,204,193.796875,1857,196,151.796875,1962,196,151.796875,2062.3,196,151.796875,2162.3,196,151.796875,2266.5,196,151.796875,2366.6,196,151.796875,2467.1,196,151.796875,2567.7,196,151.796875,2671.7,196,151.796875,2772.5,196,151.796875,2877.7,196,151.796875,2981.9,196,151.796875,3082.3,196,151.796875,3182.7,196,151.796875,3287.3,196,151.796875,3392.7,196,151.796875,3497.5,196,151.796875,3597.8,196,151.796875,3698,196,151.796875,3801.5,196,151.796875,3901.9,196,151.796875,4006.9,196,151.796875,4106.9,196,151.796875,4207,196,151.796875,4312.3,196,151.796875,4417.1,196,151.796875,4517.7,196,151.796875,4621.7,196,151.796875,4722.1,196,151.796875,4822.4,196,151.796875,4922.6]","[409,409,1000,0,-591,""error"",""-"",""-"",""no_move"",8741.3,8332.1,2939.6,5355.7,446,""smooth"",""up"",""up"",""good_move"",14337,5595,2392.4,11624.9,319.8,""smooth"",""up"",""up"",""good_move"",17323.2,2985.9,2632.8,14337.3,353.1,""smooth"",""up"",""up"",""good_move"",20786.9,3463.5,3193.6,17323.5,269.8,""smooth"",""left"",""left"",""good_move"",23187.8,2400.3,2064.5,20787.5,335.8,""smooth"",""left"",""left"",""good_move"",26203.9,3015.9,2762.4,23188,253.5,""smooth"",""left"",""left"",""good_move""]"
"26717","","<div style=""width:500px;"">
  <p>What determined the result of this run?</p>
  </div>","54","html-slider-response","14","257651","0.0-7.0-1.0","107","1","2025-07-31 08:18:09","36c45c0696341be0efffe67d72a12abb","86.1.242.218","Mozilla/5.0 (Macintosh; Intel Mac OS X 10_15_7) AppleWebKit/537.36 (KHTML, like Gecko) Chrome/137.0.0.0 Safari/537.36","Macintosh","Chrome","137.0.0.0","OS X","10_15_7","https://app.prolific.com/","en-GB,en-US;q=0.9,en;q=0.8","6620f5de5edae6e60f556986","683dba9a53627eb9ab41b36a","688b26a3c93366dd52a32794","0","6620f5de5edae6e60f556986","0","2025-07-31T08:22:28.008Z","","","","AttribQ","","","","","","","","","","","50","","","","","","","","","","","","","","","","","","","","","","","","","","",""
"3532","","<div style=""width:500px;"">
  <p>How much control did you have over the ball?</p>
  </div>","39","html-slider-response","15","261184","0.0-7.0-2.0","107","1","2025-07-31 08:18:09","36c45c0696341be0efffe67d72a12abb","86.1.242.218","Mozilla/5.0 (Macintosh; Intel Mac OS X 10_15_7) AppleWebKit/537.36 (KHTML, like Gecko) Chrome/137.0.0.0 Safari/537.36","Macintosh","Chrome","137.0.0.0","OS X","10_15_7","https://app.prolific.com/","en-GB,en-US;q=0.9,en;q=0.8","6620f5de5edae6e60f556986","683dba9a53627eb9ab41b36a","688b26a3c93366dd52a32794","0","6620f5de5edae6e60f556986","0","2025-07-31T08:22:31.541Z","","","","ControlQ","","","","","","","","","","","50","","","","","","","","","","","","","","","","","","","","","","","","","","",""
"32934","","<div style=""width:500px;"">
  <p>How would you describe your current emotional state?</p>
  </div>","33","html-slider-response","16","294118","0.0-7.0-3.0","107","1","2025-07-31 08:18:09","36c45c0696341be0efffe67d72a12abb","86.1.242.218","Mozilla/5.0 (Macintosh; Intel Mac OS X 10_15_7) AppleWebKit/537.36 (KHTML, like Gecko) Chrome/137.0.0.0 Safari/537.36","Macintosh","Chrome","137.0.0.0","OS X","10_15_7","https://app.prolific.com/","en-GB,en-US;q=0.9,en;q=0.8","6620f5de5edae6e60f556986","683dba9a53627eb9ab41b36a","688b26a3c93366dd52a32794","0","6620f5de5edae6e60f556986","0","2025-07-31T08:23:04.475Z","","","","StressQ","","","","","","","","","","","50","","","","","","","","","","","","","","","","","","","","","","","","","","",""
"3231","","<div style=""width:500px;"">
  <p>What best describes how you currently feel?</p>
  </div>","13","html-slider-response","17","297350","0.0-7.0-4.0","107","1","2025-07-31 08:18:09","36c45c0696341be0efffe67d72a12abb","86.1.242.218","Mozilla/5.0 (Macintosh; Intel Mac OS X 10_15_7) AppleWebKit/537.36 (KHTML, like Gecko) Chrome/137.0.0.0 Safari/537.36","Macintosh","Chrome","137.0.0.0","OS X","10_15_7","https://app.prolific.com/","en-GB,en-US;q=0.9,en;q=0.8","6620f5de5edae6e60f556986","683dba9a53627eb9ab41b36a","688b26a3c93366dd52a32794","0","6620f5de5edae6e60f556986","0","2025-07-31T08:23:07.707Z","","","","MotivationQ","","","","","","","","","","","50","","","","","","","","","","","","","","","","","","","","","","","","","","",""
"","","","","ctl-task-cpt","18","320830","0.0-7.0-0.1","107","1","2025-07-31 08:18:09","36c45c0696341be0efffe67d72a12abb","86.1.242.218","Mozilla/5.0 (Macintosh; Intel Mac OS X 10_15_7) AppleWebKit/537.36 (KHTML, like Gecko) Chrome/137.0.0.0 Safari/537.36","Macintosh","Chrome","137.0.0.0","OS X","10_15_7","https://app.prolific.com/","en-GB,en-US;q=0.9,en;q=0.8","6620f5de5edae6e60f556986","683dba9a53627eb9ab41b36a","688b26a3c93366dd52a32794","0","6620f5de5edae6e60f556986","0","2025-07-31T08:23:31.187Z","","","","","","","","","","","","","","","","win-only","1","g1:NE,g2:SW","0.9","2","0","298584.5","1365.1","6365.6","20469.6","1","4","4","6","1","1","1","8","7","0.06060606060606061","1700.9","3000","1695","[""up"",""right""]","{""num_key_presses"":4,""num_perfect"":4,""num_errors"":0,""num_randdir"":0,""num_randdir_good_moves"":0,""num_whilered"":0,""num_whileblue"":0,""num_blue"":1,""num_good_moves"":4}","[814,805.796875,0.1,814,805.796875,103.5,814,805.796875,205.4,814,805.796875,310.9,814,805.796875,416,814,805.796875,522,814,805.796875,626.2,814,805.796875,730.7,750,869.796875,836.1,250,1437.796875,937.4,250,1437.796875,1042.2,228,1467.796875,1146.1,190,1523.796875,1251.3,1294,181.796875,1355.8,1400,109.796875,1460.5,1380,161.796875,1561,1386,167.796875,1665.7,1390,165.796875,1770.2,1390,165.796875,1870.6,1390,165.796875,1975.9,1390,165.796875,2081.1,1390,165.796875,2185.5,1390,165.796875,2285.9,1390,165.796875,2387.2,1390,165.796875,2490.2,1390,165.796875,2590.3,1390,165.796875,2690.9,1390,165.796875,2795.3,1390,165.796875,2900.1,1390,165.796875,3001.2,1390,165.796875,3105.9,1390,165.796875,3211.4,1390,165.796875,3315.3,1390,165.796875,3421,1390,165.796875,3522.4,1390,165.796875,3626.4,1390,165.796875,3730.9,1390,165.796875,3830.9,1390,165.796875,3931.3,1390,165.796875,4037.2,1390,165.796875,4141.2,1390,165.796875,4245.8,1390,165.796875,4351.3,1390,165.796875,4455.3,1390,165.796875,4555.7,1390,165.796875,4660.6,1390,165.796875,4760.8,1390,165.796875,4866,1390,165.796875,4966.1]","[5490,5490,3160.3,2005.4,324.3,""smooth"",""up"",""up"",""good_move"",8440.1,2949.8,2587,5490.3,362.8,""smooth"",""right"",""right"",""good_move"",11292.3,2851.9,2551.3,8440.4,300.6,""smooth"",""up"",""up"",""good_move"",13973.2,2680.8,2338.8,11292.4,342,""smooth"",""right"",""right"",""good_move""]"
"3369","","<div style=""width:500px;"">
  <p>What determined the result of this run?</p>
  </div>","43","html-slider-response","19","324201","0.0-7.0-1.1","107","1","2025-07-31 08:18:09","36c45c0696341be0efffe67d72a12abb","86.1.242.218","Mozilla/5.0 (Macintosh; Intel Mac OS X 10_15_7) AppleWebKit/537.36 (KHTML, like Gecko) Chrome/137.0.0.0 Safari/537.36","Macintosh","Chrome","137.0.0.0","OS X","10_15_7","https://app.prolific.com/","en-GB,en-US;q=0.9,en;q=0.8","6620f5de5edae6e60f556986","683dba9a53627eb9ab41b36a","688b26a3c93366dd52a32794","0","6620f5de5edae6e60f556986","0","2025-07-31T08:23:34.558Z","","","","AttribQ","","","","","","","","","","","50","","","","","","","","","","","","","","","","","","","","","","","","","","",""
"1598","","<div style=""width:500px;"">
  <p>How much control did you have over the ball?</p>
  </div>","55","html-slider-response","20","325799","0.0-7.0-2.1","107","1","2025-07-31 08:18:09","36c45c0696341be0efffe67d72a12abb","86.1.242.218","Mozilla/5.0 (Macintosh; Intel Mac OS X 10_15_7) AppleWebKit/537.36 (KHTML, like Gecko) Chrome/137.0.0.0 Safari/537.36","Macintosh","Chrome","137.0.0.0","OS X","10_15_7","https://app.prolific.com/","en-GB,en-US;q=0.9,en;q=0.8","6620f5de5edae6e60f556986","683dba9a53627eb9ab41b36a","688b26a3c93366dd52a32794","0","6620f5de5edae6e60f556986","0","2025-07-31T08:23:36.156Z","","","","ControlQ","","","","","","","","","","","50","","","","","","","","","","","","","","","","","","","","","","","","","","",""
"1250","","<div style=""width:500px;"">
  <p>How would you describe your current emotional state?</p>
  </div>","38","html-slider-response","21","327050","0.0-7.0-3.1","107","1","2025-07-31 08:18:09","36c45c0696341be0efffe67d72a12abb","86.1.242.218","Mozilla/5.0 (Macintosh; Intel Mac OS X 10_15_7) AppleWebKit/537.36 (KHTML, like Gecko) Chrome/137.0.0.0 Safari/537.36","Macintosh","Chrome","137.0.0.0","OS X","10_15_7","https://app.prolific.com/","en-GB,en-US;q=0.9,en;q=0.8","6620f5de5edae6e60f556986","683dba9a53627eb9ab41b36a","688b26a3c93366dd52a32794","0","6620f5de5edae6e60f556986","0","2025-07-31T08:23:37.407Z","","","","StressQ","","","","","","","","","","","50","","","","","","","","","","","","","","","","","","","","","","","","","","",""
"1399","","<div style=""width:500px;"">
  <p>What best describes how you currently feel?</p>
  </div>","22","html-slider-response","22","328450","0.0-7.0-4.1","107","1","2025-07-31 08:18:09","36c45c0696341be0efffe67d72a12abb","86.1.242.218","Mozilla/5.0 (Macintosh; Intel Mac OS X 10_15_7) AppleWebKit/537.36 (KHTML, like Gecko) Chrome/137.0.0.0 Safari/537.36","Macintosh","Chrome","137.0.0.0","OS X","10_15_7","https://app.prolific.com/","en-GB,en-US;q=0.9,en;q=0.8","6620f5de5edae6e60f556986","683dba9a53627eb9ab41b36a","688b26a3c93366dd52a32794","0","6620f5de5edae6e60f556986","0","2025-07-31T08:23:38.807Z","","","","MotivationQ","","","","","","","","","","","50","","","","","","","","","","","","","","","","","","","","","","","","","","",""
"","","","","ctl-task-cpt","23","352522","0.0-7.0-0.2","107","1","2025-07-31 08:18:09","36c45c0696341be0efffe67d72a12abb","86.1.242.218","Mozilla/5.0 (Macintosh; Intel Mac OS X 10_15_7) AppleWebKit/537.36 (KHTML, like Gecko) Chrome/137.0.0.0 Safari/537.36","Macintosh","Chrome","137.0.0.0","OS X","10_15_7","https://app.prolific.com/","en-GB,en-US;q=0.9,en;q=0.8","6620f5de5edae6e60f556986","683dba9a53627eb9ab41b36a","688b26a3c93366dd52a32794","0","6620f5de5edae6e60f556986","0","2025-07-31T08:24:02.879Z","","","","","","","","","","","","","","","","win-only","0","g1:NW,g2:SE","0.8","3","0","329685.2","1015","6016.3","21061.2","1","4","4","6","2","4","3","11","8","0.08333333333333333","1371.1","3000","1365","[""down"",""right""]","{""num_key_presses"":6,""num_perfect"":4,""num_errors"":1,""num_randdir"":1,""num_randdir_good_moves"":1,""num_whilered"":0,""num_whileblue"":1,""num_blue"":1,""num_good_moves"":6}","[818,811.796875,0.1,818,811.796875,103.9,818,811.796875,206.2,818,811.796875,306.3,818,811.796875,406.7,954,901.796875,507.3,1236,1123.796875,610.7,1236,1123.796875,710.8,1272,1167.796875,811.2,1446,1399.796875,917.5,1462,1423.796875,1024.2,1462,1425.796875,1126.3,1462,1427.796875,1230.7,1462,1429.796875,1332.8,1462,1429.796875,1437,1462,1427.796875,1538.5,1462,1427.796875,1643.3,1462,1427.796875,1746.3,1462,1427.796875,1852.7,1462,1427.796875,1955.5,1462,1427.796875,2055.8,1462,1427.796875,2157.8,1462,1427.796875,2262,1462,1427.796875,2365.6,1462,1427.796875,2470.1,1462,1427.796875,2570.3,1462,1427.796875,2670.6,1462,1427.796875,2773.5,1462,1427.796875,2876.1,1462,1427.796875,2981.5,1462,1427.796875,3086,1462,1427.796875,3186.9,1462,1427.796875,3287.6,1462,1427.796875,3388.5,1462,1427.796875,3493.6,1462,1427.796875,3596.5,1462,1427.796875,3700.7,1462,1427.796875,3801,1462,1427.796875,3906.8,1462,1427.796875,4010.3,1462,1427.796875,4111.6,1462,1427.796875,4215.7,1462,1427.796875,4316.1,1462,1427.796875,4421.2,1462,1427.796875,4526.2,1462,1427.796875,4630.4,1462,1427.796875,4734.2,1462,1427.796875,4837.8,1462,1427.796875,4938.7]","[1377.6,1377.6,1000,0,377.6,""smooth"",""right"",""right"",""good_move"",4182.5,2804.6,2494.6,1377.9,310,""smooth"",""down"",""down"",""good_move"",7053.8,2871.2,2550.3,4182.6,320.9,""smooth"",""down"",""down"",""good_move"",8689.6,1635.8,1292.3,7053.9,343.4,""smooth"",""right"",""right"",""good_move"",11773.7,3084,2794.9,8689.7,289.1,""while_blue"",""right"",""right"",""good_move"",14912.4,3138.6,2784.5,11773.8,354.1,""oops"",""down"",""down"",""good_move""]"
"2709","","<div style=""width:500px;"">
  <p>What determined the result of this run?</p>
  </div>","35","html-slider-response","24","355232","0.0-7.0-1.2","107","1","2025-07-31 08:18:09","36c45c0696341be0efffe67d72a12abb","86.1.242.218","Mozilla/5.0 (Macintosh; Intel Mac OS X 10_15_7) AppleWebKit/537.36 (KHTML, like Gecko) Chrome/137.0.0.0 Safari/537.36","Macintosh","Chrome","137.0.0.0","OS X","10_15_7","https://app.prolific.com/","en-GB,en-US;q=0.9,en;q=0.8","6620f5de5edae6e60f556986","683dba9a53627eb9ab41b36a","688b26a3c93366dd52a32794","0","6620f5de5edae6e60f556986","0","2025-07-31T08:24:05.589Z","","","","AttribQ","","","","","","","","","","","50","","","","","","","","","","","","","","","","","","","","","","","","","","",""
"2350","","<div style=""width:500px;"">
  <p>How much control did you have over the ball?</p>
  </div>","56","html-slider-response","25","357582","0.0-7.0-2.2","107","1","2025-07-31 08:18:09","36c45c0696341be0efffe67d72a12abb","86.1.242.218","Mozilla/5.0 (Macintosh; Intel Mac OS X 10_15_7) AppleWebKit/537.36 (KHTML, like Gecko) Chrome/137.0.0.0 Safari/537.36","Macintosh","Chrome","137.0.0.0","OS X","10_15_7","https://app.prolific.com/","en-GB,en-US;q=0.9,en;q=0.8","6620f5de5edae6e60f556986","683dba9a53627eb9ab41b36a","688b26a3c93366dd52a32794","0","6620f5de5edae6e60f556986","0","2025-07-31T08:24:07.939Z","","","","ControlQ","","","","","","","","","","","50","","","","","","","","","","","","","","","","","","","","","","","","","","",""
"2200","","<div style=""width:500px;"">
  <p>How would you describe your current emotional state?</p>
  </div>","30","html-slider-response","26","359783","0.0-7.0-3.2","107","1","2025-07-31 08:18:09","36c45c0696341be0efffe67d72a12abb","86.1.242.218","Mozilla/5.0 (Macintosh; Intel Mac OS X 10_15_7) AppleWebKit/537.36 (KHTML, like Gecko) Chrome/137.0.0.0 Safari/537.36","Macintosh","Chrome","137.0.0.0","OS X","10_15_7","https://app.prolific.com/","en-GB,en-US;q=0.9,en;q=0.8","6620f5de5edae6e60f556986","683dba9a53627eb9ab41b36a","688b26a3c93366dd52a32794","0","6620f5de5edae6e60f556986","0","2025-07-31T08:24:10.140Z","","","","StressQ","","","","","","","","","","","50","","","","","","","","","","","","","","","","","","","","","","","","","","",""
"1367","","<div style=""width:500px;"">
  <p>What best describes how you currently feel?</p>
  </div>","20","html-slider-response","27","361151","0.0-7.0-4.2","107","1","2025-07-31 08:18:09","36c45c0696341be0efffe67d72a12abb","86.1.242.218","Mozilla/5.0 (Macintosh; Intel Mac OS X 10_15_7) AppleWebKit/537.36 (KHTML, like Gecko) Chrome/137.0.0.0 Safari/537.36","Macintosh","Chrome","137.0.0.0","OS X","10_15_7","https://app.prolific.com/","en-GB,en-US;q=0.9,en;q=0.8","6620f5de5edae6e60f556986","683dba9a53627eb9ab41b36a","688b26a3c93366dd52a32794","0","6620f5de5edae6e60f556986","0","2025-07-31T08:24:11.508Z","","","","MotivationQ","","","","","","","","","","","50","","","","","","","","","","","","","","","","","","","","","","","","","","",""
"","","","","ctl-task-cpt","28","406358","0.0-7.0-0.3","107","1","2025-07-31 08:18:09","36c45c0696341be0efffe67d72a12abb","86.1.242.218","Mozilla/5.0 (Macintosh; Intel Mac OS X 10_15_7) AppleWebKit/537.36 (KHTML, like Gecko) Chrome/137.0.0.0 Safari/537.36","Macintosh","Chrome","137.0.0.0","OS X","10_15_7","https://app.prolific.com/","en-GB,en-US;q=0.9,en;q=0.8","6620f5de5edae6e60f556986","683dba9a53627eb9ab41b36a","688b26a3c93366dd52a32794","0","6620f5de5edae6e60f556986","0","2025-07-31T08:24:56.715Z","","","","","","","","","","","","","","","","win-only","3","g1:SW,g2:NE","0.7","4","0","362387.2","1118.4","6120.4","42202","1","4","8","6","2","8","8","19","11","0.14393939393939395","1078.8","3000","50","[""up"",""right""]","{""num_key_presses"":10,""num_perfect"":7,""num_errors"":0,""num_randdir"":3,""num_randdir_good_moves"":1,""num_whilered"":0,""num_whileblue"":0,""num_blue"":2,""num_good_moves"":8}","[812,813.796875,0.2,812,813.796875,100.5,812,813.796875,202.7,812,813.796875,303.2,812,813.796875,406.9,812,813.796875,507.5,812,813.796875,612.2,1418,277.796875,712.6,1718,31.796875,812.9,1718,31.796875,913.5,1598,61.796875,1019.7,1582,67.796875,1122.6,1582,67.796875,1227.4,1582,67.796875,1332,1582,67.796875,1433,1582,67.796875,1537.6,1582,67.796875,1643.9,1582,67.796875,1747.4,1582,67.796875,1848,1582,67.796875,1953.2,1582,67.796875,2062.4,1582,67.796875,2163.4,1582,67.796875,2263.4,1582,67.796875,2367.8,1582,67.796875,2468,1582,67.796875,2571.9,1582,67.796875,2672.3,1582,67.796875,2772.7,1582,67.796875,2878.1,1582,67.796875,2984.2,1582,67.796875,3084.3,1582,67.796875,3187.8,1582,67.796875,3294.8,1582,67.796875,3399.3,1582,67.796875,3501.9,1582,67.796875,3603.5,1582,67.796875,3707.7,1582,67.796875,3812.7,1582,67.796875,3917.1,1582,67.796875,4018.5,1582,67.796875,4122.9,1582,67.796875,4227.3,1582,67.796875,4327.6,1582,67.796875,4427.8,1582,67.796875,4541.9,1582,67.796875,4648.6,1582,67.796875,4758.4,1582,67.796875,4861.7,1582,67.796875,4962.4]","[1346.3,1346.3,1000,0,346.3,""smooth"",""right"",""right"",""good_move"",4119.4,2772.8,2451,1346.6,321.8,""oops"",""right"",""left"",""bad_move"",7312.7,3193.1,2806.9,4119.6,386.2,""oops"",""up"",""down"",""bad_move"",14614.2,7301.4,2527.9,11741.4,344.9,""smooth"",""right"",""right"",""good_move"",17209.1,2594.7,2286.7,14614.4,308,""smooth"",""right"",""right"",""good_move"",20018.7,2809.5,2403.3,17209.2,406.2,""smooth"",""up"",""up"",""good_move"",23336.1,3317.3,2956,20018.8,361.3,""smooth"",""up"",""up"",""good_move"",26086.8,2750.6,2475.5,23336.2,275.1,""smooth"",""right"",""right"",""good_move"",32966,6879.2,2579.6,30075.1,311.3,""smooth"",""up"",""up"",""good_move"",35919.2,2953.1,2637.9,32966.2,315.1,""oops"",""up"",""up"",""good_move""]"
"2607","","<div style=""width:500px;"">
  <p>What determined the result of this run?</p>
  </div>","35","html-slider-response","29","408966","0.0-7.0-1.3","107","1","2025-07-31 08:18:09","36c45c0696341be0efffe67d72a12abb","86.1.242.218","Mozilla/5.0 (Macintosh; Intel Mac OS X 10_15_7) AppleWebKit/537.36 (KHTML, like Gecko) Chrome/137.0.0.0 Safari/537.36","Macintosh","Chrome","137.0.0.0","OS X","10_15_7","https://app.prolific.com/","en-GB,en-US;q=0.9,en;q=0.8","6620f5de5edae6e60f556986","683dba9a53627eb9ab41b36a","688b26a3c93366dd52a32794","0","6620f5de5edae6e60f556986","0","2025-07-31T08:24:59.323Z","","","","AttribQ","","","","","","","","","","","50","","","","","","","","","","","","","","","","","","","","","","","","","","",""
"1598","","<div style=""width:500px;"">
  <p>How much control did you have over the ball?</p>
  </div>","36","html-slider-response","30","410565","0.0-7.0-2.3","107","1","2025-07-31 08:18:09","36c45c0696341be0efffe67d72a12abb","86.1.242.218","Mozilla/5.0 (Macintosh; Intel Mac OS X 10_15_7) AppleWebKit/537.36 (KHTML, like Gecko) Chrome/137.0.0.0 Safari/537.36","Macintosh","Chrome","137.0.0.0","OS X","10_15_7","https://app.prolific.com/","en-GB,en-US;q=0.9,en;q=0.8","6620f5de5edae6e60f556986","683dba9a53627eb9ab41b36a","688b26a3c93366dd52a32794","0","6620f5de5edae6e60f556986","0","2025-07-31T08:25:00.922Z","","","","ControlQ","","","","","","","","","","","50","","","","","","","","","","","","","","","","","","","","","","","","","","",""
"2616","","<div style=""width:500px;"">
  <p>How would you describe your current emotional state?</p>
  </div>","41","html-slider-response","31","413182","0.0-7.0-3.3","107","1","2025-07-31 08:18:09","36c45c0696341be0efffe67d72a12abb","86.1.242.218","Mozilla/5.0 (Macintosh; Intel Mac OS X 10_15_7) AppleWebKit/537.36 (KHTML, like Gecko) Chrome/137.0.0.0 Safari/537.36","Macintosh","Chrome","137.0.0.0","OS X","10_15_7","https://app.prolific.com/","en-GB,en-US;q=0.9,en;q=0.8","6620f5de5edae6e60f556986","683dba9a53627eb9ab41b36a","688b26a3c93366dd52a32794","0","6620f5de5edae6e60f556986","0","2025-07-31T08:25:03.539Z","","","","StressQ","","","","","","","","","","","50","","","","","","","","","","","","","","","","","","","","","","","","","","",""
"1649","","<div style=""width:500px;"">
  <p>What best describes how you currently feel?</p>
  </div>","27","html-slider-response","32","414831","0.0-7.0-4.3","107","1","2025-07-31 08:18:09","36c45c0696341be0efffe67d72a12abb","86.1.242.218","Mozilla/5.0 (Macintosh; Intel Mac OS X 10_15_7) AppleWebKit/537.36 (KHTML, like Gecko) Chrome/137.0.0.0 Safari/537.36","Macintosh","Chrome","137.0.0.0","OS X","10_15_7","https://app.prolific.com/","en-GB,en-US;q=0.9,en;q=0.8","6620f5de5edae6e60f556986","683dba9a53627eb9ab41b36a","688b26a3c93366dd52a32794","0","6620f5de5edae6e60f556986","0","2025-07-31T08:25:05.188Z","","","","MotivationQ","","","","","","","","","","","50","","","","","","","","","","","","","","","","","","","","","","","","","","",""
"","","","","ctl-task-cpt","33","444419","0.0-7.0-0.4","107","1","2025-07-31 08:18:09","36c45c0696341be0efffe67d72a12abb","86.1.242.218","Mozilla/5.0 (Macintosh; Intel Mac OS X 10_15_7) AppleWebKit/537.36 (KHTML, like Gecko) Chrome/137.0.0.0 Safari/537.36","Macintosh","Chrome","137.0.0.0","OS X","10_15_7","https://app.prolific.com/","en-GB,en-US;q=0.9,en;q=0.8","6620f5de5edae6e60f556986","683dba9a53627eb9ab41b36a","688b26a3c93366dd52a32794","0","6620f5de5edae6e60f556986","0","2025-07-31T08:25:34.776Z","","","","","","","","","","","","","","","","win-only","2","g1:SE,g2:NW","0.6","5","0","416069.1","932.8","5935.5","26575.7","1","4","4","6","1","1","1","20","19","0.15151515151515152","1401","3000","1635","[""down"",""right""]","{""num_key_presses"":4,""num_perfect"":3,""num_errors"":0,""num_randdir"":1,""num_randdir_good_moves"":1,""num_whilered"":0,""num_whileblue"":0,""num_blue"":3,""num_good_moves"":4}","[812,809.796875,0.1,812,809.796875,101.2,812,809.796875,202.9,812,809.796875,305.9,812,809.796875,410.6,812,809.796875,512.7,868,847.796875,613.2,1272,1241.796875,718.2,1284,1269.796875,827.2,1284,1269.796875,935,1374,1385.796875,1038.8,1422,1437.796875,1142.7,1426,1443.796875,1242.9,1458,1477.796875,1347,1460,1479.796875,1449.4,1460,1479.796875,1549.4,1460,1479.796875,1653.5,1460,1479.796875,1757.5,1460,1479.796875,1858.1,1460,1479.796875,1962.7,1460,1479.796875,2069.9,1460,1479.796875,2173.6,1460,1479.796875,2277.5,1460,1479.796875,2377.9,1460,1479.796875,2482.6,1460,1479.796875,2585.8,1460,1479.796875,2688.2,1460,1479.796875,2788.4,1460,1479.796875,2892.6,1460,1479.796875,2992.6,1460,1479.796875,3095.2,1460,1479.796875,3195.4,1460,1479.796875,3300.9,1460,1479.796875,3402.7,1460,1479.796875,3508,1460,1479.796875,3608.3,1460,1479.796875,3712.5,1460,1479.796875,3813.5,1460,1479.796875,3913.9,1460,1479.796875,4018.1,1460,1479.796875,4118.4,1460,1479.796875,4223.4,1460,1479.796875,4328.1,1460,1479.796875,4431.4,1460,1479.796875,4534.2,1460,1479.796875,4638.8,1460,1479.796875,4739.4,1460,1479.796875,4842.9,1460,1479.796875,4948]","[4982.8,4982.8,2570.2,2006.4,406.2,""smooth"",""down"",""down"",""good_move"",10976.3,5993.2,2291,8337.6,347.7,""smooth"",""right"",""right"",""good_move"",18262,7285.6,2869.7,15002.2,390.1,""smooth"",""down"",""down"",""good_move"",20518.6,2256.4,1828.5,18262.2,427.9,""oops"",""right"",""right"",""good_move""]"
"2078","","<div style=""width:500px;"">
  <p>What determined the result of this run?</p>
  </div>","40","html-slider-response","34","446498","0.0-7.0-1.4","107","1","2025-07-31 08:18:09","36c45c0696341be0efffe67d72a12abb","86.1.242.218","Mozilla/5.0 (Macintosh; Intel Mac OS X 10_15_7) AppleWebKit/537.36 (KHTML, like Gecko) Chrome/137.0.0.0 Safari/537.36","Macintosh","Chrome","137.0.0.0","OS X","10_15_7","https://app.prolific.com/","en-GB,en-US;q=0.9,en;q=0.8","6620f5de5edae6e60f556986","683dba9a53627eb9ab41b36a","688b26a3c93366dd52a32794","0","6620f5de5edae6e60f556986","0","2025-07-31T08:25:36.855Z","","","","AttribQ","","","","","","","","","","","50","","","","","","","","","","","","","","","","","","","","","","","","","","",""
"1566","","<div style=""width:500px;"">
  <p>How much control did you have over the ball?</p>
  </div>","43","html-slider-response","35","448064","0.0-7.0-2.4","107","1","2025-07-31 08:18:09","36c45c0696341be0efffe67d72a12abb","86.1.242.218","Mozilla/5.0 (Macintosh; Intel Mac OS X 10_15_7) AppleWebKit/537.36 (KHTML, like Gecko) Chrome/137.0.0.0 Safari/537.36","Macintosh","Chrome","137.0.0.0","OS X","10_15_7","https://app.prolific.com/","en-GB,en-US;q=0.9,en;q=0.8","6620f5de5edae6e60f556986","683dba9a53627eb9ab41b36a","688b26a3c93366dd52a32794","0","6620f5de5edae6e60f556986","0","2025-07-31T08:25:38.421Z","","","","ControlQ","","","","","","","","","","","50","","","","","","","","","","","","","","","","","","","","","","","","","","",""
"1633","","<div style=""width:500px;"">
  <p>How would you describe your current emotional state?</p>
  </div>","45","html-slider-response","36","449698","0.0-7.0-3.4","107","1","2025-07-31 08:18:09","36c45c0696341be0efffe67d72a12abb","86.1.242.218","Mozilla/5.0 (Macintosh; Intel Mac OS X 10_15_7) AppleWebKit/537.36 (KHTML, like Gecko) Chrome/137.0.0.0 Safari/537.36","Macintosh","Chrome","137.0.0.0","OS X","10_15_7","https://app.prolific.com/","en-GB,en-US;q=0.9,en;q=0.8","6620f5de5edae6e60f556986","683dba9a53627eb9ab41b36a","688b26a3c93366dd52a32794","0","6620f5de5edae6e60f556986","0","2025-07-31T08:25:40.055Z","","","","StressQ","","","","","","","","","","","50","","","","","","","","","","","","","","","","","","","","","","","","","","",""
"2898","","<div style=""width:500px;"">
  <p>What best describes how you currently feel?</p>
  </div>","15","html-slider-response","37","452597","0.0-7.0-4.4","107","1","2025-07-31 08:18:09","36c45c0696341be0efffe67d72a12abb","86.1.242.218","Mozilla/5.0 (Macintosh; Intel Mac OS X 10_15_7) AppleWebKit/537.36 (KHTML, like Gecko) Chrome/137.0.0.0 Safari/537.36","Macintosh","Chrome","137.0.0.0","OS X","10_15_7","https://app.prolific.com/","en-GB,en-US;q=0.9,en;q=0.8","6620f5de5edae6e60f556986","683dba9a53627eb9ab41b36a","688b26a3c93366dd52a32794","0","6620f5de5edae6e60f556986","0","2025-07-31T08:25:42.954Z","","","","MotivationQ","","","","","","","","","","","50","","","","","","","","","","","","","","","","","","","","","","","","","","",""
"","","","","ctl-task-cpt","38","492133","0.0-7.0-0.5","107","1","2025-07-31 08:18:09","36c45c0696341be0efffe67d72a12abb","86.1.242.218","Mozilla/5.0 (Macintosh; Intel Mac OS X 10_15_7) AppleWebKit/537.36 (KHTML, like Gecko) Chrome/137.0.0.0 Safari/537.36","Macintosh","Chrome","137.0.0.0","OS X","10_15_7","https://app.prolific.com/","en-GB,en-US;q=0.9,en;q=0.8","6620f5de5edae6e60f556986","683dba9a53627eb9ab41b36a","688b26a3c93366dd52a32794","0","6620f5de5edae6e60f556986","0","2025-07-31T08:26:22.490Z","","","","","","","","","","","","","","","","win-only","3","g1:SW,g2:NE","0.5","6","0","453836","838.2","5841.1","36525.5","1","4","8","6","2","-8","-8","12","20","0.09090909090909091","1084.4","3000","-2230","[""up"",""right""]","{""num_key_presses"":10,""num_perfect"":5,""num_errors"":0,""num_randdir"":5,""num_randdir_good_moves"":2,""num_whilered"":0,""num_whileblue"":0,""num_blue"":0,""num_good_moves"":7}","[816,825.796875,0.1,816,823.796875,100,816,823.796875,211,816,823.796875,312.4,816,823.796875,414.8,964,705.796875,519.1,1370,493.796875,622.9,1370,493.796875,726.1,1426,327.796875,829.3,1494,161.796875,934.6,1498,157.796875,1042.4,1500,155.796875,1149.9,1500,155.796875,1250.1,1500,155.796875,1354.9,1500,155.796875,1456.9,1500,155.796875,1561.6,1500,155.796875,1661.9,1500,155.796875,1769.6,1500,155.796875,1870.4,1500,155.796875,1972.7,1500,155.796875,2076.5,1500,155.796875,2182.5,1500,155.796875,2288,1500,155.796875,2392.5,1500,155.796875,2492.7,1500,155.796875,2599.1,1500,155.796875,2703.6,1500,155.796875,2804.8,1500,155.796875,2907.4,1500,155.796875,3007.4,1500,155.796875,3114.6,1500,155.796875,3229,1500,155.796875,3330.8,1500,155.796875,3434.7,1500,155.796875,3541.6,1500,155.796875,3642.3,1500,155.796875,3742.9,1500,155.796875,3855.5,1500,155.796875,3959.3,1500,155.796875,4063.7,1500,155.796875,4169.7,1500,155.796875,4272.3,1500,155.796875,4375.6,1500,155.796875,4478.2,1500,155.796875,4590.2,1500,155.796875,4690.5,1500,155.796875,4792.4,1500,155.796875,4897.8]","[1542.2,1542.2,1000,0,542.2,""smooth"",""up"",""up"",""good_move"",4380.5,2838.1,2499.5,1542.4,338.6,""oops"",""up"",""right"",""good_move"",7204.2,2823.5,2513.3,4380.7,310.2,""oops"",""up"",""down"",""bad_move"",10189,2984.6,2651,7204.4,333.6,""oops"",""right"",""down"",""bad_move"",12994.4,2805.3,2498.8,10189.1,306.5,""smooth"",""right"",""right"",""good_move"",15185.6,2191.1,1790.7,12994.6,400.4,""smooth"",""right"",""right"",""good_move"",18018.7,2833,2550.1,15185.8,282.8,""smooth"",""up"",""up"",""good_move"",20832,2813.2,2493.8,18018.9,319.4,""smooth"",""up"",""up"",""good_move"",24431.4,3599.2,3324.7,20832.2,274.5,""oops"",""up"",""up"",""good_move"",27411.6,2980.2,2702.6,24431.4,277.6,""oops"",""up"",""down"",""bad_move""]"
"2563","","<div style=""width:500px;"">
  <p>What determined the result of this run?</p>
  </div>","19","html-slider-response","39","494697","0.0-7.0-1.5","107","1","2025-07-31 08:18:09","36c45c0696341be0efffe67d72a12abb","86.1.242.218","Mozilla/5.0 (Macintosh; Intel Mac OS X 10_15_7) AppleWebKit/537.36 (KHTML, like Gecko) Chrome/137.0.0.0 Safari/537.36","Macintosh","Chrome","137.0.0.0","OS X","10_15_7","https://app.prolific.com/","en-GB,en-US;q=0.9,en;q=0.8","6620f5de5edae6e60f556986","683dba9a53627eb9ab41b36a","688b26a3c93366dd52a32794","0","6620f5de5edae6e60f556986","0","2025-07-31T08:26:25.054Z","","","","AttribQ","","","","","","","","","","","50","","","","","","","","","","","","","","","","","","","","","","","","","","",""
"1866","","<div style=""width:500px;"">
  <p>How much control did you have over the ball?</p>
  </div>","23","html-slider-response","40","496563","0.0-7.0-2.5","107","1","2025-07-31 08:18:09","36c45c0696341be0efffe67d72a12abb","86.1.242.218","Mozilla/5.0 (Macintosh; Intel Mac OS X 10_15_7) AppleWebKit/537.36 (KHTML, like Gecko) Chrome/137.0.0.0 Safari/537.36","Macintosh","Chrome","137.0.0.0","OS X","10_15_7","https://app.prolific.com/","en-GB,en-US;q=0.9,en;q=0.8","6620f5de5edae6e60f556986","683dba9a53627eb9ab41b36a","688b26a3c93366dd52a32794","0","6620f5de5edae6e60f556986","0","2025-07-31T08:26:26.920Z","","","","ControlQ","","","","","","","","","","","50","","","","","","","","","","","","","","","","","","","","","","","","","","",""
"2533","","<div style=""width:500px;"">
  <p>How would you describe your current emotional state?</p>
  </div>","60","html-slider-response","41","499096","0.0-7.0-3.5","107","1","2025-07-31 08:18:09","36c45c0696341be0efffe67d72a12abb","86.1.242.218","Mozilla/5.0 (Macintosh; Intel Mac OS X 10_15_7) AppleWebKit/537.36 (KHTML, like Gecko) Chrome/137.0.0.0 Safari/537.36","Macintosh","Chrome","137.0.0.0","OS X","10_15_7","https://app.prolific.com/","en-GB,en-US;q=0.9,en;q=0.8","6620f5de5edae6e60f556986","683dba9a53627eb9ab41b36a","688b26a3c93366dd52a32794","0","6620f5de5edae6e60f556986","0","2025-07-31T08:26:29.453Z","","","","StressQ","","","","","","","","","","","50","","","","","","","","","","","","","","","","","","","","","","","","","","",""
"1702","","<div style=""width:500px;"">
  <p>What best describes how you currently feel?</p>
  </div>","18","html-slider-response","42","500799","0.0-7.0-4.5","107","1","2025-07-31 08:18:09","36c45c0696341be0efffe67d72a12abb","86.1.242.218","Mozilla/5.0 (Macintosh; Intel Mac OS X 10_15_7) AppleWebKit/537.36 (KHTML, like Gecko) Chrome/137.0.0.0 Safari/537.36","Macintosh","Chrome","137.0.0.0","OS X","10_15_7","https://app.prolific.com/","en-GB,en-US;q=0.9,en;q=0.8","6620f5de5edae6e60f556986","683dba9a53627eb9ab41b36a","688b26a3c93366dd52a32794","0","6620f5de5edae6e60f556986","0","2025-07-31T08:26:31.156Z","","","","MotivationQ","","","","","","","","","","","50","","","","","","","","","","","","","","","","","","","","","","","","","","",""
"","","","","ctl-task-cpt","43","553124","0.0-7.0-0.6","107","1","2025-07-31 08:18:09","36c45c0696341be0efffe67d72a12abb","86.1.242.218","Mozilla/5.0 (Macintosh; Intel Mac OS X 10_15_7) AppleWebKit/537.36 (KHTML, like Gecko) Chrome/137.0.0.0 Safari/537.36","Macintosh","Chrome","137.0.0.0","OS X","10_15_7","https://app.prolific.com/","en-GB,en-US;q=0.9,en;q=0.8","6620f5de5edae6e60f556986","683dba9a53627eb9ab41b36a","688b26a3c93366dd52a32794","0","6620f5de5edae6e60f556986","0","2025-07-31T08:27:23.481Z","","","","","","","","","","","","","","","","win-only","3","g1:SW,g2:NE","0.4","7","0","502040.2","885.5","5888.2","49315.8","1","4","4","6","2","-4","-5","7","12","0.05303030303030303","1170.9","3000","-2230","[""up"",""right""]","{""num_key_presses"":12,""num_perfect"":4,""num_errors"":1,""num_randdir"":7,""num_randdir_good_moves"":2,""num_whilered"":0,""num_whileblue"":1,""num_blue"":3,""num_good_moves"":7}","[808,815.796875,0.1,808,815.796875,109.3,808,815.796875,210.9,808,815.796875,316.8,808,815.796875,424.4,908,719.796875,524.8,1588,189.796875,625.7,1588,189.796875,734.2,1558,195.796875,845.2,1504,185.796875,957.6,1502,183.796875,1059.1,1502,183.796875,1160.2,1502,183.796875,1267.5,1502,183.796875,1369.3,1502,183.796875,1472.2,1502,183.796875,1572.5,1502,183.796875,1681.1,1502,183.796875,1784.9,1502,183.796875,1889.1,1502,183.796875,1989.3,1502,183.796875,2096.3,1502,183.796875,2200.8,1502,183.796875,2301.3,1502,183.796875,2407.8,1502,183.796875,2510.6,1502,183.796875,2610.6,1502,183.796875,2716.3,1502,183.796875,2822.8,1502,183.796875,2926.7,1502,183.796875,3028.4,1502,183.796875,3130.5,1502,183.796875,3235.5,1502,183.796875,3352.4,1502,183.796875,3456.9,1502,183.796875,3557,1502,183.796875,3657.3,1502,183.796875,3760.1,1502,183.796875,3860,1502,183.796875,3966.5,1502,183.796875,4068.5,1502,183.796875,4173.3,1502,183.796875,4279.3,1502,183.796875,4380.2,1502,183.796875,4489.1,1502,183.796875,4590.6,1502,183.796875,4697.1,1502,183.796875,4801.3,1502,183.796875,4903.6]","[1429,1429,1000,0,429,""smooth"",""up"",""up"",""good_move"",4938,3508.8,3157,1429.2,351.8,""smooth"",""up"",""up"",""good_move"",12697.5,7759.4,2808.1,9552.1,337.3,""oops"",""up"",""left"",""bad_move"",14862.4,2164.6,1866.5,12697.9,298,""smooth"",""up"",""up"",""good_move"",18082.3,3219.7,2892.5,14862.6,327.2,""oops"",""right"",""left"",""bad_move"",20958.7,2876.2,2557.2,18082.5,319,""oops"",""right"",""down"",""bad_move"",24270.5,3311.6,3002.3,20958.9,309.3,""smooth"",""right"",""right"",""good_move"",26529.9,2259.3,1989.4,24270.6,269.9,""oops"",""right"",""left"",""bad_move"",29099.5,2569.4,2259.1,26530.1,310.3,""while_blue"",""right"",""right"",""good_move"",31805.3,2705.6,2406.2,29099.8,299.4,""oops"",""right"",""down"",""bad_move"",34798.9,2993.4,2620.6,31805.5,372.8,""oops"",""up"",""right"",""good_move"",36994,2194.8,1776.3,34799.2,418.5,""oops"",""up"",""up"",""good_move""]"
"1754","","<div style=""width:500px;"">
  <p>What determined the result of this run?</p>
  </div>","10","html-slider-response","44","554879","0.0-7.0-1.6","107","1","2025-07-31 08:18:09","36c45c0696341be0efffe67d72a12abb","86.1.242.218","Mozilla/5.0 (Macintosh; Intel Mac OS X 10_15_7) AppleWebKit/537.36 (KHTML, like Gecko) Chrome/137.0.0.0 Safari/537.36","Macintosh","Chrome","137.0.0.0","OS X","10_15_7","https://app.prolific.com/","en-GB,en-US;q=0.9,en;q=0.8","6620f5de5edae6e60f556986","683dba9a53627eb9ab41b36a","688b26a3c93366dd52a32794","0","6620f5de5edae6e60f556986","0","2025-07-31T08:27:25.236Z","","","","AttribQ","","","","","","","","","","","50","","","","","","","","","","","","","","","","","","","","","","","","","","",""
"1533","","<div style=""width:500px;"">
  <p>How much control did you have over the ball?</p>
  </div>","10","html-slider-response","45","556412","0.0-7.0-2.6","107","1","2025-07-31 08:18:09","36c45c0696341be0efffe67d72a12abb","86.1.242.218","Mozilla/5.0 (Macintosh; Intel Mac OS X 10_15_7) AppleWebKit/537.36 (KHTML, like Gecko) Chrome/137.0.0.0 Safari/537.36","Macintosh","Chrome","137.0.0.0","OS X","10_15_7","https://app.prolific.com/","en-GB,en-US;q=0.9,en;q=0.8","6620f5de5edae6e60f556986","683dba9a53627eb9ab41b36a","688b26a3c93366dd52a32794","0","6620f5de5edae6e60f556986","0","2025-07-31T08:27:26.769Z","","","","ControlQ","","","","","","","","","","","50","","","","","","","","","","","","","","","","","","","","","","","","","","",""
"1467","","<div style=""width:500px;"">
  <p>How would you describe your current emotional state?</p>
  </div>","64","html-slider-response","46","557879","0.0-7.0-3.6","107","1","2025-07-31 08:18:09","36c45c0696341be0efffe67d72a12abb","86.1.242.218","Mozilla/5.0 (Macintosh; Intel Mac OS X 10_15_7) AppleWebKit/537.36 (KHTML, like Gecko) Chrome/137.0.0.0 Safari/537.36","Macintosh","Chrome","137.0.0.0","OS X","10_15_7","https://app.prolific.com/","en-GB,en-US;q=0.9,en;q=0.8","6620f5de5edae6e60f556986","683dba9a53627eb9ab41b36a","688b26a3c93366dd52a32794","0","6620f5de5edae6e60f556986","0","2025-07-31T08:27:28.236Z","","","","StressQ","","","","","","","","","","","50","","","","","","","","","","","","","","","","","","","","","","","","","","",""
"2082","","<div style=""width:500px;"">
  <p>What best describes how you currently feel?</p>
  </div>","6","html-slider-response","47","559962","0.0-7.0-4.6","107","1","2025-07-31 08:18:09","36c45c0696341be0efffe67d72a12abb","86.1.242.218","Mozilla/5.0 (Macintosh; Intel Mac OS X 10_15_7) AppleWebKit/537.36 (KHTML, like Gecko) Chrome/137.0.0.0 Safari/537.36","Macintosh","Chrome","137.0.0.0","OS X","10_15_7","https://app.prolific.com/","en-GB,en-US;q=0.9,en;q=0.8","6620f5de5edae6e60f556986","683dba9a53627eb9ab41b36a","688b26a3c93366dd52a32794","0","6620f5de5edae6e60f556986","0","2025-07-31T08:27:30.319Z","","","","MotivationQ","","","","","","","","","","","50","","","","","","","","","","","","","","","","","","","","","","","","","","",""
"","","","","ctl-task-cpt","48","609526","0.0-7.0-0.7","107","1","2025-07-31 08:18:09","36c45c0696341be0efffe67d72a12abb","86.1.242.218","Mozilla/5.0 (Macintosh; Intel Mac OS X 10_15_7) AppleWebKit/537.36 (KHTML, like Gecko) Chrome/137.0.0.0 Safari/537.36","Macintosh","Chrome","137.0.0.0","OS X","10_15_7","https://app.prolific.com/","en-GB,en-US;q=0.9,en;q=0.8","6620f5de5edae6e60f556986","683dba9a53627eb9ab41b36a","688b26a3c93366dd52a32794","0","6620f5de5edae6e60f556986","0","2025-07-31T08:28:19.883Z","","","","","","","","","","","","","","","","win-only","1","g1:NE,g2:SW","0.3","8","0","561205.2","882.5","5885.6","46550.6","1","4","8","6","2","-8","-8","0","7","0","1116.3","3000","-2290","[""down"",""left""]","{""num_key_presses"":11,""num_perfect"":4,""num_errors"":0,""num_randdir"":7,""num_randdir_good_moves"":4,""num_whilered"":0,""num_whileblue"":0,""num_blue"":2,""num_good_moves"":8}","[810,807.796875,0.1,810,807.796875,104.8,810,807.796875,208.1,810,807.796875,316.9,810,807.796875,418.2,810,803.796875,518.4,650,773.796875,618.4,332,1021.796875,722.6,332,1021.796875,824.6,204,1327.796875,930.1,136,1533.796875,1034.8,136,1535.796875,1137.9,136,1535.796875,1238.4,136,1535.796875,1343.2,136,1535.796875,1447.9,136,1535.796875,1552.7,136,1535.796875,1660.2,136,1535.796875,1762,136,1535.796875,1863.9,136,1535.796875,1968.3,136,1535.796875,2069.7,136,1535.796875,2179.3,136,1535.796875,2282.2,136,1535.796875,2383.3,136,1535.796875,2491.9,136,1535.796875,2595,136,1535.796875,2695.8,136,1535.796875,2801.2,136,1535.796875,2901.7,136,1535.796875,3003.2,136,1535.796875,3103.3,136,1535.796875,3208.5,136,1535.796875,3314.5,136,1535.796875,3414.8,136,1535.796875,3516.1,136,1535.796875,3618,136,1535.796875,3718,136,1535.796875,3823.6,136,1535.796875,3930.2,136,1535.796875,4033.5,136,1535.796875,4134.1,136,1535.796875,4238.5,136,1535.796875,4340.4,136,1535.796875,4442.8,136,1535.796875,4545.3,136,1535.796875,4653.1,136,1535.796875,4757.8,136,1535.796875,4858.3,136,1535.796875,4960.3]","[1391.9,1391.9,1000,0,391.9,""smooth"",""left"",""left"",""good_move"",4626.6,3234.5,2920.1,1392.2,314.3,""smooth"",""down"",""down"",""good_move"",9870.5,5243.7,1665.1,7764,441.4,""oops"",""down"",""up"",""bad_move"",12662.3,2791.7,2403.5,9870.6,388.2,""oops"",""left"",""left"",""good_move"",15399.9,2737.2,2394.3,12662.7,342.9,""oops"",""left"",""right"",""bad_move"",18729.5,3329.5,3008.8,15400,320.7,""oops"",""down"",""left"",""good_move"",25684.2,6954.7,3081,22266.7,336.5,""smooth"",""down"",""down"",""good_move"",28209.4,2525,2118.3,25684.4,406.7,""oops"",""down"",""down"",""good_move"",31494.9,3285.4,2959.9,28209.5,325.5,""oops"",""down"",""left"",""good_move"",34368,2872.9,2532.4,31495.1,340.5,""oops"",""down"",""right"",""bad_move"",37539.3,3171,2882.6,34368.3,288.4,""smooth"",""down"",""down"",""good_move""]"
"2235","","<div style=""width:500px;"">
  <p>What determined the result of this run?</p>
  </div>","2","html-slider-response","49","611761","0.0-7.0-1.7","107","1","2025-07-31 08:18:09","36c45c0696341be0efffe67d72a12abb","86.1.242.218","Mozilla/5.0 (Macintosh; Intel Mac OS X 10_15_7) AppleWebKit/537.36 (KHTML, like Gecko) Chrome/137.0.0.0 Safari/537.36","Macintosh","Chrome","137.0.0.0","OS X","10_15_7","https://app.prolific.com/","en-GB,en-US;q=0.9,en;q=0.8","6620f5de5edae6e60f556986","683dba9a53627eb9ab41b36a","688b26a3c93366dd52a32794","0","6620f5de5edae6e60f556986","0","2025-07-31T08:28:22.118Z","","","","AttribQ","","","","","","","","","","","50","","","","","","","","","","","","","","","","","","","","","","","","","","",""
"2532","","<div style=""width:500px;"">
  <p>How much control did you have over the ball?</p>
  </div>","1","html-slider-response","50","614294","0.0-7.0-2.7","107","1","2025-07-31 08:18:09","36c45c0696341be0efffe67d72a12abb","86.1.242.218","Mozilla/5.0 (Macintosh; Intel Mac OS X 10_15_7) AppleWebKit/537.36 (KHTML, like Gecko) Chrome/137.0.0.0 Safari/537.36","Macintosh","Chrome","137.0.0.0","OS X","10_15_7","https://app.prolific.com/","en-GB,en-US;q=0.9,en;q=0.8","6620f5de5edae6e60f556986","683dba9a53627eb9ab41b36a","688b26a3c93366dd52a32794","0","6620f5de5edae6e60f556986","0","2025-07-31T08:28:24.651Z","","","","ControlQ","","","","","","","","","","","50","","","","","","","","","","","","","","","","","","","","","","","","","","",""
"2965","","<div style=""width:500px;"">
  <p>How would you describe your current emotional state?</p>
  </div>","61","html-slider-response","51","617260","0.0-7.0-3.7","107","1","2025-07-31 08:18:09","36c45c0696341be0efffe67d72a12abb","86.1.242.218","Mozilla/5.0 (Macintosh; Intel Mac OS X 10_15_7) AppleWebKit/537.36 (KHTML, like Gecko) Chrome/137.0.0.0 Safari/537.36","Macintosh","Chrome","137.0.0.0","OS X","10_15_7","https://app.prolific.com/","en-GB,en-US;q=0.9,en;q=0.8","6620f5de5edae6e60f556986","683dba9a53627eb9ab41b36a","688b26a3c93366dd52a32794","0","6620f5de5edae6e60f556986","0","2025-07-31T08:28:27.617Z","","","","StressQ","","","","","","","","","","","50","","","","","","","","","","","","","","","","","","","","","","","","","","",""
"2066","","<div style=""width:500px;"">
  <p>What best describes how you currently feel?</p>
  </div>","7","html-slider-response","52","619327","0.0-7.0-4.7","107","1","2025-07-31 08:18:09","36c45c0696341be0efffe67d72a12abb","86.1.242.218","Mozilla/5.0 (Macintosh; Intel Mac OS X 10_15_7) AppleWebKit/537.36 (KHTML, like Gecko) Chrome/137.0.0.0 Safari/537.36","Macintosh","Chrome","137.0.0.0","OS X","10_15_7","https://app.prolific.com/","en-GB,en-US;q=0.9,en;q=0.8","6620f5de5edae6e60f556986","683dba9a53627eb9ab41b36a","688b26a3c93366dd52a32794","0","6620f5de5edae6e60f556986","0","2025-07-31T08:28:29.684Z","","","","MotivationQ","","","","","","","","","","","50","","","","","","","","","","","","","","","","","","","","","","","","","","",""
"","","","","ctl-task-cpt","53","666841","0.0-7.0-0.8","107","1","2025-07-31 08:18:09","36c45c0696341be0efffe67d72a12abb","86.1.242.218","Mozilla/5.0 (Macintosh; Intel Mac OS X 10_15_7) AppleWebKit/537.36 (KHTML, like Gecko) Chrome/137.0.0.0 Safari/537.36","Macintosh","Chrome","137.0.0.0","OS X","10_15_7","https://app.prolific.com/","en-GB,en-US;q=0.9,en;q=0.8","6620f5de5edae6e60f556986","683dba9a53627eb9ab41b36a","688b26a3c93366dd52a32794","0","6620f5de5edae6e60f556986","0","2025-07-31T08:29:17.198Z","","","","","","","","","","","","","","","","win-only","1","g1:NE,g2:SW","0.4","9","0","620572.4","1450.9","6453.5","44510.4","1","4","4","6","2","-4","-4","0","0","0","1289","3000","-2115","[""down"",""left""]","{""num_key_presses"":10,""num_perfect"":4,""num_errors"":0,""num_randdir"":6,""num_randdir_good_moves"":2,""num_whilered"":0,""num_whileblue"":0,""num_blue"":2,""num_good_moves"":6}","[824,827.796875,0.1,824,827.796875,109.4,824,827.796875,210.1,824,827.796875,315.2,824,827.796875,423.5,824,827.796875,524.6,494,1133.796875,625.8,254,1347.796875,730.3,254,1347.796875,830.5,240,1363.796875,936.3,178,1455.796875,1040.4,178,1455.796875,1143.4,178,1455.796875,1248.1,178,1455.796875,1350,178,1455.796875,1454.8,178,1455.796875,1560.2,178,1455.796875,1663.5,178,1455.796875,1769.5,178,1455.796875,1877.4,178,1455.796875,1985.5,178,1455.796875,2089.9,178,1455.796875,2193,178,1455.796875,2295.5,178,1455.796875,2401.5,178,1455.796875,2502.1,178,1455.796875,2605.3,178,1455.796875,2708.1,178,1455.796875,2809.8,178,1455.796875,2910,178,1455.796875,3015.9,178,1455.796875,3124.8,178,1455.796875,3225,178,1455.796875,3325.3,178,1455.796875,3429.9,178,1455.796875,3534.9,178,1455.796875,3637,178,1455.796875,3741.3,178,1455.796875,3846.9,178,1455.796875,3949.9,178,1455.796875,4050,178,1455.796875,4150.2,178,1455.796875,4268.2,178,1455.796875,4377.5,178,1455.796875,4479.5,178,1455.796875,4580,178,1455.796875,4685.4,178,1455.796875,4789.7,178,1455.796875,4899.1]","[4269.7,4269.7,1911.9,2008,349.8,""oops"",""down"",""left"",""good_move"",7468,3198.1,2875.4,4269.9,322.7,""smooth"",""down"",""down"",""good_move"",10667.8,3199.7,2872.6,7468.1,327.1,""oops"",""down"",""up"",""bad_move"",14037.2,3369.1,3057.8,10668.1,311.3,""smooth"",""left"",""left"",""good_move"",16859.4,2822,2496.5,14037.4,325.5,""oops"",""down"",""up"",""bad_move"",19404.9,2545.3,2236.3,16859.6,309,""oops"",""down"",""left"",""good_move"",27442.6,8037.5,3128.5,23948.8,365.3,""smooth"",""down"",""down"",""good_move"",29449.2,2006.4,1589.7,27442.8,416.7,""smooth"",""down"",""down"",""good_move"",32521.6,3072.3,2735.6,29449.3,336.7,""oops"",""down"",""right"",""bad_move"",35167,2645.2,2304.2,32521.8,341,""oops"",""down"",""up"",""bad_move""]"
"1502","","<div style=""width:500px;"">
  <p>What determined the result of this run?</p>
  </div>","0","html-slider-response","54","668343","0.0-7.0-1.8","107","1","2025-07-31 08:18:09","36c45c0696341be0efffe67d72a12abb","86.1.242.218","Mozilla/5.0 (Macintosh; Intel Mac OS X 10_15_7) AppleWebKit/537.36 (KHTML, like Gecko) Chrome/137.0.0.0 Safari/537.36","Macintosh","Chrome","137.0.0.0","OS X","10_15_7","https://app.prolific.com/","en-GB,en-US;q=0.9,en;q=0.8","6620f5de5edae6e60f556986","683dba9a53627eb9ab41b36a","688b26a3c93366dd52a32794","0","6620f5de5edae6e60f556986","0","2025-07-31T08:29:18.700Z","","","","AttribQ","","","","","","","","","","","50","","","","","","","","","","","","","","","","","","","","","","","","","","",""
"1499","","<div style=""width:500px;"">
  <p>How much control did you have over the ball?</p>
  </div>","0","html-slider-response","55","669843","0.0-7.0-2.8","107","1","2025-07-31 08:18:09","36c45c0696341be0efffe67d72a12abb","86.1.242.218","Mozilla/5.0 (Macintosh; Intel Mac OS X 10_15_7) AppleWebKit/537.36 (KHTML, like Gecko) Chrome/137.0.0.0 Safari/537.36","Macintosh","Chrome","137.0.0.0","OS X","10_15_7","https://app.prolific.com/","en-GB,en-US;q=0.9,en;q=0.8","6620f5de5edae6e60f556986","683dba9a53627eb9ab41b36a","688b26a3c93366dd52a32794","0","6620f5de5edae6e60f556986","0","2025-07-31T08:29:20.200Z","","","","ControlQ","","","","","","","","","","","50","","","","","","","","","","","","","","","","","","","","","","","","","","",""
"3281","","<div style=""width:500px;"">
  <p>How would you describe your current emotional state?</p>
  </div>","56","html-slider-response","56","673125","0.0-7.0-3.8","107","1","2025-07-31 08:18:09","36c45c0696341be0efffe67d72a12abb","86.1.242.218","Mozilla/5.0 (Macintosh; Intel Mac OS X 10_15_7) AppleWebKit/537.36 (KHTML, like Gecko) Chrome/137.0.0.0 Safari/537.36","Macintosh","Chrome","137.0.0.0","OS X","10_15_7","https://app.prolific.com/","en-GB,en-US;q=0.9,en;q=0.8","6620f5de5edae6e60f556986","683dba9a53627eb9ab41b36a","688b26a3c93366dd52a32794","0","6620f5de5edae6e60f556986","0","2025-07-31T08:29:23.482Z","","","","StressQ","","","","","","","","","","","50","","","","","","","","","","","","","","","","","","","","","","","","","","",""
"4333","","<div style=""width:500px;"">
  <p>What best describes how you currently feel?</p>
  </div>","1","html-slider-response","57","677459","0.0-7.0-4.8","107","1","2025-07-31 08:18:09","36c45c0696341be0efffe67d72a12abb","86.1.242.218","Mozilla/5.0 (Macintosh; Intel Mac OS X 10_15_7) AppleWebKit/537.36 (KHTML, like Gecko) Chrome/137.0.0.0 Safari/537.36","Macintosh","Chrome","137.0.0.0","OS X","10_15_7","https://app.prolific.com/","en-GB,en-US;q=0.9,en;q=0.8","6620f5de5edae6e60f556986","683dba9a53627eb9ab41b36a","688b26a3c93366dd52a32794","0","6620f5de5edae6e60f556986","0","2025-07-31T08:29:27.816Z","","","","MotivationQ","","","","","","","","","","","50","","","","","","","","","","","","","","","","","","","","","","","","","","",""
"","","","","ctl-task-cpt","58","722478","0.0-7.0-0.9","107","1","2025-07-31 08:18:09","36c45c0696341be0efffe67d72a12abb","86.1.242.218","Mozilla/5.0 (Macintosh; Intel Mac OS X 10_15_7) AppleWebKit/537.36 (KHTML, like Gecko) Chrome/137.0.0.0 Safari/537.36","Macintosh","Chrome","137.0.0.0","OS X","10_15_7","https://app.prolific.com/","en-GB,en-US;q=0.9,en;q=0.8","6620f5de5edae6e60f556986","683dba9a53627eb9ab41b36a","688b26a3c93366dd52a32794","0","6620f5de5edae6e60f556986","0","2025-07-31T08:30:12.835Z","","","","","","","","","","","","","","","","win-only","0","g1:NW,g2:SE","0.5","10","0","678705.9","767.6","5770.5","42004.9","1","4","8","6","2","-8","-9","0","0","0","799.4","3000","-2160","[""down"",""right""]","{""num_key_presses"":10,""num_perfect"":4,""num_errors"":1,""num_randdir"":5,""num_randdir_good_moves"":3,""num_whilered"":0,""num_whileblue"":1,""num_blue"":3,""num_good_moves"":7}","[792,823.796875,0.1,794,823.796875,102.9,794,823.796875,205.2,794,823.796875,310.6,820,839.796875,411,1420,1433.796875,520.5,1442,1463.796875,623.6,1442,1463.796875,727.7,1464,1483.796875,827.9,1466,1483.796875,937.8,1466,1483.796875,1048.8,1466,1483.796875,1153.4,1466,1483.796875,1253.6,1466,1483.796875,1360.6,1466,1483.796875,1470.5,1466,1483.796875,1573.3,1466,1483.796875,1676.7,1466,1483.796875,1778.1,1466,1483.796875,1878.6,1466,1483.796875,1983.7,1466,1483.796875,2088,1466,1483.796875,2191.6,1466,1483.796875,2296,1466,1483.796875,2400.9,1466,1483.796875,2502.6,1466,1483.796875,2602.8,1466,1483.796875,2703.3,1466,1483.796875,2806.1,1466,1483.796875,2906.2,1466,1483.796875,3008.4,1466,1483.796875,3108.4,1466,1483.796875,3213.3,1466,1483.796875,3313.6,1466,1483.796875,3414.7,1466,1483.796875,3521,1466,1483.796875,3629.9,1466,1483.796875,3733.6,1466,1483.796875,3838.6,1466,1483.796875,3942.9,1466,1483.796875,4047.5,1466,1483.796875,4149.5,1466,1483.796875,4250.9,1466,1483.796875,4353.5,1466,1483.796875,4459.3,1466,1483.796875,4560.7,1466,1483.796875,4667.9,1466,1483.796875,4768.9,1466,1483.796875,4883.3,1466,1483.796875,4988.3]","[1422.5,1422.5,1000,0,422.5,""smooth"",""right"",""right"",""good_move"",3946.8,2524.1,2191.1,1422.7,333,""smooth"",""down"",""down"",""good_move"",6400.4,2453.3,2081.3,3947.2,371.9,""smooth"",""down"",""down"",""good_move"",9279.7,2879.1,2525.3,6400.6,353.8,""oops"",""down"",""up"",""bad_move"",12538.2,3258.4,2858.6,9279.8,399.8,""oops"",""right"",""right"",""good_move"",16231.6,3693.3,3393.7,12538.4,299.6,""oops"",""down"",""left"",""bad_move"",19186.5,2954.6,2533.2,16231.9,421.4,""oops"",""down"",""right"",""good_move"",24966.3,5779.7,2851,21818.4,296.9,""smooth"",""down"",""down"",""good_move"",27330.3,2363.9,1402,24966.4,961.9,""oops"",""down"",""down"",""good_move"",33204.5,5874.1,2729.8,30170.2,304.5,""while_blue"",""right"",""left"",""bad_move""]"
"1779","","<div style=""width:500px;"">
  <p>What determined the result of this run?</p>
  </div>","2","html-slider-response","59","724258","0.0-7.0-1.9","107","1","2025-07-31 08:18:09","36c45c0696341be0efffe67d72a12abb","86.1.242.218","Mozilla/5.0 (Macintosh; Intel Mac OS X 10_15_7) AppleWebKit/537.36 (KHTML, like Gecko) Chrome/137.0.0.0 Safari/537.36","Macintosh","Chrome","137.0.0.0","OS X","10_15_7","https://app.prolific.com/","en-GB,en-US;q=0.9,en;q=0.8","6620f5de5edae6e60f556986","683dba9a53627eb9ab41b36a","688b26a3c93366dd52a32794","0","6620f5de5edae6e60f556986","0","2025-07-31T08:30:14.615Z","","","","AttribQ","","","","","","","","","","","50","","","","","","","","","","","","","","","","","","","","","","","","","","",""
"1800","","<div style=""width:500px;"">
  <p>How much control did you have over the ball?</p>
  </div>","0","html-slider-response","60","726058","0.0-7.0-2.9","107","1","2025-07-31 08:18:09","36c45c0696341be0efffe67d72a12abb","86.1.242.218","Mozilla/5.0 (Macintosh; Intel Mac OS X 10_15_7) AppleWebKit/537.36 (KHTML, like Gecko) Chrome/137.0.0.0 Safari/537.36","Macintosh","Chrome","137.0.0.0","OS X","10_15_7","https://app.prolific.com/","en-GB,en-US;q=0.9,en;q=0.8","6620f5de5edae6e60f556986","683dba9a53627eb9ab41b36a","688b26a3c93366dd52a32794","0","6620f5de5edae6e60f556986","0","2025-07-31T08:30:16.416Z","","","","ControlQ","","","","","","","","","","","50","","","","","","","","","","","","","","","","","","","","","","","","","","",""
"2249","","<div style=""width:500px;"">
  <p>How would you describe your current emotional state?</p>
  </div>","63","html-slider-response","61","728308","0.0-7.0-3.9","107","1","2025-07-31 08:18:09","36c45c0696341be0efffe67d72a12abb","86.1.242.218","Mozilla/5.0 (Macintosh; Intel Mac OS X 10_15_7) AppleWebKit/537.36 (KHTML, like Gecko) Chrome/137.0.0.0 Safari/537.36","Macintosh","Chrome","137.0.0.0","OS X","10_15_7","https://app.prolific.com/","en-GB,en-US;q=0.9,en;q=0.8","6620f5de5edae6e60f556986","683dba9a53627eb9ab41b36a","688b26a3c93366dd52a32794","0","6620f5de5edae6e60f556986","0","2025-07-31T08:30:18.665Z","","","","StressQ","","","","","","","","","","","50","","","","","","","","","","","","","","","","","","","","","","","","","","",""
"1866","","<div style=""width:500px;"">
  <p>What best describes how you currently feel?</p>
  </div>","0","html-slider-response","62","730174","0.0-7.0-4.9","107","1","2025-07-31 08:18:09","36c45c0696341be0efffe67d72a12abb","86.1.242.218","Mozilla/5.0 (Macintosh; Intel Mac OS X 10_15_7) AppleWebKit/537.36 (KHTML, like Gecko) Chrome/137.0.0.0 Safari/537.36","Macintosh","Chrome","137.0.0.0","OS X","10_15_7","https://app.prolific.com/","en-GB,en-US;q=0.9,en;q=0.8","6620f5de5edae6e60f556986","683dba9a53627eb9ab41b36a","688b26a3c93366dd52a32794","0","6620f5de5edae6e60f556986","0","2025-07-31T08:30:20.531Z","","","","MotivationQ","","","","","","","","","","","50","","","","","","","","","","","","","","","","","","","","","","","","","","",""
"","","","","ctl-task-cpt","63","782438","0.0-7.0-0.10","107","1","2025-07-31 08:18:09","36c45c0696341be0efffe67d72a12abb","86.1.242.218","Mozilla/5.0 (Macintosh; Intel Mac OS X 10_15_7) AppleWebKit/537.36 (KHTML, like Gecko) Chrome/137.0.0.0 Safari/537.36","Macintosh","Chrome","137.0.0.0","OS X","10_15_7","https://app.prolific.com/","en-GB,en-US;q=0.9,en;q=0.8","6620f5de5edae6e60f556986","683dba9a53627eb9ab41b36a","688b26a3c93366dd52a32794","0","6620f5de5edae6e60f556986","0","2025-07-31T08:31:12.795Z","","","","","","","","","","","","","","","","win-only","3","g1:SW,g2:NE","0.6","11","0","731423.3","1466.5","6470.7","49256.5","1","4","4","6","2","-4","-4","0","0","0","2516.2","3000","-2085","[""up"",""right""]","{""num_key_presses"":11,""num_perfect"":6,""num_errors"":0,""num_randdir"":5,""num_randdir_good_moves"":1,""num_whilered"":0,""num_whileblue"":0,""num_blue"":2,""num_good_moves"":7}","[804,821.796875,0.2,804,821.796875,102.3,804,821.796875,219,804,821.796875,325.5,804,821.796875,432.2,804,821.796875,533.7,804,821.796875,634.1,804,821.796875,738.4,804,821.796875,841.6,822,809.796875,942.3,1270,509.796875,1050.1,1270,509.796875,1153.8,1270,509.796875,1254.6,1434,201.796875,1359.5,1446,189.796875,1461.7,1446,189.796875,1564,1446,189.796875,1667.7,1446,189.796875,1769,1446,189.796875,1873.2,1446,189.796875,1973.7,1446,187.796875,2076.9,1446,187.796875,2177.3,1446,187.796875,2285.9,1446,187.796875,2388.4,1446,187.796875,2489.7,1446,187.796875,2594.5,1446,187.796875,2701.2,1446,187.796875,2801.6,1446,187.796875,2902.4,1446,187.796875,3006.6,1446,187.796875,3112.5,1446,187.796875,3214.5,1446,187.796875,3318.7,1446,187.796875,3426.1,1446,187.796875,3530.8,1446,187.796875,3635.3,1446,187.796875,3739.2,1446,187.796875,3844.2,1446,187.796875,3949.7,1446,187.796875,4056.6,1446,187.796875,4163.5,1446,187.796875,4268,1446,187.796875,4369.4,1446,187.796875,4474.3,1446,187.796875,4574.4,1446,187.796875,4676.4,1446,187.796875,4785.9,1446,187.796875,4887,1446,187.796875,4988.9]","[1406.8,1406.8,1000,0,406.8,""smooth"",""right"",""right"",""good_move"",4471.6,3064.5,2725.6,1407.1,338.9,""smooth"",""right"",""right"",""good_move"",7139.3,2667.5,2330.3,4471.8,337.2,""oops"",""right"",""right"",""good_move"",10395.2,3255.9,2926.7,7139.3,329.2,""oops"",""up"",""down"",""bad_move"",13592.2,3197,2861.6,10395.2,335.4,""smooth"",""up"",""up"",""good_move"",16334.3,2741.8,2351.3,13592.5,390.5,""smooth"",""up"",""up"",""good_move"",19606.2,3271.8,2963.9,16334.4,307.9,""smooth"",""up"",""up"",""good_move"",22106.6,2500.3,2138.4,19606.4,361.8,""oops"",""up"",""down"",""bad_move"",29655,7548.2,2966.7,26288.4,399.9,""smooth"",""up"",""up"",""good_move"",35626.6,5971.5,2780.8,32444.2,401.6,""oops"",""up"",""down"",""bad_move"",39483.4,3856.6,3509.3,35626.8,347.3,""oops"",""up"",""down"",""bad_move""]"
"1885","","<div style=""width:500px;"">
  <p>What determined the result of this run?</p>
  </div>","1","html-slider-response","64","784323","0.0-7.0-1.10","107","1","2025-07-31 08:18:09","36c45c0696341be0efffe67d72a12abb","86.1.242.218","Mozilla/5.0 (Macintosh; Intel Mac OS X 10_15_7) AppleWebKit/537.36 (KHTML, like Gecko) Chrome/137.0.0.0 Safari/537.36","Macintosh","Chrome","137.0.0.0","OS X","10_15_7","https://app.prolific.com/","en-GB,en-US;q=0.9,en;q=0.8","6620f5de5edae6e60f556986","683dba9a53627eb9ab41b36a","688b26a3c93366dd52a32794","0","6620f5de5edae6e60f556986","0","2025-07-31T08:31:14.680Z","","","","AttribQ","","","","","","","","","","","50","","","","","","","","","","","","","","","","","","","","","","","","","","",""
"1549","","<div style=""width:500px;"">
  <p>How much control did you have over the ball?</p>
  </div>","0","html-slider-response","65","785872","0.0-7.0-2.10","107","1","2025-07-31 08:18:09","36c45c0696341be0efffe67d72a12abb","86.1.242.218","Mozilla/5.0 (Macintosh; Intel Mac OS X 10_15_7) AppleWebKit/537.36 (KHTML, like Gecko) Chrome/137.0.0.0 Safari/537.36","Macintosh","Chrome","137.0.0.0","OS X","10_15_7","https://app.prolific.com/","en-GB,en-US;q=0.9,en;q=0.8","6620f5de5edae6e60f556986","683dba9a53627eb9ab41b36a","688b26a3c93366dd52a32794","0","6620f5de5edae6e60f556986","0","2025-07-31T08:31:16.229Z","","","","ControlQ","","","","","","","","","","","50","","","","","","","","","","","","","","","","","","","","","","","","","","",""
"1749","","<div style=""width:500px;"">
  <p>How would you describe your current emotional state?</p>
  </div>","54","html-slider-response","66","787622","0.0-7.0-3.10","107","1","2025-07-31 08:18:09","36c45c0696341be0efffe67d72a12abb","86.1.242.218","Mozilla/5.0 (Macintosh; Intel Mac OS X 10_15_7) AppleWebKit/537.36 (KHTML, like Gecko) Chrome/137.0.0.0 Safari/537.36","Macintosh","Chrome","137.0.0.0","OS X","10_15_7","https://app.prolific.com/","en-GB,en-US;q=0.9,en;q=0.8","6620f5de5edae6e60f556986","683dba9a53627eb9ab41b36a","688b26a3c93366dd52a32794","0","6620f5de5edae6e60f556986","0","2025-07-31T08:31:17.979Z","","","","StressQ","","","","","","","","","","","50","","","","","","","","","","","","","","","","","","","","","","","","","","",""
"1600","","<div style=""width:500px;"">
  <p>What best describes how you currently feel?</p>
  </div>","0","html-slider-response","67","789222","0.0-7.0-4.10","107","1","2025-07-31 08:18:09","36c45c0696341be0efffe67d72a12abb","86.1.242.218","Mozilla/5.0 (Macintosh; Intel Mac OS X 10_15_7) AppleWebKit/537.36 (KHTML, like Gecko) Chrome/137.0.0.0 Safari/537.36","Macintosh","Chrome","137.0.0.0","OS X","10_15_7","https://app.prolific.com/","en-GB,en-US;q=0.9,en;q=0.8","6620f5de5edae6e60f556986","683dba9a53627eb9ab41b36a","688b26a3c93366dd52a32794","0","6620f5de5edae6e60f556986","0","2025-07-31T08:31:19.579Z","","","","MotivationQ","","","","","","","","","","","50","","","","","","","","","","","","","","","","","","","","","","","","","","",""
"","","","","ctl-task-cpt","68","816226","0.0-7.0-0.11","107","1","2025-07-31 08:18:09","36c45c0696341be0efffe67d72a12abb","86.1.242.218","Mozilla/5.0 (Macintosh; Intel Mac OS X 10_15_7) AppleWebKit/537.36 (KHTML, like Gecko) Chrome/137.0.0.0 Safari/537.36","Macintosh","Chrome","137.0.0.0","OS X","10_15_7","https://app.prolific.com/","en-GB,en-US;q=0.9,en;q=0.8","6620f5de5edae6e60f556986","683dba9a53627eb9ab41b36a","688b26a3c93366dd52a32794","0","6620f5de5edae6e60f556986","0","2025-07-31T08:31:46.583Z","","","","","","","","","","","","","","","","win-only","1","g1:NE,g2:SW","0.7","12","0","790473.7","2231.9","7235.3","23990.2","1","4","8","6","1","1","1","1","0","0.007575757575757576","1550.1","3000","1645","[""up"",""right""]","{""num_key_presses"":4,""num_perfect"":4,""num_errors"":0,""num_randdir"":0,""num_randdir_good_moves"":0,""num_whilered"":0,""num_whileblue"":0,""num_blue"":2,""num_good_moves"":4}","[804,815.796875,0.1,804,815.796875,107.9,804,815.796875,218.8,804,815.796875,329.9,804,815.796875,433.7,658,883.796875,539.2,282,1211.796875,643.3,282,1211.796875,751.6,498,1027.796875,854.8,1128,535.796875,964.7,1128,535.796875,1068.7,1158,493.796875,1170.6,1342,283.796875,1272.7,1354,277.796875,1381.7,1488,147.796875,1486.5,1508,121.796875,1608.1,1508,121.796875,1708.3,1508,121.796875,1809.2,1508,121.796875,1909.3,1508,121.796875,2018.3,1508,121.796875,2119.3,1508,121.796875,2230.8,1508,121.796875,2332.9,1508,121.796875,2433.4,1508,121.796875,2534.1,1508,121.796875,2638.6,1508,121.796875,2747.4,1508,121.796875,2858,1508,121.796875,2958.9,1508,121.796875,3058.9,1508,121.796875,3164.2,1508,121.796875,3269.6,1508,121.796875,3369.9,1508,121.796875,3473.3,1508,121.796875,3573.4,1508,121.796875,3674.1,1508,121.796875,3778.5,1508,121.796875,3878.5,1508,121.796875,3980.3,1508,121.796875,4080.4,1508,121.796875,4183.8,1508,121.796875,4288.7,1508,121.796875,4388.7,1508,121.796875,4498.5,1508,121.796875,4599.9,1508,121.796875,4707.7,1508,121.796875,4808.6,1508,121.796875,4909]","[1447.2,1447.2,1000,0,447.2,""smooth"",""up"",""up"",""good_move"",7635.6,6188.2,2675,4485.1,475.5,""smooth"",""right"",""right"",""good_move"",14018.5,6382.5,3089.8,10645.5,283.2,""smooth"",""up"",""up"",""good_move"",16578.8,2560.2,2020.4,14018.7,539.7,""smooth"",""right"",""right"",""good_move""]"
"1744","","<div style=""width:500px;"">
  <p>What determined the result of this run?</p>
  </div>","1","html-slider-response","69","817971","0.0-7.0-1.11","107","1","2025-07-31 08:18:09","36c45c0696341be0efffe67d72a12abb","86.1.242.218","Mozilla/5.0 (Macintosh; Intel Mac OS X 10_15_7) AppleWebKit/537.36 (KHTML, like Gecko) Chrome/137.0.0.0 Safari/537.36","Macintosh","Chrome","137.0.0.0","OS X","10_15_7","https://app.prolific.com/","en-GB,en-US;q=0.9,en;q=0.8","6620f5de5edae6e60f556986","683dba9a53627eb9ab41b36a","688b26a3c93366dd52a32794","0","6620f5de5edae6e60f556986","0","2025-07-31T08:31:48.328Z","","","","AttribQ","","","","","","","","","","","50","","","","","","","","","","","","","","","","","","","","","","","","","","",""
"1817","","<div style=""width:500px;"">
  <p>How much control did you have over the ball?</p>
  </div>","0","html-slider-response","70","819788","0.0-7.0-2.11","107","1","2025-07-31 08:18:09","36c45c0696341be0efffe67d72a12abb","86.1.242.218","Mozilla/5.0 (Macintosh; Intel Mac OS X 10_15_7) AppleWebKit/537.36 (KHTML, like Gecko) Chrome/137.0.0.0 Safari/537.36","Macintosh","Chrome","137.0.0.0","OS X","10_15_7","https://app.prolific.com/","en-GB,en-US;q=0.9,en;q=0.8","6620f5de5edae6e60f556986","683dba9a53627eb9ab41b36a","688b26a3c93366dd52a32794","0","6620f5de5edae6e60f556986","0","2025-07-31T08:31:50.145Z","","","","ControlQ","","","","","","","","","","","50","","","","","","","","","","","","","","","","","","","","","","","","","","",""
"2415","","<div style=""width:500px;"">
  <p>How would you describe your current emotional state?</p>
  </div>","53","html-slider-response","71","822204","0.0-7.0-3.11","107","1","2025-07-31 08:18:09","36c45c0696341be0efffe67d72a12abb","86.1.242.218","Mozilla/5.0 (Macintosh; Intel Mac OS X 10_15_7) AppleWebKit/537.36 (KHTML, like Gecko) Chrome/137.0.0.0 Safari/537.36","Macintosh","Chrome","137.0.0.0","OS X","10_15_7","https://app.prolific.com/","en-GB,en-US;q=0.9,en;q=0.8","6620f5de5edae6e60f556986","683dba9a53627eb9ab41b36a","688b26a3c93366dd52a32794","0","6620f5de5edae6e60f556986","0","2025-07-31T08:31:52.561Z","","","","StressQ","","","","","","","","","","","50","","","","","","","","","","","","","","","","","","","","","","","","","","",""
"2349","","<div style=""width:500px;"">
  <p>What best describes how you currently feel?</p>
  </div>","1","html-slider-response","72","824554","0.0-7.0-4.11","107","1","2025-07-31 08:18:09","36c45c0696341be0efffe67d72a12abb","86.1.242.218","Mozilla/5.0 (Macintosh; Intel Mac OS X 10_15_7) AppleWebKit/537.36 (KHTML, like Gecko) Chrome/137.0.0.0 Safari/537.36","Macintosh","Chrome","137.0.0.0","OS X","10_15_7","https://app.prolific.com/","en-GB,en-US;q=0.9,en;q=0.8","6620f5de5edae6e60f556986","683dba9a53627eb9ab41b36a","688b26a3c93366dd52a32794","0","6620f5de5edae6e60f556986","0","2025-07-31T08:31:54.911Z","","","","MotivationQ","","","","","","","","","","","50","","","","","","","","","","","","","","","","","","","","","","","","","","",""
"","","","","ctl-task-cpt","73","848261","0.0-7.0-0.12","107","1","2025-07-31 08:18:09","36c45c0696341be0efffe67d72a12abb","86.1.242.218","Mozilla/5.0 (Macintosh; Intel Mac OS X 10_15_7) AppleWebKit/537.36 (KHTML, like Gecko) Chrome/137.0.0.0 Safari/537.36","Macintosh","Chrome","137.0.0.0","OS X","10_15_7","https://app.prolific.com/","en-GB,en-US;q=0.9,en;q=0.8","6620f5de5edae6e60f556986","683dba9a53627eb9ab41b36a","688b26a3c93366dd52a32794","0","6620f5de5edae6e60f556986","0","2025-07-31T08:32:18.618Z","","","","","","","","","","","","","","","","win-only","2","g1:SE,g2:NW","0.8","13","0","825807.1","882","5888.9","20686.8","1","4","4","6","1","1","1","2","1","0.015151515151515152","834","3000","1850","[""down"",""right""]","{""num_key_presses"":4,""num_perfect"":3,""num_errors"":0,""num_randdir"":1,""num_randdir_good_moves"":1,""num_whilered"":0,""num_whileblue"":0,""num_blue"":1,""num_good_moves"":4}","[816,795.796875,0.1,816,795.796875,127.1,816,795.796875,227.9,802,785.796875,336,664,549.796875,439.1,1108,865.796875,543.1,1490,1615.796875,643.7,1490,1615.796875,751.3,1490,1615.796875,866,1490,1615.796875,968.5,1490,1615.796875,1073.9,1490,1615.796875,1178.7,1490,1615.796875,1280.3,1490,1615.796875,1391.5,1490,1615.796875,1498.2,1490,1615.796875,1599.2,1490,1615.796875,1703.8,1490,1615.796875,1808.3,1490,1615.796875,1914.3,1490,1615.796875,2023.8,1490,1615.796875,2135,1490,1615.796875,2238.3,1490,1615.796875,2338.3,1490,1615.796875,2438.7,1490,1615.796875,2543.8,1490,1615.796875,2651.6,1490,1615.796875,2753.2,1490,1615.796875,2858.9,1490,1615.796875,2958.9,1490,1615.796875,3064.1,1490,1615.796875,3164.7,1490,1615.796875,3274.7,1490,1615.796875,3383.3,1490,1615.796875,3483.8,1490,1615.796875,3588.1,1490,1615.796875,3689.2,1490,1615.796875,3798.7,1490,1615.796875,3909.1,1490,1615.796875,4011.9,1490,1615.796875,4113.4,1490,1615.796875,4213.5,1490,1615.796875,4317.3,1490,1615.796875,4418.3,1490,1615.796875,4527.4,1490,1615.796875,4638.3,1490,1615.796875,4739.2,1490,1615.796875,4843.7,1490,1615.796875,4944]","[1423.8,1423.8,1000,0,423.8,""smooth"",""right"",""right"",""good_move"",4695.4,3271.3,2923.7,1424.1,347.6,""smooth"",""down"",""down"",""good_move"",11264.7,6569.1,2447.4,8398.3,419,""oops"",""down"",""down"",""good_move"",14579.6,3314.6,2935.9,11265,378.7,""smooth"",""right"",""right"",""good_move""]"
"3108","","<div style=""width:500px;"">
  <p>What determined the result of this run?</p>
  </div>","2","html-slider-response","74","851370","0.0-7.0-1.12","107","1","2025-07-31 08:18:09","36c45c0696341be0efffe67d72a12abb","86.1.242.218","Mozilla/5.0 (Macintosh; Intel Mac OS X 10_15_7) AppleWebKit/537.36 (KHTML, like Gecko) Chrome/137.0.0.0 Safari/537.36","Macintosh","Chrome","137.0.0.0","OS X","10_15_7","https://app.prolific.com/","en-GB,en-US;q=0.9,en;q=0.8","6620f5de5edae6e60f556986","683dba9a53627eb9ab41b36a","688b26a3c93366dd52a32794","0","6620f5de5edae6e60f556986","0","2025-07-31T08:32:21.728Z","","","","AttribQ","","","","","","","","","","","50","","","","","","","","","","","","","","","","","","","","","","","","","","",""
"1501","","<div style=""width:500px;"">
  <p>How much control did you have over the ball?</p>
  </div>","2","html-slider-response","75","852872","0.0-7.0-2.12","107","1","2025-07-31 08:18:09","36c45c0696341be0efffe67d72a12abb","86.1.242.218","Mozilla/5.0 (Macintosh; Intel Mac OS X 10_15_7) AppleWebKit/537.36 (KHTML, like Gecko) Chrome/137.0.0.0 Safari/537.36","Macintosh","Chrome","137.0.0.0","OS X","10_15_7","https://app.prolific.com/","en-GB,en-US;q=0.9,en;q=0.8","6620f5de5edae6e60f556986","683dba9a53627eb9ab41b36a","688b26a3c93366dd52a32794","0","6620f5de5edae6e60f556986","0","2025-07-31T08:32:23.229Z","","","","ControlQ","","","","","","","","","","","50","","","","","","","","","","","","","","","","","","","","","","","","","","",""
"1980","","<div style=""width:500px;"">
  <p>How would you describe your current emotional state?</p>
  </div>","53","html-slider-response","76","854852","0.0-7.0-3.12","107","1","2025-07-31 08:18:09","36c45c0696341be0efffe67d72a12abb","86.1.242.218","Mozilla/5.0 (Macintosh; Intel Mac OS X 10_15_7) AppleWebKit/537.36 (KHTML, like Gecko) Chrome/137.0.0.0 Safari/537.36","Macintosh","Chrome","137.0.0.0","OS X","10_15_7","https://app.prolific.com/","en-GB,en-US;q=0.9,en;q=0.8","6620f5de5edae6e60f556986","683dba9a53627eb9ab41b36a","688b26a3c93366dd52a32794","0","6620f5de5edae6e60f556986","0","2025-07-31T08:32:25.209Z","","","","StressQ","","","","","","","","","","","50","","","","","","","","","","","","","","","","","","","","","","","","","","",""
"1567","","<div style=""width:500px;"">
  <p>What best describes how you currently feel?</p>
  </div>","6","html-slider-response","77","856420","0.0-7.0-4.12","107","1","2025-07-31 08:18:09","36c45c0696341be0efffe67d72a12abb","86.1.242.218","Mozilla/5.0 (Macintosh; Intel Mac OS X 10_15_7) AppleWebKit/537.36 (KHTML, like Gecko) Chrome/137.0.0.0 Safari/537.36","Macintosh","Chrome","137.0.0.0","OS X","10_15_7","https://app.prolific.com/","en-GB,en-US;q=0.9,en;q=0.8","6620f5de5edae6e60f556986","683dba9a53627eb9ab41b36a","688b26a3c93366dd52a32794","0","6620f5de5edae6e60f556986","0","2025-07-31T08:32:26.777Z","","","","MotivationQ","","","","","","","","","","","50","","","","","","","","","","","","","","","","","","","","","","","","","","",""
"","","","","ctl-task-cpt","78","874310","0.0-7.0-0.13","107","1","2025-07-31 08:18:09","36c45c0696341be0efffe67d72a12abb","86.1.242.218","Mozilla/5.0 (Macintosh; Intel Mac OS X 10_15_7) AppleWebKit/537.36 (KHTML, like Gecko) Chrome/137.0.0.0 Safari/537.36","Macintosh","Chrome","137.0.0.0","OS X","10_15_7","https://app.prolific.com/","en-GB,en-US;q=0.9,en;q=0.8","6620f5de5edae6e60f556986","683dba9a53627eb9ab41b36a","688b26a3c93366dd52a32794","0","6620f5de5edae6e60f556986","0","2025-07-31T08:32:44.667Z","","","","","","","","","","","","","","","","win-only","2","g1:SE,g2:NW","0.9","14","0","857674.1","682.4","5682.9","14880.3","1","4","8","6","1","1","1","3","2","0.022727272727272728","983","3000","2135","[""down"",""right""]","{""num_key_presses"":4,""num_perfect"":4,""num_errors"":0,""num_randdir"":0,""num_randdir_good_moves"":0,""num_whilered"":0,""num_whileblue"":0,""num_blue"":0,""num_good_moves"":4}","[812,823.796875,0,810,823.796875,103.9,810,823.796875,208.8,810,823.796875,313.1,798,831.796875,413.3,1062,1195.796875,519.5,1176,1283.796875,625.4,1184,1287.796875,728.2,1404,1427.796875,828.6,1488,1489.796875,928.7,1492,1495.796875,1031.5,1490,1495.796875,1137,1490,1495.796875,1245.7,1490,1495.796875,1348.9,1490,1495.796875,1453.1,1490,1495.796875,1560.8,1490,1495.796875,1666.9,1490,1495.796875,1771.6,1490,1495.796875,1872.3,1490,1495.796875,1973.3,1490,1495.796875,2078.8,1490,1495.796875,2183.3,1490,1495.796875,2298.2,1490,1495.796875,2402.3,1490,1495.796875,2508.6,1490,1495.796875,2613.8,1490,1495.796875,2713.8,1490,1495.796875,2818.3,1490,1495.796875,2930.3,1490,1495.796875,3036.5,1490,1495.796875,3136.7,1490,1495.796875,3245.4,1490,1495.796875,3348,1490,1495.796875,3448.1,1490,1495.796875,3552.7,1490,1495.796875,3655.7,1490,1495.796875,3760.9,1490,1495.796875,3863.5,1490,1495.796875,3968.1,1490,1495.796875,4069,1490,1495.796875,4170.2,1490,1495.796875,4274.1,1490,1495.796875,4377.4,1490,1495.796875,4479.1,1490,1495.796875,4582.9,1490,1495.796875,4688,1490,1495.796875,4788.8,1490,1495.796875,4890]","[1490.5,1490.5,1000,0,490.5,""smooth"",""right"",""right"",""good_move"",3829.3,2338.4,2009.3,1490.9,329.1,""smooth"",""down"",""down"",""good_move"",5769.6,1940.2,1550.2,3829.4,390,""smooth"",""down"",""down"",""good_move"",9070.4,3300.6,3006.7,5769.8,293.9,""smooth"",""right"",""right"",""good_move""]"
"5041","","<div style=""width:500px;"">
  <p>What determined the result of this run?</p>
  </div>","3","html-slider-response","79","879352","0.0-7.0-1.13","107","1","2025-07-31 08:18:09","36c45c0696341be0efffe67d72a12abb","86.1.242.218","Mozilla/5.0 (Macintosh; Intel Mac OS X 10_15_7) AppleWebKit/537.36 (KHTML, like Gecko) Chrome/137.0.0.0 Safari/537.36","Macintosh","Chrome","137.0.0.0","OS X","10_15_7","https://app.prolific.com/","en-GB,en-US;q=0.9,en;q=0.8","6620f5de5edae6e60f556986","683dba9a53627eb9ab41b36a","688b26a3c93366dd52a32794","0","6620f5de5edae6e60f556986","0","2025-07-31T08:32:49.709Z","","","","AttribQ","","","","","","","","","","","50","","","","","","","","","","","","","","","","","","","","","","","","","","",""
"1400","","<div style=""width:500px;"">
  <p>How much control did you have over the ball?</p>
  </div>","4","html-slider-response","80","880752","0.0-7.0-2.13","107","1","2025-07-31 08:18:09","36c45c0696341be0efffe67d72a12abb","86.1.242.218","Mozilla/5.0 (Macintosh; Intel Mac OS X 10_15_7) AppleWebKit/537.36 (KHTML, like Gecko) Chrome/137.0.0.0 Safari/537.36","Macintosh","Chrome","137.0.0.0","OS X","10_15_7","https://app.prolific.com/","en-GB,en-US;q=0.9,en;q=0.8","6620f5de5edae6e60f556986","683dba9a53627eb9ab41b36a","688b26a3c93366dd52a32794","0","6620f5de5edae6e60f556986","0","2025-07-31T08:32:51.109Z","","","","ControlQ","","","","","","","","","","","50","","","","","","","","","","","","","","","","","","","","","","","","","","",""
"4000","","<div style=""width:500px;"">
  <p>How would you describe your current emotional state?</p>
  </div>","34","html-slider-response","81","884752","0.0-7.0-3.13","107","1","2025-07-31 08:18:09","36c45c0696341be0efffe67d72a12abb","86.1.242.218","Mozilla/5.0 (Macintosh; Intel Mac OS X 10_15_7) AppleWebKit/537.36 (KHTML, like Gecko) Chrome/137.0.0.0 Safari/537.36","Macintosh","Chrome","137.0.0.0","OS X","10_15_7","https://app.prolific.com/","en-GB,en-US;q=0.9,en;q=0.8","6620f5de5edae6e60f556986","683dba9a53627eb9ab41b36a","688b26a3c93366dd52a32794","0","6620f5de5edae6e60f556986","0","2025-07-31T08:32:55.109Z","","","","StressQ","","","","","","","","","","","50","","","","","","","","","","","","","","","","","","","","","","","","","","",""
"2098","","<div style=""width:500px;"">
  <p>What best describes how you currently feel?</p>
  </div>","3","html-slider-response","82","886851","0.0-7.0-4.13","107","1","2025-07-31 08:18:09","36c45c0696341be0efffe67d72a12abb","86.1.242.218","Mozilla/5.0 (Macintosh; Intel Mac OS X 10_15_7) AppleWebKit/537.36 (KHTML, like Gecko) Chrome/137.0.0.0 Safari/537.36","Macintosh","Chrome","137.0.0.0","OS X","10_15_7","https://app.prolific.com/","en-GB,en-US;q=0.9,en;q=0.8","6620f5de5edae6e60f556986","683dba9a53627eb9ab41b36a","688b26a3c93366dd52a32794","0","6620f5de5edae6e60f556986","0","2025-07-31T08:32:57.208Z","","","","MotivationQ","","","","","","","","","","","50","","","","","","","","","","","","","","","","","","","","","","","","","","",""
"","","","","ctl-task-cpt","83","910427","0.0-7.0-0.14","107","1","2025-07-31 08:18:09","36c45c0696341be0efffe67d72a12abb","86.1.242.218","Mozilla/5.0 (Macintosh; Intel Mac OS X 10_15_7) AppleWebKit/537.36 (KHTML, like Gecko) Chrome/137.0.0.0 Safari/537.36","Macintosh","Chrome","137.0.0.0","OS X","10_15_7","https://app.prolific.com/","en-GB,en-US;q=0.9,en;q=0.8","6620f5de5edae6e60f556986","683dba9a53627eb9ab41b36a","688b26a3c93366dd52a32794","0","6620f5de5edae6e60f556986","0","2025-07-31T08:33:20.784Z","","","","","","","","","","","","","","","","win-only","3","g1:SW,g2:NE","1","15","0","888106.1","1099.5","6105.3","20557.2","1","4","4","6","1","1","1","4","3","0.030303030303030304","867.6","3000","2080","[""down"",""left""]","{""num_key_presses"":4,""num_perfect"":4,""num_errors"":0,""num_randdir"":0,""num_randdir_good_moves"":0,""num_whilered"":0,""num_whileblue"":0,""num_blue"":1,""num_good_moves"":4}","[804,793.796875,0.1,804,793.796875,101.2,804,793.796875,201.9,804,793.796875,306.2,802,801.796875,411.1,488,1305.796875,511.9,422,1407.796875,616.9,374,1415.796875,722.8,142,1481.796875,826.2,134,1485.796875,931.7,134,1485.796875,1043.5,134,1485.796875,1146.9,134,1485.796875,1260.5,134,1485.796875,1361.9,134,1485.796875,1462.4,134,1485.796875,1566.1,134,1485.796875,1674.1,134,1485.796875,1781.9,134,1485.796875,1894.4,134,1485.796875,1996.4,134,1485.796875,2096.7,134,1485.796875,2197,134,1485.796875,2304.6,134,1485.796875,2405.7,134,1485.796875,2515.6,134,1485.796875,2616.9,134,1485.796875,2725,134,1485.796875,2826.3,134,1485.796875,2932.9,134,1485.796875,3041.1,134,1485.796875,3152.8,134,1485.796875,3258.2,134,1485.796875,3361.2,134,1485.796875,3462.1,134,1485.796875,3575.6,134,1485.796875,3681.7,134,1485.796875,3792.2,134,1485.796875,3897,134,1485.796875,4001,134,1485.796875,4101.9,134,1485.796875,4205.5,134,1485.796875,4317,134,1485.796875,4421.6,134,1485.796875,4526.4,134,1485.796875,4626.5,134,1485.796875,4731.8,134,1485.796875,4841.6,134,1485.796875,4950]","[1390.4,1390.5,1000,0,390.5,""smooth"",""down"",""down"",""good_move"",4086.7,2696.1,2384.3,1390.6,311.8,""smooth"",""down"",""down"",""good_move"",10707.5,6620.6,2296.9,8018.7,391.9,""smooth"",""left"",""left"",""good_move"",14213.7,3505.9,3163.7,10707.8,342.2,""smooth"",""left"",""left"",""good_move""]"
"2906","","<div style=""width:500px;"">
  <p>What determined the result of this run?</p>
  </div>","4","html-slider-response","84","913334","0.0-7.0-1.14","107","1","2025-07-31 08:18:09","36c45c0696341be0efffe67d72a12abb","86.1.242.218","Mozilla/5.0 (Macintosh; Intel Mac OS X 10_15_7) AppleWebKit/537.36 (KHTML, like Gecko) Chrome/137.0.0.0 Safari/537.36","Macintosh","Chrome","137.0.0.0","OS X","10_15_7","https://app.prolific.com/","en-GB,en-US;q=0.9,en;q=0.8","6620f5de5edae6e60f556986","683dba9a53627eb9ab41b36a","688b26a3c93366dd52a32794","0","6620f5de5edae6e60f556986","0","2025-07-31T08:33:23.691Z","","","","AttribQ","","","","","","","","","","","50","","","","","","","","","","","","","","","","","","","","","","","","","","",""
"1367","","<div style=""width:500px;"">
  <p>How much control did you have over the ball?</p>
  </div>","3","html-slider-response","85","914702","0.0-7.0-2.14","107","1","2025-07-31 08:18:09","36c45c0696341be0efffe67d72a12abb","86.1.242.218","Mozilla/5.0 (Macintosh; Intel Mac OS X 10_15_7) AppleWebKit/537.36 (KHTML, like Gecko) Chrome/137.0.0.0 Safari/537.36","Macintosh","Chrome","137.0.0.0","OS X","10_15_7","https://app.prolific.com/","en-GB,en-US;q=0.9,en;q=0.8","6620f5de5edae6e60f556986","683dba9a53627eb9ab41b36a","688b26a3c93366dd52a32794","0","6620f5de5edae6e60f556986","0","2025-07-31T08:33:25.059Z","","","","ControlQ","","","","","","","","","","","50","","","","","","","","","","","","","","","","","","","","","","","","","","",""
"1415","","<div style=""width:500px;"">
  <p>How would you describe your current emotional state?</p>
  </div>","34","html-slider-response","86","916118","0.0-7.0-3.14","107","1","2025-07-31 08:18:09","36c45c0696341be0efffe67d72a12abb","86.1.242.218","Mozilla/5.0 (Macintosh; Intel Mac OS X 10_15_7) AppleWebKit/537.36 (KHTML, like Gecko) Chrome/137.0.0.0 Safari/537.36","Macintosh","Chrome","137.0.0.0","OS X","10_15_7","https://app.prolific.com/","en-GB,en-US;q=0.9,en;q=0.8","6620f5de5edae6e60f556986","683dba9a53627eb9ab41b36a","688b26a3c93366dd52a32794","0","6620f5de5edae6e60f556986","0","2025-07-31T08:33:26.475Z","","","","StressQ","","","","","","","","","","","50","","","","","","","","","","","","","","","","","","","","","","","","","","",""
"1999","","<div style=""width:500px;"">
  <p>What best describes how you currently feel?</p>
  </div>","3","html-slider-response","87","918117","0.0-7.0-4.14","107","1","2025-07-31 08:18:09","36c45c0696341be0efffe67d72a12abb","86.1.242.218","Mozilla/5.0 (Macintosh; Intel Mac OS X 10_15_7) AppleWebKit/537.36 (KHTML, like Gecko) Chrome/137.0.0.0 Safari/537.36","Macintosh","Chrome","137.0.0.0","OS X","10_15_7","https://app.prolific.com/","en-GB,en-US;q=0.9,en;q=0.8","6620f5de5edae6e60f556986","683dba9a53627eb9ab41b36a","688b26a3c93366dd52a32794","0","6620f5de5edae6e60f556986","0","2025-07-31T08:33:28.474Z","","","","MotivationQ","","","","","","","","","","","50","","","","","","","","","","","","","","","","","","","","","","","","","","",""
"","","","","ctl-task-cpt","88","936260","0.0-7.0-0.15","107","1","2025-07-31 08:18:09","36c45c0696341be0efffe67d72a12abb","86.1.242.218","Mozilla/5.0 (Macintosh; Intel Mac OS X 10_15_7) AppleWebKit/537.36 (KHTML, like Gecko) Chrome/137.0.0.0 Safari/537.36","Macintosh","Chrome","137.0.0.0","OS X","10_15_7","https://app.prolific.com/","en-GB,en-US;q=0.9,en;q=0.8","6620f5de5edae6e60f556986","683dba9a53627eb9ab41b36a","688b26a3c93366dd52a32794","0","6620f5de5edae6e60f556986","0","2025-07-31T08:33:46.617Z","","","","","","","","","","","","","","","","win-only","0","g1:NW,g2:SE","0.8","16","0","919373","598.1","5601.4","15125.6","1","4","8","6","1","1","1","5","4","0.03787878787878788","1151.5","3000","2075","[""left"",""up""]","{""num_key_presses"":4,""num_perfect"":4,""num_errors"":0,""num_randdir"":0,""num_randdir_good_moves"":0,""num_whilered"":0,""num_whileblue"":0,""num_blue"":0,""num_good_moves"":4}","[828,791.796875,0.1,828,791.796875,122.1,828,791.796875,222.6,828,791.796875,322.6,822,805.796875,433.8,986,1109.796875,544.7,946,1123.796875,651.2,422,337.796875,752,422,337.796875,852.2,372,315.796875,952.2,186,179.796875,1064.2,178,173.796875,1172.9,178,173.796875,1286,178,173.796875,1387.7,178,173.796875,1493.1,178,173.796875,1597.5,178,173.796875,1708.8,178,173.796875,1815.5,178,173.796875,1920.2,178,173.796875,2021.2,178,173.796875,2122.8,178,173.796875,2225.1,178,173.796875,2337,178,173.796875,2441.9,178,173.796875,2544.8,178,173.796875,2647.7,178,173.796875,2748.1,178,173.796875,2854.9,178,173.796875,2967.9,178,173.796875,3072,178,173.796875,3174.2,178,173.796875,3277.1,178,173.796875,3377.8,178,173.796875,3477.9,178,173.796875,3585.3,178,173.796875,3699.1,178,173.796875,3805.6,178,173.796875,3907.6,178,173.796875,4007.8,178,173.796875,4108.1,178,173.796875,4217,178,173.796875,4321.4,178,173.796875,4424.2,178,173.796875,4527.9,178,173.796875,4632.7,178,173.796875,4737.7,178,173.796875,4846.7,178,173.796875,4959.3]","[1436.2,1436.2,1000,0,436.2,""smooth"",""left"",""left"",""good_move"",4069.7,2633.1,2201,1436.6,432.1,""smooth"",""left"",""left"",""good_move"",6589.1,2519.2,2163.1,4069.9,356.1,""smooth"",""up"",""up"",""good_move"",9316.7,2727.3,2395.2,6589.4,332.1,""smooth"",""up"",""up"",""good_move""]"
"10054","","<div style=""width:500px;"">
  <p>What determined the result of this run?</p>
