"rt","response_timestamp","stimulus","response","trial_type","trial_index","time_elapsed","internal_node_id","run_id","condition","recorded_at","source_code_version","ip","user_agent","device","browser","browser_version","platform","platform_version","referer","accept_language","PROLIFIC_PID","STUDY_ID","SESSION_ID","BATCH","prolific_id","batch","realtime","success","question_order","question_id","eventType","responses","item_order","radio_event_ids","radio_event_times","key_event_times","mouse_event_times","straightlining","zigzagging","honeypot","view_history","slider_start","which_type","canvas_config","goals_layout","control_level","trial_number","tutorial_trial_number","trial_start_time","phase1_start_time","phase2_start_time","phase3_start_time","goal_1_value","goal_1_distance","goal_2_value","goal_2_distance","goal_selected","outcome","outcome_total","participant_final_score","participant_initial_score","participant_final_score_prop","goal_choice_rt","allocated_time","allocated_time_remaining","goal_direction","counts","mouse_movements","key_presses"
"2776","1753919874231","<p style='font-size:40px;line-height:1.25'><strong>Welcome to the experiment!</strong></p><p style='font-size:1.1em;line-height:1.25'>Thank you for participanting in our experiment again! You will be asked to play the Dysfunctional Ball Game again. We will briefly recap the rules before we start.</p><p style='font-size:1.1em;line-height:1.25'>Press <strong>Next</strong> to continue.</p>","0","custom-html-button-response","0","2777","0.0-0.0","105","1","2025-07-30 23:57:50","36c45c0696341be0efffe67d72a12abb","51.146.189.238","Mozilla/5.0 (Macintosh; Intel Mac OS X 10_15_7) AppleWebKit/537.36 (KHTML, like Gecko) Chrome/137.0.0.0 Safari/537.36","Macintosh","Chrome","137.0.0.0","OS X","10_15_7","https://app.prolific.com/","en-GB,en-US;q=0.9,en;q=0.8","663ba5be68b9831a7ee50cfc","683dba9a53627eb9ab41b36a","688ab16894bc41d1cf49a268","0","663ba5be68b9831a7ee50cfc","0","2025-07-30T23:57:54.232Z","","","","","","","","","","","","","","","","","","","","","","","","","","","","","","","","","","","","","","","","","",""
"8681","","","","fullscreen","1","12461","0.0-1.0","105","1","2025-07-30 23:57:50","36c45c0696341be0efffe67d72a12abb","51.146.189.238","Mozilla/5.0 (Macintosh; Intel Mac OS X 10_15_7) AppleWebKit/537.36 (KHTML, like Gecko) Chrome/137.0.0.0 Safari/537.36","Macintosh","Chrome","137.0.0.0","OS X","10_15_7","https://app.prolific.com/","en-GB,en-US;q=0.9,en;q=0.8","663ba5be68b9831a7ee50cfc","683dba9a53627eb9ab41b36a","688ab16894bc41d1cf49a268","0","663ba5be68b9831a7ee50cfc","0","","true","","","","","","","","","","","","","","","","","","","","","","","","","","","","","","","","","","","","","","","","",""
"2868","1753919886785"," <p style='font-size:1.1em;line-height:1.25'>Thank you for closing all other tabs.</p><p style='font-size:1.1em;line-height:1.25'>We will now invite you to fill in some questionnaires, before starting the game.<br>This will take about 5 minutes.<br></p><p style='font-size:1.1em;line-height:1.25'>Press the <strong>Next</strong> button to continue.</p>","0","custom-html-button-response","2","15330","0.0-2.0","105","1","2025-07-30 23:57:50","36c45c0696341be0efffe67d72a12abb","51.146.189.238","Mozilla/5.0 (Macintosh; Intel Mac OS X 10_15_7) AppleWebKit/537.36 (KHTML, like Gecko) Chrome/137.0.0.0 Safari/537.36","Macintosh","Chrome","137.0.0.0","OS X","10_15_7","https://app.prolific.com/","en-GB,en-US;q=0.9,en;q=0.8","663ba5be68b9831a7ee50cfc","683dba9a53627eb9ab41b36a","688ab16894bc41d1cf49a268","0","663ba5be68b9831a7ee50cfc","0","2025-07-30T23:58:06.786Z","","","","","","","","","","","","","","","","","","","","","","","","","","","","","","","","","","","","","","","","","",""
"3354","","","{""assigned_sex"":""female""}","survey-multi-choice","3","18686","0.0-3.0-0.0","105","1","2025-07-30 23:57:50","36c45c0696341be0efffe67d72a12abb","51.146.189.238","Mozilla/5.0 (Macintosh; Intel Mac OS X 10_15_7) AppleWebKit/537.36 (KHTML, like Gecko) Chrome/137.0.0.0 Safari/537.36","Macintosh","Chrome","137.0.0.0","OS X","10_15_7","https://app.prolific.com/","en-GB,en-US;q=0.9,en;q=0.8","663ba5be68b9831a7ee50cfc","683dba9a53627eb9ab41b36a","688ab16894bc41d1cf49a268","0","663ba5be68b9831a7ee50cfc","0","","","[0]","0","demographics","","","","","","","","","","","","","","","","","","","","","","","","","","","","","","","","","","","","","",""
"3990","1753919894131","<p style='font-size:1.1em;line-height:1.25'>In the following, we will perform a baseline assessment. This means that we will ask you a few questions relating to your experiences over the past month.<br></p><p style='font-size:1.1em;line-height:1.25'>Press the <strong>Next</strong> button to continue.</p>","0","custom-html-button-response","4","22677","0.0-4.0-0.0","105","1","2025-07-30 23:57:50","36c45c0696341be0efffe67d72a12abb","51.146.189.238","Mozilla/5.0 (Macintosh; Intel Mac OS X 10_15_7) AppleWebKit/537.36 (KHTML, like Gecko) Chrome/137.0.0.0 Safari/537.36","Macintosh","Chrome","137.0.0.0","OS X","10_15_7","https://app.prolific.com/","en-GB,en-US;q=0.9,en;q=0.8","663ba5be68b9831a7ee50cfc","683dba9a53627eb9ab41b36a","688ab16894bc41d1cf49a268","0","663ba5be68b9831a7ee50cfc","0","2025-07-30T23:58:14.132Z","","","","","","","","","","","","","","","","","","","","","","","","","","","","","","","","","","","","","","","","","",""
"48946.80000001192","","","","survey-template","5","71626","0.0-4.0-1.0","105","1","2025-07-30 23:57:50","36c45c0696341be0efffe67d72a12abb","51.146.189.238","Mozilla/5.0 (Macintosh; Intel Mac OS X 10_15_7) AppleWebKit/537.36 (KHTML, like Gecko) Chrome/137.0.0.0 Safari/537.36","Macintosh","Chrome","137.0.0.0","OS X","10_15_7","https://app.prolific.com/","en-GB,en-US;q=0.9,en;q=0.8","663ba5be68b9831a7ee50cfc","683dba9a53627eb9ab41b36a","688ab16894bc41d1cf49a268","0","663ba5be68b9831a7ee50cfc","0","2025-07-30T23:59:03.081Z","","","","pss","{""Q01"":""2"",""Q02"":""1"",""Q03"":""2"",""Q04"":""0"",""Q05"":""1"",""Q06"":""2"",""Q07"":""1"",""Q08"":""2"",""Q09"":""2"",""Q10"":""2""}","[0,1,2,3,4,5,6,7,8,9]","[""Q01"",""Q02"",""Q03"",""Q03"",""Q04"",""Q04"",""Q05"",""Q06"",""Q07"",""Q08"",""Q09"",""Q10"",""Q10""]","[6425,10402.199999988079,14484.399999976158,15761.800000011921,19569.19999998808,21428.399999976158,25365.100000023842,29334.19999998808,36205.39999997616,38856.89999997616,43633.89999997616,46544.5,48241.39999997616]","[]","[0,4282.699999988079,6425,10402.199999988079,14484.399999976158,15761.800000011921,19569.19999998808,21428.399999976158,25365.100000023842,29334.19999998808,36205.39999997616,38856.89999997616,43633.89999997616,46544.5,48241.39999997616,48945.60000002384]","0.6","0.6666666666666666","0","","","","","","","","","","","","","","","","","","","","","","","","","","","","",""
"1905","1753919944987","<p style='font-size:1.1em;line-height:1.25'>Thank you for your answers! Now we will ask you a few more questions relating to your feelings in the last 24 hours.<br></p><p style='font-size:1.1em;line-height:1.25'>Press the <strong>Next</strong> button to continue.</p>","0","custom-html-button-response","6","73532","0.0-4.0-2.0","105","1","2025-07-30 23:57:50","36c45c0696341be0efffe67d72a12abb","51.146.189.238","Mozilla/5.0 (Macintosh; Intel Mac OS X 10_15_7) AppleWebKit/537.36 (KHTML, like Gecko) Chrome/137.0.0.0 Safari/537.36","Macintosh","Chrome","137.0.0.0","OS X","10_15_7","https://app.prolific.com/","en-GB,en-US;q=0.9,en;q=0.8","663ba5be68b9831a7ee50cfc","683dba9a53627eb9ab41b36a","688ab16894bc41d1cf49a268","0","663ba5be68b9831a7ee50cfc","0","2025-07-30T23:59:04.988Z","","","","","","","","","","","","","","","","","","","","","","","","","","","","","","","","","","","","","","","","","",""
"75021.40000003576","","","","survey-template","7","148557","0.0-4.0-3.0","105","1","2025-07-30 23:57:50","36c45c0696341be0efffe67d72a12abb","51.146.189.238","Mozilla/5.0 (Macintosh; Intel Mac OS X 10_15_7) AppleWebKit/537.36 (KHTML, like Gecko) Chrome/137.0.0.0 Safari/537.36","Macintosh","Chrome","137.0.0.0","OS X","10_15_7","https://app.prolific.com/","en-GB,en-US;q=0.9,en;q=0.8","663ba5be68b9831a7ee50cfc","683dba9a53627eb9ab41b36a","688ab16894bc41d1cf49a268","0","663ba5be68b9831a7ee50cfc","0","2025-07-31T00:00:20.012Z","","","","drsp","{""Q01"":""0"",""Q02"":""0"",""Q03"":""0"",""Q04"":""1"",""Q05"":""0"",""Q06"":""0"",""Q07"":""1"",""Q08"":""1"",""Q09"":""0"",""Q10"":""3"",""Q11"":""2"",""Q12"":""0"",""Q13"":""5"",""Q14"":""0"",""Q15"":""5"",""Q16"":""5"",""Q17"":""2"",""Q18"":""0"",""Q19"":""2"",""Q20"":""3"",""Q21"":""2"",""Q22"":""1""}","[0,1,2,3,4,5,6,7,8,9,10,11,12,13,14,15,16,17,18,19,20,21]","[""Q01"",""Q02"",""Q03"",""Q04"",""Q05"",""Q06"",""Q07"",""Q08"",""Q09"",""Q10"",""Q11"",""Q12"",""Q13"",""Q14"",""Q15"",""Q16"",""Q17"",""Q18"",""Q19"",""Q19"",""Q20"",""Q21"",""Q21"",""Q22""]","[4566.100000023842,5479.200000047684,6974.5,11243.300000011921,15269.400000035763,16578.700000047684,18357.5,21210.900000035763,22544.30000001192,24913.5,26587.200000047684,28421.5,31809,34323.200000047684,36861.60000002384,39303,43668.80000001192,45164.200000047684,46821,49852.90000003576,60143.80000001192,66555.5,69967.10000002384,73644.20000004768]","[]","[0,4566.100000023842,5479.200000047684,6974.5,11243.300000011921,15269.400000035763,16578.700000047684,18357.5,21210.900000035763,22544.30000001192,24913.5,26587.200000047684,28421.5,31809,34323.200000047684,36861.60000002384,39303,42456.30000001192,43668.80000001192,45164.200000047684,46821,49852.90000003576,60143.80000001192,66555.5,69967.10000002384,73644.20000004768,75019.20000004768]","0.4090909090909091","0.5238095238095238","0","","","","","","","","","","","","","","","","","","","","","","","","","","","","",""
"19020.799999952316","","","","survey-template","8","167579","0.0-4.0-4.0","105","1","2025-07-30 23:57:50","36c45c0696341be0efffe67d72a12abb","51.146.189.238","Mozilla/5.0 (Macintosh; Intel Mac OS X 10_15_7) AppleWebKit/537.36 (KHTML, like Gecko) Chrome/137.0.0.0 Safari/537.36","Macintosh","Chrome","137.0.0.0","OS X","10_15_7","https://app.prolific.com/","en-GB,en-US;q=0.9,en;q=0.8","663ba5be68b9831a7ee50cfc","683dba9a53627eb9ab41b36a","688ab16894bc41d1cf49a268","0","663ba5be68b9831a7ee50cfc","0","2025-07-31T00:00:39.034Z","","","","stress","{""Q01"":""2"",""Q02"":""2"",""Q03"":""3""}","[0,1,2]","[""Q01"",""Q02"",""Q03""]","[4741.199999988079,9461.899999976158,17912.19999998808]","[]","[4741.199999988079,9461.899999976158,17912.19999998808,19020.19999998808]","0.6666666666666666","0.5","0","","","","","","","","","","","","","","","","","","","","","","","","","","","","",""
"32014","","","","instructions","9","199594","0.0-5.0-0.0","105","1","2025-07-30 23:57:50","36c45c0696341be0efffe67d72a12abb","51.146.189.238","Mozilla/5.0 (Macintosh; Intel Mac OS X 10_15_7) AppleWebKit/537.36 (KHTML, like Gecko) Chrome/137.0.0.0 Safari/537.36","Macintosh","Chrome","137.0.0.0","OS X","10_15_7","https://app.prolific.com/","en-GB,en-US;q=0.9,en;q=0.8","663ba5be68b9831a7ee50cfc","683dba9a53627eb9ab41b36a","688ab16894bc41d1cf49a268","0","663ba5be68b9831a7ee50cfc","0","","","","","","","","","","","","","","","[{""page_index"":0,""viewing_time"":32014}]","","","","","","","","","","","","","","","","","","","","","","","","","","","",""
"11987","","<p>Before you start with this game please answer the following three questions yourself. </p>
  <p>Through this game, we measure several aspects of your cognitive performance, such as reaction times, multi-tasking capabilities </p>
  <p>and the ability to assess the situation you are in.</p>
  <p></p>
  <p><b>How good do you usually are in such tasks?</b></p>","2","html-slider-response","10","211582","0.0-6.0-0.0","105","1","2025-07-30 23:57:50","36c45c0696341be0efffe67d72a12abb","51.146.189.238","Mozilla/5.0 (Macintosh; Intel Mac OS X 10_15_7) AppleWebKit/537.36 (KHTML, like Gecko) Chrome/137.0.0.0 Safari/537.36","Macintosh","Chrome","137.0.0.0","OS X","10_15_7","https://app.prolific.com/","en-GB,en-US;q=0.9,en;q=0.8","663ba5be68b9831a7ee50cfc","683dba9a53627eb9ab41b36a","688ab16894bc41d1cf49a268","0","663ba5be68b9831a7ee50cfc","0","2025-07-31T00:01:23.037Z","","","","PreSkillQ","","","","","","","","","","","50","","","","","","","","","","","","","","","","","","","","","","","","","","",""
"3297","","<div style=""width:500px;"">
  <p>How well do you think you will perform in this task compared to other participants?</p>
  </div>","3","html-slider-response","11","214880","0.0-6.0-1.0","105","1","2025-07-30 23:57:50","36c45c0696341be0efffe67d72a12abb","51.146.189.238","Mozilla/5.0 (Macintosh; Intel Mac OS X 10_15_7) AppleWebKit/537.36 (KHTML, like Gecko) Chrome/137.0.0.0 Safari/537.36","Macintosh","Chrome","137.0.0.0","OS X","10_15_7","https://app.prolific.com/","en-GB,en-US;q=0.9,en;q=0.8","663ba5be68b9831a7ee50cfc","683dba9a53627eb9ab41b36a","688ab16894bc41d1cf49a268","0","663ba5be68b9831a7ee50cfc","0","2025-07-31T00:01:26.335Z","","","","PrePerfQ","","","","","","","","","","","50","","","","","","","","","","","","","","","","","","","","","","","","","","",""
"3833","","<div style=""width:500px;"">
  <p>What best describes how you currently feel?</p>
  </div>","31","html-slider-response","12","218714","0.0-6.0-2.0","105","1","2025-07-30 23:57:50","36c45c0696341be0efffe67d72a12abb","51.146.189.238","Mozilla/5.0 (Macintosh; Intel Mac OS X 10_15_7) AppleWebKit/537.36 (KHTML, like Gecko) Chrome/137.0.0.0 Safari/537.36","Macintosh","Chrome","137.0.0.0","OS X","10_15_7","https://app.prolific.com/","en-GB,en-US;q=0.9,en;q=0.8","663ba5be68b9831a7ee50cfc","683dba9a53627eb9ab41b36a","688ab16894bc41d1cf49a268","0","663ba5be68b9831a7ee50cfc","0","2025-07-31T00:01:30.169Z","","","","PreMotivationQ","","","","","","","","","","","50","","","","","","","","","","","","","","","","","","","","","","","","","","",""
"","","","","ctl-task-cpt","13","251973","0.0-7.0-0.0","105","1","2025-07-30 23:57:50","36c45c0696341be0efffe67d72a12abb","51.146.189.238","Mozilla/5.0 (Macintosh; Intel Mac OS X 10_15_7) AppleWebKit/537.36 (KHTML, like Gecko) Chrome/137.0.0.0 Safari/537.36","Macintosh","Chrome","137.0.0.0","OS X","10_15_7","https://app.prolific.com/","en-GB,en-US;q=0.9,en;q=0.8","663ba5be68b9831a7ee50cfc","683dba9a53627eb9ab41b36a","688ab16894bc41d1cf49a268","0","663ba5be68b9831a7ee50cfc","0","2025-07-31T00:02:03.428Z","","","","","","","","","","","","","","","","win-only","0","g1:NW,g2:SE","1","1","0","220007.9","1883","6886.8","30251.6","1","4","8","6","1","1","-2","0","0","0","4765.6","3000","1155","[""left"",""up""]","{""num_key_presses"":10,""num_perfect"":4,""num_errors"":3,""num_randdir"":0,""num_randdir_good_moves"":0,""num_whilered"":3,""num_whileblue"":0,""num_blue"":2,""num_good_moves"":4}","[690.2857142857143,704.0825892857143,0.2,690.2857142857143,704.0825892857143,103.3,690.2857142857143,704.0825892857143,203.5,690.2857142857143,704.0825892857143,307.8,690.2857142857143,704.0825892857143,408,690.2857142857143,704.0825892857143,513.7,690.2857142857143,704.0825892857143,613.8,690.2857142857143,704.0825892857143,717.5,690.2857142857143,704.0825892857143,817.9,690.2857142857143,704.0825892857143,923.7,690.2857142857143,704.0825892857143,1027.8,690.2857142857143,704.0825892857143,1128.7,690.2857142857143,704.0825892857143,1229,690.2857142857143,704.0825892857143,1332.1,690.2857142857143,704.0825892857143,1432.2,690.2857142857143,704.0825892857143,1532.5,690.2857142857143,704.0825892857143,1638.7,690.2857142857143,704.0825892857143,1743.5,690.2857142857143,704.0825892857143,1847.8,690.2857142857143,704.0825892857143,1948.3,690.2857142857143,704.0825892857143,2048.6,690.2857142857143,704.0825892857143,2153.4,690.2857142857143,704.0825892857143,2258.8,690.2857142857143,704.0825892857143,2363.1,690.2857142857143,704.0825892857143,2463.1,690.2857142857143,704.0825892857143,2568,690.2857142857143,704.0825892857143,2668.3,690.2857142857143,704.0825892857143,2773.8,690.2857142857143,704.0825892857143,2874,690.2857142857143,704.0825892857143,2978.3,690.2857142857143,704.0825892857143,3078.7,690.2857142857143,704.0825892857143,3182.4,602.2857142857143,644.0825892857143,3283.1,556.2857142857143,568.0825892857143,3383.2,600.2857142857143,566.0825892857143,3487.7,594.2857142857143,566.0825892857143,3593.3,594.2857142857143,566.0825892857143,3693.9,594.2857142857143,566.0825892857143,3797.9,594.2857142857143,566.0825892857143,3898.4,594.2857142857143,566.0825892857143,4002.8,594.2857142857143,566.0825892857143,4103.1,586.2857142857143,442.0825892857143,4203.3,586.2857142857143,388.0825892857143,4303.3,570.2857142857143,342.0825892857143,4407.7,240.28571428571428,252.08258928571428,4508.3,170.28571428571428,142.08258928571428,4612.8,172.28571428571428,130.08258928571428,4717.8,172.28571428571428,130.08258928571428,4823.2,172.28571428571428,130.08258928571428,4923.7]","[830.6,830.6,1000,0,-169.4,""error"",""-"",""-"",""no_move"",1015.8,184.9,1000,0,15.8,""while_red"",""-"",""-"",""no_move"",4480.6,3649.7,2210.3,1834.8,435.5,""smooth"",""left"",""left"",""good_move"",4693.2,212.2,1794.5,4481,-1582.3,""error"",""-"",""-"",""no_move"",4881.5,188.1,1794.5,4481,-1394,""while_red"",""-"",""-"",""no_move"",5062.2,368.8,1794.5,4481,-1213.3,""while_red"",""-"",""-"",""no_move"",15494.5,10801.1,2549.3,12544.3,400.9,""smooth"",""left"",""left"",""good_move"",16187,692.1,2097.8,15494.9,-1405.7,""error"",""-"",""-"",""no_move"",20378.7,4191.3,2799.1,17189.5,390.1,""smooth"",""up"",""up"",""good_move"",23276.4,2897.3,2269.6,20379.1,627.7,""smooth"",""up"",""up"",""good_move""]"
"4633","","<div style=""width:500px;"">
  <p>What determined the result of this run?</p>
  </div>","94","html-slider-response","14","256607","0.0-7.0-1.0","105","1","2025-07-30 23:57:50","36c45c0696341be0efffe67d72a12abb","51.146.189.238","Mozilla/5.0 (Macintosh; Intel Mac OS X 10_15_7) AppleWebKit/537.36 (KHTML, like Gecko) Chrome/137.0.0.0 Safari/537.36","Macintosh","Chrome","137.0.0.0","OS X","10_15_7","https://app.prolific.com/","en-GB,en-US;q=0.9,en;q=0.8","663ba5be68b9831a7ee50cfc","683dba9a53627eb9ab41b36a","688ab16894bc41d1cf49a268","0","663ba5be68b9831a7ee50cfc","0","2025-07-31T00:02:08.062Z","","","","AttribQ","","","","","","","","","","","50","","","","","","","","","","","","","","","","","","","","","","","","","","",""
"4543","","<div style=""width:500px;"">
  <p>How much control did you have over the ball?</p>
  </div>","93","html-slider-response","15","261151","0.0-7.0-2.0","105","1","2025-07-30 23:57:50","36c45c0696341be0efffe67d72a12abb","51.146.189.238","Mozilla/5.0 (Macintosh; Intel Mac OS X 10_15_7) AppleWebKit/537.36 (KHTML, like Gecko) Chrome/137.0.0.0 Safari/537.36","Macintosh","Chrome","137.0.0.0","OS X","10_15_7","https://app.prolific.com/","en-GB,en-US;q=0.9,en;q=0.8","663ba5be68b9831a7ee50cfc","683dba9a53627eb9ab41b36a","688ab16894bc41d1cf49a268","0","663ba5be68b9831a7ee50cfc","0","2025-07-31T00:02:12.606Z","","","","ControlQ","","","","","","","","","","","50","","","","","","","","","","","","","","","","","","","","","","","","","","",""
"3776","","<div style=""width:500px;"">
  <p>How would you describe your current emotional state?</p>
  </div>","53","html-slider-response","16","264928","0.0-7.0-3.0","105","1","2025-07-30 23:57:50","36c45c0696341be0efffe67d72a12abb","51.146.189.238","Mozilla/5.0 (Macintosh; Intel Mac OS X 10_15_7) AppleWebKit/537.36 (KHTML, like Gecko) Chrome/137.0.0.0 Safari/537.36","Macintosh","Chrome","137.0.0.0","OS X","10_15_7","https://app.prolific.com/","en-GB,en-US;q=0.9,en;q=0.8","663ba5be68b9831a7ee50cfc","683dba9a53627eb9ab41b36a","688ab16894bc41d1cf49a268","0","663ba5be68b9831a7ee50cfc","0","2025-07-31T00:02:16.383Z","","","","StressQ","","","","","","","","","","","50","","","","","","","","","","","","","","","","","","","","","","","","","","",""
"2975","","<div style=""width:500px;"">
  <p>What best describes how you currently feel?</p>
  </div>","33","html-slider-response","17","267903","0.0-7.0-4.0","105","1","2025-07-30 23:57:50","36c45c0696341be0efffe67d72a12abb","51.146.189.238","Mozilla/5.0 (Macintosh; Intel Mac OS X 10_15_7) AppleWebKit/537.36 (KHTML, like Gecko) Chrome/137.0.0.0 Safari/537.36","Macintosh","Chrome","137.0.0.0","OS X","10_15_7","https://app.prolific.com/","en-GB,en-US;q=0.9,en;q=0.8","663ba5be68b9831a7ee50cfc","683dba9a53627eb9ab41b36a","688ab16894bc41d1cf49a268","0","663ba5be68b9831a7ee50cfc","0","2025-07-31T00:02:19.358Z","","","","MotivationQ","","","","","","","","","","","50","","","","","","","","","","","","","","","","","","","","","","","","","","",""
"","","","","ctl-task-cpt","18","296087","0.0-7.0-0.1","105","1","2025-07-30 23:57:50","36c45c0696341be0efffe67d72a12abb","51.146.189.238","Mozilla/5.0 (Macintosh; Intel Mac OS X 10_15_7) AppleWebKit/537.36 (KHTML, like Gecko) Chrome/137.0.0.0 Safari/537.36","Macintosh","Chrome","137.0.0.0","OS X","10_15_7","https://app.prolific.com/","en-GB,en-US;q=0.9,en;q=0.8","663ba5be68b9831a7ee50cfc","683dba9a53627eb9ab41b36a","688ab16894bc41d1cf49a268","0","663ba5be68b9831a7ee50cfc","0","2025-07-31T00:02:47.542Z","","","","","","","","","","","","","","","","win-only","0","g1:NW,g2:SE","0.9","2","0","269195.9","1681.8","6686.3","25175.7","1","4","4","6","1","1","1","1","0","0.007575757575757576","1725.3","3000","1235","[""left"",""up""]","{""num_key_presses"":4,""num_perfect"":4,""num_errors"":0,""num_randdir"":0,""num_randdir_good_moves"":0,""num_whilered"":0,""num_whileblue"":0,""num_blue"":2,""num_good_moves"":4}","[690.2857142857143,700.0825892857143,0.1,690.2857142857143,700.0825892857143,103.8,690.2857142857143,700.0825892857143,203.8,690.2857142857143,700.0825892857143,304.2,272.2857142857143,794.0825892857143,404.3,-289.7142857142857,846.0825892857143,508.6,-289.7142857142857,846.0825892857143,609.6,-289.7142857142857,846.0825892857143,713.8,-289.7142857142857,846.0825892857143,814.1,-289.7142857142857,846.0825892857143,918.9,-289.7142857142857,846.0825892857143,1024.7,-109.71428571428571,582.0825892857143,1128.5,264.2857142857143,-181.91741071428572,1228.6,264.2857142857143,-171.91741071428572,1334.7,206.28571428571428,-79.91741071428571,1439.4,120.28571428571429,32.08258928571429,1544.1,120.28571428571429,38.08258928571429,1644.4,120.28571428571429,38.08258928571429,1749.2,120.28571428571429,38.08258928571429,1854,120.28571428571429,38.08258928571429,1954.6,120.28571428571429,38.08258928571429,2059.8,-515.7142857142857,550.0825892857143,2164.6,-501.7142857142857,564.0825892857143,2269,-501.7142857142857,564.0825892857143,2374,-501.7142857142857,564.0825892857143,2474.1,-501.7142857142857,564.0825892857143,2574.5,-501.7142857142857,564.0825892857143,2675.2,-501.7142857142857,564.0825892857143,2779.3,-501.7142857142857,564.0825892857143,2884.6,-501.7142857142857,564.0825892857143,2989,-501.7142857142857,564.0825892857143,3089,-501.7142857142857,564.0825892857143,3189.9,-501.7142857142857,564.0825892857143,3294.5,-501.7142857142857,564.0825892857143,3399,-501.7142857142857,564.0825892857143,3499,-501.7142857142857,564.0825892857143,3599,-501.7142857142857,564.0825892857143,3699.4,-501.7142857142857,564.0825892857143,3804,-501.7142857142857,564.0825892857143,3904.6,-501.7142857142857,564.0825892857143,4004.6,-501.7142857142857,564.0825892857143,4108.7,-501.7142857142857,564.0825892857143,4209.8,-501.7142857142857,564.0825892857143,4313.8,-501.7142857142857,564.0825892857143,4414.1,-501.7142857142857,564.0825892857143,4514.2,-501.7142857142857,564.0825892857143,4619.1,-501.7142857142857,564.0825892857143,4719.2,-501.7142857142857,564.0825892857143,4823.9,-501.7142857142857,564.0825892857143,4924.7]","[1624.3,1624.3,1000,0,624.3,""smooth"",""left"",""left"",""good_move"",4609.1,2984.1,2618.2,1625,365.9,""smooth"",""left"",""left"",""good_move"",15341,10731.7,3018.4,11930.1,392.5,""smooth"",""up"",""up"",""good_move"",18397.8,3056.1,2657.1,15341.8,398.9,""smooth"",""up"",""up"",""good_move""]"
"4626","","<div style=""width:500px;"">
  <p>What determined the result of this run?</p>
  </div>","53","html-slider-response","19","300714","0.0-7.0-1.1","105","1","2025-07-30 23:57:50","36c45c0696341be0efffe67d72a12abb","51.146.189.238","Mozilla/5.0 (Macintosh; Intel Mac OS X 10_15_7) AppleWebKit/537.36 (KHTML, like Gecko) Chrome/137.0.0.0 Safari/537.36","Macintosh","Chrome","137.0.0.0","OS X","10_15_7","https://app.prolific.com/","en-GB,en-US;q=0.9,en;q=0.8","663ba5be68b9831a7ee50cfc","683dba9a53627eb9ab41b36a","688ab16894bc41d1cf49a268","0","663ba5be68b9831a7ee50cfc","0","2025-07-31T00:02:52.169Z","","","","AttribQ","","","","","","","","","","","50","","","","","","","","","","","","","","","","","","","","","","","","","","",""
"2845","","<div style=""width:500px;"">
  <p>How much control did you have over the ball?</p>
  </div>","92","html-slider-response","20","303560","0.0-7.0-2.1","105","1","2025-07-30 23:57:50","36c45c0696341be0efffe67d72a12abb","51.146.189.238","Mozilla/5.0 (Macintosh; Intel Mac OS X 10_15_7) AppleWebKit/537.36 (KHTML, like Gecko) Chrome/137.0.0.0 Safari/537.36","Macintosh","Chrome","137.0.0.0","OS X","10_15_7","https://app.prolific.com/","en-GB,en-US;q=0.9,en;q=0.8","663ba5be68b9831a7ee50cfc","683dba9a53627eb9ab41b36a","688ab16894bc41d1cf49a268","0","663ba5be68b9831a7ee50cfc","0","2025-07-31T00:02:55.015Z","","","","ControlQ","","","","","","","","","","","50","","","","","","","","","","","","","","","","","","","","","","","","","","",""
"4681","","<div style=""width:500px;"">
  <p>How would you describe your current emotional state?</p>
  </div>","22","html-slider-response","21","308241","0.0-7.0-3.1","105","1","2025-07-30 23:57:50","36c45c0696341be0efffe67d72a12abb","51.146.189.238","Mozilla/5.0 (Macintosh; Intel Mac OS X 10_15_7) AppleWebKit/537.36 (KHTML, like Gecko) Chrome/137.0.0.0 Safari/537.36","Macintosh","Chrome","137.0.0.0","OS X","10_15_7","https://app.prolific.com/","en-GB,en-US;q=0.9,en;q=0.8","663ba5be68b9831a7ee50cfc","683dba9a53627eb9ab41b36a","688ab16894bc41d1cf49a268","0","663ba5be68b9831a7ee50cfc","0","2025-07-31T00:02:59.697Z","","","","StressQ","","","","","","","","","","","50","","","","","","","","","","","","","","","","","","","","","","","","","","",""
"2740","","<div style=""width:500px;"">
  <p>What best describes how you currently feel?</p>
  </div>","25","html-slider-response","22","310982","0.0-7.0-4.1","105","1","2025-07-30 23:57:50","36c45c0696341be0efffe67d72a12abb","51.146.189.238","Mozilla/5.0 (Macintosh; Intel Mac OS X 10_15_7) AppleWebKit/537.36 (KHTML, like Gecko) Chrome/137.0.0.0 Safari/537.36","Macintosh","Chrome","137.0.0.0","OS X","10_15_7","https://app.prolific.com/","en-GB,en-US;q=0.9,en;q=0.8","663ba5be68b9831a7ee50cfc","683dba9a53627eb9ab41b36a","688ab16894bc41d1cf49a268","0","663ba5be68b9831a7ee50cfc","0","2025-07-31T00:03:02.437Z","","","","MotivationQ","","","","","","","","","","","50","","","","","","","","","","","","","","","","","","","","","","","","","","",""
"","","","","ctl-task-cpt","23","343607","0.0-7.0-0.2","105","1","2025-07-30 23:57:50","36c45c0696341be0efffe67d72a12abb","51.146.189.238","Mozilla/5.0 (Macintosh; Intel Mac OS X 10_15_7) AppleWebKit/537.36 (KHTML, like Gecko) Chrome/137.0.0.0 Safari/537.36","Macintosh","Chrome","137.0.0.0","OS X","10_15_7","https://app.prolific.com/","en-GB,en-US;q=0.9,en;q=0.8","663ba5be68b9831a7ee50cfc","683dba9a53627eb9ab41b36a","688ab16894bc41d1cf49a268","0","663ba5be68b9831a7ee50cfc","0","2025-07-31T00:03:35.062Z","","","","","","","","","","","","","","","","win-only","1","g1:NE,g2:SW","0.8","3","0","312274.9","1479.9","6481.2","29615.7","1","4","4","6","1","1","0","1","1","0.007575757575757576","1575.5","3000","800","[""up"",""right""]","{""num_key_presses"":7,""num_perfect"":5,""num_errors"":1,""num_randdir"":1,""num_randdir_good_moves"":0,""num_whilered"":0,""num_whileblue"":0,""num_blue"":1,""num_good_moves"":5}","[694.2857142857143,700.0825892857143,0.2,694.2857142857143,700.0825892857143,100.4,694.2857142857143,700.0825892857143,200.5,694.2857142857143,700.0825892857143,305.4,540.2857142857143,688.0825892857143,405.5,888.2857142857143,768.0825892857143,510.4,166.28571428571428,1182.0825892857142,610.8,-55.71428571428571,1368.0825892857142,715.5,-53.71428571428571,1340.0825892857142,816.2,-53.71428571428571,1338.0825892857142,920.9,568.2857142857143,684.0825892857143,1026.5,1320.2857142857142,176.08258928571428,1130.5,1328.2857142857142,172.08258928571428,1237,1328.2857142857142,172.08258928571428,1340.6,1324.2857142857142,160.08258928571428,1445.8,1322.2857142857142,162.08258928571428,1546.1,1322.2857142857142,162.08258928571428,1650.4,1322.2857142857142,162.08258928571428,1751.3,1322.2857142857142,162.08258928571428,1851.5,1670.2857142857142,304.0825892857143,1956,2132.285714285714,698.0825892857143,2060.7,2132.285714285714,698.0825892857143,2165.9,2132.285714285714,698.0825892857143,2271.4,2132.285714285714,698.0825892857143,2376,2132.285714285714,698.0825892857143,2481.3,2132.285714285714,698.0825892857143,2585.5,2132.285714285714,698.0825892857143,2685.6,2132.285714285714,698.0825892857143,2790.9,2132.285714285714,698.0825892857143,2891.7,2132.285714285714,698.0825892857143,2996.2,2132.285714285714,698.0825892857143,3096.5,2132.285714285714,698.0825892857143,3200.7,2132.285714285714,698.0825892857143,3306.2,2132.285714285714,698.0825892857143,3410.7,2132.285714285714,698.0825892857143,3511.3,2132.285714285714,698.0825892857143,3615.5,2132.285714285714,698.0825892857143,3716.7,2132.285714285714,698.0825892857143,3820.9,2132.285714285714,698.0825892857143,3926.3,2132.285714285714,698.0825892857143,4026.5,2132.285714285714,698.0825892857143,4131.3,2132.285714285714,698.0825892857143,4231.3,2132.285714285714,698.0825892857143,4335.6,2132.285714285714,698.0825892857143,4435.8,2132.285714285714,698.0825892857143,4541,2132.285714285714,698.0825892857143,4641.3,2132.285714285714,698.0825892857143,4746.2,2132.285714285714,698.0825892857143,4850.6,2132.285714285714,698.0825892857143,4951.2]","[455.9,455.9,1000,0,-544.1,""error"",""-"",""-"",""no_move"",4300.5,3844.3,2469.3,1459.9,371.3,""smooth"",""right"",""right"",""good_move"",7467.2,3166.2,2820.7,4301,345.5,""oops"",""up"",""left"",""bad_move"",9860.1,2392.5,2041,7467.6,351.5,""smooth"",""up"",""up"",""good_move"",12471.8,2611.4,2286.9,9860.4,324.5,""smooth"",""up"",""up"",""good_move"",16089.9,3618,3153.4,12471.9,464.6,""smooth"",""right"",""right"",""good_move"",23034.3,6944.3,2470.1,20199.9,364.3,""smooth"",""right"",""right"",""good_move""]"
"3465","","<div style=""width:500px;"">
  <p>What determined the result of this run?</p>
  </div>","83","html-slider-response","24","347073","0.0-7.0-1.2","105","1","2025-07-30 23:57:50","36c45c0696341be0efffe67d72a12abb","51.146.189.238","Mozilla/5.0 (Macintosh; Intel Mac OS X 10_15_7) AppleWebKit/537.36 (KHTML, like Gecko) Chrome/137.0.0.0 Safari/537.36","Macintosh","Chrome","137.0.0.0","OS X","10_15_7","https://app.prolific.com/","en-GB,en-US;q=0.9,en;q=0.8","663ba5be68b9831a7ee50cfc","683dba9a53627eb9ab41b36a","688ab16894bc41d1cf49a268","0","663ba5be68b9831a7ee50cfc","0","2025-07-31T00:03:38.528Z","","","","AttribQ","","","","","","","","","","","50","","","","","","","","","","","","","","","","","","","","","","","","","","",""
"4398","","<div style=""width:500px;"">
  <p>How much control did you have over the ball?</p>
  </div>","73","html-slider-response","25","351471","0.0-7.0-2.2","105","1","2025-07-30 23:57:50","36c45c0696341be0efffe67d72a12abb","51.146.189.238","Mozilla/5.0 (Macintosh; Intel Mac OS X 10_15_7) AppleWebKit/537.36 (KHTML, like Gecko) Chrome/137.0.0.0 Safari/537.36","Macintosh","Chrome","137.0.0.0","OS X","10_15_7","https://app.prolific.com/","en-GB,en-US;q=0.9,en;q=0.8","663ba5be68b9831a7ee50cfc","683dba9a53627eb9ab41b36a","688ab16894bc41d1cf49a268","0","663ba5be68b9831a7ee50cfc","0","2025-07-31T00:03:42.926Z","","","","ControlQ","","","","","","","","","","","50","","","","","","","","","","","","","","","","","","","","","","","","","","",""
"2853","","<div style=""width:500px;"">
  <p>How would you describe your current emotional state?</p>
  </div>","25","html-slider-response","26","354325","0.0-7.0-3.2","105","1","2025-07-30 23:57:50","36c45c0696341be0efffe67d72a12abb","51.146.189.238","Mozilla/5.0 (Macintosh; Intel Mac OS X 10_15_7) AppleWebKit/537.36 (KHTML, like Gecko) Chrome/137.0.0.0 Safari/537.36","Macintosh","Chrome","137.0.0.0","OS X","10_15_7","https://app.prolific.com/","en-GB,en-US;q=0.9,en;q=0.8","663ba5be68b9831a7ee50cfc","683dba9a53627eb9ab41b36a","688ab16894bc41d1cf49a268","0","663ba5be68b9831a7ee50cfc","0","2025-07-31T00:03:45.780Z","","","","StressQ","","","","","","","","","","","50","","","","","","","","","","","","","","","","","","","","","","","","","","",""
"2336","","<div style=""width:500px;"">
  <p>What best describes how you currently feel?</p>
  </div>","26","html-slider-response","27","356662","0.0-7.0-4.2","105","1","2025-07-30 23:57:50","36c45c0696341be0efffe67d72a12abb","51.146.189.238","Mozilla/5.0 (Macintosh; Intel Mac OS X 10_15_7) AppleWebKit/537.36 (KHTML, like Gecko) Chrome/137.0.0.0 Safari/537.36","Macintosh","Chrome","137.0.0.0","OS X","10_15_7","https://app.prolific.com/","en-GB,en-US;q=0.9,en;q=0.8","663ba5be68b9831a7ee50cfc","683dba9a53627eb9ab41b36a","688ab16894bc41d1cf49a268","0","663ba5be68b9831a7ee50cfc","0","2025-07-31T00:03:48.117Z","","","","MotivationQ","","","","","","","","","","","50","","","","","","","","","","","","","","","","","","","","","","","","","","",""
"","","","","ctl-task-cpt","28","376671","0.0-7.0-0.3","105","1","2025-07-30 23:57:50","36c45c0696341be0efffe67d72a12abb","51.146.189.238","Mozilla/5.0 (Macintosh; Intel Mac OS X 10_15_7) AppleWebKit/537.36 (KHTML, like Gecko) Chrome/137.0.0.0 Safari/537.36","Macintosh","Chrome","137.0.0.0","OS X","10_15_7","https://app.prolific.com/","en-GB,en-US;q=0.9,en;q=0.8","663ba5be68b9831a7ee50cfc","683dba9a53627eb9ab41b36a","688ab16894bc41d1cf49a268","0","663ba5be68b9831a7ee50cfc","0","2025-07-31T00:04:08.126Z","","","","","","","","","","","","","","","","win-only","0","g1:NW,g2:SE","0.7","4","0","357954.1","1068.1","6070.8","17000.4","1","4","8","6","1","1","1","2","1","0.015151515151515152","977","3000","1495","[""left"",""up""]","{""num_key_presses"":4,""num_perfect"":4,""num_errors"":0,""num_randdir"":0,""num_randdir_good_moves"":0,""num_whilered"":0,""num_whileblue"":0,""num_blue"":0,""num_good_moves"":4}","[692.2857142857143,684.0825892857143,0.1,692.2857142857143,684.0825892857143,102.4,692.2857142857143,684.0825892857143,207.5,692.2857142857143,684.0825892857143,307.7,692.2857142857143,684.0825892857143,407.8,692.2857142857143,684.0825892857143,507.9,290.2857142857143,208.08258928571428,613.8,210.28571428571428,114.08258928571429,717.5,200.28571428571428,120.08258928571429,823.2,198.28571428571428,120.08258928571429,927.1,198.28571428571428,120.08258928571429,1027.8,198.28571428571428,120.08258928571429,1132.7,198.28571428571428,120.08258928571429,1233.1,-445.7142857142857,246.08258928571428,1337.4,-745.7142857142857,426.0825892857143,1437.9,-745.7142857142857,426.0825892857143,1543.1,-745.7142857142857,426.0825892857143,1647.3,-745.7142857142857,426.0825892857143,1752.8,-745.7142857142857,426.0825892857143,1857.2,-745.7142857142857,426.0825892857143,1957.8,-745.7142857142857,426.0825892857143,2062,-745.7142857142857,426.0825892857143,2162.7,-745.7142857142857,426.0825892857143,2262.8,-745.7142857142857,426.0825892857143,2367.6,-745.7142857142857,426.0825892857143,2473.2,-745.7142857142857,426.0825892857143,2578,-745.7142857142857,426.0825892857143,2682.9,-745.7142857142857,426.0825892857143,2787.7,-745.7142857142857,426.0825892857143,2888.1,-745.7142857142857,426.0825892857143,2992.3,-745.7142857142857,426.0825892857143,3092.7,-745.7142857142857,426.0825892857143,3197.6,-745.7142857142857,426.0825892857143,3303.1,-745.7142857142857,426.0825892857143,3407.8,-745.7142857142857,426.0825892857143,3512.9,-745.7142857142857,426.0825892857143,3613.1,-745.7142857142857,426.0825892857143,3717.3,-745.7142857142857,426.0825892857143,3817.6,-745.7142857142857,426.0825892857143,3917.8,-745.7142857142857,426.0825892857143,4017.8,-745.7142857142857,426.0825892857143,4122.6,-745.7142857142857,426.0825892857143,4228.1,-745.7142857142857,426.0825892857143,4333,-745.7142857142857,426.0825892857143,4437.5,-745.7142857142857,426.0825892857143,4537.9,-745.7142857142857,426.0825892857143,4642.2,-745.7142857142857,426.0825892857143,4742.7,-745.7142857142857,426.0825892857143,4847.1,-745.7142857142857,426.0825892857143,4948.3]","[1379.2,1379.2,1000,0,379.2,""smooth"",""left"",""left"",""good_move"",4184.5,2805.1,2351.9,1379.4,453.2,""smooth"",""up"",""up"",""good_move"",7336.8,3152.1,2784.6,4184.7,367.5,""smooth"",""up"",""up"",""good_move"",10838.8,3501.8,3181.5,7337,320.3,""smooth"",""left"",""left"",""good_move""]"
"2902","","<div style=""width:500px;"">
  <p>What determined the result of this run?</p>
  </div>","52","html-slider-response","29","379574","0.0-7.0-1.3","105","1","2025-07-30 23:57:50","36c45c0696341be0efffe67d72a12abb","51.146.189.238","Mozilla/5.0 (Macintosh; Intel Mac OS X 10_15_7) AppleWebKit/537.36 (KHTML, like Gecko) Chrome/137.0.0.0 Safari/537.36","Macintosh","Chrome","137.0.0.0","OS X","10_15_7","https://app.prolific.com/","en-GB,en-US;q=0.9,en;q=0.8","663ba5be68b9831a7ee50cfc","683dba9a53627eb9ab41b36a","688ab16894bc41d1cf49a268","0","663ba5be68b9831a7ee50cfc","0","2025-07-31T00:04:11.029Z","","","","AttribQ","","","","","","","","","","","50","","","","","","","","","","","","","","","","","","","","","","","","","","",""
"3726","","<div style=""width:500px;"">
  <p>How much control did you have over the ball?</p>
  </div>","98","html-slider-response","30","383301","0.0-7.0-2.3","105","1","2025-07-30 23:57:50","36c45c0696341be0efffe67d72a12abb","51.146.189.238","Mozilla/5.0 (Macintosh; Intel Mac OS X 10_15_7) AppleWebKit/537.36 (KHTML, like Gecko) Chrome/137.0.0.0 Safari/537.36","Macintosh","Chrome","137.0.0.0","OS X","10_15_7","https://app.prolific.com/","en-GB,en-US;q=0.9,en;q=0.8","663ba5be68b9831a7ee50cfc","683dba9a53627eb9ab41b36a","688ab16894bc41d1cf49a268","0","663ba5be68b9831a7ee50cfc","0","2025-07-31T00:04:14.756Z","","","","ControlQ","","","","","","","","","","","50","","","","","","","","","","","","","","","","","","","","","","","","","","",""
"3581","","<div style=""width:500px;"">
  <p>How would you describe your current emotional state?</p>
  </div>","27","html-slider-response","31","386882","0.0-7.0-3.3","105","1","2025-07-30 23:57:50","36c45c0696341be0efffe67d72a12abb","51.146.189.238","Mozilla/5.0 (Macintosh; Intel Mac OS X 10_15_7) AppleWebKit/537.36 (KHTML, like Gecko) Chrome/137.0.0.0 Safari/537.36","Macintosh","Chrome","137.0.0.0","OS X","10_15_7","https://app.prolific.com/","en-GB,en-US;q=0.9,en;q=0.8","663ba5be68b9831a7ee50cfc","683dba9a53627eb9ab41b36a","688ab16894bc41d1cf49a268","0","663ba5be68b9831a7ee50cfc","0","2025-07-31T00:04:18.337Z","","","","StressQ","","","","","","","","","","","50","","","","","","","","","","","","","","","","","","","","","","","","","","",""
"2287","","<div style=""width:500px;"">
  <p>What best describes how you currently feel?</p>
  </div>","25","html-slider-response","32","389170","0.0-7.0-4.3","105","1","2025-07-30 23:57:50","36c45c0696341be0efffe67d72a12abb","51.146.189.238","Mozilla/5.0 (Macintosh; Intel Mac OS X 10_15_7) AppleWebKit/537.36 (KHTML, like Gecko) Chrome/137.0.0.0 Safari/537.36","Macintosh","Chrome","137.0.0.0","OS X","10_15_7","https://app.prolific.com/","en-GB,en-US;q=0.9,en;q=0.8","663ba5be68b9831a7ee50cfc","683dba9a53627eb9ab41b36a","688ab16894bc41d1cf49a268","0","663ba5be68b9831a7ee50cfc","0","2025-07-31T00:04:20.625Z","","","","MotivationQ","","","","","","","","","","","50","","","","","","","","","","","","","","","","","","","","","","","","","","",""
"","","","","ctl-task-cpt","33","419525","0.0-7.0-0.4","105","1","2025-07-30 23:57:50","36c45c0696341be0efffe67d72a12abb","51.146.189.238","Mozilla/5.0 (Macintosh; Intel Mac OS X 10_15_7) AppleWebKit/537.36 (KHTML, like Gecko) Chrome/137.0.0.0 Safari/537.36","Macintosh","Chrome","137.0.0.0","OS X","10_15_7","https://app.prolific.com/","en-GB,en-US;q=0.9,en;q=0.8","663ba5be68b9831a7ee50cfc","683dba9a53627eb9ab41b36a","688ab16894bc41d1cf49a268","0","663ba5be68b9831a7ee50cfc","0","2025-07-31T00:04:50.981Z","","","","","","","","","","","","","","","","win-only","3","g1:SW,g2:NE","0.6","5","0","390462.3","1325.4","6326.1","27345.7","1","4","4","6","1","1","1","3","2","0.022727272727272728","1182.5","3000","1400","[""down"",""left""]","{""num_key_presses"":4,""num_perfect"":3,""num_errors"":0,""num_randdir"":1,""num_randdir_good_moves"":1,""num_whilered"":0,""num_whileblue"":0,""num_blue"":3,""num_good_moves"":4}","[684.2857142857143,704.0825892857143,0.1,684.2857142857143,704.0825892857143,102.4,684.2857142857143,704.0825892857143,205.4,684.2857142857143,704.0825892857143,310.8,684.2857142857143,704.0825892857143,410.8,684.2857142857143,704.0825892857143,515.4,766.2857142857143,658.0825892857143,615.4,482.2857142857143,922.0825892857143,720.4,202.28571428571428,1138.0825892857142,820.7,142.28571428571428,1222.0825892857142,920.8,86.28571428571429,1276.0825892857142,1025.2,98.28571428571429,1274.0825892857142,1130.1,98.28571428571429,1274.0825892857142,1230.5,98.28571428571429,1274.0825892857142,1334.7,98.28571428571429,1274.0825892857142,1439.9,-97.71428571428571,1242.0825892857142,1539.9,-655.7142857142857,1100.0825892857142,1639.9,-655.7142857142857,1100.0825892857142,1739.9,-655.7142857142857,1100.0825892857142,1840.5,-655.7142857142857,1100.0825892857142,1945.7,-655.7142857142857,1100.0825892857142,2045.7,-655.7142857142857,1100.0825892857142,2149.8,-655.7142857142857,1100.0825892857142,2249.9,-655.7142857142857,1100.0825892857142,2355.2,-655.7142857142857,1100.0825892857142,2455.3,-655.7142857142857,1100.0825892857142,2555.4,-655.7142857142857,1100.0825892857142,2655.5,-655.7142857142857,1100.0825892857142,2760.8,-655.7142857142857,1100.0825892857142,2865.2,-655.7142857142857,1100.0825892857142,2965.5,-655.7142857142857,1100.0825892857142,3070.5,-655.7142857142857,1100.0825892857142,3175.5,-655.7142857142857,1100.0825892857142,3280.4,-655.7142857142857,1100.0825892857142,3384.8,-655.7142857142857,1100.0825892857142,3485.5,-655.7142857142857,1100.0825892857142,3585.7,-655.7142857142857,1100.0825892857142,3689.9,-655.7142857142857,1100.0825892857142,3790.5,-655.7142857142857,1100.0825892857142,3890.6,-655.7142857142857,1100.0825892857142,3990.6,-655.7142857142857,1100.0825892857142,4095.5,-655.7142857142857,1100.0825892857142,4199.9,-655.7142857142857,1100.0825892857142,4299.9,-655.7142857142857,1100.0825892857142,4400.1,-655.7142857142857,1100.0825892857142,4500.3,-655.7142857142857,1100.0825892857142,4606.1,-655.7142857142857,1100.0825892857142,4710.2,-655.7142857142857,1100.0825892857142,4814.7,-655.7142857142857,1100.0825892857142,4914.8]","[4909.6,4909.6,2472,2009.8,427.8,""smooth"",""left"",""left"",""good_move"",7742.7,2832.7,2465.6,4910,367.1,""oops"",""left"",""left"",""good_move"",17707.7,9964.7,2897.5,14374.8,435.4,""smooth"",""down"",""down"",""good_move"",20921.9,3214,2823.9,17707.9,390.1,""smooth"",""down"",""down"",""good_move""]"
"16324","","<div style=""width:500px;"">
  <p>What determined the result of this run?</p>
  </div>","1","html-slider-response","34","435850","0.0-7.0-1.4","105","1","2025-07-30 23:57:50","36c45c0696341be0efffe67d72a12abb","51.146.189.238","Mozilla/5.0 (Macintosh; Intel Mac OS X 10_15_7) AppleWebKit/537.36 (KHTML, like Gecko) Chrome/137.0.0.0 Safari/537.36","Macintosh","Chrome","137.0.0.0","OS X","10_15_7","https://app.prolific.com/","en-GB,en-US;q=0.9,en;q=0.8","663ba5be68b9831a7ee50cfc","683dba9a53627eb9ab41b36a","688ab16894bc41d1cf49a268","0","663ba5be68b9831a7ee50cfc","0","2025-07-31T00:05:07.306Z","","","","AttribQ","","","","","","","","","","","50","","","","","","","","","","","","","","","","","","","","","","","","","","",""
"3152","","<div style=""width:500px;"">
  <p>How much control did you have over the ball?</p>
  </div>","99","html-slider-response","35","439003","0.0-7.0-2.4","105","1","2025-07-30 23:57:50","36c45c0696341be0efffe67d72a12abb","51.146.189.238","Mozilla/5.0 (Macintosh; Intel Mac OS X 10_15_7) AppleWebKit/537.36 (KHTML, like Gecko) Chrome/137.0.0.0 Safari/537.36","Macintosh","Chrome","137.0.0.0","OS X","10_15_7","https://app.prolific.com/","en-GB,en-US;q=0.9,en;q=0.8","663ba5be68b9831a7ee50cfc","683dba9a53627eb9ab41b36a","688ab16894bc41d1cf49a268","0","663ba5be68b9831a7ee50cfc","0","2025-07-31T00:05:10.458Z","","","","ControlQ","","","","","","","","","","","50","","","","","","","","","","","","","","","","","","","","","","","","","","",""
"2474","","<div style=""width:500px;"">
  <p>How would you describe your current emotional state?</p>
  </div>","25","html-slider-response","36","441477","0.0-7.0-3.4","105","1","2025-07-30 23:57:50","36c45c0696341be0efffe67d72a12abb","51.146.189.238","Mozilla/5.0 (Macintosh; Intel Mac OS X 10_15_7) AppleWebKit/537.36 (KHTML, like Gecko) Chrome/137.0.0.0 Safari/537.36","Macintosh","Chrome","137.0.0.0","OS X","10_15_7","https://app.prolific.com/","en-GB,en-US;q=0.9,en;q=0.8","663ba5be68b9831a7ee50cfc","683dba9a53627eb9ab41b36a","688ab16894bc41d1cf49a268","0","663ba5be68b9831a7ee50cfc","0","2025-07-31T00:05:12.932Z","","","","StressQ","","","","","","","","","","","50","","","","","","","","","","","","","","","","","","","","","","","","","","",""
"2230","","<div style=""width:500px;"">
  <p>What best describes how you currently feel?</p>
  </div>","24","html-slider-response","37","443708","0.0-7.0-4.4","105","1","2025-07-30 23:57:50","36c45c0696341be0efffe67d72a12abb","51.146.189.238","Mozilla/5.0 (Macintosh; Intel Mac OS X 10_15_7) AppleWebKit/537.36 (KHTML, like Gecko) Chrome/137.0.0.0 Safari/537.36","Macintosh","Chrome","137.0.0.0","OS X","10_15_7","https://app.prolific.com/","en-GB,en-US;q=0.9,en;q=0.8","663ba5be68b9831a7ee50cfc","683dba9a53627eb9ab41b36a","688ab16894bc41d1cf49a268","0","663ba5be68b9831a7ee50cfc","0","2025-07-31T00:05:15.163Z","","","","MotivationQ","","","","","","","","","","","50","","","","","","","","","","","","","","","","","","","","","","","","","","",""
"","","","","ctl-task-cpt","38","482698","0.0-7.0-0.5","105","1","2025-07-30 23:57:50","36c45c0696341be0efffe67d72a12abb","51.146.189.238","Mozilla/5.0 (Macintosh; Intel Mac OS X 10_15_7) AppleWebKit/537.36 (KHTML, like Gecko) Chrome/137.0.0.0 Safari/537.36","Macintosh","Chrome","137.0.0.0","OS X","10_15_7","https://app.prolific.com/","en-GB,en-US;q=0.9,en;q=0.8","663ba5be68b9831a7ee50cfc","683dba9a53627eb9ab41b36a","688ab16894bc41d1cf49a268","0","663ba5be68b9831a7ee50cfc","0","2025-07-31T00:05:54.154Z","","","","","","","","","","","","","","","","win-only","2","g1:SE,g2:NW","0.5","6","0","444999.8","1059.3","6061.1","35980.4","1","4","8","6","1","-1","-1","2","3","0.015151515151515152","1360.3","3000","-3005","[""down"",""right""]","{""num_key_presses"":8,""num_perfect"":5,""num_errors"":0,""num_randdir"":3,""num_randdir_good_moves"":0,""num_whilered"":0,""num_whileblue"":0,""num_blue"":2,""num_good_moves"":5}","[684.2857142857143,688.0825892857143,0.2,684.2857142857143,688.0825892857143,101.3,684.2857142857143,688.0825892857143,205.7,684.2857142857143,688.0825892857143,305.9,684.2857142857143,688.0825892857143,411.2,684.2857142857143,688.0825892857143,511.6,684.2857142857143,688.0825892857143,617.1,684.2857142857143,688.0825892857143,720.7,684.2857142857143,688.0825892857143,821.6,708.2857142857143,688.0825892857143,925.8,1238.2857142857142,1194.0825892857142,1026.3,1300.2857142857142,1270.0825892857142,1126.3,1300.2857142857142,1270.0825892857142,1226.4,1300.2857142857142,1270.0825892857142,1331,1300.2857142857142,1270.0825892857142,1436.1,1300.2857142857142,1270.0825892857142,1536.6,1300.2857142857142,1270.0825892857142,1641.6,2010.2857142857142,1062.0825892857142,1745.8,2132.285714285714,1074.0825892857142,1845.8,2132.285714285714,1074.0825892857142,1946.9,2132.285714285714,1074.0825892857142,2047.9,2132.285714285714,1074.0825892857142,2150.9,2132.285714285714,1074.0825892857142,2251.3,2132.285714285714,1074.0825892857142,2356,2132.285714285714,1074.0825892857142,2456,2132.285714285714,1074.0825892857142,2556,2132.285714285714,1074.0825892857142,2656.3,2132.285714285714,1074.0825892857142,2757.9,2132.285714285714,1074.0825892857142,2861.8,2132.285714285714,1074.0825892857142,2968.1,2132.285714285714,1074.0825892857142,3070.8,2132.285714285714,1074.0825892857142,3171.2,2132.285714285714,1074.0825892857142,3276.1,2132.285714285714,1074.0825892857142,3376.4,2132.285714285714,1074.0825892857142,3480.9,2132.285714285714,1074.0825892857142,3581.2,2132.285714285714,1074.0825892857142,3681.3,2132.285714285714,1074.0825892857142,3786.5,2132.285714285714,1074.0825892857142,3890.9,2132.285714285714,1074.0825892857142,3997.6,2132.285714285714,1074.0825892857142,4100.9,2132.285714285714,1074.0825892857142,4201.5,2132.285714285714,1074.0825892857142,4301.7,2132.285714285714,1074.0825892857142,4401.7,2132.285714285714,1074.0825892857142,4501.8,2132.285714285714,1074.0825892857142,4601.8,2132.285714285714,1074.0825892857142,4705.7,2132.285714285714,1074.0825892857142,4805.8,2132.285714285714,1074.0825892857142,4906.7]","[1460.6,1460.6,1000,0,460.6,""smooth"",""right"",""right"",""good_move"",3894.4,2433.6,2061.6,1460.8,372,""smooth"",""down"",""down"",""good_move"",6229.3,2334.5,2000,3894.8,334.5,""oops"",""right"",""up"",""bad_move"",12177.7,5948.2,2455.5,9289.8,432.4,""smooth"",""right"",""right"",""good_move"",15726.5,3548.4,3191.7,12178.1,356.7,""smooth"",""down"",""down"",""good_move"",18503.2,2776.4,2385,15726.9,391.3,""oops"",""down"",""left"",""bad_move"",21333.8,2830.3,2493.1,18503.5,337.2,""smooth"",""down"",""down"",""good_move"",26977.9,5643.8,2166.8,24529.2,281.9,""oops"",""right"",""left"",""bad_move""]"
"3456","","<div style=""width:500px;"">
  <p>What determined the result of this run?</p>
  </div>","50","html-slider-response","39","486155","0.0-7.0-1.5","105","1","2025-07-30 23:57:50","36c45c0696341be0efffe67d72a12abb","51.146.189.238","Mozilla/5.0 (Macintosh; Intel Mac OS X 10_15_7) AppleWebKit/537.36 (KHTML, like Gecko) Chrome/137.0.0.0 Safari/537.36","Macintosh","Chrome","137.0.0.0","OS X","10_15_7","https://app.prolific.com/","en-GB,en-US;q=0.9,en;q=0.8","663ba5be68b9831a7ee50cfc","683dba9a53627eb9ab41b36a","688ab16894bc41d1cf49a268","0","663ba5be68b9831a7ee50cfc","0","2025-07-31T00:05:57.610Z","","","","AttribQ","","","","","","","","","","","50","","","","","","","","","","","","","","","","","","","","","","","","","","",""
"5198","","<div style=""width:500px;"">
  <p>How much control did you have over the ball?</p>
  </div>","18","html-slider-response","40","491353","0.0-7.0-2.5","105","1","2025-07-30 23:57:50","36c45c0696341be0efffe67d72a12abb","51.146.189.238","Mozilla/5.0 (Macintosh; Intel Mac OS X 10_15_7) AppleWebKit/537.36 (KHTML, like Gecko) Chrome/137.0.0.0 Safari/537.36","Macintosh","Chrome","137.0.0.0","OS X","10_15_7","https://app.prolific.com/","en-GB,en-US;q=0.9,en;q=0.8","663ba5be68b9831a7ee50cfc","683dba9a53627eb9ab41b36a","688ab16894bc41d1cf49a268","0","663ba5be68b9831a7ee50cfc","0","2025-07-31T00:06:02.808Z","","","","ControlQ","","","","","","","","","","","50","","","","","","","","","","","","","","","","","","","","","","","","","","",""
"3225","","<div style=""width:500px;"">
  <p>How would you describe your current emotional state?</p>
  </div>","31","html-slider-response","41","494579","0.0-7.0-3.5","105","1","2025-07-30 23:57:50","36c45c0696341be0efffe67d72a12abb","51.146.189.238","Mozilla/5.0 (Macintosh; Intel Mac OS X 10_15_7) AppleWebKit/537.36 (KHTML, like Gecko) Chrome/137.0.0.0 Safari/537.36","Macintosh","Chrome","137.0.0.0","OS X","10_15_7","https://app.prolific.com/","en-GB,en-US;q=0.9,en;q=0.8","663ba5be68b9831a7ee50cfc","683dba9a53627eb9ab41b36a","688ab16894bc41d1cf49a268","0","663ba5be68b9831a7ee50cfc","0","2025-07-31T00:06:06.034Z","","","","StressQ","","","","","","","","","","","50","","","","","","","","","","","","","","","","","","","","","","","","","","",""
"2812","","<div style=""width:500px;"">
  <p>What best describes how you currently feel?</p>
  </div>","28","html-slider-response","42","497392","0.0-7.0-4.5","105","1","2025-07-30 23:57:50","36c45c0696341be0efffe67d72a12abb","51.146.189.238","Mozilla/5.0 (Macintosh; Intel Mac OS X 10_15_7) AppleWebKit/537.36 (KHTML, like Gecko) Chrome/137.0.0.0 Safari/537.36","Macintosh","Chrome","137.0.0.0","OS X","10_15_7","https://app.prolific.com/","en-GB,en-US;q=0.9,en;q=0.8","663ba5be68b9831a7ee50cfc","683dba9a53627eb9ab41b36a","688ab16894bc41d1cf49a268","0","663ba5be68b9831a7ee50cfc","0","2025-07-31T00:06:08.847Z","","","","MotivationQ","","","","","","","","","","","50","","","","","","","","","","","","","","","","","","","","","","","","","","",""
"","","","","ctl-task-cpt","43","515848","0.0-7.0-0.6","105","1","2025-07-30 23:57:50","36c45c0696341be0efffe67d72a12abb","51.146.189.238","Mozilla/5.0 (Macintosh; Intel Mac OS X 10_15_7) AppleWebKit/537.36 (KHTML, like Gecko) Chrome/137.0.0.0 Safari/537.36","Macintosh","Chrome","137.0.0.0","OS X","10_15_7","https://app.prolific.com/","en-GB,en-US;q=0.9,en;q=0.8","663ba5be68b9831a7ee50cfc","683dba9a53627eb9ab41b36a","688ab16894bc41d1cf49a268","0","663ba5be68b9831a7ee50cfc","0","2025-07-31T00:06:27.303Z","","","","","","","","","","","","","","","","win-only","3","g1:SW,g2:NE","0.4","7","0","498683.2","1277.8","6281","15446.1","1","4","4","6","1","1","1","3","2","0.022727272727272728","1148.3","3000","1415","[""down"",""left""]","{""num_key_presses"":4,""num_perfect"":3,""num_errors"":0,""num_randdir"":1,""num_randdir_good_moves"":1,""num_whilered"":0,""num_whileblue"":0,""num_blue"":0,""num_good_moves"":4}","[690.2857142857143,698.0825892857143,0.1,690.2857142857143,698.0825892857143,102.9,690.2857142857143,698.0825892857143,208.2,690.2857142857143,698.0825892857143,312.4,690.2857142857143,698.0825892857143,412.7,690.2857142857143,698.0825892857143,512.8,518.2857142857143,812.0825892857143,617.9,-97.71428571428571,1318.0825892857142,718.2,0.2857142857142918,1306.0825892857142,818.2,84.28571428571429,1268.0825892857142,923.2,132.28571428571428,1270.0825892857142,1027.3,138.28571428571428,1268.0825892857142,1128,138.28571428571428,1268.0825892857142,1232.7,138.28571428571428,1268.0825892857142,1338.3,138.28571428571428,1268.0825892857142,1438.4,-473.7142857142857,1238.0825892857142,1543,-697.7142857142857,1234.0825892857142,1643.2,-697.7142857142857,1234.0825892857142,1748,-697.7142857142857,1234.0825892857142,1848.1,-697.7142857142857,1234.0825892857142,1953.2,-697.7142857142857,1234.0825892857142,2053.2,-697.7142857142857,1234.0825892857142,2157.8,-697.7142857142857,1234.0825892857142,2262.9,-697.7142857142857,1234.0825892857142,2367.8,-697.7142857142857,1234.0825892857142,2468.4,-697.7142857142857,1234.0825892857142,2572.3,-697.7142857142857,1234.0825892857142,2672.9,-697.7142857142857,1234.0825892857142,2773.2,-697.7142857142857,1234.0825892857142,2875.3,-697.7142857142857,1234.0825892857142,2978.4,-697.7142857142857,1234.0825892857142,3083.1,-697.7142857142857,1234.0825892857142,3187.3,-697.7142857142857,1234.0825892857142,3287.4,-697.7142857142857,1234.0825892857142,3387.4,-697.7142857142857,1234.0825892857142,3492.4,-697.7142857142857,1234.0825892857142,3593.3,-697.7142857142857,1234.0825892857142,3699.9,-697.7142857142857,1234.0825892857142,3800.4,-697.7142857142857,1234.0825892857142,3902.9,-697.7142857142857,1234.0825892857142,4008.4,-697.7142857142857,1234.0825892857142,4112.7,-697.7142857142857,1234.0825892857142,4213.3,-697.7142857142857,1234.0825892857142,4318.1,-697.7142857142857,1234.0825892857142,4422.5,-697.7142857142857,1234.0825892857142,4522.5,-697.7142857142857,1234.0825892857142,4623.3,-697.7142857142857,1234.0825892857142,4727.7,-697.7142857142857,1234.0825892857142,4830.1,-697.7142857142857,1234.0825892857142,4932.6]","[1495.7,1495.7,1000,0,495.7,""smooth"",""left"",""left"",""good_move"",4059.2,2563.2,2155,1496,408.2,""smooth"",""left"",""left"",""good_move"",7047.6,2988.2,2708.4,4059.4,279.8,""oops"",""down"",""down"",""good_move"",9079.6,2031.8,1605.9,7047.8,425.9,""smooth"",""down"",""down"",""good_move""]"
"3207","","<div style=""width:500px;"">
  <p>What determined the result of this run?</p>
  </div>","50","html-slider-response","44","519056","0.0-7.0-1.6","105","1","2025-07-30 23:57:50","36c45c0696341be0efffe67d72a12abb","51.146.189.238","Mozilla/5.0 (Macintosh; Intel Mac OS X 10_15_7) AppleWebKit/537.36 (KHTML, like Gecko) Chrome/137.0.0.0 Safari/537.36","Macintosh","Chrome","137.0.0.0","OS X","10_15_7","https://app.prolific.com/","en-GB,en-US;q=0.9,en;q=0.8","663ba5be68b9831a7ee50cfc","683dba9a53627eb9ab41b36a","688ab16894bc41d1cf49a268","0","663ba5be68b9831a7ee50cfc","0","2025-07-31T00:06:30.511Z","","","","AttribQ","","","","","","","","","","","50","","","","","","","","","","","","","","","","","","","","","","","","","","",""
"3775","","<div style=""width:500px;"">
  <p>How much control did you have over the ball?</p>
  </div>","95","html-slider-response","45","522831","0.0-7.0-2.6","105","1","2025-07-30 23:57:50","36c45c0696341be0efffe67d72a12abb","51.146.189.238","Mozilla/5.0 (Macintosh; Intel Mac OS X 10_15_7) AppleWebKit/537.36 (KHTML, like Gecko) Chrome/137.0.0.0 Safari/537.36","Macintosh","Chrome","137.0.0.0","OS X","10_15_7","https://app.prolific.com/","en-GB,en-US;q=0.9,en;q=0.8","663ba5be68b9831a7ee50cfc","683dba9a53627eb9ab41b36a","688ab16894bc41d1cf49a268","0","663ba5be68b9831a7ee50cfc","0","2025-07-31T00:06:34.286Z","","","","ControlQ","","","","","","","","","","","50","","","","","","","","","","","","","","","","","","","","","","","","","","",""
"2570","","<div style=""width:500px;"">
  <p>How would you describe your current emotional state?</p>
  </div>","27","html-slider-response","46","525402","0.0-7.0-3.6","105","1","2025-07-30 23:57:50","36c45c0696341be0efffe67d72a12abb","51.146.189.238","Mozilla/5.0 (Macintosh; Intel Mac OS X 10_15_7) AppleWebKit/537.36 (KHTML, like Gecko) Chrome/137.0.0.0 Safari/537.36","Macintosh","Chrome","137.0.0.0","OS X","10_15_7","https://app.prolific.com/","en-GB,en-US;q=0.9,en;q=0.8","663ba5be68b9831a7ee50cfc","683dba9a53627eb9ab41b36a","688ab16894bc41d1cf49a268","0","663ba5be68b9831a7ee50cfc","0","2025-07-31T00:06:36.857Z","","","","StressQ","","","","","","","","","","","50","","","","","","","","","","","","","","","","","","","","","","","","","","",""
"2028","","<div style=""width:500px;"">
  <p>What best describes how you currently feel?</p>
  </div>","28","html-slider-response","47","527431","0.0-7.0-4.6","105","1","2025-07-30 23:57:50","36c45c0696341be0efffe67d72a12abb","51.146.189.238","Mozilla/5.0 (Macintosh; Intel Mac OS X 10_15_7) AppleWebKit/537.36 (KHTML, like Gecko) Chrome/137.0.0.0 Safari/537.36","Macintosh","Chrome","137.0.0.0","OS X","10_15_7","https://app.prolific.com/","en-GB,en-US;q=0.9,en;q=0.8","663ba5be68b9831a7ee50cfc","683dba9a53627eb9ab41b36a","688ab16894bc41d1cf49a268","0","663ba5be68b9831a7ee50cfc","0","2025-07-31T00:06:38.886Z","","","","MotivationQ","","","","","","","","","","","50","","","","","","","","","","","","","","","","","","","","","","","","","","",""
"","","","","ctl-task-cpt","48","568346","0.0-7.0-0.7","105","1","2025-07-30 23:57:50","36c45c0696341be0efffe67d72a12abb","51.146.189.238","Mozilla/5.0 (Macintosh; Intel Mac OS X 10_15_7) AppleWebKit/537.36 (KHTML, like Gecko) Chrome/137.0.0.0 Safari/537.36","Macintosh","Chrome","137.0.0.0","OS X","10_15_7","https://app.prolific.com/","en-GB,en-US;q=0.9,en;q=0.8","663ba5be68b9831a7ee50cfc","683dba9a53627eb9ab41b36a","688ab16894bc41d1cf49a268","0","663ba5be68b9831a7ee50cfc","0","2025-07-31T00:07:19.801Z","","","","","","","","","","","","","","","","win-only","0","g1:NW,g2:SE","0.3","8","0","528721.8","1131.9","6137","37905.6","1","4","8","6","1","-1","-1","2","3","0.015151515151515152","1243.7","3000","-2995","[""left"",""up""]","{""num_key_presses"":8,""num_perfect"":2,""num_errors"":0,""num_randdir"":6,""num_randdir_good_moves"":1,""num_whilered"":0,""num_whileblue"":0,""num_blue"":2,""num_good_moves"":3}","[704.2857142857143,706.0825892857143,0.2,704.2857142857143,706.0825892857143,103.6,704.2857142857143,706.0825892857143,208.9,704.2857142857143,706.0825892857143,309.2,704.2857142857143,706.0825892857143,413.6,704.2857142857143,706.0825892857143,513.7,612.2857142857143,638.0825892857143,618.9,494.2857142857143,532.0825892857143,719.3,274.2857142857143,316.0825892857143,824.2,236.28571428571428,192.08258928571428,928.7,178.28571428571428,168.08258928571428,1034.1,134.28571428571428,148.08258928571428,1134.3,130.28571428571428,148.08258928571428,1238.9,130.28571428571428,148.08258928571428,1353.8,130.28571428571428,148.08258928571428,1459.3,130.28571428571428,148.08258928571428,1563.6,-329.7142857142857,186.08258928571428,1663.6,-489.7142857142857,244.08258928571428,1768.6,-489.7142857142857,244.08258928571428,1869.1,-489.7142857142857,244.08258928571428,1974.3,-489.7142857142857,244.08258928571428,2074.3,-489.7142857142857,244.08258928571428,2178.4,-489.7142857142857,244.08258928571428,2279,-489.7142857142857,244.08258928571428,2383.2,-489.7142857142857,244.08258928571428,2483.5,-489.7142857142857,244.08258928571428,2584.1,-489.7142857142857,244.08258928571428,2688.5,-489.7142857142857,244.08258928571428,2788.7,-489.7142857142857,244.08258928571428,2888.7,-489.7142857142857,244.08258928571428,2993.8,-489.7142857142857,244.08258928571428,3098.2,-489.7142857142857,244.08258928571428,3199.3,-489.7142857142857,244.08258928571428,3303.4,-489.7142857142857,244.08258928571428,3404.6,-489.7142857142857,244.08258928571428,3508.8,-489.7142857142857,244.08258928571428,3613.3,-489.7142857142857,244.08258928571428,3714.4,-489.7142857142857,244.08258928571428,3818.4,-489.7142857142857,244.08258928571428,3918.6,-489.7142857142857,244.08258928571428,4023.8,-489.7142857142857,244.08258928571428,4123.8,-489.7142857142857,244.08258928571428,4229.2,-489.7142857142857,244.08258928571428,4333.6,-489.7142857142857,244.08258928571428,4435.2,-489.7142857142857,244.08258928571428,4538.5,-489.7142857142857,244.08258928571428,4644.3,-489.7142857142857,244.08258928571428,4749.2,-489.7142857142857,244.08258928571428,4849.3,-489.7142857142857,244.08258928571428,4953.2]","[1398.7,1398.7,1000,0,398.7,""smooth"",""left"",""left"",""good_move"",4239.9,2840.7,2461.4,1399.2,379.3,""oops"",""left"",""down"",""bad_move"",6872.1,2631.9,2274.9,4240.2,357,""smooth"",""left"",""left"",""good_move"",13412.5,6540.4,2506.4,10588.4,317.7,""oops"",""up"",""down"",""bad_move"",16494.6,3081.7,2725.3,13412.9,356.4,""oops"",""up"",""up"",""good_move"",19651.2,3156.2,2840.5,16495,315.7,""oops"",""up"",""down"",""bad_move"",22599.7,2948.2,2618.4,19651.5,329.8,""oops"",""up"",""right"",""bad_move"",25968.7,3368.6,3069.4,22600.1,299.2,""oops"",""up"",""right"",""bad_move""]"
"2928","","<div style=""width:500px;"">
  <p>What determined the result of this run?</p>
  </div>","50","html-slider-response","49","571275","0.0-7.0-1.7","105","1","2025-07-30 23:57:50","36c45c0696341be0efffe67d72a12abb","51.146.189.238","Mozilla/5.0 (Macintosh; Intel Mac OS X 10_15_7) AppleWebKit/537.36 (KHTML, like Gecko) Chrome/137.0.0.0 Safari/537.36","Macintosh","Chrome","137.0.0.0","OS X","10_15_7","https://app.prolific.com/","en-GB,en-US;q=0.9,en;q=0.8","663ba5be68b9831a7ee50cfc","683dba9a53627eb9ab41b36a","688ab16894bc41d1cf49a268","0","663ba5be68b9831a7ee50cfc","0","2025-07-31T00:07:22.730Z","","","","AttribQ","","","","","","","","","","","50","","","","","","","","","","","","","","","","","","","","","","","","","","",""
"3306","","<div style=""width:500px;"">
  <p>How much control did you have over the ball?</p>
  </div>","0","html-slider-response","50","574581","0.0-7.0-2.7","105","1","2025-07-30 23:57:50","36c45c0696341be0efffe67d72a12abb","51.146.189.238","Mozilla/5.0 (Macintosh; Intel Mac OS X 10_15_7) AppleWebKit/537.36 (KHTML, like Gecko) Chrome/137.0.0.0 Safari/537.36","Macintosh","Chrome","137.0.0.0","OS X","10_15_7","https://app.prolific.com/","en-GB,en-US;q=0.9,en;q=0.8","663ba5be68b9831a7ee50cfc","683dba9a53627eb9ab41b36a","688ab16894bc41d1cf49a268","0","663ba5be68b9831a7ee50cfc","0","2025-07-31T00:07:26.036Z","","","","ControlQ","","","","","","","","","","","50","","","","","","","","","","","","","","","","","","","","","","","","","","",""
"3879","","<div style=""width:500px;"">
  <p>How would you describe your current emotional state?</p>
  </div>","26","html-slider-response","51","578461","0.0-7.0-3.7","105","1","2025-07-30 23:57:50","36c45c0696341be0efffe67d72a12abb","51.146.189.238","Mozilla/5.0 (Macintosh; Intel Mac OS X 10_15_7) AppleWebKit/537.36 (KHTML, like Gecko) Chrome/137.0.0.0 Safari/537.36","Macintosh","Chrome","137.0.0.0","OS X","10_15_7","https://app.prolific.com/","en-GB,en-US;q=0.9,en;q=0.8","663ba5be68b9831a7ee50cfc","683dba9a53627eb9ab41b36a","688ab16894bc41d1cf49a268","0","663ba5be68b9831a7ee50cfc","0","2025-07-31T00:07:29.916Z","","","","StressQ","","","","","","","","","","","50","","","","","","","","","","","","","","","","","","","","","","","","","","",""
"2190","","<div style=""width:500px;"">
  <p>What best describes how you currently feel?</p>
  </div>","22","html-slider-response","52","580652","0.0-7.0-4.7","105","1","2025-07-30 23:57:50","36c45c0696341be0efffe67d72a12abb","51.146.189.238","Mozilla/5.0 (Macintosh; Intel Mac OS X 10_15_7) AppleWebKit/537.36 (KHTML, like Gecko) Chrome/137.0.0.0 Safari/537.36","Macintosh","Chrome","137.0.0.0","OS X","10_15_7","https://app.prolific.com/","en-GB,en-US;q=0.9,en;q=0.8","663ba5be68b9831a7ee50cfc","683dba9a53627eb9ab41b36a","688ab16894bc41d1cf49a268","0","663ba5be68b9831a7ee50cfc","0","2025-07-31T00:07:32.107Z","","","","MotivationQ","","","","","","","","","","","50","","","","","","","","","","","","","","","","","","","","","","","","","","",""
"","","","","ctl-task-cpt","53","618162","0.0-7.0-0.8","105","1","2025-07-30 23:57:50","36c45c0696341be0efffe67d72a12abb","51.146.189.238","Mozilla/5.0 (Macintosh; Intel Mac OS X 10_15_7) AppleWebKit/537.36 (KHTML, like Gecko) Chrome/137.0.0.0 Safari/537.36","Macintosh","Chrome","137.0.0.0","OS X","10_15_7","https://app.prolific.com/","en-GB,en-US;q=0.9,en;q=0.8","663ba5be68b9831a7ee50cfc","683dba9a53627eb9ab41b36a","688ab16894bc41d1cf49a268","0","663ba5be68b9831a7ee50cfc","0","2025-07-31T00:08:09.617Z","","","","","","","","","","","","","","","","win-only","0","g1:NW,g2:SE","0.4","9","0","581942.5","1277.4","6280.3","34536.2","1","4","4","6","1","-1","-1","1","2","0.007575757575757576","1010.5","3000","-2990","[""left"",""up""]","{""num_key_presses"":8,""num_perfect"":3,""num_errors"":0,""num_randdir"":5,""num_randdir_good_moves"":2,""num_whilered"":0,""num_whileblue"":0,""num_blue"":1,""num_good_moves"":5}","[700.2857142857143,682.0825892857143,0.1,700.2857142857143,682.0825892857143,103.4,700.2857142857143,682.0825892857143,208.7,700.2857142857143,682.0825892857143,312.8,700.2857142857143,682.0825892857143,413,700.2857142857143,682.0825892857143,513,606.2857142857143,612.0825892857143,618.4,102.28571428571429,102.08258928571429,722.7,94.28571428571429,84.08258928571429,823.1,94.28571428571429,84.08258928571429,923.5,94.28571428571429,84.08258928571429,1023.8,94.28571428571429,84.08258928571429,1128.6,94.28571428571429,84.08258928571429,1233.2,22.285714285714292,98.08258928571429,1333.3,-335.7142857142857,212.08258928571428,1433.6,-335.7142857142857,212.08258928571428,1538.7,-335.7142857142857,212.08258928571428,1643,-335.7142857142857,212.08258928571428,1743.1,-335.7142857142857,212.08258928571428,1848.2,-335.7142857142857,212.08258928571428,1948.2,-335.7142857142857,212.08258928571428,2048.5,-335.7142857142857,212.08258928571428,2153,-335.7142857142857,212.08258928571428,2253.6,-335.7142857142857,212.08258928571428,2358.1,-335.7142857142857,212.08258928571428,2458.5,-335.7142857142857,212.08258928571428,2562.9,-335.7142857142857,212.08258928571428,2663.5,-335.7142857142857,212.08258928571428,2768.3,-335.7142857142857,212.08258928571428,2868.4,-335.7142857142857,212.08258928571428,2973.7,-335.7142857142857,212.08258928571428,3073.7,-335.7142857142857,212.08258928571428,3178.1,-335.7142857142857,212.08258928571428,3282.7,-335.7142857142857,212.08258928571428,3383.6,-335.7142857142857,212.08258928571428,3483.6,-335.7142857142857,212.08258928571428,3587.9,-335.7142857142857,212.08258928571428,3688.1,-335.7142857142857,212.08258928571428,3793,-335.7142857142857,212.08258928571428,3893.2,-335.7142857142857,212.08258928571428,3993.2,-335.7142857142857,212.08258928571428,4093.7,-335.7142857142857,212.08258928571428,4197.7,-335.7142857142857,212.08258928571428,4298.2,-335.7142857142857,212.08258928571428,4398.2,-335.7142857142857,212.08258928571428,4498.2,-335.7142857142857,212.08258928571428,4603.8,-335.7142857142857,212.08258928571428,4703.8,-335.7142857142857,212.08258928571428,4808.3,-335.7142857142857,212.08258928571428,4908.5]","[4288.6,4288.6,1895.8,2005.2,387.6,""oops"",""left"",""left"",""good_move"",7276.2,2987.3,2618.7,4288.9,368.6,""oops"",""left"",""left"",""good_move"",10150.1,2873.7,2505.5,7276.4,368.2,""oops"",""up"",""down"",""bad_move"",12208.7,2058.4,1703.3,10150.3,355.1,""smooth"",""up"",""up"",""good_move"",15589.4,3380.5,3030.3,12208.9,350.2,""smooth"",""up"",""up"",""good_move"",19306,3716.5,3416.3,15589.5,300.3,""oops"",""up"",""down"",""bad_move"",22554.8,3248.3,2876.9,19306.5,371.4,""smooth"",""up"",""up"",""good_move"",25247.3,2692.2,2318,22555.1,374.2,""oops"",""up"",""down"",""bad_move""]"
"25434","","<div style=""width:500px;"">
  <p>What determined the result of this run?</p>
  </div>","45","html-slider-response","54","643592","0.0-7.0-1.8","105","1","2025-07-30 23:57:50","36c45c0696341be0efffe67d72a12abb","51.146.189.238","Mozilla/5.0 (Macintosh; Intel Mac OS X 10_15_7) AppleWebKit/537.36 (KHTML, like Gecko) Chrome/137.0.0.0 Safari/537.36","Macintosh","Chrome","137.0.0.0","OS X","10_15_7","https://app.prolific.com/","en-GB,en-US;q=0.9,en;q=0.8","663ba5be68b9831a7ee50cfc","683dba9a53627eb9ab41b36a","688ab16894bc41d1cf49a268","0","663ba5be68b9831a7ee50cfc","0","2025-07-31T00:08:35.047Z","","","","AttribQ","","","","","","","","","","","50","","","","","","","","","","","","","","","","","","","","","","","","","","",""
"3402","","<div style=""width:500px;"">
  <p>How much control did you have over the ball?</p>
  </div>","34","html-slider-response","55","646994","0.0-7.0-2.8","105","1","2025-07-30 23:57:50","36c45c0696341be0efffe67d72a12abb","51.146.189.238","Mozilla/5.0 (Macintosh; Intel Mac OS X 10_15_7) AppleWebKit/537.36 (KHTML, like Gecko) Chrome/137.0.0.0 Safari/537.36","Macintosh","Chrome","137.0.0.0","OS X","10_15_7","https://app.prolific.com/","en-GB,en-US;q=0.9,en;q=0.8","663ba5be68b9831a7ee50cfc","683dba9a53627eb9ab41b36a","688ab16894bc41d1cf49a268","0","663ba5be68b9831a7ee50cfc","0","2025-07-31T00:08:38.449Z","","","","ControlQ","","","","","","","","","","","50","","","","","","","","","","","","","","","","","","","","","","","","","","",""
"2893","","<div style=""width:500px;"">
  <p>How would you describe your current emotional state?</p>
  </div>","31","html-slider-response","56","649888","0.0-7.0-3.8","105","1","2025-07-30 23:57:50","36c45c0696341be0efffe67d72a12abb","51.146.189.238","Mozilla/5.0 (Macintosh; Intel Mac OS X 10_15_7) AppleWebKit/537.36 (KHTML, like Gecko) Chrome/137.0.0.0 Safari/537.36","Macintosh","Chrome","137.0.0.0","OS X","10_15_7","https://app.prolific.com/","en-GB,en-US;q=0.9,en;q=0.8","663ba5be68b9831a7ee50cfc","683dba9a53627eb9ab41b36a","688ab16894bc41d1cf49a268","0","663ba5be68b9831a7ee50cfc","0","2025-07-31T00:08:41.343Z","","","","StressQ","","","","","","","","","","","50","","","","","","","","","","","","","","","","","","","","","","","","","","",""
"2844","","<div style=""width:500px;"">
  <p>What best describes how you currently feel?</p>
  </div>","34","html-slider-response","57","652733","0.0-7.0-4.8","105","1","2025-07-30 23:57:50","36c45c0696341be0efffe67d72a12abb","51.146.189.238","Mozilla/5.0 (Macintosh; Intel Mac OS X 10_15_7) AppleWebKit/537.36 (KHTML, like Gecko) Chrome/137.0.0.0 Safari/537.36","Macintosh","Chrome","137.0.0.0","OS X","10_15_7","https://app.prolific.com/","en-GB,en-US;q=0.9,en;q=0.8","663ba5be68b9831a7ee50cfc","683dba9a53627eb9ab41b36a","688ab16894bc41d1cf49a268","0","663ba5be68b9831a7ee50cfc","0","2025-07-31T00:08:44.188Z","","","","MotivationQ","","","","","","","","","","","50","","","","","","","","","","","","","","","","","","","","","","","","","","",""
"","","","","ctl-task-cpt","58","674003","0.0-7.0-0.9","105","1","2025-07-30 23:57:50","36c45c0696341be0efffe67d72a12abb","51.146.189.238","Mozilla/5.0 (Macintosh; Intel Mac OS X 10_15_7) AppleWebKit/537.36 (KHTML, like Gecko) Chrome/137.0.0.0 Safari/537.36","Macintosh","Chrome","137.0.0.0","OS X","10_15_7","https://app.prolific.com/","en-GB,en-US;q=0.9,en;q=0.8","663ba5be68b9831a7ee50cfc","683dba9a53627eb9ab41b36a","688ab16894bc41d1cf49a268","0","663ba5be68b9831a7ee50cfc","0","2025-07-31T00:09:05.458Z","","","","","","","","","","","","","","","","win-only","2","g1:SE,g2:NW","0.5","10","0","654064.4","1256.4","6260.7","18261","1","4","8","6","1","1","1","2","1","0.015151515151515152","1394.4","3000","395","[""down"",""right""]","{""num_key_presses"":4,""num_perfect"":2,""num_errors"":0,""num_randdir"":2,""num_randdir_good_moves"":2,""num_whilered"":0,""num_whileblue"":0,""num_blue"":0,""num_good_moves"":4}","[684.2857142857143,694.0825892857143,0.1,684.2857142857143,694.0825892857143,100.4,684.2857142857143,694.0825892857143,204.4,684.2857142857143,694.0825892857143,308.7,684.2857142857143,694.0825892857143,408.9,684.2857142857143,694.0825892857143,509,684.2857142857143,694.0825892857143,614.7,684.2857142857143,694.0825892857143,719.2,684.2857142857143,694.0825892857143,819.8,1106.2857142857142,1114.0825892857142,924,1176.2857142857142,1206.0825892857142,1024.4,1176.2857142857142,1206.0825892857142,1128.8,1226.2857142857142,1258.0825892857142,1229,1256.2857142857142,1284.0825892857142,1329.7,1256.2857142857142,1284.0825892857142,1434.7,1256.2857142857142,1284.0825892857142,1539,1256.2857142857142,1284.0825892857142,1639.5,1256.2857142857142,1284.0825892857142,1743.7,1256.2857142857142,1284.0825892857142,1844.4,1256.2857142857142,1284.0825892857142,1944.6,1256.2857142857142,1284.0825892857142,2049.4,1256.2857142857142,1284.0825892857142,2154.4,1256.2857142857142,1284.0825892857142,2259.6,1256.2857142857142,1284.0825892857142,2364.2,1256.2857142857142,1284.0825892857142,2469.8,1256.2857142857142,1284.0825892857142,2575.4,1256.2857142857142,1284.0825892857142,2679.6,1256.2857142857142,1284.0825892857142,2779.7,1256.2857142857142,1284.0825892857142,2884.4,1256.2857142857142,1284.0825892857142,2989.4,1256.2857142857142,1284.0825892857142,3089.5,1256.2857142857142,1284.0825892857142,3194.4,1256.2857142857142,1284.0825892857142,3294.7,1256.2857142857142,1284.0825892857142,3398.7,1256.2857142857142,1284.0825892857142,3498.9,1256.2857142857142,1284.0825892857142,3599.6,1256.2857142857142,1284.0825892857142,3703.7,1256.2857142857142,1284.0825892857142,3804.7,1256.2857142857142,1284.0825892857142,3909.1,1256.2857142857142,1284.0825892857142,4013.8,1256.2857142857142,1284.0825892857142,4114.5,1256.2857142857142,1284.0825892857142,4218.7,1256.2857142857142,1284.0825892857142,4318.7,1256.2857142857142,1284.0825892857142,4419,1256.2857142857142,1284.0825892857142,4520.4,1256.2857142857142,1284.0825892857142,4623.8,1256.2857142857142,1284.0825892857142,4724.7,1256.2857142857142,1284.0825892857142,4825.1,1256.2857142857142,1284.0825892857142,4925.9]","[2180.6,2180.7,1000,0,1180.7,""oops"",""right"",""down"",""good_move"",5313.8,3132.9,2461.4,2180.9,671.5,""smooth"",""right"",""right"",""good_move"",8296.9,2982.8,2614.6,5314.2,368.1,""smooth"",""right"",""right"",""good_move"",11915.1,3618.2,3207.1,8297,411,""oops"",""down"",""down"",""good_move""]"
"116325","","<div style=""width:500px;"">
  <p>What determined the result of this run?</p>
  </div>","41","html-slider-response","59","790328","0.0-7.0-1.9","105","1","2025-07-30 23:57:50","36c45c0696341be0efffe67d72a12abb","51.146.189.238","Mozilla/5.0 (Macintosh; Intel Mac OS X 10_15_7) AppleWebKit/537.36 (KHTML, like Gecko) Chrome/137.0.0.0 Safari/537.36","Macintosh","Chrome","137.0.0.0","OS X","10_15_7","https://app.prolific.com/","en-GB,en-US;q=0.9,en;q=0.8","663ba5be68b9831a7ee50cfc","683dba9a53627eb9ab41b36a","688ab16894bc41d1cf49a268","0","663ba5be68b9831a7ee50cfc","0","2025-07-31T00:11:01.783Z","","","","AttribQ","","","","","","","","","","","50","","","","","","","","","","","","","","","","","","","","","","","","","","",""
"3419","","<div style=""width:500px;"">
  <p>How much control did you have over the ball?</p>
  </div>","54","html-slider-response","60","793748","0.0-7.0-2.9","105","1","2025-07-30 23:57:50","36c45c0696341be0efffe67d72a12abb","51.146.189.238","Mozilla/5.0 (Macintosh; Intel Mac OS X 10_15_7) AppleWebKit/537.36 (KHTML, like Gecko) Chrome/137.0.0.0 Safari/537.36","Macintosh","Chrome","137.0.0.0","OS X","10_15_7","https://app.prolific.com/","en-GB,en-US;q=0.9,en;q=0.8","663ba5be68b9831a7ee50cfc","683dba9a53627eb9ab41b36a","688ab16894bc41d1cf49a268","0","663ba5be68b9831a7ee50cfc","0","2025-07-31T00:11:05.203Z","","","","ControlQ","","","","","","","","","","","50","","","","","","","","","","","","","","","","","","","","","","","","","","",""
"2255","","<div style=""width:500px;"">
  <p>How would you describe your current emotional state?</p>
  </div>","39","html-slider-response","61","796003","0.0-7.0-3.9","105","1","2025-07-30 23:57:50","36c45c0696341be0efffe67d72a12abb","51.146.189.238","Mozilla/5.0 (Macintosh; Intel Mac OS X 10_15_7) AppleWebKit/537.36 (KHTML, like Gecko) Chrome/137.0.0.0 Safari/537.36","Macintosh","Chrome","137.0.0.0","OS X","10_15_7","https://app.prolific.com/","en-GB,en-US;q=0.9,en;q=0.8","663ba5be68b9831a7ee50cfc","683dba9a53627eb9ab41b36a","688ab16894bc41d1cf49a268","0","663ba5be68b9831a7ee50cfc","0","2025-07-31T00:11:07.458Z","","","","StressQ","","","","","","","","","","","50","","","","","","","","","","","","","","","","","","","","","","","","","","",""
"1600","","<div style=""width:500px;"">
  <p>What best describes how you currently feel?</p>
  </div>","44","html-slider-response","62","797604","0.0-7.0-4.9","105","1","2025-07-30 23:57:50","36c45c0696341be0efffe67d72a12abb","51.146.189.238","Mozilla/5.0 (Macintosh; Intel Mac OS X 10_15_7) AppleWebKit/537.36 (KHTML, like Gecko) Chrome/137.0.0.0 Safari/537.36","Macintosh","Chrome","137.0.0.0","OS X","10_15_7","https://app.prolific.com/","en-GB,en-US;q=0.9,en;q=0.8","663ba5be68b9831a7ee50cfc","683dba9a53627eb9ab41b36a","688ab16894bc41d1cf49a268","0","663ba5be68b9831a7ee50cfc","0","2025-07-31T00:11:09.059Z","","","","MotivationQ","","","","","","","","","","","50","","","","","","","","","","","","","","","","","","","","","","","","","","",""
"","","","","ctl-task-cpt","63","827025","0.0-7.0-0.10","105","1","2025-07-30 23:57:50","36c45c0696341be0efffe67d72a12abb","51.146.189.238","Mozilla/5.0 (Macintosh; Intel Mac OS X 10_15_7) AppleWebKit/537.36 (KHTML, like Gecko) Chrome/137.0.0.0 Safari/537.36","Macintosh","Chrome","137.0.0.0","OS X","10_15_7","https://app.prolific.com/","en-GB,en-US;q=0.9,en;q=0.8","663ba5be68b9831a7ee50cfc","683dba9a53627eb9ab41b36a","688ab16894bc41d1cf49a268","0","663ba5be68b9831a7ee50cfc","0","2025-07-31T00:11:38.480Z","","","","","","","","","","","","","","","","win-only","0","g1:NW,g2:SE","0.6","11","0","798936.9","1009.8","6010.9","26411.1","1","4","4","6","1","1","1","3","2","0.022727272727272728","1132.7","3000","425","[""left"",""up""]","{""num_key_presses"":6,""num_perfect"":3,""num_errors"":0,""num_randdir"":3,""num_randdir_good_moves"":2,""num_whilered"":0,""num_whileblue"":0,""num_blue"":1,""num_good_moves"":5}","[680.2857142857143,686.0825892857143,0.1,680.2857142857143,686.0825892857143,100.4,680.2857142857143,686.0825892857143,200.7,680.2857142857143,686.0825892857143,301.2,680.2857142857143,686.0825892857143,401.3,680.2857142857143,686.0825892857143,505.5,292.2857142857143,362.0825892857143,606,144.28571428571428,140.08258928571428,710.3,70.28571428571429,116.08258928571429,810.7,40.28571428571429,104.08258928571429,915.4,116.28571428571429,112.08258928571429,1015.5,122.28571428571429,120.08258928571429,1115.8,122.28571428571429,120.08258928571429,1215.9,122.28571428571429,120.08258928571429,1320.3,122.28571428571429,120.08258928571429,1420.6,122.28571428571429,120.08258928571429,1521.5,122.28571428571429,120.08258928571429,1626.4,122.28571428571429,120.08258928571429,1726.4,122.28571428571429,120.08258928571429,1826.4,122.28571428571429,120.08258928571429,1930.4,34.28571428571429,190.08258928571428,2031.2,-81.71428571428571,556.0825892857143,2136.1,-79.71428571428571,616.0825892857143,2236.5,-79.71428571428571,616.0825892857143,2341.4,-79.71428571428571,616.0825892857143,2446.4,-79.71428571428571,616.0825892857143,2550.4,-79.71428571428571,616.0825892857143,2651.3,-79.71428571428571,616.0825892857143,2756,-79.71428571428571,616.0825892857143,2856.3,-79.71428571428571,616.0825892857143,2961,-79.71428571428571,616.0825892857143,3065.9,-79.71428571428571,616.0825892857143,3166.2,-79.71428571428571,616.0825892857143,3266.2,-79.71428571428571,616.0825892857143,3366.4,-79.71428571428571,616.0825892857143,3466.4,-79.71428571428571,616.0825892857143,3570.6,-79.71428571428571,616.0825892857143,3670.8,-79.71428571428571,616.0825892857143,3775.9,-79.71428571428571,616.0825892857143,3876.2,-79.71428571428571,616.0825892857143,3979.6,-79.71428571428571,616.0825892857143,4080.7,-79.71428571428571,616.0825892857143,4180.9,-79.71428571428571,616.0825892857143,4281.1,-79.71428571428571,616.0825892857143,4381.2,-79.71428571428571,616.0825892857143,4485.6,-79.71428571428571,616.0825892857143,4586.4,-79.71428571428571,616.0825892857143,4690.6,-79.71428571428571,616.0825892857143,4790.9,-79.71428571428571,616.0825892857143,4891,-79.71428571428571,616.0825892857143,4991.5]","[1729,1729,1000,0,729,""smooth"",""left"",""left"",""good_move"",4591.4,2862.2,2474.9,1729.2,387.3,""oops"",""left"",""up"",""good_move"",7314.1,2722.5,2324.3,4591.6,398.2,""oops"",""left"",""up"",""good_move"",9957.9,2643.8,2355.6,7314.2,288.1,""oops"",""left"",""down"",""bad_move"",13272.6,3314.4,2908.5,9958.2,405.9,""smooth"",""left"",""left"",""good_move"",20311.2,7038.4,2670.7,17234.9,405.6,""smooth"",""up"",""up"",""good_move""]"
"30281","","<div style=""width:500px;"">
  <p>What determined the result of this run?</p>
  </div>","44","html-slider-response","64","857307","0.0-7.0-1.10","105","1","2025-07-30 23:57:50","36c45c0696341be0efffe67d72a12abb","51.146.189.238","Mozilla/5.0 (Macintosh; Intel Mac OS X 10_15_7) AppleWebKit/537.36 (KHTML, like Gecko) Chrome/137.0.0.0 Safari/537.36","Macintosh","Chrome","137.0.0.0","OS X","10_15_7","https://app.prolific.com/","en-GB,en-US;q=0.9,en;q=0.8","663ba5be68b9831a7ee50cfc","683dba9a53627eb9ab41b36a","688ab16894bc41d1cf49a268","0","663ba5be68b9831a7ee50cfc","0","2025-07-31T00:12:08.762Z","","","","AttribQ","","","","","","","","","","","50","","","","","","","","","","","","","","","","","","","","","","","","","","",""
"4390","","<div style=""width:500px;"">
  <p>How much control did you have over the ball?</p>
  </div>","76","html-slider-response","65","861697","0.0-7.0-2.10","105","1","2025-07-30 23:57:50","36c45c0696341be0efffe67d72a12abb","51.146.189.238","Mozilla/5.0 (Macintosh; Intel Mac OS X 10_15_7) AppleWebKit/537.36 (KHTML, like Gecko) Chrome/137.0.0.0 Safari/537.36","Macintosh","Chrome","137.0.0.0","OS X","10_15_7","https://app.prolific.com/","en-GB,en-US;q=0.9,en;q=0.8","663ba5be68b9831a7ee50cfc","683dba9a53627eb9ab41b36a","688ab16894bc41d1cf49a268","0","663ba5be68b9831a7ee50cfc","0","2025-07-31T00:12:13.152Z","","","","ControlQ","","","","","","","","","","","50","","","","","","","","","","","","","","","","","","","","","","","","","","",""
"3524","","<div style=""width:500px;"">
  <p>How would you describe your current emotional state?</p>
  </div>","47","html-slider-response","66","865222","0.0-7.0-3.10","105","1","2025-07-30 23:57:50","36c45c0696341be0efffe67d72a12abb","51.146.189.238","Mozilla/5.0 (Macintosh; Intel Mac OS X 10_15_7) AppleWebKit/537.36 (KHTML, like Gecko) Chrome/137.0.0.0 Safari/537.36","Macintosh","Chrome","137.0.0.0","OS X","10_15_7","https://app.prolific.com/","en-GB,en-US;q=0.9,en;q=0.8","663ba5be68b9831a7ee50cfc","683dba9a53627eb9ab41b36a","688ab16894bc41d1cf49a268","0","663ba5be68b9831a7ee50cfc","0","2025-07-31T00:12:16.677Z","","","","StressQ","","","","","","","","","","","50","","","","","","","","","","","","","","","","","","","","","","","","","","",""
"1939","","<div style=""width:500px;"">
  <p>What best describes how you currently feel?</p>
  </div>","47","html-slider-response","67","867161","0.0-7.0-4.10","105","1","2025-07-30 23:57:50","36c45c0696341be0efffe67d72a12abb","51.146.189.238","Mozilla/5.0 (Macintosh; Intel Mac OS X 10_15_7) AppleWebKit/537.36 (KHTML, like Gecko) Chrome/137.0.0.0 Safari/537.36","Macintosh","Chrome","137.0.0.0","OS X","10_15_7","https://app.prolific.com/","en-GB,en-US;q=0.9,en;q=0.8","663ba5be68b9831a7ee50cfc","683dba9a53627eb9ab41b36a","688ab16894bc41d1cf49a268","0","663ba5be68b9831a7ee50cfc","0","2025-07-31T00:12:18.616Z","","","","MotivationQ","","","","","","","","","","","50","","","","","","","","","","","","","","","","","","","","","","","","","","",""
"","","","","ctl-task-cpt","68","895551","0.0-7.0-0.11","105","1","2025-07-30 23:57:50","36c45c0696341be0efffe67d72a12abb","51.146.189.238","Mozilla/5.0 (Macintosh; Intel Mac OS X 10_15_7) AppleWebKit/537.36 (KHTML, like Gecko) Chrome/137.0.0.0 Safari/537.36","Macintosh","Chrome","137.0.0.0","OS X","10_15_7","https://app.prolific.com/","en-GB,en-US;q=0.9,en;q=0.8","663ba5be68b9831a7ee50cfc","683dba9a53627eb9ab41b36a","688ab16894bc41d1cf49a268","0","663ba5be68b9831a7ee50cfc","0","2025-07-31T00:12:47.006Z","","","","","","","","","","","","","","","","win-only","2","g1:SE,g2:NW","0.7","12","0","868494.7","1010.4","6015.3","25380.3","1","4","8","6","1","1","1","4","3","0.030303030303030304","1350","3000","1220","[""down"",""right""]","{""num_key_presses"":4,""num_perfect"":1,""num_errors"":0,""num_randdir"":3,""num_randdir_good_moves"":3,""num_whilered"":0,""num_whileblue"":0,""num_blue"":3,""num_good_moves"":4}","[688.2857142857143,694.0825892857143,0.2,688.2857142857143,694.0825892857143,100.5,688.2857142857143,694.0825892857143,200.5,688.2857142857143,694.0825892857143,300.8,688.2857142857143,694.0825892857143,405.7,688.2857142857143,694.0825892857143,509.8,688.2857142857143,694.0825892857143,610.6,688.2857142857143,694.0825892857143,715.7,1208.2857142857142,1296.0825892857142,819.7,1264.2857142857142,1382.0825892857142,919.7,1264.2857142857142,1382.0825892857142,1020,1264.2857142857142,1382.0825892857142,1120.1,1278.2857142857142,1342.0825892857142,1225.3,1282.2857142857142,1326.0825892857142,1330.5,1282.2857142857142,1326.0825892857142,1430.8,1282.2857142857142,1326.0825892857142,1535.2,1282.2857142857142,1326.0825892857142,1635.2,2132.285714285714,1048.0825892857142,1735.4,2132.285714285714,1010.0825892857143,1835.4,2132.285714285714,1010.0825892857143,1940.3,2132.285714285714,1010.0825892857143,2040.8,2132.285714285714,1010.0825892857143,2144.8,2132.285714285714,1010.0825892857143,2245.4,2132.285714285714,1010.0825892857143,2349.9,2132.285714285714,1010.0825892857143,2449.9,2132.285714285714,1010.0825892857143,2550.1,2132.285714285714,1010.0825892857143,2655.6,2132.285714285714,1010.0825892857143,2755.7,2132.285714285714,1010.0825892857143,2860.6,2132.285714285714,1010.0825892857143,2965.1,2132.285714285714,1010.0825892857143,3065.5,2132.285714285714,1010.0825892857143,3169.7,2132.285714285714,1010.0825892857143,3269.8,2132.285714285714,1010.0825892857143,3375.3,2132.285714285714,1010.0825892857143,3475.6,2132.285714285714,1010.0825892857143,3575.6,2132.285714285714,1010.0825892857143,3680.6,2132.285714285714,1010.0825892857143,3785.4,2132.285714285714,1010.0825892857143,3885.5,2132.285714285714,1010.0825892857143,3989.9,2132.285714285714,1010.0825892857143,4090.8,2132.285714285714,1010.0825892857143,4195.4,2132.285714285714,1010.0825892857143,4295.7,2132.285714285714,1010.0825892857143,4399.9,2132.285714285714,1010.0825892857143,4500,2132.285714285714,1010.0825892857143,4600.1,2132.285714285714,1010.0825892857143,4700.2,2132.285714285714,1010.0825892857143,4800.8,2132.285714285714,1010.0825892857143,4905.2]","[1435.5,1435.5,1000,0,435.5,""oops"",""right"",""down"",""good_move"",13846.2,12410.4,2133.8,11230.5,481.9,""smooth"",""right"",""right"",""good_move"",16796,2949.5,2495.4,13846.6,454,""oops"",""right"",""right"",""good_move"",19279.5,2483.4,2057.8,16796.1,425.6,""oops"",""down"",""down"",""good_move""]"
"3146","","<div style=""width:500px;"">
  <p>What determined the result of this run?</p>
  </div>","50","html-slider-response","69","898697","0.0-7.0-1.11","105","1","2025-07-30 23:57:50","36c45c0696341be0efffe67d72a12abb","51.146.189.238","Mozilla/5.0 (Macintosh; Intel Mac OS X 10_15_7) AppleWebKit/537.36 (KHTML, like Gecko) Chrome/137.0.0.0 Safari/537.36","Macintosh","Chrome","137.0.0.0","OS X","10_15_7","https://app.prolific.com/","en-GB,en-US;q=0.9,en;q=0.8","663ba5be68b9831a7ee50cfc","683dba9a53627eb9ab41b36a","688ab16894bc41d1cf49a268","0","663ba5be68b9831a7ee50cfc","0","2025-07-31T00:12:50.152Z","","","","AttribQ","","","","","","","","","","","50","","","","","","","","","","","","","","","","","","","","","","","","","","",""
"2280","","<div style=""width:500px;"">
  <p>How much control did you have over the ball?</p>
  </div>","92","html-slider-response","70","900977","0.0-7.0-2.11","105","1","2025-07-30 23:57:50","36c45c0696341be0efffe67d72a12abb","51.146.189.238","Mozilla/5.0 (Macintosh; Intel Mac OS X 10_15_7) AppleWebKit/537.36 (KHTML, like Gecko) Chrome/137.0.0.0 Safari/537.36","Macintosh","Chrome","137.0.0.0","OS X","10_15_7","https://app.prolific.com/","en-GB,en-US;q=0.9,en;q=0.8","663ba5be68b9831a7ee50cfc","683dba9a53627eb9ab41b36a","688ab16894bc41d1cf49a268","0","663ba5be68b9831a7ee50cfc","0","2025-07-31T00:12:52.432Z","","","","ControlQ","","","","","","","","","","","50","","","","","","","","","","","","","","","","","","","","","","","","","","",""
"4955","","<div style=""width:500px;"">
  <p>How would you describe your current emotional state?</p>
  </div>","29","html-slider-response","71","905933","0.0-7.0-3.11","105","1","2025-07-30 23:57:50","36c45c0696341be0efffe67d72a12abb","51.146.189.238","Mozilla/5.0 (Macintosh; Intel Mac OS X 10_15_7) AppleWebKit/537.36 (KHTML, like Gecko) Chrome/137.0.0.0 Safari/537.36","Macintosh","Chrome","137.0.0.0","OS X","10_15_7","https://app.prolific.com/","en-GB,en-US;q=0.9,en;q=0.8","663ba5be68b9831a7ee50cfc","683dba9a53627eb9ab41b36a","688ab16894bc41d1cf49a268","0","663ba5be68b9831a7ee50cfc","0","2025-07-31T00:12:57.388Z","","","","StressQ","","","","","","","","","","","50","","","","","","","","","","","","","","","","","","","","","","","","","","",""
"3816","","<div style=""width:500px;"">
  <p>What best describes how you currently feel?</p>
  </div>","40","html-slider-response","72","909749","0.0-7.0-4.11","105","1","2025-07-30 23:57:50","36c45c0696341be0efffe67d72a12abb","51.146.189.238","Mozilla/5.0 (Macintosh; Intel Mac OS X 10_15_7) AppleWebKit/537.36 (KHTML, like Gecko) Chrome/137.0.0.0 Safari/537.36","Macintosh","Chrome","137.0.0.0","OS X","10_15_7","https://app.prolific.com/","en-GB,en-US;q=0.9,en;q=0.8","663ba5be68b9831a7ee50cfc","683dba9a53627eb9ab41b36a","688ab16894bc41d1cf49a268","0","663ba5be68b9831a7ee50cfc","0","2025-07-31T00:13:01.204Z","","","","MotivationQ","","","","","","","","","","","50","","","","","","","","","","","","","","","","","","","","","","","","","","",""
"","","","","ctl-task-cpt","73","927184","0.0-7.0-0.12","105","1","2025-07-30 23:57:50","36c45c0696341be0efffe67d72a12abb","51.146.189.238","Mozilla/5.0 (Macintosh; Intel Mac OS X 10_15_7) AppleWebKit/537.36 (KHTML, like Gecko) Chrome/137.0.0.0 Safari/537.36","Macintosh","Chrome","137.0.0.0","OS X","10_15_7","https://app.prolific.com/","en-GB,en-US;q=0.9,en;q=0.8","663ba5be68b9831a7ee50cfc","683dba9a53627eb9ab41b36a","688ab16894bc41d1cf49a268","0","663ba5be68b9831a7ee50cfc","0","2025-07-31T00:13:18.639Z","","","","","","","","","","","","","","","","win-only","0","g1:NW,g2:SE","0.8","13","0","911083.2","1122.7","6125.5","14425","1","4","8","6","1","1","1","5","4","0.03787878787878788","1131.7","3000","1560","[""left"",""up""]","{""num_key_presses"":4,""num_perfect"":4,""num_errors"":0,""num_randdir"":0,""num_randdir_good_moves"":0,""num_whilered"":0,""num_whileblue"":0,""num_blue"":0,""num_good_moves"":4}","[696.2857142857143,692.0825892857143,0.1,696.2857142857143,692.0825892857143,102.8,696.2857142857143,692.0825892857143,203.2,696.2857142857143,692.0825892857143,307.7,696.2857142857143,692.0825892857143,408.4,696.2857142857143,692.0825892857143,512.9,638.2857142857143,644.0825892857143,613.4,176.28571428571428,152.08258928571428,718.1,136.28571428571428,76.08258928571429,818.5,118.28571428571429,76.08258928571429,923.4,134.28571428571428,100.08258928571429,1028.4,134.28571428571428,100.08258928571429,1135.6,134.28571428571428,100.08258928571429,1237.6,134.28571428571428,100.08258928571429,1337.8,134.28571428571428,100.08258928571429,1438.1,72.28571428571429,118.08258928571429,1543.5,-481.7142857142857,468.0825892857143,1647.9,-487.7142857142857,512.0825892857143,1748.3,-487.7142857142857,512.0825892857143,1848.5,-487.7142857142857,512.0825892857143,1949.5,-487.7142857142857,512.0825892857143,2052.5,-487.7142857142857,512.0825892857143,2152.5,-487.7142857142857,512.0825892857143,2252.8,-487.7142857142857,512.0825892857143,2353.4,-487.7142857142857,512.0825892857143,2458.1,-487.7142857142857,512.0825892857143,2563,-487.7142857142857,512.0825892857143,2667.9,-487.7142857142857,512.0825892857143,2768.1,-487.7142857142857,512.0825892857143,2872.9,-487.7142857142857,512.0825892857143,2977.7,-487.7142857142857,512.0825892857143,3078.1,-487.7142857142857,512.0825892857143,3182.9,-487.7142857142857,512.0825892857143,3283.4,-487.7142857142857,512.0825892857143,3387.9,-487.7142857142857,512.0825892857143,3488,-487.7142857142857,512.0825892857143,3588,-487.7142857142857,512.0825892857143,3688,-487.7142857142857,512.0825892857143,3788.4,-487.7142857142857,512.0825892857143,3892.5,-487.7142857142857,512.0825892857143,3993.2,-487.7142857142857,512.0825892857143,4093.4,-487.7142857142857,512.0825892857143,4197.7,-487.7142857142857,512.0825892857143,4297.7,-487.7142857142857,512.0825892857143,4398.3,-487.7142857142857,512.0825892857143,4502.6,-487.7142857142857,512.0825892857143,4602.6,-487.7142857142857,512.0825892857143,4702.9,-487.7142857142857,512.0825892857143,4808.4,-487.7142857142857,512.0825892857143,4913]","[1413.8,1413.8,1000,0,413.8,""smooth"",""left"",""left"",""good_move"",3558,2143.9,1741.6,1414.1,402.3,""smooth"",""left"",""left"",""good_move"",5923.6,2365.5,2020.6,3558.1,344.9,""smooth"",""up"",""up"",""good_move"",8200.1,2276.2,1970.1,5923.9,306.1,""smooth"",""up"",""up"",""good_move""]"
"10799","","<div style=""width:500px;"">
  <p>What determined the result of this run?</p>
  </div>","50","html-slider-response","74","937983","0.0-7.0-1.12","105","1","2025-07-30 23:57:50","36c45c0696341be0efffe67d72a12abb","51.146.189.238","Mozilla/5.0 (Macintosh; Intel Mac OS X 10_15_7) AppleWebKit/537.36 (KHTML, like Gecko) Chrome/137.0.0.0 Safari/537.36","Macintosh","Chrome","137.0.0.0","OS X","10_15_7","https://app.prolific.com/","en-GB,en-US;q=0.9,en;q=0.8","663ba5be68b9831a7ee50cfc","683dba9a53627eb9ab41b36a","688ab16894bc41d1cf49a268","0","663ba5be68b9831a7ee50cfc","0","2025-07-31T00:13:29.438Z","","","","AttribQ","","","","","","","","","","","50","","","","","","","","","","","","","","","","","","","","","","","","","","",""
"2933","","<div style=""width:500px;"">
  <p>How much control did you have over the ball?</p>
  </div>","89","html-slider-response","75","940917","0.0-7.0-2.12","105","1","2025-07-30 23:57:50","36c45c0696341be0efffe67d72a12abb","51.146.189.238","Mozilla/5.0 (Macintosh; Intel Mac OS X 10_15_7) AppleWebKit/537.36 (KHTML, like Gecko) Chrome/137.0.0.0 Safari/537.36","Macintosh","Chrome","137.0.0.0","OS X","10_15_7","https://app.prolific.com/","en-GB,en-US;q=0.9,en;q=0.8","663ba5be68b9831a7ee50cfc","683dba9a53627eb9ab41b36a","688ab16894bc41d1cf49a268","0","663ba5be68b9831a7ee50cfc","0","2025-07-31T00:13:32.372Z","","","","ControlQ","","","","","","","","","","","50","","","","","","","","","","","","","","","","","","","","","","","","","","",""
"2773","","<div style=""width:500px;"">
  <p>How would you describe your current emotional state?</p>
  </div>","26","html-slider-response","76","943690","0.0-7.0-3.12","105","1","2025-07-30 23:57:50","36c45c0696341be0efffe67d72a12abb","51.146.189.238","Mozilla/5.0 (Macintosh; Intel Mac OS X 10_15_7) AppleWebKit/537.36 (KHTML, like Gecko) Chrome/137.0.0.0 Safari/537.36","Macintosh","Chrome","137.0.0.0","OS X","10_15_7","https://app.prolific.com/","en-GB,en-US;q=0.9,en;q=0.8","663ba5be68b9831a7ee50cfc","683dba9a53627eb9ab41b36a","688ab16894bc41d1cf49a268","0","663ba5be68b9831a7ee50cfc","0","2025-07-31T00:13:35.145Z","","","","StressQ","","","","","","","","","","","50","","","","","","","","","","","","","","","","","","","","","","","","","","",""
"1980","","<div style=""width:500px;"">
  <p>What best describes how you currently feel?</p>
  </div>","23","html-slider-response","77","945670","0.0-7.0-4.12","105","1","2025-07-30 23:57:50","36c45c0696341be0efffe67d72a12abb","51.146.189.238","Mozilla/5.0 (Macintosh; Intel Mac OS X 10_15_7) AppleWebKit/537.36 (KHTML, like Gecko) Chrome/137.0.0.0 Safari/537.36","Macintosh","Chrome","137.0.0.0","OS X","10_15_7","https://app.prolific.com/","en-GB,en-US;q=0.9,en;q=0.8","663ba5be68b9831a7ee50cfc","683dba9a53627eb9ab41b36a","688ab16894bc41d1cf49a268","0","663ba5be68b9831a7ee50cfc","0","2025-07-31T00:13:37.125Z","","","","MotivationQ","","","","","","","","","","","50","","","","","","","","","","","","","","","","","","","","","","","","","","",""
