"rt","response_timestamp","stimulus","response","trial_type","trial_index","time_elapsed","internal_node_id","run_id","condition","recorded_at","source_code_version","ip","user_agent","device","browser","browser_version","platform","platform_version","referer","accept_language","PROLIFIC_PID","STUDY_ID","SESSION_ID","BATCH","prolific_id","batch","realtime","success","question_order","question_id","eventType","responses","item_order","radio_event_ids","radio_event_times","key_event_times","mouse_event_times","straightlining","zigzagging","honeypot","view_history","slider_start","which_type","canvas_config","goals_layout","control_level","trial_number","tutorial_trial_number","trial_start_time","phase1_start_time","phase2_start_time","phase3_start_time","goal_1_value","goal_1_distance","goal_2_value","goal_2_distance","goal_selected","outcome","outcome_total","participant_final_score","participant_initial_score","participant_final_score_prop","goal_choice_rt","allocated_time","allocated_time_remaining","goal_direction","counts","mouse_movements","key_presses"
"69902","1753865472043","<p style='font-size:40px;line-height:1.25'><strong>Welcome to the experiment!</strong></p><p style='font-size:1.1em;line-height:1.25'>Thank you for participanting in our experiment again! You will be asked to play the Dysfunctional Ball Game again. We will briefly recap the rules before we start.</p><p style='font-size:1.1em;line-height:1.25'>Press <strong>Next</strong> to continue.</p>","0","custom-html-button-response","0","69905","0.0-0.0","60","1","2025-07-30 08:49:55","36c45c0696341be0efffe67d72a12abb","216.120.189.148","Mozilla/5.0 (Windows NT 10.0; Win64; x64) AppleWebKit/537.36 (KHTML, like Gecko) Chrome/138.0.0.0 Safari/537.36","WebKit","Chrome","138.0.0.0","Windows","10.0","https://app.prolific.com/","en-US,en;q=0.9","663b638be7226d4e3fcc255f","683dba9a53627eb9ab41b36a","6889d9cfff66973069e9b338","0","663b638be7226d4e3fcc255f","0","2025-07-30T08:51:12.044Z","","","","","","","","","","","","","","","","","","","","","","","","","","","","","","","","","","","","","","","","","",""
"64253","","","","fullscreen","1","135169","0.0-1.0","60","1","2025-07-30 08:49:55","36c45c0696341be0efffe67d72a12abb","216.120.189.148","Mozilla/5.0 (Windows NT 10.0; Win64; x64) AppleWebKit/537.36 (KHTML, like Gecko) Chrome/138.0.0.0 Safari/537.36","WebKit","Chrome","138.0.0.0","Windows","10.0","https://app.prolific.com/","en-US,en;q=0.9","663b638be7226d4e3fcc255f","683dba9a53627eb9ab41b36a","6889d9cfff66973069e9b338","0","663b638be7226d4e3fcc255f","0","","true","","","","","","","","","","","","","","","","","","","","","","","","","","","","","","","","","","","","","","","","",""
"7823","1753865545133"," <p style='font-size:1.1em;line-height:1.25'>Thank you for closing all other tabs.</p><p style='font-size:1.1em;line-height:1.25'>We will now invite you to fill in some questionnaires, before starting the game.<br>This will take about 5 minutes.<br></p><p style='font-size:1.1em;line-height:1.25'>Press the <strong>Next</strong> button to continue.</p>","0","custom-html-button-response","2","142994","0.0-2.0","60","1","2025-07-30 08:49:55","36c45c0696341be0efffe67d72a12abb","216.120.189.148","Mozilla/5.0 (Windows NT 10.0; Win64; x64) AppleWebKit/537.36 (KHTML, like Gecko) Chrome/138.0.0.0 Safari/537.36","WebKit","Chrome","138.0.0.0","Windows","10.0","https://app.prolific.com/","en-US,en;q=0.9","663b638be7226d4e3fcc255f","683dba9a53627eb9ab41b36a","6889d9cfff66973069e9b338","0","663b638be7226d4e3fcc255f","0","2025-07-30T08:52:25.133Z","","","","","","","","","","","","","","","","","","","","","","","","","","","","","","","","","","","","","","","","","",""
"4516","","","{""assigned_sex"":""female""}","survey-multi-choice","3","147512","0.0-3.0-0.0","60","1","2025-07-30 08:49:55","36c45c0696341be0efffe67d72a12abb","216.120.189.148","Mozilla/5.0 (Windows NT 10.0; Win64; x64) AppleWebKit/537.36 (KHTML, like Gecko) Chrome/138.0.0.0 Safari/537.36","WebKit","Chrome","138.0.0.0","Windows","10.0","https://app.prolific.com/","en-US,en;q=0.9","663b638be7226d4e3fcc255f","683dba9a53627eb9ab41b36a","6889d9cfff66973069e9b338","0","663b638be7226d4e3fcc255f","0","","","[0]","0","demographics","","","","","","","","","","","","","","","","","","","","","","","","","","","","","","","","","","","","","",""
"13175","1753865562826","<p style='font-size:1.1em;line-height:1.25'>In the following, we will perform a baseline assessment. This means that we will ask you a few questions relating to your experiences over the past month.<br></p><p style='font-size:1.1em;line-height:1.25'>Press the <strong>Next</strong> button to continue.</p>","0","custom-html-button-response","4","160687","0.0-4.0-0.0","60","1","2025-07-30 08:49:55","36c45c0696341be0efffe67d72a12abb","216.120.189.148","Mozilla/5.0 (Windows NT 10.0; Win64; x64) AppleWebKit/537.36 (KHTML, like Gecko) Chrome/138.0.0.0 Safari/537.36","WebKit","Chrome","138.0.0.0","Windows","10.0","https://app.prolific.com/","en-US,en;q=0.9","663b638be7226d4e3fcc255f","683dba9a53627eb9ab41b36a","6889d9cfff66973069e9b338","0","663b638be7226d4e3fcc255f","0","2025-07-30T08:52:42.827Z","","","","","","","","","","","","","","","","","","","","","","","","","","","","","","","","","","","","","","","","","",""
"193953.79999995232","","","","survey-template","5","354647","0.0-4.0-1.0","60","1","2025-07-30 08:49:55","36c45c0696341be0efffe67d72a12abb","216.120.189.148","Mozilla/5.0 (Windows NT 10.0; Win64; x64) AppleWebKit/537.36 (KHTML, like Gecko) Chrome/138.0.0.0 Safari/537.36","WebKit","Chrome","138.0.0.0","Windows","10.0","https://app.prolific.com/","en-US,en;q=0.9","663b638be7226d4e3fcc255f","683dba9a53627eb9ab41b36a","6889d9cfff66973069e9b338","0","663b638be7226d4e3fcc255f","0","2025-07-30T08:55:56.786Z","","","","pss","{""Q01"":""2"",""Q02"":""1"",""Q03"":""2"",""Q04"":""1"",""Q05"":""1"",""Q06"":""1"",""Q07"":""1"",""Q08"":""1"",""Q09"":""2"",""Q10"":""1""}","[0,1,2,3,4,5,6,7,8,9]","[""Q01"",""Q02"",""Q03"",""Q03"",""Q04"",""Q05"",""Q06"",""Q07"",""Q08"",""Q09"",""Q09"",""Q10""]","[67778.29999995232,80828.79999995232,109788,121087.20000004768,127119.39999997616,135218.89999997616,143718.70000004768,159585.29999995232,172750.20000004768,181884.60000002384,182101.70000004768,192881.29999995232]","[]","[0,67778.29999995232,80131.20000004768,80828.79999995232,109788,121087.20000004768,127119.39999997616,133885.89999997616,135218.89999997616,143718.70000004768,159585.29999995232,172750.20000004768,180501.29999995232,181884.60000002384,182101.70000004768,190732.70000004768,192518.79999995232,192881.29999995232,193950.29999995232]","0.4","0.5555555555555556","0","","","","","","","","","","","","","","","","","","","","","","","","","","","","",""
"7259","1753865764046","<p style='font-size:1.1em;line-height:1.25'>Thank you for your answers! Now we will ask you a few more questions relating to your feelings in the last 24 hours.<br></p><p style='font-size:1.1em;line-height:1.25'>Press the <strong>Next</strong> button to continue.</p>","0","custom-html-button-response","6","361907","0.0-4.0-2.0","60","1","2025-07-30 08:49:55","36c45c0696341be0efffe67d72a12abb","216.120.189.148","Mozilla/5.0 (Windows NT 10.0; Win64; x64) AppleWebKit/537.36 (KHTML, like Gecko) Chrome/138.0.0.0 Safari/537.36","WebKit","Chrome","138.0.0.0","Windows","10.0","https://app.prolific.com/","en-US,en;q=0.9","663b638be7226d4e3fcc255f","683dba9a53627eb9ab41b36a","6889d9cfff66973069e9b338","0","663b638be7226d4e3fcc255f","0","2025-07-30T08:56:04.046Z","","","","","","","","","","","","","","","","","","","","","","","","","","","","","","","","","","","","","","","","","",""
"242228","","","","survey-template","7","604138","0.0-4.0-3.0","60","1","2025-07-30 08:49:55","36c45c0696341be0efffe67d72a12abb","216.120.189.148","Mozilla/5.0 (Windows NT 10.0; Win64; x64) AppleWebKit/537.36 (KHTML, like Gecko) Chrome/138.0.0.0 Safari/537.36","WebKit","Chrome","138.0.0.0","Windows","10.0","https://app.prolific.com/","en-US,en;q=0.9","663b638be7226d4e3fcc255f","683dba9a53627eb9ab41b36a","6889d9cfff66973069e9b338","0","663b638be7226d4e3fcc255f","0","2025-07-30T09:00:06.277Z","","","","drsp","{""Q01"":""3"",""Q02"":""3"",""Q03"":""0"",""Q04"":""2"",""Q05"":""3"",""Q06"":""1"",""Q07"":""2"",""Q08"":""0"",""Q09"":""3"",""Q10"":""2"",""Q11"":""2"",""Q12"":""1"",""Q13"":""5"",""Q14"":""3"",""Q15"":""3"",""Q16"":""4"",""Q17"":""4"",""Q18"":""4"",""Q19"":""0"",""Q20"":""2"",""Q21"":""2"",""Q22"":""1""}","[0,1,2,3,4,5,6,7,8,9,10,11,12,13,14,15,16,17,18,19,20,21]","[""Q01"",""Q02"",""Q01"",""Q02"",""Q03"",""Q04"",""Q05"",""Q06"",""Q06"",""Q07"",""Q08"",""Q09"",""Q10"",""Q11"",""Q12"",""Q13"",""Q14"",""Q15"",""Q16"",""Q16"",""Q18"",""Q17"",""Q19"",""Q20"",""Q21"",""Q20"",""Q22"",""Q21"",""Q20""]","[4000.2000000476837,6046.299999952316,33896.10000002384,38864.89999997616,47530.700000047684,50620.60000002384,54145.299999952316,72761.89999997616,74562.89999997616,76444.39999997616,80345.29999995232,83694.89999997616,87128.39999997616,90677,96730.79999995232,101910.20000004768,106092,112958.10000002384,119393.29999995232,120841,133420.60000002384,134822.60000002384,142655.79999995232,180010.10000002384,186201.60000002384,187622.39999997616,193271.10000002384,196786.89999997616,198137.79999995232]","[]","[0,4000.2000000476837,6046.299999952316,33896.10000002384,38864.89999997616,46515,47530.700000047684,50620.60000002384,54145.299999952316,72761.89999997616,74562.89999997616,76444.39999997616,80345.29999995232,83694.89999997616,87128.39999997616,90677,96730.79999995232,101910.20000004768,106092,112958.10000002384,119393.29999995232,120841,133420.60000002384,134822.60000002384,142655.79999995232,180010.10000002384,186201.60000002384,187622.39999997616,193271.10000002384,194938.60000002384,196786.89999997616,198137.79999995232,242217.70000004768]","0.2727272727272727","0.2857142857142857","0","","","","","","","","","","","","","","","","","","","","","","","","","","","","",""
"30284.799999952316","","","","survey-template","8","634425","0.0-4.0-4.0","60","1","2025-07-30 08:49:55","36c45c0696341be0efffe67d72a12abb","216.120.189.148","Mozilla/5.0 (Windows NT 10.0; Win64; x64) AppleWebKit/537.36 (KHTML, like Gecko) Chrome/138.0.0.0 Safari/537.36","WebKit","Chrome","138.0.0.0","Windows","10.0","https://app.prolific.com/","en-US,en;q=0.9","663b638be7226d4e3fcc255f","683dba9a53627eb9ab41b36a","6889d9cfff66973069e9b338","0","663b638be7226d4e3fcc255f","0","2025-07-30T09:00:36.564Z","","","","stress","{""Q01"":""4"",""Q02"":""1"",""Q03"":""3""}","[0,1,2]","[""Q01"",""Q02"",""Q03"",""Q03""]","[10086.699999928474,16969.5,27935.899999976158,29335.5]","[]","[2901.6999999284744,10086.699999928474,16969.5,27935.899999976158,29335.5,30282.899999976158]","0.6666666666666666","0.5","0","","","","","","","","","","","","","","","","","","","","","","","","","","","","",""
"12166","","","","instructions","9","646592","0.0-5.0-0.0","60","1","2025-07-30 08:49:55","36c45c0696341be0efffe67d72a12abb","216.120.189.148","Mozilla/5.0 (Windows NT 10.0; Win64; x64) AppleWebKit/537.36 (KHTML, like Gecko) Chrome/138.0.0.0 Safari/537.36","WebKit","Chrome","138.0.0.0","Windows","10.0","https://app.prolific.com/","en-US,en;q=0.9","663b638be7226d4e3fcc255f","683dba9a53627eb9ab41b36a","6889d9cfff66973069e9b338","0","663b638be7226d4e3fcc255f","0","","","","","","","","","","","","","","","[{""page_index"":0,""viewing_time"":12165}]","","","","","","","","","","","","","","","","","","","","","","","","","","","",""
"11709","","<p>Before you start with this game please answer the following three questions yourself. </p>
  <p>Through this game, we measure several aspects of your cognitive performance, such as reaction times, multi-tasking capabilities </p>
  <p>and the ability to assess the situation you are in.</p>
  <p></p>
  <p><b>How good do you usually are in such tasks?</b></p>","100","html-slider-response","10","658310","0.0-6.0-0.0","60","1","2025-07-30 08:49:55","36c45c0696341be0efffe67d72a12abb","216.120.189.148","Mozilla/5.0 (Windows NT 10.0; Win64; x64) AppleWebKit/537.36 (KHTML, like Gecko) Chrome/138.0.0.0 Safari/537.36","WebKit","Chrome","138.0.0.0","Windows","10.0","https://app.prolific.com/","en-US,en;q=0.9","663b638be7226d4e3fcc255f","683dba9a53627eb9ab41b36a","6889d9cfff66973069e9b338","0","663b638be7226d4e3fcc255f","0","2025-07-30T09:01:00.450Z","","","","PreSkillQ","","","","","","","","","","","50","","","","","","","","","","","","","","","","","","","","","","","","","","",""
"7945","","<div style=""width:500px;"">
  <p>How well do you think you will perform in this task compared to other participants?</p>
  </div>","78","html-slider-response","11","666257","0.0-6.0-1.0","60","1","2025-07-30 08:49:55","36c45c0696341be0efffe67d72a12abb","216.120.189.148","Mozilla/5.0 (Windows NT 10.0; Win64; x64) AppleWebKit/537.36 (KHTML, like Gecko) Chrome/138.0.0.0 Safari/537.36","WebKit","Chrome","138.0.0.0","Windows","10.0","https://app.prolific.com/","en-US,en;q=0.9","663b638be7226d4e3fcc255f","683dba9a53627eb9ab41b36a","6889d9cfff66973069e9b338","0","663b638be7226d4e3fcc255f","0","2025-07-30T09:01:08.396Z","","","","PrePerfQ","","","","","","","","","","","50","","","","","","","","","","","","","","","","","","","","","","","","","","",""
"16345","","<div style=""width:500px;"">
  <p>What best describes how you currently feel?</p>
  </div>","83","html-slider-response","12","682604","0.0-6.0-2.0","60","1","2025-07-30 08:49:55","36c45c0696341be0efffe67d72a12abb","216.120.189.148","Mozilla/5.0 (Windows NT 10.0; Win64; x64) AppleWebKit/537.36 (KHTML, like Gecko) Chrome/138.0.0.0 Safari/537.36","WebKit","Chrome","138.0.0.0","Windows","10.0","https://app.prolific.com/","en-US,en;q=0.9","663b638be7226d4e3fcc255f","683dba9a53627eb9ab41b36a","6889d9cfff66973069e9b338","0","663b638be7226d4e3fcc255f","0","2025-07-30T09:01:24.743Z","","","","PreMotivationQ","","","","","","","","","","","50","","","","","","","","","","","","","","","","","","","","","","","","","","",""
"","","","","ctl-task-cpt","13","723659","0.0-7.0-0.0","60","1","2025-07-30 08:49:55","36c45c0696341be0efffe67d72a12abb","216.120.189.148","Mozilla/5.0 (Windows NT 10.0; Win64; x64) AppleWebKit/537.36 (KHTML, like Gecko) Chrome/138.0.0.0 Safari/537.36","WebKit","Chrome","138.0.0.0","Windows","10.0","https://app.prolific.com/","en-US,en;q=0.9","663b638be7226d4e3fcc255f","683dba9a53627eb9ab41b36a","6889d9cfff66973069e9b338","0","663b638be7226d4e3fcc255f","0","2025-07-30T09:02:05.798Z","","","","","","","","","","","","","","","","win-only","2","g1:SE,g2:NW","1","1","0","690691.2","2149.5","7151.9","38042.7","1","4","8","6","2","8","8","8","0","0.06060606060606061","1945.9","3000","850","[""left"",""up""]","{""num_key_presses"":6,""num_perfect"":6,""num_errors"":0,""num_randdir"":0,""num_randdir_good_moves"":0,""num_whilered"":0,""num_whileblue"":0,""num_blue"":4,""num_good_moves"":6}","[293.22232142857143,300.12857142857143,0.2,293.22232142857143,300.12857142857143,102.2,293.22232142857143,300.12857142857143,206.7,293.22232142857143,300.12857142857143,307,293.22232142857143,300.12857142857143,407,293.22232142857143,300.12857142857143,511.3,293.22232142857143,300.12857142857143,616.6,318.22232142857143,319.12857142857143,717,352.22232142857143,348.12857142857143,817,354.22232142857143,351.12857142857143,921.1,355.22232142857143,351.12857142857143,1021.6,329.22232142857143,340.12857142857143,1122.4,151.22232142857143,220.12857142857143,1226.2,98.22232142857143,176.12857142857143,1332.1,97.22232142857143,176.12857142857143,1433,97.22232142857143,176.12857142857143,1536.4,40.222321428571426,85.12857142857143,1637.2,21.222321428571426,34.128571428571426,1743.3,19.222321428571426,31.128571428571426,1847.4,19.222321428571426,31.128571428571426,1950.7,19.222321428571426,31.128571428571426,2052.3,19.222321428571426,31.128571428571426,2152.5,19.222321428571426,31.128571428571426,2257.2,19.222321428571426,31.128571428571426,2362.1,19.222321428571426,31.128571428571426,2466.5,19.222321428571426,31.128571428571426,2568.3,19.222321428571426,31.128571428571426,2672.5,19.222321428571426,31.128571428571426,2776.5,19.222321428571426,31.128571428571426,2876.8,19.222321428571426,31.128571428571426,2981.9,19.222321428571426,31.128571428571426,3082.8,19.222321428571426,31.128571428571426,3187,19.222321428571426,31.128571428571426,3287,19.222321428571426,31.128571428571426,3391.7,19.222321428571426,31.128571428571426,3497.3,19.222321428571426,31.128571428571426,3601.4,19.222321428571426,31.128571428571426,3701.7,19.222321428571426,31.128571428571426,3801.8,19.222321428571426,31.128571428571426,3906.4,19.222321428571426,31.128571428571426,4012,19.222321428571426,31.128571428571426,4112.9,19.222321428571426,31.128571428571426,4216.4,19.222321428571426,31.128571428571426,4316.4,19.222321428571426,31.128571428571426,4416.4,19.222321428571426,31.128571428571426,4516.4,19.222321428571426,31.128571428571426,4616.6,19.222321428571426,31.128571428571426,4722.3,19.222321428571426,31.128571428571426,4826.8,19.222321428571426,31.128571428571426,4926.9]","[5349.5,5349.5,2887.8,2009.7,452,""smooth"",""left"",""left"",""good_move"",12381.4,7031.6,2471,9464.6,445.8,""smooth"",""left"",""left"",""good_move"",22717,10335.4,2906,19381.2,429.8,""smooth"",""up"",""up"",""good_move"",25595.2,2877.9,2470.6,22717.3,407.3,""smooth"",""up"",""up"",""good_move"",28597.9,3001.1,2634,25596.9,367,""smooth"",""left"",""left"",""good_move"",30797,2198.9,1844.3,28598.1,354.6,""smooth"",""up"",""up"",""good_move""]"
"5853","","<div style=""width:500px;"">
  <p>What determined the result of this run?</p>
  </div>","100","html-slider-response","14","729512","0.0-7.0-1.0","60","1","2025-07-30 08:49:55","36c45c0696341be0efffe67d72a12abb","216.120.189.148","Mozilla/5.0 (Windows NT 10.0; Win64; x64) AppleWebKit/537.36 (KHTML, like Gecko) Chrome/138.0.0.0 Safari/537.36","WebKit","Chrome","138.0.0.0","Windows","10.0","https://app.prolific.com/","en-US,en;q=0.9","663b638be7226d4e3fcc255f","683dba9a53627eb9ab41b36a","6889d9cfff66973069e9b338","0","663b638be7226d4e3fcc255f","0","2025-07-30T09:02:11.652Z","","","","AttribQ","","","","","","","","","","","50","","","","","","","","","","","","","","","","","","","","","","","","","","",""
"4913","","<div style=""width:500px;"">
  <p>How much control did you have over the ball?</p>
  </div>","100","html-slider-response","15","734426","0.0-7.0-2.0","60","1","2025-07-30 08:49:55","36c45c0696341be0efffe67d72a12abb","216.120.189.148","Mozilla/5.0 (Windows NT 10.0; Win64; x64) AppleWebKit/537.36 (KHTML, like Gecko) Chrome/138.0.0.0 Safari/537.36","WebKit","Chrome","138.0.0.0","Windows","10.0","https://app.prolific.com/","en-US,en;q=0.9","663b638be7226d4e3fcc255f","683dba9a53627eb9ab41b36a","6889d9cfff66973069e9b338","0","663b638be7226d4e3fcc255f","0","2025-07-30T09:02:16.566Z","","","","ControlQ","","","","","","","","","","","50","","","","","","","","","","","","","","","","","","","","","","","","","","",""
"25964","","<div style=""width:500px;"">
  <p>How would you describe your current emotional state?</p>
  </div>","29","html-slider-response","16","760392","0.0-7.0-3.0","60","1","2025-07-30 08:49:55","36c45c0696341be0efffe67d72a12abb","216.120.189.148","Mozilla/5.0 (Windows NT 10.0; Win64; x64) AppleWebKit/537.36 (KHTML, like Gecko) Chrome/138.0.0.0 Safari/537.36","WebKit","Chrome","138.0.0.0","Windows","10.0","https://app.prolific.com/","en-US,en;q=0.9","663b638be7226d4e3fcc255f","683dba9a53627eb9ab41b36a","6889d9cfff66973069e9b338","0","663b638be7226d4e3fcc255f","0","2025-07-30T09:02:42.531Z","","","","StressQ","","","","","","","","","","","50","","","","","","","","","","","","","","","","","","","","","","","","","","",""
"13687","","<div style=""width:500px;"">
  <p>What best describes how you currently feel?</p>
  </div>","80","html-slider-response","17","774081","0.0-7.0-4.0","60","1","2025-07-30 08:49:55","36c45c0696341be0efffe67d72a12abb","216.120.189.148","Mozilla/5.0 (Windows NT 10.0; Win64; x64) AppleWebKit/537.36 (KHTML, like Gecko) Chrome/138.0.0.0 Safari/537.36","WebKit","Chrome","138.0.0.0","Windows","10.0","https://app.prolific.com/","en-US,en;q=0.9","663b638be7226d4e3fcc255f","683dba9a53627eb9ab41b36a","6889d9cfff66973069e9b338","0","663b638be7226d4e3fcc255f","0","2025-07-30T09:02:56.220Z","","","","MotivationQ","","","","","","","","","","","50","","","","","","","","","","","","","","","","","","","","","","","","","","",""
"","","","","ctl-task-cpt","18","798338","0.0-7.0-0.1","60","1","2025-07-30 08:49:55","36c45c0696341be0efffe67d72a12abb","216.120.189.148","Mozilla/5.0 (Windows NT 10.0; Win64; x64) AppleWebKit/537.36 (KHTML, like Gecko) Chrome/138.0.0.0 Safari/537.36","WebKit","Chrome","138.0.0.0","Windows","10.0","https://app.prolific.com/","en-US,en;q=0.9","663b638be7226d4e3fcc255f","683dba9a53627eb9ab41b36a","6889d9cfff66973069e9b338","0","663b638be7226d4e3fcc255f","0","2025-07-30T09:03:20.477Z","","","","","","","","","","","","","","","","win-only","3","g1:SW,g2:NE","0.9","2","0","782165.5","1295.2","6296.4","21245.6","1","4","4","6","2","4","4","12","8","0.09090909090909091","1894.6","3000","900","[""up"",""right""]","{""num_key_presses"":6,""num_perfect"":6,""num_errors"":0,""num_randdir"":0,""num_randdir_good_moves"":0,""num_whilered"":0,""num_whileblue"":0,""num_blue"":0,""num_good_moves"":6}","[292.22232142857143,296.12857142857143,0.3,292.22232142857143,296.12857142857143,100.4,292.22232142857143,296.12857142857143,201.6,292.22232142857143,296.12857142857143,310.9,292.22232142857143,296.12857142857143,411.4,292.22232142857143,296.12857142857143,511.6,292.22232142857143,296.12857142857143,615.7,292.22232142857143,296.12857142857143,721.7,352.22232142857143,233.12857142857143,828.6,484.22232142857143,129.12857142857143,931.7,487.22232142857143,123.12857142857143,1035.7,487.22232142857143,123.12857142857143,1144.2,487.22232142857143,123.12857142857143,1246,530.2223214285714,88.12857142857143,1351.6,545.2223214285714,62.128571428571426,1461.3,547.2223214285714,55.128571428571426,1561.7,549.2223214285714,45.128571428571426,1666.1,549.2223214285714,44.128571428571426,1770.8,549.2223214285714,44.128571428571426,1876.8,549.2223214285714,44.128571428571426,1977,549.2223214285714,44.128571428571426,2081.3,549.2223214285714,44.128571428571426,2185.3,549.2223214285714,44.128571428571426,2286.1,549.2223214285714,44.128571428571426,2386.4,549.2223214285714,44.128571428571426,2493.9,535.2223214285714,62.128571428571426,2595.5,532.2223214285714,64.12857142857143,2695.5,527.2223214285714,71.12857142857143,2795.6,526.2223214285714,70.12857142857143,2901.8,526.2223214285714,70.12857142857143,3010.2,526.2223214285714,70.12857142857143,3110.2,526.2223214285714,70.12857142857143,3215.9,526.2223214285714,70.12857142857143,3316.3,526.2223214285714,70.12857142857143,3421.7,526.2223214285714,70.12857142857143,3526.9,526.2223214285714,70.12857142857143,3630.3,526.2223214285714,70.12857142857143,3730.6,526.2223214285714,70.12857142857143,3830.6,526.2223214285714,70.12857142857143,3935.2,526.2223214285714,70.12857142857143,4036.1,526.2223214285714,70.12857142857143,4136.1,526.2223214285714,70.12857142857143,4244,526.2223214285714,70.12857142857143,4345.4,526.2223214285714,70.12857142857143,4445.4,526.2223214285714,70.12857142857143,4545.4,526.2223214285714,70.12857142857143,4650.6,526.2223214285714,70.12857142857143,4751.7,526.2223214285714,70.12857142857143,4860.4,526.2223214285714,70.12857142857143,4965.5]","[1358.5,1358.5,1000,0,358.5,""smooth"",""right"",""right"",""good_move"",3947.1,2588.4,2217.6,1358.7,370.8,""smooth"",""right"",""right"",""good_move"",6791.8,2844.5,2419.3,3947.3,425.2,""smooth"",""right"",""right"",""good_move"",9713.6,2921.5,2540.5,6792.1,381,""smooth"",""up"",""up"",""good_move"",12369.1,2655.2,2187.4,9713.9,467.8,""smooth"",""up"",""up"",""good_move"",14857.5,2488.3,2108.9,12369.2,379.4,""smooth"",""up"",""up"",""good_move""]"
"6116","","<div style=""width:500px;"">
  <p>What determined the result of this run?</p>
  </div>","100","html-slider-response","19","804454","0.0-7.0-1.1","60","1","2025-07-30 08:49:55","36c45c0696341be0efffe67d72a12abb","216.120.189.148","Mozilla/5.0 (Windows NT 10.0; Win64; x64) AppleWebKit/537.36 (KHTML, like Gecko) Chrome/138.0.0.0 Safari/537.36","WebKit","Chrome","138.0.0.0","Windows","10.0","https://app.prolific.com/","en-US,en;q=0.9","663b638be7226d4e3fcc255f","683dba9a53627eb9ab41b36a","6889d9cfff66973069e9b338","0","663b638be7226d4e3fcc255f","0","2025-07-30T09:03:26.593Z","","","","AttribQ","","","","","","","","","","","50","","","","","","","","","","","","","","","","","","","","","","","","","","",""
"5175","","<div style=""width:500px;"">
  <p>How much control did you have over the ball?</p>
  </div>","100","html-slider-response","20","809630","0.0-7.0-2.1","60","1","2025-07-30 08:49:55","36c45c0696341be0efffe67d72a12abb","216.120.189.148","Mozilla/5.0 (Windows NT 10.0; Win64; x64) AppleWebKit/537.36 (KHTML, like Gecko) Chrome/138.0.0.0 Safari/537.36","WebKit","Chrome","138.0.0.0","Windows","10.0","https://app.prolific.com/","en-US,en;q=0.9","663b638be7226d4e3fcc255f","683dba9a53627eb9ab41b36a","6889d9cfff66973069e9b338","0","663b638be7226d4e3fcc255f","0","2025-07-30T09:03:31.769Z","","","","ControlQ","","","","","","","","","","","50","","","","","","","","","","","","","","","","","","","","","","","","","","",""
"24523","","<div style=""width:500px;"">
  <p>How would you describe your current emotional state?</p>
  </div>","24","html-slider-response","21","834154","0.0-7.0-3.1","60","1","2025-07-30 08:49:55","36c45c0696341be0efffe67d72a12abb","216.120.189.148","Mozilla/5.0 (Windows NT 10.0; Win64; x64) AppleWebKit/537.36 (KHTML, like Gecko) Chrome/138.0.0.0 Safari/537.36","WebKit","Chrome","138.0.0.0","Windows","10.0","https://app.prolific.com/","en-US,en;q=0.9","663b638be7226d4e3fcc255f","683dba9a53627eb9ab41b36a","6889d9cfff66973069e9b338","0","663b638be7226d4e3fcc255f","0","2025-07-30T09:03:56.293Z","","","","StressQ","","","","","","","","","","","50","","","","","","","","","","","","","","","","","","","","","","","","","","",""
"17661","","<div style=""width:500px;"">
  <p>What best describes how you currently feel?</p>
  </div>","69","html-slider-response","22","851816","0.0-7.0-4.1","60","1","2025-07-30 08:49:55","36c45c0696341be0efffe67d72a12abb","216.120.189.148","Mozilla/5.0 (Windows NT 10.0; Win64; x64) AppleWebKit/537.36 (KHTML, like Gecko) Chrome/138.0.0.0 Safari/537.36","WebKit","Chrome","138.0.0.0","Windows","10.0","https://app.prolific.com/","en-US,en;q=0.9","663b638be7226d4e3fcc255f","683dba9a53627eb9ab41b36a","6889d9cfff66973069e9b338","0","663b638be7226d4e3fcc255f","0","2025-07-30T09:04:13.955Z","","","","MotivationQ","","","","","","","","","","","50","","","","","","","","","","","","","","","","","","","","","","","","","","",""
"","","","","ctl-task-cpt","23","878855","0.0-7.0-0.2","60","1","2025-07-30 08:49:55","36c45c0696341be0efffe67d72a12abb","216.120.189.148","Mozilla/5.0 (Windows NT 10.0; Win64; x64) AppleWebKit/537.36 (KHTML, like Gecko) Chrome/138.0.0.0 Safari/537.36","WebKit","Chrome","138.0.0.0","Windows","10.0","https://app.prolific.com/","en-US,en;q=0.9","663b638be7226d4e3fcc255f","683dba9a53627eb9ab41b36a","6889d9cfff66973069e9b338","0","663b638be7226d4e3fcc255f","0","2025-07-30T09:04:40.994Z","","","","","","","","","","","","","","","","win-only","0","g1:NW,g2:SE","0.8","3","0","859900.3","2833.1","7836.9","24025.4","1","4","8","6","2","8","8","20","12","0.15151515151515152","1405.3","3000","1085","[""down"",""right""]","{""num_key_presses"":6,""num_perfect"":4,""num_errors"":0,""num_randdir"":2,""num_randdir_good_moves"":2,""num_whilered"":0,""num_whileblue"":0,""num_blue"":0,""num_good_moves"":6}","[293.22232142857143,288.12857142857143,0.6,293.22232142857143,288.12857142857143,100.6,293.22232142857143,288.12857142857143,203.7,293.22232142857143,288.12857142857143,307.9,293.22232142857143,288.12857142857143,416.6,293.22232142857143,288.12857142857143,516.6,293.22232142857143,288.12857142857143,617,305.22232142857143,303.12857142857143,718.6,410.22232142857143,444.12857142857143,823.5,491.22232142857143,516.1285714285714,928.4,522.2223214285714,534.1285714285714,1028.5,532.2223214285714,538.1285714285714,1128.7,542.2223214285714,542.1285714285714,1233.2,542.2223214285714,542.1285714285714,1333.5,542.2223214285714,542.1285714285714,1433.6,542.2223214285714,542.1285714285714,1534.2,542.2223214285714,542.1285714285714,1638.1,542.2223214285714,542.1285714285714,1743.4,542.2223214285714,542.1285714285714,1849.7,542.2223214285714,542.1285714285714,1950.3,534.2223214285714,574.1285714285714,2052.5,519.2223214285714,632.1285714285714,2153.3,505.22232142857143,683.1285714285714,2253.6,501.22232142857143,683.1285714285714,2358.2,501.22232142857143,683.1285714285714,2466.2,501.22232142857143,683.1285714285714,2566.4,501.22232142857143,683.1285714285714,2666.4,501.22232142857143,683.1285714285714,2768.3,501.22232142857143,683.1285714285714,2868.3,501.22232142857143,683.1285714285714,2968.3,501.22232142857143,683.1285714285714,3073.3,491.22232142857143,683.1285714285714,3184.4,465.22232142857143,683.1285714285714,3285.1,439.22232142857143,674.1285714285714,3388,396.22232142857143,658.1285714285714,3488.3,383.22232142857143,638.1285714285714,3588.3,383.22232142857143,638.1285714285714,3693.1,383.22232142857143,638.1285714285714,3793.1,383.22232142857143,638.1285714285714,3899.7,383.22232142857143,638.1285714285714,4003.5,383.22232142857143,638.1285714285714,4108.1,383.22232142857143,638.1285714285714,4216.3,383.22232142857143,638.1285714285714,4318.1,383.22232142857143,638.1285714285714,4418.1,383.22232142857143,638.1285714285714,4523.3,383.22232142857143,638.1285714285714,4623.3,383.22232142857143,638.1285714285714,4727.6,383.22232142857143,638.1285714285714,4833.3,383.22232142857143,638.1285714285714,4938.3]","[1362.2,1362.2,1000,0,362.2,""smooth"",""right"",""right"",""good_move"",3829.3,2466.7,2097.2,1362.6,369.5,""smooth"",""right"",""right"",""good_move"",6899.7,3070.2,2704,3829.5,366.2,""oops"",""right"",""down"",""good_move"",9628.1,2727.8,2320.2,6900.3,407.6,""smooth"",""right"",""right"",""good_move"",12661.1,3032.8,2696.5,9628.3,336.3,""smooth"",""down"",""down"",""good_move"",16094.8,3433.5,3095.4,12661.3,338.1,""oops"",""down"",""down"",""good_move""]"
"7170","","<div style=""width:500px;"">
  <p>What determined the result of this run?</p>
  </div>","92","html-slider-response","24","886027","0.0-7.0-1.2","60","1","2025-07-30 08:49:55","36c45c0696341be0efffe67d72a12abb","216.120.189.148","Mozilla/5.0 (Windows NT 10.0; Win64; x64) AppleWebKit/537.36 (KHTML, like Gecko) Chrome/138.0.0.0 Safari/537.36","WebKit","Chrome","138.0.0.0","Windows","10.0","https://app.prolific.com/","en-US,en;q=0.9","663b638be7226d4e3fcc255f","683dba9a53627eb9ab41b36a","6889d9cfff66973069e9b338","0","663b638be7226d4e3fcc255f","0","2025-07-30T09:04:48.166Z","","","","AttribQ","","","","","","","","","","","50","","","","","","","","","","","","","","","","","","","","","","","","","","",""
"4794","","<div style=""width:500px;"">
  <p>How much control did you have over the ball?</p>
  </div>","92","html-slider-response","25","890821","0.0-7.0-2.2","60","1","2025-07-30 08:49:55","36c45c0696341be0efffe67d72a12abb","216.120.189.148","Mozilla/5.0 (Windows NT 10.0; Win64; x64) AppleWebKit/537.36 (KHTML, like Gecko) Chrome/138.0.0.0 Safari/537.36","WebKit","Chrome","138.0.0.0","Windows","10.0","https://app.prolific.com/","en-US,en;q=0.9","663b638be7226d4e3fcc255f","683dba9a53627eb9ab41b36a","6889d9cfff66973069e9b338","0","663b638be7226d4e3fcc255f","0","2025-07-30T09:04:52.961Z","","","","ControlQ","","","","","","","","","","","50","","","","","","","","","","","","","","","","","","","","","","","","","","",""
"6700","","<div style=""width:500px;"">
  <p>How would you describe your current emotional state?</p>
  </div>","24","html-slider-response","26","897523","0.0-7.0-3.2","60","1","2025-07-30 08:49:55","36c45c0696341be0efffe67d72a12abb","216.120.189.148","Mozilla/5.0 (Windows NT 10.0; Win64; x64) AppleWebKit/537.36 (KHTML, like Gecko) Chrome/138.0.0.0 Safari/537.36","WebKit","Chrome","138.0.0.0","Windows","10.0","https://app.prolific.com/","en-US,en;q=0.9","663b638be7226d4e3fcc255f","683dba9a53627eb9ab41b36a","6889d9cfff66973069e9b338","0","663b638be7226d4e3fcc255f","0","2025-07-30T09:04:59.662Z","","","","StressQ","","","","","","","","","","","50","","","","","","","","","","","","","","","","","","","","","","","","","","",""
"6805","","<div style=""width:500px;"">
  <p>What best describes how you currently feel?</p>
  </div>","67","html-slider-response","27","904329","0.0-7.0-4.2","60","1","2025-07-30 08:49:55","36c45c0696341be0efffe67d72a12abb","216.120.189.148","Mozilla/5.0 (Windows NT 10.0; Win64; x64) AppleWebKit/537.36 (KHTML, like Gecko) Chrome/138.0.0.0 Safari/537.36","WebKit","Chrome","138.0.0.0","Windows","10.0","https://app.prolific.com/","en-US,en;q=0.9","663b638be7226d4e3fcc255f","683dba9a53627eb9ab41b36a","6889d9cfff66973069e9b338","0","663b638be7226d4e3fcc255f","0","2025-07-30T09:05:06.468Z","","","","MotivationQ","","","","","","","","","","","50","","","","","","","","","","","","","","","","","","","","","","","","","","",""
"","","","","ctl-task-cpt","28","948165","0.0-7.0-0.3","60","1","2025-07-30 08:49:55","36c45c0696341be0efffe67d72a12abb","216.120.189.148","Mozilla/5.0 (Windows NT 10.0; Win64; x64) AppleWebKit/537.36 (KHTML, like Gecko) Chrome/138.0.0.0 Safari/537.36","WebKit","Chrome","138.0.0.0","Windows","10.0","https://app.prolific.com/","en-US,en;q=0.9","663b638be7226d4e3fcc255f","683dba9a53627eb9ab41b36a","6889d9cfff66973069e9b338","0","663b638be7226d4e3fcc255f","0","2025-07-30T09:05:50.304Z","","","","","","","","","","","","","","","","win-only","2","g1:SE,g2:NW","0.7","4","0","912412.9","1535.6","6536.5","40821.7","1","4","4","6","2","-4","-6","14","20","0.10606060606060606","1520","3000","-2695","[""left"",""up""]","{""num_key_presses"":10,""num_perfect"":5,""num_errors"":2,""num_randdir"":3,""num_randdir_good_moves"":1,""num_whilered"":0,""num_whileblue"":1,""num_blue"":2,""num_good_moves"":7}","[300.22232142857143,302.12857142857143,0.1,300.22232142857143,302.12857142857143,100,300.22232142857143,302.12857142857143,205.4,300.22232142857143,302.12857142857143,310.1,300.22232142857143,302.12857142857143,410.5,300.22232142857143,302.12857142857143,520.6,300.22232142857143,302.12857142857143,621.5,300.22232142857143,302.12857142857143,725.8,205.22232142857143,178.12857142857143,833.3,132.22232142857143,131.12857142857143,935.5,88.22232142857143,90.12857142857143,1035.8,68.22232142857143,74.12857142857143,1135.8,67.22232142857143,73.12857142857143,1236,67.22232142857143,73.12857142857143,1340.5,67.22232142857143,73.12857142857143,1441,67.22232142857143,73.12857142857143,1550.5,67.22232142857143,73.12857142857143,1655.5,67.22232142857143,73.12857142857143,1755.6,67.22232142857143,73.12857142857143,1855.9,67.22232142857143,73.12857142857143,1961,67.22232142857143,73.12857142857143,2067.5,67.22232142857143,73.12857142857143,2171.2,67.22232142857143,73.12857142857143,2275.5,67.22232142857143,73.12857142857143,2375.5,67.22232142857143,73.12857142857143,2475.5,67.22232142857143,73.12857142857143,2575.7,67.22232142857143,73.12857142857143,2683.6,67.22232142857143,73.12857142857143,2785.7,67.22232142857143,73.12857142857143,2891.4,67.22232142857143,73.12857142857143,2999.6,67.22232142857143,73.12857142857143,3100.4,67.22232142857143,73.12857142857143,3205.3,52.222321428571426,89.12857142857143,3305.7,15.222321428571426,111.12857142857143,3405.7,-38.777678571428574,137.12857142857143,3510.9,-90.77767857142857,154.12857142857143,3618.3,-102.77767857142857,170.12857142857143,3720.3,-102.77767857142857,170.12857142857143,3821.4,-102.77767857142857,170.12857142857143,3921.4,-102.77767857142857,170.12857142857143,4025.7,-102.77767857142857,170.12857142857143,4133.5,-102.77767857142857,170.12857142857143,4233.7,-102.77767857142857,170.12857142857143,4335.6,-102.77767857142857,170.12857142857143,4440.6,-102.77767857142857,170.12857142857143,4541,-102.77767857142857,170.12857142857143,4650.2,-102.77767857142857,170.12857142857143,4750.7,-102.77767857142857,170.12857142857143,4855.7,-102.77767857142857,170.12857142857143,4955.8]","[1347.5,1347.5,1000,0,347.5,""smooth"",""up"",""up"",""good_move"",4197.2,2849.5,2424.8,1347.7,424.7,""smooth"",""left"",""left"",""good_move"",7381.2,3183.7,2843.1,4197.6,340.5,""oops"",""up"",""left"",""good_move"",10202.3,2820.8,2511.3,7381.5,309.5,""oops"",""up"",""down"",""bad_move"",13263.5,3060.8,2743.3,10202.7,317.5,""smooth"",""left"",""left"",""good_move"",19047.5,5783.8,2437.4,15881.6,728.5,""oops"",""up"",""down"",""bad_move"",20735.7,1687.9,2095.3,19047.8,-407.4,""error"",""-"",""-"",""no_move"",24573.5,3836,2469.2,21738.8,365.5,""smooth"",""up"",""up"",""good_move"",27684,3110.3,2824.9,24573.8,285.4,""smooth"",""up"",""up"",""good_move"",30629.1,2944,2705.3,27685.2,238.7,""while_blue"",""up"",""up"",""good_move""]"
"11957","","<div style=""width:500px;"">
  <p>What determined the result of this run?</p>
  </div>","24","html-slider-response","29","960123","0.0-7.0-1.3","60","1","2025-07-30 08:49:55","36c45c0696341be0efffe67d72a12abb","216.120.189.148","Mozilla/5.0 (Windows NT 10.0; Win64; x64) AppleWebKit/537.36 (KHTML, like Gecko) Chrome/138.0.0.0 Safari/537.36","WebKit","Chrome","138.0.0.0","Windows","10.0","https://app.prolific.com/","en-US,en;q=0.9","663b638be7226d4e3fcc255f","683dba9a53627eb9ab41b36a","6889d9cfff66973069e9b338","0","663b638be7226d4e3fcc255f","0","2025-07-30T09:06:02.262Z","","","","AttribQ","","","","","","","","","","","50","","","","","","","","","","","","","","","","","","","","","","","","","","",""
"6574","","<div style=""width:500px;"">
  <p>How much control did you have over the ball?</p>
  </div>","60","html-slider-response","30","966697","0.0-7.0-2.3","60","1","2025-07-30 08:49:55","36c45c0696341be0efffe67d72a12abb","216.120.189.148","Mozilla/5.0 (Windows NT 10.0; Win64; x64) AppleWebKit/537.36 (KHTML, like Gecko) Chrome/138.0.0.0 Safari/537.36","WebKit","Chrome","138.0.0.0","Windows","10.0","https://app.prolific.com/","en-US,en;q=0.9","663b638be7226d4e3fcc255f","683dba9a53627eb9ab41b36a","6889d9cfff66973069e9b338","0","663b638be7226d4e3fcc255f","0","2025-07-30T09:06:08.836Z","","","","ControlQ","","","","","","","","","","","50","","","","","","","","","","","","","","","","","","","","","","","","","","",""
"5142","","<div style=""width:500px;"">
  <p>How would you describe your current emotional state?</p>
  </div>","28","html-slider-response","31","971841","0.0-7.0-3.3","60","1","2025-07-30 08:49:55","36c45c0696341be0efffe67d72a12abb","216.120.189.148","Mozilla/5.0 (Windows NT 10.0; Win64; x64) AppleWebKit/537.36 (KHTML, like Gecko) Chrome/138.0.0.0 Safari/537.36","WebKit","Chrome","138.0.0.0","Windows","10.0","https://app.prolific.com/","en-US,en;q=0.9","663b638be7226d4e3fcc255f","683dba9a53627eb9ab41b36a","6889d9cfff66973069e9b338","0","663b638be7226d4e3fcc255f","0","2025-07-30T09:06:13.981Z","","","","StressQ","","","","","","","","","","","50","","","","","","","","","","","","","","","","","","","","","","","","","","",""
"6088","","<div style=""width:500px;"">
  <p>What best describes how you currently feel?</p>
  </div>","68","html-slider-response","32","977937","0.0-7.0-4.3","60","1","2025-07-30 08:49:55","36c45c0696341be0efffe67d72a12abb","216.120.189.148","Mozilla/5.0 (Windows NT 10.0; Win64; x64) AppleWebKit/537.36 (KHTML, like Gecko) Chrome/138.0.0.0 Safari/537.36","WebKit","Chrome","138.0.0.0","Windows","10.0","https://app.prolific.com/","en-US,en;q=0.9","663b638be7226d4e3fcc255f","683dba9a53627eb9ab41b36a","6889d9cfff66973069e9b338","0","663b638be7226d4e3fcc255f","0","2025-07-30T09:06:20.076Z","","","","MotivationQ","","","","","","","","","","","50","","","","","","","","","","","","","","","","","","","","","","","","","","",""
"","","","","ctl-task-cpt","33","1033958","0.0-7.0-0.4","60","1","2025-07-30 08:49:55","36c45c0696341be0efffe67d72a12abb","216.120.189.148","Mozilla/5.0 (Windows NT 10.0; Win64; x64) AppleWebKit/537.36 (KHTML, like Gecko) Chrome/138.0.0.0 Safari/537.36","WebKit","Chrome","138.0.0.0","Windows","10.0","https://app.prolific.com/","en-US,en;q=0.9","663b638be7226d4e3fcc255f","683dba9a53627eb9ab41b36a","6889d9cfff66973069e9b338","0","663b638be7226d4e3fcc255f","0","2025-07-30T09:07:16.097Z","","","","","","","","","","","","","","","","win-only","0","g1:NW,g2:SE","0.6","5","0","986019.9","1493.7","6496.1","53000.6","1","4","8","6","2","-8","-10","4","14","0.030303030303030304","1801.4","3000","-3005","[""down"",""right""]","{""num_key_presses"":11,""num_perfect"":6,""num_errors"":2,""num_randdir"":3,""num_randdir_good_moves"":0,""num_whilered"":0,""num_whileblue"":0,""num_blue"":5,""num_good_moves"":6}","[291.22232142857143,303.12857142857143,0.2,291.22232142857143,303.12857142857143,102.4,291.22232142857143,303.12857142857143,203.5,291.22232142857143,303.12857142857143,307.3,291.22232142857143,303.12857142857143,407.8,291.22232142857143,303.12857142857143,512.4,291.22232142857143,303.12857142857143,612.6,317.22232142857143,325.12857142857143,717.6,401.22232142857143,417.12857142857143,822.5,442.22232142857143,459.12857142857143,922.5,471.22232142857143,474.12857142857143,1027.2,501.22232142857143,477.12857142857143,1127.2,523.2223214285714,491.12857142857143,1234.2,528.2223214285714,504.12857142857143,1337.3,528.2223214285714,504.12857142857143,1437.6,528.2223214285714,504.12857142857143,1538,528.2223214285714,504.12857142857143,1641.9,528.2223214285714,504.12857142857143,1742.2,528.2223214285714,504.12857142857143,1843.2,528.2223214285714,504.12857142857143,1943.3,528.2223214285714,504.12857142857143,2043.9,528.2223214285714,504.12857142857143,2148,528.2223214285714,504.12857142857143,2249,528.2223214285714,504.12857142857143,2352.2,637.2223214285714,492.12857142857143,2457,764.2223214285714,472.12857142857143,2564.1,774.2223214285714,467.12857142857143,2664.3,774.2223214285714,467.12857142857143,2764.3,774.2223214285714,467.12857142857143,2867.5,774.2223214285714,467.12857142857143,2972,774.2223214285714,467.12857142857143,3072.2,774.2223214285714,467.12857142857143,3173.1,774.2223214285714,467.12857142857143,3276.9,774.2223214285714,467.12857142857143,3377.5,774.2223214285714,467.12857142857143,3482.5,774.2223214285714,467.12857142857143,3586.6,774.2223214285714,467.12857142857143,3687,774.2223214285714,467.12857142857143,3787.1,774.2223214285714,467.12857142857143,3893,774.2223214285714,467.12857142857143,3997.5,774.2223214285714,467.12857142857143,4099,774.2223214285714,467.12857142857143,4202.8,774.2223214285714,467.12857142857143,4303.4,774.2223214285714,467.12857142857143,4406.9,774.2223214285714,467.12857142857143,4507.2,774.2223214285714,467.12857142857143,4607.6,774.2223214285714,467.12857142857143,4707.7,774.2223214285714,467.12857142857143,4807.8,774.2223214285714,467.12857142857143,4914.5]","[1304.9,1304.9,1000,0,304.9,""smooth"",""right"",""right"",""good_move"",4715.8,3410.5,3072.2,1305.3,338.3,""smooth"",""down"",""down"",""good_move"",7292.1,2576.2,2255.7,4716,320.5,""smooth"",""right"",""right"",""good_move"",13864.8,6572.2,2869.8,10670.4,324.6,""oops"",""down"",""left"",""bad_move"",16565.4,2700.3,2346.3,13865.1,354,""smooth"",""down"",""down"",""good_move"",19410.6,2844.9,2494.2,16565.7,350.7,""oops"",""right"",""up"",""bad_move"",21728.7,2317.7,2147.5,19411,170.2,""smooth"",""right"",""right"",""good_move"",22000,270.7,2662.5,21729.3,-2391.8,""error"",""-"",""-"",""no_move"",25797.5,3797.3,2433.2,23005.1,359.2,""smooth"",""down"",""down"",""good_move"",35216.3,9418,2458.8,32454.9,302.6,""oops"",""down"",""left"",""bad_move"",42245.3,7028.7,2619.7,41994.7,-2369.1,""error"",""-"",""-"",""no_move""]"
"8629","","<div style=""width:500px;"">
  <p>What determined the result of this run?</p>
  </div>","22","html-slider-response","34","1042587","0.0-7.0-1.4","60","1","2025-07-30 08:49:55","36c45c0696341be0efffe67d72a12abb","216.120.189.148","Mozilla/5.0 (Windows NT 10.0; Win64; x64) AppleWebKit/537.36 (KHTML, like Gecko) Chrome/138.0.0.0 Safari/537.36","WebKit","Chrome","138.0.0.0","Windows","10.0","https://app.prolific.com/","en-US,en;q=0.9","663b638be7226d4e3fcc255f","683dba9a53627eb9ab41b36a","6889d9cfff66973069e9b338","0","663b638be7226d4e3fcc255f","0","2025-07-30T09:07:24.727Z","","","","AttribQ","","","","","","","","","","","50","","","","","","","","","","","","","","","","","","","","","","","","","","",""
"8112","","<div style=""width:500px;"">
  <p>How much control did you have over the ball?</p>
  </div>","25","html-slider-response","35","1050700","0.0-7.0-2.4","60","1","2025-07-30 08:49:55","36c45c0696341be0efffe67d72a12abb","216.120.189.148","Mozilla/5.0 (Windows NT 10.0; Win64; x64) AppleWebKit/537.36 (KHTML, like Gecko) Chrome/138.0.0.0 Safari/537.36","WebKit","Chrome","138.0.0.0","Windows","10.0","https://app.prolific.com/","en-US,en;q=0.9","663b638be7226d4e3fcc255f","683dba9a53627eb9ab41b36a","6889d9cfff66973069e9b338","0","663b638be7226d4e3fcc255f","0","2025-07-30T09:07:32.839Z","","","","ControlQ","","","","","","","","","","","50","","","","","","","","","","","","","","","","","","","","","","","","","","",""
"3963","","<div style=""width:500px;"">
  <p>How would you describe your current emotional state?</p>
  </div>","28","html-slider-response","36","1054664","0.0-7.0-3.4","60","1","2025-07-30 08:49:55","36c45c0696341be0efffe67d72a12abb","216.120.189.148","Mozilla/5.0 (Windows NT 10.0; Win64; x64) AppleWebKit/537.36 (KHTML, like Gecko) Chrome/138.0.0.0 Safari/537.36","WebKit","Chrome","138.0.0.0","Windows","10.0","https://app.prolific.com/","en-US,en;q=0.9","663b638be7226d4e3fcc255f","683dba9a53627eb9ab41b36a","6889d9cfff66973069e9b338","0","663b638be7226d4e3fcc255f","0","2025-07-30T09:07:36.803Z","","","","StressQ","","","","","","","","","","","50","","","","","","","","","","","","","","","","","","","","","","","","","","",""
"4153","","<div style=""width:500px;"">
  <p>What best describes how you currently feel?</p>
  </div>","66","html-slider-response","37","1058818","0.0-7.0-4.4","60","1","2025-07-30 08:49:55","36c45c0696341be0efffe67d72a12abb","216.120.189.148","Mozilla/5.0 (Windows NT 10.0; Win64; x64) AppleWebKit/537.36 (KHTML, like Gecko) Chrome/138.0.0.0 Safari/537.36","WebKit","Chrome","138.0.0.0","Windows","10.0","https://app.prolific.com/","en-US,en;q=0.9","663b638be7226d4e3fcc255f","683dba9a53627eb9ab41b36a","6889d9cfff66973069e9b338","0","663b638be7226d4e3fcc255f","0","2025-07-30T09:07:40.957Z","","","","MotivationQ","","","","","","","","","","","50","","","","","","","","","","","","","","","","","","","","","","","","","","",""
"","","","","ctl-task-cpt","38","1084270","0.0-7.0-0.5","60","1","2025-07-30 08:49:55","36c45c0696341be0efffe67d72a12abb","216.120.189.148","Mozilla/5.0 (Windows NT 10.0; Win64; x64) AppleWebKit/537.36 (KHTML, like Gecko) Chrome/138.0.0.0 Safari/537.36","WebKit","Chrome","138.0.0.0","Windows","10.0","https://app.prolific.com/","en-US,en;q=0.9","663b638be7226d4e3fcc255f","683dba9a53627eb9ab41b36a","6889d9cfff66973069e9b338","0","663b638be7226d4e3fcc255f","0","2025-07-30T09:08:06.409Z","","","","","","","","","","","","","","","","win-only","3","g1:SW,g2:NE","0.5","6","0","1066903.1","2789.7","7791.6","22434.1","1","4","4","6","2","4","4","8","4","0.06060606060606061","1464.5","3000","1095","[""up"",""right""]","{""num_key_presses"":6,""num_perfect"":3,""num_errors"":0,""num_randdir"":3,""num_randdir_good_moves"":3,""num_whilered"":0,""num_whileblue"":0,""num_blue"":0,""num_good_moves"":6}","[294.22232142857143,298.12857142857143,0.3,294.22232142857143,298.12857142857143,100.6,294.22232142857143,298.12857142857143,205.4,294.22232142857143,298.12857142857143,306.4,294.22232142857143,298.12857142857143,406.6,294.22232142857143,298.12857142857143,515.1,294.22232142857143,298.12857142857143,615.6,283.22232142857143,301.12857142857143,716.2,281.22232142857143,302.12857142857143,821.4,324.22232142857143,273.12857142857143,921.9,490.22232142857143,93.12857142857143,1027,512.2223214285714,80.12857142857143,1131,512.2223214285714,80.12857142857143,1231.1,512.2223214285714,80.12857142857143,1331.7,512.2223214285714,80.12857142857143,1436.4,512.2223214285714,80.12857142857143,1536.9,512.2223214285714,80.12857142857143,1644.2,512.2223214285714,80.12857142857143,1749.7,512.2223214285714,80.12857142857143,1851.6,512.2223214285714,80.12857142857143,1956.3,512.2223214285714,80.12857142857143,2056.3,577.2223214285714,55.128571428571426,2161.5,616.2223214285714,39.128571428571426,2264.3,624.2223214285714,30.128571428571426,2365,624.2223214285714,30.128571428571426,2466.2,624.2223214285714,30.128571428571426,2566.7,624.2223214285714,30.128571428571426,2670.7,624.2223214285714,30.128571428571426,2771.4,624.2223214285714,30.128571428571426,2880.4,624.2223214285714,30.128571428571426,2980.7,624.2223214285714,30.128571428571426,3080.8,624.2223214285714,30.128571428571426,3182.2,624.2223214285714,30.128571428571426,3286.1,624.2223214285714,30.128571428571426,3398.3,624.2223214285714,30.128571428571426,3499.8,624.2223214285714,30.128571428571426,3601.4,624.2223214285714,30.128571428571426,3701.9,624.2223214285714,30.128571428571426,3806.7,624.2223214285714,30.128571428571426,3915.5,624.2223214285714,30.128571428571426,4015.7,624.2223214285714,30.128571428571426,4116.6,624.2223214285714,30.128571428571426,4221.4,624.2223214285714,30.128571428571426,4321.5,624.2223214285714,30.128571428571426,4430.7,624.2223214285714,30.128571428571426,4536.9,624.2223214285714,30.128571428571426,4642.5,624.2223214285714,30.128571428571426,4743.2,624.2223214285714,30.128571428571426,4845.8,624.2223214285714,30.128571428571426,4947.6]","[1377.3,1377.3,1000,0,377.3,""smooth"",""up"",""up"",""good_move"",3931.8,2554.2,2130.6,1377.6,423.6,""smooth"",""right"",""right"",""good_move"",6464.5,2532.5,2211.7,3932,320.8,""oops"",""right"",""right"",""good_move"",8788.1,2323.4,1991.4,6464.8,331.9,""oops"",""right"",""right"",""good_move"",11654,2865.8,2536.7,8788.2,329.1,""smooth"",""up"",""up"",""good_move"",14545.7,2890.3,2575.9,11655.4,314.4,""oops"",""up"",""up"",""good_move""]"
"7426","","<div style=""width:500px;"">
  <p>What determined the result of this run?</p>
  </div>","97","html-slider-response","39","1091697","0.0-7.0-1.5","60","1","2025-07-30 08:49:55","36c45c0696341be0efffe67d72a12abb","216.120.189.148","Mozilla/5.0 (Windows NT 10.0; Win64; x64) AppleWebKit/537.36 (KHTML, like Gecko) Chrome/138.0.0.0 Safari/537.36","WebKit","Chrome","138.0.0.0","Windows","10.0","https://app.prolific.com/","en-US,en;q=0.9","663b638be7226d4e3fcc255f","683dba9a53627eb9ab41b36a","6889d9cfff66973069e9b338","0","663b638be7226d4e3fcc255f","0","2025-07-30T09:08:13.836Z","","","","AttribQ","","","","","","","","","","","50","","","","","","","","","","","","","","","","","","","","","","","","","","",""
"6902","","<div style=""width:500px;"">
  <p>How much control did you have over the ball?</p>
  </div>","97","html-slider-response","40","1098600","0.0-7.0-2.5","60","1","2025-07-30 08:49:55","36c45c0696341be0efffe67d72a12abb","216.120.189.148","Mozilla/5.0 (Windows NT 10.0; Win64; x64) AppleWebKit/537.36 (KHTML, like Gecko) Chrome/138.0.0.0 Safari/537.36","WebKit","Chrome","138.0.0.0","Windows","10.0","https://app.prolific.com/","en-US,en;q=0.9","663b638be7226d4e3fcc255f","683dba9a53627eb9ab41b36a","6889d9cfff66973069e9b338","0","663b638be7226d4e3fcc255f","0","2025-07-30T09:08:20.739Z","","","","ControlQ","","","","","","","","","","","50","","","","","","","","","","","","","","","","","","","","","","","","","","",""
"5959","","<div style=""width:500px;"">
  <p>How would you describe your current emotional state?</p>
  </div>","24","html-slider-response","41","1104562","0.0-7.0-3.5","60","1","2025-07-30 08:49:55","36c45c0696341be0efffe67d72a12abb","216.120.189.148","Mozilla/5.0 (Windows NT 10.0; Win64; x64) AppleWebKit/537.36 (KHTML, like Gecko) Chrome/138.0.0.0 Safari/537.36","WebKit","Chrome","138.0.0.0","Windows","10.0","https://app.prolific.com/","en-US,en;q=0.9","663b638be7226d4e3fcc255f","683dba9a53627eb9ab41b36a","6889d9cfff66973069e9b338","0","663b638be7226d4e3fcc255f","0","2025-07-30T09:08:26.701Z","","","","StressQ","","","","","","","","","","","50","","","","","","","","","","","","","","","","","","","","","","","","","","",""
"5163","","<div style=""width:500px;"">
  <p>What best describes how you currently feel?</p>
  </div>","69","html-slider-response","42","1109732","0.0-7.0-4.5","60","1","2025-07-30 08:49:55","36c45c0696341be0efffe67d72a12abb","216.120.189.148","Mozilla/5.0 (Windows NT 10.0; Win64; x64) AppleWebKit/537.36 (KHTML, like Gecko) Chrome/138.0.0.0 Safari/537.36","WebKit","Chrome","138.0.0.0","Windows","10.0","https://app.prolific.com/","en-US,en;q=0.9","663b638be7226d4e3fcc255f","683dba9a53627eb9ab41b36a","6889d9cfff66973069e9b338","0","663b638be7226d4e3fcc255f","0","2025-07-30T09:08:31.871Z","","","","MotivationQ","","","","","","","","","","","50","","","","","","","","","","","","","","","","","","","","","","","","","","",""
"","","","","ctl-task-cpt","43","1152271","0.0-7.0-0.6","60","1","2025-07-30 08:49:55","36c45c0696341be0efffe67d72a12abb","216.120.189.148","Mozilla/5.0 (Windows NT 10.0; Win64; x64) AppleWebKit/537.36 (KHTML, like Gecko) Chrome/138.0.0.0 Safari/537.36","WebKit","Chrome","138.0.0.0","Windows","10.0","https://app.prolific.com/","en-US,en;q=0.9","663b638be7226d4e3fcc255f","683dba9a53627eb9ab41b36a","6889d9cfff66973069e9b338","0","663b638be7226d4e3fcc255f","0","2025-07-30T09:09:14.410Z","","","","","","","","","","","","","","","","win-only","0","g1:NW,g2:SE","0.4","7","0","1117816.3","1456.9","6463","39532.5","1","4","8","6","2","-8","-8","0","8","0","1519.7","3000","-2920","[""down"",""right""]","{""num_key_presses"":9,""num_perfect"":3,""num_errors"":0,""num_randdir"":6,""num_randdir_good_moves"":3,""num_whilered"":0,""num_whileblue"":0,""num_blue"":2,""num_good_moves"":6}","[294.22232142857143,301.12857142857143,0.2,294.22232142857143,301.12857142857143,104.6,294.22232142857143,301.12857142857143,209.4,294.22232142857143,301.12857142857143,314.5,294.22232142857143,301.12857142857143,418.3,294.22232142857143,301.12857142857143,519,294.22232142857143,301.12857142857143,628.8,311.22232142857143,317.12857142857143,731.7,402.22232142857143,403.12857142857143,833.3,460.22232142857143,445.12857142857143,935.7,501.22232142857143,496.12857142857143,1038.5,521.2223214285714,524.1285714285714,1144.8,535.2223214285714,558.1285714285714,1245.1,538.2223214285714,562.1285714285714,1348.9,538.2223214285714,562.1285714285714,1450.3,538.2223214285714,562.1285714285714,1554,538.2223214285714,562.1285714285714,1662.4,538.2223214285714,562.1285714285714,1764.5,538.2223214285714,562.1285714285714,1865.2,624.2223214285714,543.1285714285714,1965.7,675.2223214285714,526.1285714285714,2068.8,706.2223214285714,501.12857142857143,2168.8,714.2223214285714,486.12857142857143,2274.4,714.2223214285714,486.12857142857143,2377.6,714.2223214285714,486.12857142857143,2480,714.2223214285714,486.12857142857143,2582.9,714.2223214285714,486.12857142857143,2683.5,714.2223214285714,486.12857142857143,2783.5,714.2223214285714,486.12857142857143,2884.2,714.2223214285714,486.12857142857143,2984.4,714.2223214285714,486.12857142857143,3088.3,714.2223214285714,486.12857142857143,3188.9,714.2223214285714,486.12857142857143,3290.9,714.2223214285714,486.12857142857143,3395.7,714.2223214285714,495.12857142857143,3499,714.2223214285714,507.12857142857143,3599.4,714.2223214285714,507.12857142857143,3699.5,714.2223214285714,507.12857142857143,3804.1,714.2223214285714,507.12857142857143,3912.4,714.2223214285714,507.12857142857143,4013.4,714.2223214285714,507.12857142857143,4114.4,714.2223214285714,507.12857142857143,4215.1,714.2223214285714,507.12857142857143,4318.5,714.2223214285714,507.12857142857143,4419.9,714.2223214285714,507.12857142857143,4520.2,714.2223214285714,507.12857142857143,4623.6,714.2223214285714,507.12857142857143,4733.8,714.2223214285714,507.12857142857143,4838.4,714.2223214285714,507.12857142857143,4938.6]","[1341.3,1341.3,1000,0,341.3,""oops"",""right"",""up"",""bad_move"",3788.8,2447.1,2130.3,1341.7,316.8,""smooth"",""down"",""down"",""good_move"",6770.4,2981,2608.6,3789.4,372.4,""oops"",""down"",""left"",""bad_move"",9111.5,2340.6,1928.7,6770.9,411.9,""oops"",""down"",""right"",""good_move"",11942.3,2830.5,2482.2,9111.8,348.4,""oops"",""down"",""down"",""good_move"",20973.4,9030.9,2287.2,18307.3,379,""oops"",""right"",""down"",""good_move"",23964.9,2991.1,2643.6,20973.8,347.5,""smooth"",""right"",""right"",""good_move"",27038.9,3073.6,2722.3,23965.3,351.3,""oops"",""right"",""left"",""bad_move"",30330.4,3291.2,2961.4,27039.2,329.8,""smooth"",""right"",""right"",""good_move""]"
"4967","","<div style=""width:500px;"">
  <p>What determined the result of this run?</p>
  </div>","13","html-slider-response","44","1157239","0.0-7.0-1.6","60","1","2025-07-30 08:49:55","36c45c0696341be0efffe67d72a12abb","216.120.189.148","Mozilla/5.0 (Windows NT 10.0; Win64; x64) AppleWebKit/537.36 (KHTML, like Gecko) Chrome/138.0.0.0 Safari/537.36","WebKit","Chrome","138.0.0.0","Windows","10.0","https://app.prolific.com/","en-US,en;q=0.9","663b638be7226d4e3fcc255f","683dba9a53627eb9ab41b36a","6889d9cfff66973069e9b338","0","663b638be7226d4e3fcc255f","0","2025-07-30T09:09:19.378Z","","","","AttribQ","","","","","","","","","","","50","","","","","","","","","","","","","","","","","","","","","","","","","","",""
"5036","","<div style=""width:500px;"">
  <p>How much control did you have over the ball?</p>
  </div>","17","html-slider-response","45","1162276","0.0-7.0-2.6","60","1","2025-07-30 08:49:55","36c45c0696341be0efffe67d72a12abb","216.120.189.148","Mozilla/5.0 (Windows NT 10.0; Win64; x64) AppleWebKit/537.36 (KHTML, like Gecko) Chrome/138.0.0.0 Safari/537.36","WebKit","Chrome","138.0.0.0","Windows","10.0","https://app.prolific.com/","en-US,en;q=0.9","663b638be7226d4e3fcc255f","683dba9a53627eb9ab41b36a","6889d9cfff66973069e9b338","0","663b638be7226d4e3fcc255f","0","2025-07-30T09:09:24.415Z","","","","ControlQ","","","","","","","","","","","50","","","","","","","","","","","","","","","","","","","","","","","","","","",""
"12038","","<div style=""width:500px;"">
  <p>How would you describe your current emotional state?</p>
  </div>","30","html-slider-response","46","1174318","0.0-7.0-3.6","60","1","2025-07-30 08:49:55","36c45c0696341be0efffe67d72a12abb","216.120.189.148","Mozilla/5.0 (Windows NT 10.0; Win64; x64) AppleWebKit/537.36 (KHTML, like Gecko) Chrome/138.0.0.0 Safari/537.36","WebKit","Chrome","138.0.0.0","Windows","10.0","https://app.prolific.com/","en-US,en;q=0.9","663b638be7226d4e3fcc255f","683dba9a53627eb9ab41b36a","6889d9cfff66973069e9b338","0","663b638be7226d4e3fcc255f","0","2025-07-30T09:09:36.458Z","","","","StressQ","","","","","","","","","","","50","","","","","","","","","","","","","","","","","","","","","","","","","","",""
"3506","","<div style=""width:500px;"">
  <p>What best describes how you currently feel?</p>
  </div>","66","html-slider-response","47","1177835","0.0-7.0-4.6","60","1","2025-07-30 08:49:55","36c45c0696341be0efffe67d72a12abb","216.120.189.148","Mozilla/5.0 (Windows NT 10.0; Win64; x64) AppleWebKit/537.36 (KHTML, like Gecko) Chrome/138.0.0.0 Safari/537.36","WebKit","Chrome","138.0.0.0","Windows","10.0","https://app.prolific.com/","en-US,en;q=0.9","663b638be7226d4e3fcc255f","683dba9a53627eb9ab41b36a","6889d9cfff66973069e9b338","0","663b638be7226d4e3fcc255f","0","2025-07-30T09:09:39.974Z","","","","MotivationQ","","","","","","","","","","","50","","","","","","","","","","","","","","","","","","","","","","","","","","",""
"","","","","ctl-task-cpt","48","1197621","0.0-7.0-0.7","60","1","2025-07-30 08:49:55","36c45c0696341be0efffe67d72a12abb","216.120.189.148","Mozilla/5.0 (Windows NT 10.0; Win64; x64) AppleWebKit/537.36 (KHTML, like Gecko) Chrome/138.0.0.0 Safari/537.36","WebKit","Chrome","138.0.0.0","Windows","10.0","https://app.prolific.com/","en-US,en;q=0.9","663b638be7226d4e3fcc255f","683dba9a53627eb9ab41b36a","6889d9cfff66973069e9b338","0","663b638be7226d4e3fcc255f","0","2025-07-30T09:09:59.760Z","","","","","","","","","","","","","","","","win-only","3","g1:SW,g2:NE","0.3","8","0","1185917.9","1589.5","6591.1","16768","1","4","4","6","1","1","1","1","0","0.007575757575757576","2422.5","3000","1790","[""down"",""left""]","{""num_key_presses"":4,""num_perfect"":3,""num_errors"":0,""num_randdir"":1,""num_randdir_good_moves"":1,""num_whilered"":0,""num_whileblue"":0,""num_blue"":0,""num_good_moves"":4}","[298.22232142857143,298.12857142857143,0.2,298.22232142857143,298.12857142857143,111.4,298.22232142857143,298.12857142857143,211.9,298.22232142857143,298.12857142857143,316.3,298.22232142857143,298.12857142857143,422.2,298.22232142857143,298.12857142857143,522.9,298.22232142857143,298.12857142857143,629,344.22232142857143,252.12857142857143,731.1,415.22232142857143,160.12857142857143,831.9,420.22232142857143,154.12857142857143,938.7,420.22232142857143,154.12857142857143,1038.7,420.22232142857143,154.12857142857143,1139.1,440.22232142857143,131.12857142857143,1247,458.22232142857143,108.12857142857143,1349.1,468.22232142857143,85.12857142857143,1462.6,384.22232142857143,200.12857142857143,1563.8,220.22232142857143,380.12857142857143,1666.8,141.22232142857143,482.12857142857143,1775.5,126.22232142857143,496.12857142857143,1877.9,99.22232142857143,504.12857142857143,1981.2,84.22232142857143,509.12857142857143,2081.7,83.22232142857143,512.1285714285714,2193.9,83.22232142857143,512.1285714285714,2294.4,83.22232142857143,512.1285714285714,2395.4,83.22232142857143,512.1285714285714,2496.7,83.22232142857143,512.1285714285714,2596.7,83.22232142857143,512.1285714285714,2701.2,83.22232142857143,512.1285714285714,2802.8,47.222321428571426,514.1285714285714,2902.8,-52.777678571428574,513.1285714285714,3006.1,-74.77767857142857,514.1285714285714,3110.7,-74.77767857142857,514.1285714285714,3211.5,-74.77767857142857,514.1285714285714,3316.4,-74.77767857142857,514.1285714285714,3423.6,-74.77767857142857,514.1285714285714,3526.9,-74.77767857142857,514.1285714285714,3628.1,-74.77767857142857,514.1285714285714,3731.1,-85.77767857142857,520.1285714285714,3831.1,-125.77767857142857,531.1285714285714,3931.9,-134.77767857142857,534.1285714285714,4043.9,-134.77767857142857,534.1285714285714,4146.8,-134.77767857142857,534.1285714285714,4251.4,-134.77767857142857,534.1285714285714,4360.9,-134.77767857142857,534.1285714285714,4461.5,-134.77767857142857,534.1285714285714,4566.6,-134.77767857142857,534.1285714285714,4667,-134.77767857142857,534.1285714285714,4771.6,-134.77767857142857,534.1285714285714,4879.1,-134.77767857142857,534.1285714285714,4981.9]","[1364.5,1364.5,1000,0,364.5,""oops"",""down"",""down"",""good_move"",4611.2,3246.3,2799.2,1364.9,447.1,""smooth"",""left"",""left"",""good_move"",7379.5,2767.9,2414.9,4611.6,353,""smooth"",""down"",""down"",""good_move"",10058.8,2679.1,2300,7379.7,379.1,""smooth"",""left"",""left"",""good_move""]"
"5394","","<div style=""width:500px;"">
  <p>What determined the result of this run?</p>
  </div>","100","html-slider-response","49","1203016","0.0-7.0-1.7","60","1","2025-07-30 08:49:55","36c45c0696341be0efffe67d72a12abb","216.120.189.148","Mozilla/5.0 (Windows NT 10.0; Win64; x64) AppleWebKit/537.36 (KHTML, like Gecko) Chrome/138.0.0.0 Safari/537.36","WebKit","Chrome","138.0.0.0","Windows","10.0","https://app.prolific.com/","en-US,en;q=0.9","663b638be7226d4e3fcc255f","683dba9a53627eb9ab41b36a","6889d9cfff66973069e9b338","0","663b638be7226d4e3fcc255f","0","2025-07-30T09:10:05.155Z","","","","AttribQ","","","","","","","","","","","50","","","","","","","","","","","","","","","","","","","","","","","","","","",""
"8308","","<div style=""width:500px;"">
  <p>How much control did you have over the ball?</p>
  </div>","99","html-slider-response","50","1211325","0.0-7.0-2.7","60","1","2025-07-30 08:49:55","36c45c0696341be0efffe67d72a12abb","216.120.189.148","Mozilla/5.0 (Windows NT 10.0; Win64; x64) AppleWebKit/537.36 (KHTML, like Gecko) Chrome/138.0.0.0 Safari/537.36","WebKit","Chrome","138.0.0.0","Windows","10.0","https://app.prolific.com/","en-US,en;q=0.9","663b638be7226d4e3fcc255f","683dba9a53627eb9ab41b36a","6889d9cfff66973069e9b338","0","663b638be7226d4e3fcc255f","0","2025-07-30T09:10:13.464Z","","","","ControlQ","","","","","","","","","","","50","","","","","","","","","","","","","","","","","","","","","","","","","","",""
"5143","","<div style=""width:500px;"">
  <p>How would you describe your current emotional state?</p>
  </div>","26","html-slider-response","51","1216470","0.0-7.0-3.7","60","1","2025-07-30 08:49:55","36c45c0696341be0efffe67d72a12abb","216.120.189.148","Mozilla/5.0 (Windows NT 10.0; Win64; x64) AppleWebKit/537.36 (KHTML, like Gecko) Chrome/138.0.0.0 Safari/537.36","WebKit","Chrome","138.0.0.0","Windows","10.0","https://app.prolific.com/","en-US,en;q=0.9","663b638be7226d4e3fcc255f","683dba9a53627eb9ab41b36a","6889d9cfff66973069e9b338","0","663b638be7226d4e3fcc255f","0","2025-07-30T09:10:18.609Z","","","","StressQ","","","","","","","","","","","50","","","","","","","","","","","","","","","","","","","","","","","","","","",""
"4432","","<div style=""width:500px;"">
  <p>What best describes how you currently feel?</p>
  </div>","76","html-slider-response","52","1220903","0.0-7.0-4.7","60","1","2025-07-30 08:49:55","36c45c0696341be0efffe67d72a12abb","216.120.189.148","Mozilla/5.0 (Windows NT 10.0; Win64; x64) AppleWebKit/537.36 (KHTML, like Gecko) Chrome/138.0.0.0 Safari/537.36","WebKit","Chrome","138.0.0.0","Windows","10.0","https://app.prolific.com/","en-US,en;q=0.9","663b638be7226d4e3fcc255f","683dba9a53627eb9ab41b36a","6889d9cfff66973069e9b338","0","663b638be7226d4e3fcc255f","0","2025-07-30T09:10:23.042Z","","","","MotivationQ","","","","","","","","","","","50","","","","","","","","","","","","","","","","","","","","","","","","","","",""
"","","","","ctl-task-cpt","53","1276984","0.0-7.0-0.8","60","1","2025-07-30 08:49:55","36c45c0696341be0efffe67d72a12abb","216.120.189.148","Mozilla/5.0 (Windows NT 10.0; Win64; x64) AppleWebKit/537.36 (KHTML, like Gecko) Chrome/138.0.0.0 Safari/537.36","WebKit","Chrome","138.0.0.0","Windows","10.0","https://app.prolific.com/","en-US,en;q=0.9","663b638be7226d4e3fcc255f","683dba9a53627eb9ab41b36a","6889d9cfff66973069e9b338","0","663b638be7226d4e3fcc255f","0","2025-07-30T09:11:19.123Z","","","","","","","","","","","","","","","","win-only","1","g1:NE,g2:SW","0.4","9","0","1228986.1","1449.5","6451.3","53063","1","4","4","6","2","-4","-4","0","1","0","1594.5","3000","-2365","[""down"",""left""]","{""num_key_presses"":10,""num_perfect"":4,""num_errors"":0,""num_randdir"":6,""num_randdir_good_moves"":3,""num_whilered"":0,""num_whileblue"":0,""num_blue"":4,""num_good_moves"":7}","[297.22232142857143,305.12857142857143,0.3,297.22232142857143,305.12857142857143,100.9,297.22232142857143,305.12857142857143,201.5,297.22232142857143,305.12857142857143,301.7,297.22232142857143,305.12857142857143,402,297.22232142857143,305.12857142857143,506.3,297.22232142857143,305.12857142857143,607.5,297.22232142857143,305.12857142857143,714.3,283.22232142857143,313.12857142857143,815,171.22232142857143,410.12857142857143,916.5,101.22232142857143,495.12857142857143,1021.1,71.22232142857143,537.1285714285714,1121.8,67.22232142857143,540.1285714285714,1222.1,59.222321428571426,549.1285714285714,1327.8,59.222321428571426,550.1285714285714,1432.2,59.222321428571426,550.1285714285714,1535.6,59.222321428571426,550.1285714285714,1635.9,59.222321428571426,550.1285714285714,1736.6,59.222321428571426,550.1285714285714,1841.2,59.222321428571426,550.1285714285714,1948,59.222321428571426,550.1285714285714,2050.8,59.222321428571426,550.1285714285714,2151.4,59.222321428571426,550.1285714285714,2264.5,59.222321428571426,550.1285714285714,2366.7,59.222321428571426,550.1285714285714,2471.8,59.222321428571426,550.1285714285714,2580.1,59.222321428571426,550.1285714285714,2681,59.222321428571426,550.1285714285714,2786.6,59.222321428571426,550.1285714285714,2893.4,59.222321428571426,550.1285714285714,2998.2,59.222321428571426,550.1285714285714,3101.6,59.222321428571426,550.1285714285714,3201.8,59.222321428571426,550.1285714285714,3306.1,59.222321428571426,550.1285714285714,3407.9,59.222321428571426,550.1285714285714,3517.3,-2.7776785714285737,549.1285714285714,3622.1,-87.77767857142857,532.1285714285714,3731.6,-99.77767857142857,532.1285714285714,3836.7,-99.77767857142857,532.1285714285714,3942.9,-99.77767857142857,532.1285714285714,4048.9,-99.77767857142857,532.1285714285714,4151.8,-99.77767857142857,532.1285714285714,4258.5,-99.77767857142857,532.1285714285714,4364.1,-99.77767857142857,532.1285714285714,4464.8,-99.77767857142857,532.1285714285714,4565.7,-99.77767857142857,532.1285714285714,4665.9,-99.77767857142857,532.1285714285714,4781.3,-99.77767857142857,532.1285714285714,4881.9,-99.77767857142857,532.1285714285714,4986.4]","[1341.3,1341.3,1000,0,341.3,""oops"",""left"",""up"",""bad_move"",5310.3,3968.5,3590.8,1341.8,377.7,""oops"",""down"",""up"",""bad_move"",8877,3566.4,3225,5310.6,341.4,""smooth"",""down"",""down"",""good_move"",11541.1,2663.8,2312,8877.3,351.8,""oops"",""down"",""down"",""good_move"",25058.2,13516.5,2527.3,22227.4,303.5,""smooth"",""down"",""down"",""good_move"",27975.9,2917.5,2530,25058.4,387.5,""smooth"",""left"",""left"",""good_move"",31308,3331,2981.7,27977,349.3,""oops"",""down"",""left"",""good_move"",34078.5,2770.3,2398.6,31308.2,371.7,""oops"",""down"",""left"",""good_move"",36842.9,2764.2,2393.6,34078.7,370.6,""smooth"",""down"",""down"",""good_move"",43404.2,6561,2201.2,40842.8,360.2,""oops"",""down"",""right"",""bad_move""]"
"7706","","<div style=""width:500px;"">
  <p>What determined the result of this run?</p>
  </div>","2","html-slider-response","54","1284691","0.0-7.0-1.8","60","1","2025-07-30 08:49:55","36c45c0696341be0efffe67d72a12abb","216.120.189.148","Mozilla/5.0 (Windows NT 10.0; Win64; x64) AppleWebKit/537.36 (KHTML, like Gecko) Chrome/138.0.0.0 Safari/537.36","WebKit","Chrome","138.0.0.0","Windows","10.0","https://app.prolific.com/","en-US,en;q=0.9","663b638be7226d4e3fcc255f","683dba9a53627eb9ab41b36a","6889d9cfff66973069e9b338","0","663b638be7226d4e3fcc255f","0","2025-07-30T09:11:26.830Z","","","","AttribQ","","","","","","","","","","","50","","","","","","","","","","","","","","","","","","","","","","","","","","",""
"7236","","<div style=""width:500px;"">
  <p>How much control did you have over the ball?</p>
  </div>","18","html-slider-response","55","1291929","0.0-7.0-2.8","60","1","2025-07-30 08:49:55","36c45c0696341be0efffe67d72a12abb","216.120.189.148","Mozilla/5.0 (Windows NT 10.0; Win64; x64) AppleWebKit/537.36 (KHTML, like Gecko) Chrome/138.0.0.0 Safari/537.36","WebKit","Chrome","138.0.0.0","Windows","10.0","https://app.prolific.com/","en-US,en;q=0.9","663b638be7226d4e3fcc255f","683dba9a53627eb9ab41b36a","6889d9cfff66973069e9b338","0","663b638be7226d4e3fcc255f","0","2025-07-30T09:11:34.068Z","","","","ControlQ","","","","","","","","","","","50","","","","","","","","","","","","","","","","","","","","","","","","","","",""
"5436","","<div style=""width:500px;"">
  <p>How would you describe your current emotional state?</p>
  </div>","73","html-slider-response","56","1297366","0.0-7.0-3.8","60","1","2025-07-30 08:49:55","36c45c0696341be0efffe67d72a12abb","216.120.189.148","Mozilla/5.0 (Windows NT 10.0; Win64; x64) AppleWebKit/537.36 (KHTML, like Gecko) Chrome/138.0.0.0 Safari/537.36","WebKit","Chrome","138.0.0.0","Windows","10.0","https://app.prolific.com/","en-US,en;q=0.9","663b638be7226d4e3fcc255f","683dba9a53627eb9ab41b36a","6889d9cfff66973069e9b338","0","663b638be7226d4e3fcc255f","0","2025-07-30T09:11:39.505Z","","","","StressQ","","","","","","","","","","","50","","","","","","","","","","","","","","","","","","","","","","","","","","",""
"10368","","<div style=""width:500px;"">
  <p>What best describes how you currently feel?</p>
  </div>","26","html-slider-response","57","1307735","0.0-7.0-4.8","60","1","2025-07-30 08:49:55","36c45c0696341be0efffe67d72a12abb","216.120.189.148","Mozilla/5.0 (Windows NT 10.0; Win64; x64) AppleWebKit/537.36 (KHTML, like Gecko) Chrome/138.0.0.0 Safari/537.36","WebKit","Chrome","138.0.0.0","Windows","10.0","https://app.prolific.com/","en-US,en;q=0.9","663b638be7226d4e3fcc255f","683dba9a53627eb9ab41b36a","6889d9cfff66973069e9b338","0","663b638be7226d4e3fcc255f","0","2025-07-30T09:11:49.874Z","","","","MotivationQ","","","","","","","","","","","50","","","","","","","","","","","","","","","","","","","","","","","","","","",""
"","","","","ctl-task-cpt","58","1344210","0.0-7.0-0.9","60","1","2025-07-30 08:49:55","36c45c0696341be0efffe67d72a12abb","216.120.189.148","Mozilla/5.0 (Windows NT 10.0; Win64; x64) AppleWebKit/537.36 (KHTML, like Gecko) Chrome/138.0.0.0 Safari/537.36","WebKit","Chrome","138.0.0.0","Windows","10.0","https://app.prolific.com/","en-US,en;q=0.9","663b638be7226d4e3fcc255f","683dba9a53627eb9ab41b36a","6889d9cfff66973069e9b338","0","663b638be7226d4e3fcc255f","0","2025-07-30T09:12:26.349Z","","","","","","","","","","","","","","","","win-only","3","g1:SW,g2:NE","0.5","10","0","1315818.2","2350.5","7355.7","33445.4","1","4","8","6","1","-1","-1","0","0","0","1871.8","3000","-2315","[""down"",""left""]","{""num_key_presses"":9,""num_perfect"":4,""num_errors"":0,""num_randdir"":5,""num_randdir_good_moves"":0,""num_whilered"":0,""num_whileblue"":0,""num_blue"":1,""num_good_moves"":4}","[298.22232142857143,304.12857142857143,0.3,298.22232142857143,304.12857142857143,104.8,298.22232142857143,304.12857142857143,205.3,298.22232142857143,304.12857142857143,306.4,298.22232142857143,304.12857142857143,412.4,298.22232142857143,304.12857142857143,516.7,298.22232142857143,304.12857142857143,627.2,298.22232142857143,304.12857142857143,728.8,343.22232142857143,269.12857142857143,830.9,399.22232142857143,221.12857142857143,932.9,393.22232142857143,221.12857142857143,1038.4,239.22232142857143,394.12857142857143,1138.7,136.22232142857143,496.12857142857143,1243.3,89.22232142857143,525.1285714285714,1346.6,86.22232142857143,528.1285714285714,1458.3,86.22232142857143,528.1285714285714,1571.9,86.22232142857143,528.1285714285714,1675.3,86.22232142857143,528.1285714285714,1777.3,86.22232142857143,528.1285714285714,1880.8,86.22232142857143,528.1285714285714,1988.7,86.22232142857143,528.1285714285714,2090.1,86.22232142857143,528.1285714285714,2190.5,-5.777678571428574,528.1285714285714,2294.1,-79.77767857142857,535.1285714285714,2394.7,-113.77767857142857,551.1285714285714,2495.1,-115.77767857142857,551.1285714285714,2596.1,-115.77767857142857,551.1285714285714,2700.4,-115.77767857142857,551.1285714285714,2807.5,-115.77767857142857,551.1285714285714,2911.8,-115.77767857142857,551.1285714285714,3015.2,-115.77767857142857,551.1285714285714,3123.1,-115.77767857142857,551.1285714285714,3224.3,-115.77767857142857,551.1285714285714,3325.3,-115.77767857142857,551.1285714285714,3427.7,-115.77767857142857,551.1285714285714,3528.6,-115.77767857142857,551.1285714285714,3631.9,-115.77767857142857,551.1285714285714,3743.1,-115.77767857142857,551.1285714285714,3845.9,-115.77767857142857,551.1285714285714,3954.5,-115.77767857142857,551.1285714285714,4056.2,-115.77767857142857,551.1285714285714,4160.4,-115.77767857142857,551.1285714285714,4260.6,-115.77767857142857,551.1285714285714,4360.9,-115.77767857142857,551.1285714285714,4465.3,-115.77767857142857,551.1285714285714,4565.3,-115.77767857142857,551.1285714285714,4665.6,-115.77767857142857,551.1285714285714,4765.6,-115.77767857142857,551.1285714285714,4868.8,-115.77767857142857,551.1285714285714,4975.3]","[1314.7,1314.7,1000,0,314.7,""smooth"",""down"",""down"",""good_move"",4266.5,2951.2,2608.4,1315.3,342.8,""oops"",""down"",""up"",""bad_move"",6705.7,2439,2048.9,4266.7,390.1,""oops"",""down"",""up"",""bad_move"",9921.3,3215.3,2899.7,6706,315.6,""smooth"",""down"",""down"",""good_move"",12226.7,2304.9,1975.4,9921.8,329.5,""oops"",""down"",""right"",""bad_move"",13917.2,1690.1,1185,12227.1,505.1,""smooth"",""down"",""down"",""good_move"",16427.2,2509.8,2133.8,13917.4,376,""smooth"",""left"",""left"",""good_move"",18898.7,2470.9,2109,16427.9,361.8,""oops"",""left"",""right"",""bad_move"",24685.1,5786,1992.4,22289.9,402.8,""oops"",""left"",""right"",""bad_move""]"
"6749","","<div style=""width:500px;"">
  <p>What determined the result of this run?</p>
  </div>","0","html-slider-response","59","1350960","0.0-7.0-1.9","60","1","2025-07-30 08:49:55","36c45c0696341be0efffe67d72a12abb","216.120.189.148","Mozilla/5.0 (Windows NT 10.0; Win64; x64) AppleWebKit/537.36 (KHTML, like Gecko) Chrome/138.0.0.0 Safari/537.36","WebKit","Chrome","138.0.0.0","Windows","10.0","https://app.prolific.com/","en-US,en;q=0.9","663b638be7226d4e3fcc255f","683dba9a53627eb9ab41b36a","6889d9cfff66973069e9b338","0","663b638be7226d4e3fcc255f","0","2025-07-30T09:12:33.099Z","","","","AttribQ","","","","","","","","","","","50","","","","","","","","","","","","","","","","","","","","","","","","","","",""
"5803","","<div style=""width:500px;"">
  <p>How much control did you have over the ball?</p>
  </div>","2","html-slider-response","60","1356764","0.0-7.0-2.9","60","1","2025-07-30 08:49:55","36c45c0696341be0efffe67d72a12abb","216.120.189.148","Mozilla/5.0 (Windows NT 10.0; Win64; x64) AppleWebKit/537.36 (KHTML, like Gecko) Chrome/138.0.0.0 Safari/537.36","WebKit","Chrome","138.0.0.0","Windows","10.0","https://app.prolific.com/","en-US,en;q=0.9","663b638be7226d4e3fcc255f","683dba9a53627eb9ab41b36a","6889d9cfff66973069e9b338","0","663b638be7226d4e3fcc255f","0","2025-07-30T09:12:38.903Z","","","","ControlQ","","","","","","","","","","","50","","","","","","","","","","","","","","","","","","","","","","","","","","",""
"7683","","<div style=""width:500px;"">
  <p>How would you describe your current emotional state?</p>
  </div>","93","html-slider-response","61","1364448","0.0-7.0-3.9","60","1","2025-07-30 08:49:55","36c45c0696341be0efffe67d72a12abb","216.120.189.148","Mozilla/5.0 (Windows NT 10.0; Win64; x64) AppleWebKit/537.36 (KHTML, like Gecko) Chrome/138.0.0.0 Safari/537.36","WebKit","Chrome","138.0.0.0","Windows","10.0","https://app.prolific.com/","en-US,en;q=0.9","663b638be7226d4e3fcc255f","683dba9a53627eb9ab41b36a","6889d9cfff66973069e9b338","0","663b638be7226d4e3fcc255f","0","2025-07-30T09:12:46.588Z","","","","StressQ","","","","","","","","","","","50","","","","","","","","","","","","","","","","","","","","","","","","","","",""
"8575","","<div style=""width:500px;"">
  <p>What best describes how you currently feel?</p>
  </div>","9","html-slider-response","62","1373024","0.0-7.0-4.9","60","1","2025-07-30 08:49:55","36c45c0696341be0efffe67d72a12abb","216.120.189.148","Mozilla/5.0 (Windows NT 10.0; Win64; x64) AppleWebKit/537.36 (KHTML, like Gecko) Chrome/138.0.0.0 Safari/537.36","WebKit","Chrome","138.0.0.0","Windows","10.0","https://app.prolific.com/","en-US,en;q=0.9","663b638be7226d4e3fcc255f","683dba9a53627eb9ab41b36a","6889d9cfff66973069e9b338","0","663b638be7226d4e3fcc255f","0","2025-07-30T09:12:55.163Z","","","","MotivationQ","","","","","","","","","","","50","","","","","","","","","","","","","","","","","","","","","","","","","","",""
"","","","","ctl-task-cpt","63","1421164","0.0-7.0-0.10","60","1","2025-07-30 08:49:55","36c45c0696341be0efffe67d72a12abb","216.120.189.148","Mozilla/5.0 (Windows NT 10.0; Win64; x64) AppleWebKit/537.36 (KHTML, like Gecko) Chrome/138.0.0.0 Safari/537.36","WebKit","Chrome","138.0.0.0","Windows","10.0","https://app.prolific.com/","en-US,en;q=0.9","663b638be7226d4e3fcc255f","683dba9a53627eb9ab41b36a","6889d9cfff66973069e9b338","0","663b638be7226d4e3fcc255f","0","2025-07-30T09:13:43.303Z","","","","","","","","","","","","","","","","win-only","1","g1:NE,g2:SW","0.6","11","0","1381108.7","2181.9","7185.8","45115.5","1","4","8","6","2","-8","-8","0","0","0","1728.5","3000","-2145","[""down"",""left""]","{""num_key_presses"":9,""num_perfect"":5,""num_errors"":0,""num_randdir"":4,""num_randdir_good_moves"":1,""num_whilered"":0,""num_whileblue"":0,""num_blue"":3,""num_good_moves"":6}","[294.22232142857143,291.12857142857143,0.4,294.22232142857143,291.12857142857143,104.9,294.22232142857143,291.12857142857143,219.1,294.22232142857143,291.12857142857143,319.9,294.22232142857143,291.12857142857143,421.6,294.22232142857143,291.12857142857143,525.2,148.22232142857143,499.12857142857143,637.4,81.22232142857143,596.1285714285714,740.7,53.222321428571426,639.1285714285714,851.6,53.222321428571426,639.1285714285714,953.8,53.222321428571426,639.1285714285714,1066.7,53.222321428571426,639.1285714285714,1170.8,49.222321428571426,621.1285714285714,1271.2,39.222321428571426,576.1285714285714,1374.1,39.222321428571426,555.1285714285714,1474.7,39.222321428571426,555.1285714285714,1576.2,39.222321428571426,555.1285714285714,1682.3,39.222321428571426,555.1285714285714,1783.5,39.222321428571426,555.1285714285714,1883.6,39.222321428571426,555.1285714285714,1984.2,39.222321428571426,555.1285714285714,2089.3,-9.777678571428574,546.1285714285714,2189.7,-58.777678571428574,538.1285714285714,2291.4,-110.77767857142857,534.1285714285714,2396.4,-112.77767857142857,534.1285714285714,2500.1,-112.77767857142857,534.1285714285714,2602.5,-112.77767857142857,534.1285714285714,2704.5,-112.77767857142857,534.1285714285714,2805.5,-112.77767857142857,534.1285714285714,2910.1,-112.77767857142857,534.1285714285714,3017.8,-112.77767857142857,534.1285714285714,3118.8,-112.77767857142857,534.1285714285714,3218.8,-112.77767857142857,534.1285714285714,3320.5,-112.77767857142857,534.1285714285714,3423.9,-112.77767857142857,534.1285714285714,3529.1,-112.77767857142857,534.1285714285714,3629.6,-112.77767857142857,534.1285714285714,3733.6,-112.77767857142857,534.1285714285714,3836,-112.77767857142857,534.1285714285714,3938.5,-112.77767857142857,534.1285714285714,4044.3,-112.77767857142857,534.1285714285714,4146.2,-112.77767857142857,534.1285714285714,4250.7,-112.77767857142857,534.1285714285714,4351.2,-112.77767857142857,534.1285714285714,4454.1,-112.77767857142857,534.1285714285714,4563.1,-112.77767857142857,534.1285714285714,4666.6,-112.77767857142857,534.1285714285714,4769,-112.77767857142857,534.1285714285714,4870.9,-112.77767857142857,534.1285714285714,4974.1]","[4665,4665,2296.8,2007,361.2,""oops"",""down"",""up"",""bad_move"",7116.1,2451,2105.7,4665.2,345.3,""smooth"",""down"",""down"",""good_move"",13074.4,5957.9,2068.3,10525,481.1,""smooth"",""down"",""down"",""good_move"",16315.3,3240.6,2843.4,13074.7,397.2,""oops"",""left"",""down"",""good_move"",19394.6,3079.1,2708.2,16315.5,370.9,""smooth"",""left"",""left"",""good_move"",23043.7,3648.9,3255.7,19394.8,393.2,""oops"",""left"",""up"",""bad_move"",26227.1,3183.1,2797.7,23044.1,385.3,""smooth"",""left"",""left"",""good_move"",28728.3,2500.8,2129.2,26227.5,371.6,""oops"",""down"",""up"",""bad_move"",35221.1,6492.5,2649.2,32194.6,377.3,""smooth"",""down"",""down"",""good_move""]"
"19703","","<div style=""width:500px;"">
  <p>What determined the result of this run?</p>
  </div>","0","html-slider-response","64","1440871","0.0-7.0-1.10","60","1","2025-07-30 08:49:55","36c45c0696341be0efffe67d72a12abb","216.120.189.148","Mozilla/5.0 (Windows NT 10.0; Win64; x64) AppleWebKit/537.36 (KHTML, like Gecko) Chrome/138.0.0.0 Safari/537.36","WebKit","Chrome","138.0.0.0","Windows","10.0","https://app.prolific.com/","en-US,en;q=0.9","663b638be7226d4e3fcc255f","683dba9a53627eb9ab41b36a","6889d9cfff66973069e9b338","0","663b638be7226d4e3fcc255f","0","2025-07-30T09:14:03.011Z","","","","AttribQ","","","","","","","","","","","50","","","","","","","","","","","","","","","","","","","","","","","","","","",""
"4983","","<div style=""width:500px;"">
  <p>How much control did you have over the ball?</p>
  </div>","0","html-slider-response","65","1445865","0.0-7.0-2.10","60","1","2025-07-30 08:49:55","36c45c0696341be0efffe67d72a12abb","216.120.189.148","Mozilla/5.0 (Windows NT 10.0; Win64; x64) AppleWebKit/537.36 (KHTML, like Gecko) Chrome/138.0.0.0 Safari/537.36","WebKit","Chrome","138.0.0.0","Windows","10.0","https://app.prolific.com/","en-US,en;q=0.9","663b638be7226d4e3fcc255f","683dba9a53627eb9ab41b36a","6889d9cfff66973069e9b338","0","663b638be7226d4e3fcc255f","0","2025-07-30T09:14:08.004Z","","","","ControlQ","","","","","","","","","","","50","","","","","","","","","","","","","","","","","","","","","","","","","","",""
"5291","","<div style=""width:500px;"">
  <p>How would you describe your current emotional state?</p>
  </div>","89","html-slider-response","66","1451157","0.0-7.0-3.10","60","1","2025-07-30 08:49:55","36c45c0696341be0efffe67d72a12abb","216.120.189.148","Mozilla/5.0 (Windows NT 10.0; Win64; x64) AppleWebKit/537.36 (KHTML, like Gecko) Chrome/138.0.0.0 Safari/537.36","WebKit","Chrome","138.0.0.0","Windows","10.0","https://app.prolific.com/","en-US,en;q=0.9","663b638be7226d4e3fcc255f","683dba9a53627eb9ab41b36a","6889d9cfff66973069e9b338","0","663b638be7226d4e3fcc255f","0","2025-07-30T09:14:13.296Z","","","","StressQ","","","","","","","","","","","50","","","","","","","","","","","","","","","","","","","","","","","","","","",""
"8286","","<div style=""width:500px;"">
  <p>What best describes how you currently feel?</p>
  </div>","12","html-slider-response","67","1459449","0.0-7.0-4.10","60","1","2025-07-30 08:49:55","36c45c0696341be0efffe67d72a12abb","216.120.189.148","Mozilla/5.0 (Windows NT 10.0; Win64; x64) AppleWebKit/537.36 (KHTML, like Gecko) Chrome/138.0.0.0 Safari/537.36","WebKit","Chrome","138.0.0.0","Windows","10.0","https://app.prolific.com/","en-US,en;q=0.9","663b638be7226d4e3fcc255f","683dba9a53627eb9ab41b36a","6889d9cfff66973069e9b338","0","663b638be7226d4e3fcc255f","0","2025-07-30T09:14:21.589Z","","","","MotivationQ","","","","","","","","","","","50","","","","","","","","","","","","","","","","","","","","","","","","","","",""
"","","","","ctl-task-cpt","68","1479205","0.0-7.0-0.11","60","1","2025-07-30 08:49:55","36c45c0696341be0efffe67d72a12abb","216.120.189.148","Mozilla/5.0 (Windows NT 10.0; Win64; x64) AppleWebKit/537.36 (KHTML, like Gecko) Chrome/138.0.0.0 Safari/537.36","WebKit","Chrome","138.0.0.0","Windows","10.0","https://app.prolific.com/","en-US,en;q=0.9","663b638be7226d4e3fcc255f","683dba9a53627eb9ab41b36a","6889d9cfff66973069e9b338","0","663b638be7226d4e3fcc255f","0","2025-07-30T09:14:41.344Z","","","","","","","","","","","","","","","","win-only","1","g1:NE,g2:SW","0.7","12","0","1467546.1","2190.6","7191.4","16721","1","4","4","6","1","1","1","1","0","0.007575757575757576","2185.2","3000","1875","[""up"",""right""]","{""num_key_presses"":4,""num_perfect"":3,""num_errors"":0,""num_randdir"":1,""num_randdir_good_moves"":1,""num_whilered"":0,""num_whileblue"":0,""num_blue"":0,""num_good_moves"":4}","[297.22232142857143,295.12857142857143,0.3,297.22232142857143,295.12857142857143,100.9,297.22232142857143,295.12857142857143,204.8,297.22232142857143,295.12857142857143,304.9,297.22232142857143,295.12857142857143,405.2,297.22232142857143,295.12857142857143,506.1,297.22232142857143,295.12857142857143,607.5,297.22232142857143,295.12857142857143,716.5,251.22232142857143,333.12857142857143,820.4,249.22232142857143,335.12857142857143,923.3,328.22232142857143,272.12857142857143,1033.2,442.22232142857143,189.12857142857143,1138.6,466.22232142857143,183.12857142857143,1246.2,466.22232142857143,183.12857142857143,1351.4,466.22232142857143,183.12857142857143,1452.9,466.22232142857143,183.12857142857143,1557.2,498.22232142857143,120.12857142857143,1662.4,527.2223214285714,85.12857142857143,1765.9,528.2223214285714,83.12857142857143,1866,532.2223214285714,69.12857142857143,1967.5,532.2223214285714,68.12857142857143,2070.8,532.2223214285714,68.12857142857143,2186.4,532.2223214285714,68.12857142857143,2287.4,532.2223214285714,68.12857142857143,2393.4,532.2223214285714,68.12857142857143,2496.3,532.2223214285714,68.12857142857143,2597.5,532.2223214285714,68.12857142857143,2702.7,532.2223214285714,68.12857142857143,2806.1,532.2223214285714,68.12857142857143,2913.2,532.2223214285714,68.12857142857143,3015.9,532.2223214285714,68.12857142857143,3116,532.2223214285714,68.12857142857143,3217.9,532.2223214285714,68.12857142857143,3320.2,532.2223214285714,68.12857142857143,3421.8,532.2223214285714,68.12857142857143,3523,532.2223214285714,68.12857142857143,3636.2,532.2223214285714,68.12857142857143,3736.6,532.2223214285714,68.12857142857143,3841.8,532.2223214285714,68.12857142857143,3948,532.2223214285714,68.12857142857143,4049.9,532.2223214285714,68.12857142857143,4152.7,532.2223214285714,68.12857142857143,4257.1,532.2223214285714,68.12857142857143,4359.7,532.2223214285714,68.12857142857143,4468.4,532.2223214285714,68.12857142857143,4571.5,532.2223214285714,68.12857142857143,4679.7,532.2223214285714,68.12857142857143,4779.9,532.2223214285714,68.12857142857143,4884,532.2223214285714,68.12857142857143,4987.6]","[1317.3,1317.3,1000,0,317.3,""smooth"",""up"",""up"",""good_move"",4283.2,2965.6,2608.1,1317.6,357.5,""oops"",""right"",""right"",""good_move"",7081.7,2798,2371.4,4283.7,426.6,""smooth"",""right"",""right"",""good_move"",9409.6,2327.6,2019.3,7082,308.3,""smooth"",""up"",""up"",""good_move""]"
"4713","","<div style=""width:500px;"">
  <p>What determined the result of this run?</p>
  </div>","88","html-slider-response","69","1483919","0.0-7.0-1.11","60","1","2025-07-30 08:49:55","36c45c0696341be0efffe67d72a12abb","216.120.189.148","Mozilla/5.0 (Windows NT 10.0; Win64; x64) AppleWebKit/537.36 (KHTML, like Gecko) Chrome/138.0.0.0 Safari/537.36","WebKit","Chrome","138.0.0.0","Windows","10.0","https://app.prolific.com/","en-US,en;q=0.9","663b638be7226d4e3fcc255f","683dba9a53627eb9ab41b36a","6889d9cfff66973069e9b338","0","663b638be7226d4e3fcc255f","0","2025-07-30T09:14:46.058Z","","","","AttribQ","","","","","","","","","","","50","","","","","","","","","","","","","","","","","","","","","","","","","","",""
"7518","","<div style=""width:500px;"">
  <p>How much control did you have over the ball?</p>
  </div>","97","html-slider-response","70","1491439","0.0-7.0-2.11","60","1","2025-07-30 08:49:55","36c45c0696341be0efffe67d72a12abb","216.120.189.148","Mozilla/5.0 (Windows NT 10.0; Win64; x64) AppleWebKit/537.36 (KHTML, like Gecko) Chrome/138.0.0.0 Safari/537.36","WebKit","Chrome","138.0.0.0","Windows","10.0","https://app.prolific.com/","en-US,en;q=0.9","663b638be7226d4e3fcc255f","683dba9a53627eb9ab41b36a","6889d9cfff66973069e9b338","0","663b638be7226d4e3fcc255f","0","2025-07-30T09:14:53.578Z","","","","ControlQ","","","","","","","","","","","50","","","","","","","","","","","","","","","","","","","","","","","","","","",""
"13702","","<div style=""width:500px;"">
  <p>How would you describe your current emotional state?</p>
  </div>","89","html-slider-response","71","1505143","0.0-7.0-3.11","60","1","2025-07-30 08:49:55","36c45c0696341be0efffe67d72a12abb","216.120.189.148","Mozilla/5.0 (Windows NT 10.0; Win64; x64) AppleWebKit/537.36 (KHTML, like Gecko) Chrome/138.0.0.0 Safari/537.36","WebKit","Chrome","138.0.0.0","Windows","10.0","https://app.prolific.com/","en-US,en;q=0.9","663b638be7226d4e3fcc255f","683dba9a53627eb9ab41b36a","6889d9cfff66973069e9b338","0","663b638be7226d4e3fcc255f","0","2025-07-30T09:15:07.287Z","","","","StressQ","","","","","","","","","","","50","","","","","","","","","","","","","","","","","","","","","","","","","","",""
"16942","","<div style=""width:500px;"">
  <p>What best describes how you currently feel?</p>
  </div>","5","html-slider-response","72","1522107","0.0-7.0-4.11","60","1","2025-07-30 08:49:55","36c45c0696341be0efffe67d72a12abb","216.120.189.148","Mozilla/5.0 (Windows NT 10.0; Win64; x64) AppleWebKit/537.36 (KHTML, like Gecko) Chrome/138.0.0.0 Safari/537.36","WebKit","Chrome","138.0.0.0","Windows","10.0","https://app.prolific.com/","en-US,en;q=0.9","663b638be7226d4e3fcc255f","683dba9a53627eb9ab41b36a","6889d9cfff66973069e9b338","0","663b638be7226d4e3fcc255f","0","2025-07-30T09:15:24.246Z","","","","MotivationQ","","","","","","","","","","","50","","","","","","","","","","","","","","","","","","","","","","","","","","",""
"","","","","ctl-task-cpt","73","1583799","0.0-7.0-0.12","60","1","2025-07-30 08:49:55","36c45c0696341be0efffe67d72a12abb","216.120.189.148","Mozilla/5.0 (Windows NT 10.0; Win64; x64) AppleWebKit/537.36 (KHTML, like Gecko) Chrome/138.0.0.0 Safari/537.36","WebKit","Chrome","138.0.0.0","Windows","10.0","https://app.prolific.com/","en-US,en;q=0.9","663b638be7226d4e3fcc255f","683dba9a53627eb9ab41b36a","6889d9cfff66973069e9b338","0","663b638be7226d4e3fcc255f","0","2025-07-30T09:16:25.938Z","","","","","","","","","","","","","","","","win-only","1","g1:NE,g2:SW","0.8","13","0","1530193","5590.2","10594.6","58666.4","1","4","4","6","2","4","2","3","1","0.022727272727272728","1568.6","3000","30","[""down"",""left""]","{""num_key_presses"":13,""num_perfect"":9,""num_errors"":2,""num_randdir"":2,""num_randdir_good_moves"":0,""num_whilered"":0,""num_whileblue"":1,""num_blue"":5,""num_good_moves"":9}","[297.22232142857143,300.12857142857143,2.4,297.22232142857143,300.12857142857143,101.6,297.22232142857143,300.12857142857143,203.2,297.22232142857143,300.12857142857143,306,297.22232142857143,300.12857142857143,413.8,297.22232142857143,300.12857142857143,521.3,297.22232142857143,300.12857142857143,625.2,146.22232142857143,404.12857142857143,728.1,37.222321428571426,476.12857142857143,832,-4.777678571428574,503.12857142857143,933.6,-5.777678571428574,504.12857142857143,1038.3,30.222321428571426,523.1285714285714,1155.8,45.222321428571426,523.1285714285714,1256.3,46.222321428571426,523.1285714285714,1375.7,46.222321428571426,523.1285714285714,1487.4,46.222321428571426,523.1285714285714,1595.3,46.222321428571426,523.1285714285714,1696.7,46.222321428571426,523.1285714285714,1798.5,46.222321428571426,523.1285714285714,1899.6,46.222321428571426,523.1285714285714,2001.7,46.222321428571426,523.1285714285714,2105.4,46.222321428571426,523.1285714285714,2214.1,46.222321428571426,523.1285714285714,2315,46.222321428571426,523.1285714285714,2419.1,46.222321428571426,523.1285714285714,2520.4,46.222321428571426,523.1285714285714,2620.9,46.222321428571426,523.1285714285714,2730.1,46.222321428571426,523.1285714285714,2833.2,46.222321428571426,523.1285714285714,2935.4,46.222321428571426,523.1285714285714,3037.9,46.222321428571426,523.1285714285714,3152.6,46.222321428571426,523.1285714285714,3256,46.222321428571426,523.1285714285714,3377.9,46.222321428571426,523.1285714285714,3483.1,46.222321428571426,523.1285714285714,3583.1,46.222321428571426,523.1285714285714,3684.4,46.222321428571426,523.1285714285714,3785.4,46.222321428571426,523.1285714285714,3885.4,46.222321428571426,523.1285714285714,3985.9,46.222321428571426,523.1285714285714,4087.4,46.222321428571426,523.1285714285714,4191.6,46.222321428571426,523.1285714285714,4294.1,46.222321428571426,523.1285714285714,4394.2,46.222321428571426,523.1285714285714,4496.9,-22.777678571428574,504.12857142857143,4598,-141.77767857142857,488.12857142857143,4702.1,-151.77767857142857,494.12857142857143,4818.2,-151.77767857142857,494.12857142857143,4920.9]","[1295.2,1295.2,1000,0,295.2,""oops"",""down"",""right"",""bad_move"",3880.7,2585.2,2244.2,1295.5,341,""while_blue"",""down"",""up"",""bad_move"",6764.9,2883.9,2498.6,3881,385.3,""smooth"",""down"",""down"",""good_move"",9791.7,3026.3,2667,6765.4,359.3,""smooth"",""down"",""down"",""good_move"",12480.1,2688,2264.4,9792.1,423.6,""smooth"",""left"",""left"",""good_move"",12592.5,112.1,2966.1,12480.4,-2853.9,""error"",""-"",""-"",""no_move"",17058.5,4465.7,3080.8,13594.9,382.8,""smooth"",""left"",""left"",""good_move"",20077.2,3018.3,2648.9,17058.9,369.4,""oops"",""left"",""right"",""bad_move"",22805.1,2727.4,2340,20077.7,387.4,""smooth"",""left"",""left"",""good_move"",25594.3,2787.9,2436.7,22806.4,351.2,""smooth"",""down"",""down"",""good_move"",39493.5,13898.8,2142.1,37021.3,330.1,""smooth"",""down"",""down"",""good_move"",45275.3,5781.4,2689,42186.7,399.6,""smooth"",""left"",""left"",""good_move"",47970.6,2695,2341.3,45275.6,353.7,""smooth"",""left"",""left"",""good_move""]"
"11390","","<div style=""width:500px;"">
  <p>What determined the result of this run?</p>
  </div>","75","html-slider-response","74","1595193","0.0-7.0-1.12","60","1","2025-07-30 08:49:55","36c45c0696341be0efffe67d72a12abb","216.120.189.148","Mozilla/5.0 (Windows NT 10.0; Win64; x64) AppleWebKit/537.36 (KHTML, like Gecko) Chrome/138.0.0.0 Safari/537.36","WebKit","Chrome","138.0.0.0","Windows","10.0","https://app.prolific.com/","en-US,en;q=0.9","663b638be7226d4e3fcc255f","683dba9a53627eb9ab41b36a","6889d9cfff66973069e9b338","0","663b638be7226d4e3fcc255f","0","2025-07-30T09:16:37.333Z","","","","AttribQ","","","","","","","","","","","50","","","","","","","","","","","","","","","","","","","","","","","","","","",""
"7415","","<div style=""width:500px;"">
  <p>How much control did you have over the ball?</p>
  </div>","83","html-slider-response","75","1602618","0.0-7.0-2.12","60","1","2025-07-30 08:49:55","36c45c0696341be0efffe67d72a12abb","216.120.189.148","Mozilla/5.0 (Windows NT 10.0; Win64; x64) AppleWebKit/537.36 (KHTML, like Gecko) Chrome/138.0.0.0 Safari/537.36","WebKit","Chrome","138.0.0.0","Windows","10.0","https://app.prolific.com/","en-US,en;q=0.9","663b638be7226d4e3fcc255f","683dba9a53627eb9ab41b36a","6889d9cfff66973069e9b338","0","663b638be7226d4e3fcc255f","0","2025-07-30T09:16:44.758Z","","","","ControlQ","","","","","","","","","","","50","","","","","","","","","","","","","","","","","","","","","","","","","","",""
"6514","","<div style=""width:500px;"">
  <p>How would you describe your current emotional state?</p>
  </div>","85","html-slider-response","76","1609142","0.0-7.0-3.12","60","1","2025-07-30 08:49:55","36c45c0696341be0efffe67d72a12abb","216.120.189.148","Mozilla/5.0 (Windows NT 10.0; Win64; x64) AppleWebKit/537.36 (KHTML, like Gecko) Chrome/138.0.0.0 Safari/537.36","WebKit","Chrome","138.0.0.0","Windows","10.0","https://app.prolific.com/","en-US,en;q=0.9","663b638be7226d4e3fcc255f","683dba9a53627eb9ab41b36a","6889d9cfff66973069e9b338","0","663b638be7226d4e3fcc255f","0","2025-07-30T09:16:51.283Z","","","","StressQ","","","","","","","","","","","50","","","","","","","","","","","","","","","","","","","","","","","","","","",""
"6568","","<div style=""width:500px;"">
  <p>What best describes how you currently feel?</p>
  </div>","11","html-slider-response","77","1615722","0.0-7.0-4.12","60","1","2025-07-30 08:49:55","36c45c0696341be0efffe67d72a12abb","216.120.189.148","Mozilla/5.0 (Windows NT 10.0; Win64; x64) AppleWebKit/537.36 (KHTML, like Gecko) Chrome/138.0.0.0 Safari/537.36","WebKit","Chrome","138.0.0.0","Windows","10.0","https://app.prolific.com/","en-US,en;q=0.9","663b638be7226d4e3fcc255f","683dba9a53627eb9ab41b36a","6889d9cfff66973069e9b338","0","663b638be7226d4e3fcc255f","0","2025-07-30T09:16:57.862Z","","","","MotivationQ","","","","","","","","","","","50","","","","","","","","","","","","","","","","","","","","","","","","","","",""
