"rt","response_timestamp","stimulus","response","trial_type","trial_index","time_elapsed","internal_node_id","run_id","condition","recorded_at","source_code_version","ip","user_agent","device","browser","browser_version","platform","platform_version","referer","accept_language","PROLIFIC_PID","STUDY_ID","SESSION_ID","BATCH","prolific_id","batch","realtime","success","question_order","question_id","eventType","responses","item_order","radio_event_ids","radio_event_times","key_event_times","mouse_event_times","straightlining","zigzagging","honeypot","view_history","slider_start","which_type","canvas_config","goals_layout","control_level","trial_number","tutorial_trial_number","trial_start_time","phase1_start_time","phase2_start_time","phase3_start_time","goal_1_value","goal_1_distance","goal_2_value","goal_2_distance","goal_selected","outcome","outcome_total","participant_final_score","participant_initial_score","participant_final_score_prop","goal_choice_rt","allocated_time","allocated_time_remaining","goal_direction","counts","mouse_movements","key_presses"
"11371","1753864968372","<p style='font-size:40px;line-height:1.25'><strong>Welcome to the experiment!</strong></p><p style='font-size:1.1em;line-height:1.25'>Thank you for participanting in our experiment again! You will be asked to play the Dysfunctional Ball Game again. We will briefly recap the rules before we start.</p><p style='font-size:1.1em;line-height:1.25'>Press <strong>Next</strong> to continue.</p>","0","custom-html-button-response","0","11376","0.0-0.0","41","1","2025-07-30 08:42:34","36c45c0696341be0efffe67d72a12abb","90.249.94.127","Mozilla/5.0 (Windows NT 10.0; Win64; x64) AppleWebKit/537.36 (KHTML, like Gecko) Chrome/138.0.0.0 Safari/537.36","WebKit","Chrome","138.0.0.0","Windows","10.0","https://app.prolific.com/","en-US,en;q=0.9","66446d88662725412dc27d06","687a19d2168e237449fb8af4","6889da0d5b0bdc7a49e2ccb2","0","66446d88662725412dc27d06","0","2025-07-30T08:42:48.376Z","","","","","","","","","","","","","","","","","","","","","","","","","","","","","","","","","","","","","","","","","",""
"10009","","","","fullscreen","1","22399","0.0-1.0","41","1","2025-07-30 08:42:34","36c45c0696341be0efffe67d72a12abb","90.249.94.127","Mozilla/5.0 (Windows NT 10.0; Win64; x64) AppleWebKit/537.36 (KHTML, like Gecko) Chrome/138.0.0.0 Safari/537.36","WebKit","Chrome","138.0.0.0","Windows","10.0","https://app.prolific.com/","en-US,en;q=0.9","66446d88662725412dc27d06","687a19d2168e237449fb8af4","6889da0d5b0bdc7a49e2ccb2","0","66446d88662725412dc27d06","0","","true","","","","","","","","","","","","","","","","","","","","","","","","","","","","","","","","","","","","","","","","",""
"3513","1753864982914"," <p style='font-size:1.1em;line-height:1.25'>Thank you for closing all other tabs.</p><p style='font-size:1.1em;line-height:1.25'>We will now invite you to fill in some questionnaires, before starting the game.<br>This will take about 5 minutes.<br></p><p style='font-size:1.1em;line-height:1.25'>Press the <strong>Next</strong> button to continue.</p>","0","custom-html-button-response","2","25916","0.0-2.0","41","1","2025-07-30 08:42:34","36c45c0696341be0efffe67d72a12abb","90.249.94.127","Mozilla/5.0 (Windows NT 10.0; Win64; x64) AppleWebKit/537.36 (KHTML, like Gecko) Chrome/138.0.0.0 Safari/537.36","WebKit","Chrome","138.0.0.0","Windows","10.0","https://app.prolific.com/","en-US,en;q=0.9","66446d88662725412dc27d06","687a19d2168e237449fb8af4","6889da0d5b0bdc7a49e2ccb2","0","66446d88662725412dc27d06","0","2025-07-30T08:43:02.915Z","","","","","","","","","","","","","","","","","","","","","","","","","","","","","","","","","","","","","","","","","",""
"2952","","","{""assigned_sex"":""male""}","survey-multi-choice","3","28873","0.0-3.0-0.0","41","1","2025-07-30 08:42:34","36c45c0696341be0efffe67d72a12abb","90.249.94.127","Mozilla/5.0 (Windows NT 10.0; Win64; x64) AppleWebKit/537.36 (KHTML, like Gecko) Chrome/138.0.0.0 Safari/537.36","WebKit","Chrome","138.0.0.0","Windows","10.0","https://app.prolific.com/","en-US,en;q=0.9","66446d88662725412dc27d06","687a19d2168e237449fb8af4","6889da0d5b0bdc7a49e2ccb2","0","66446d88662725412dc27d06","0","","","[0]","0","demographics","","","","","","","","","","","","","","","","","","","","","","","","","","","","","","","","","","","","","",""
"3497","1753864989371","<p style='font-size:1.1em;line-height:1.25'>In the following, we will perform a baseline assessment. This means that we will ask you a few questions relating to your experiences over the past month.<br></p><p style='font-size:1.1em;line-height:1.25'>Press the <strong>Next</strong> button to continue.</p>","0","custom-html-button-response","4","32373","0.0-4.0-0.0","41","1","2025-07-30 08:42:34","36c45c0696341be0efffe67d72a12abb","90.249.94.127","Mozilla/5.0 (Windows NT 10.0; Win64; x64) AppleWebKit/537.36 (KHTML, like Gecko) Chrome/138.0.0.0 Safari/537.36","WebKit","Chrome","138.0.0.0","Windows","10.0","https://app.prolific.com/","en-US,en;q=0.9","66446d88662725412dc27d06","687a19d2168e237449fb8af4","6889da0d5b0bdc7a49e2ccb2","0","66446d88662725412dc27d06","0","2025-07-30T08:43:09.372Z","","","","","","","","","","","","","","","","","","","","","","","","","","","","","","","","","","","","","","","","","",""
"63127.60000002384","","","","survey-template","5","95507","0.0-4.0-1.0","41","1","2025-07-30 08:42:34","36c45c0696341be0efffe67d72a12abb","90.249.94.127","Mozilla/5.0 (Windows NT 10.0; Win64; x64) AppleWebKit/537.36 (KHTML, like Gecko) Chrome/138.0.0.0 Safari/537.36","WebKit","Chrome","138.0.0.0","Windows","10.0","https://app.prolific.com/","en-US,en;q=0.9","66446d88662725412dc27d06","687a19d2168e237449fb8af4","6889da0d5b0bdc7a49e2ccb2","0","66446d88662725412dc27d06","0","2025-07-30T08:44:12.506Z","","","","pss","{""Q01"":""2"",""Q02"":""3"",""Q03"":""2"",""Q04"":""1"",""Q05"":""2"",""Q06"":""1"",""Q07"":""2"",""Q08"":""1"",""Q09"":""2"",""Q10"":""0""}","[0,1,2,3,4,5,6,7,8,9]","[""Q02"",""Q01"",""Q03"",""Q04"",""Q05"",""Q06"",""Q07"",""Q08"",""Q09"",""Q10"",""Q10""]","[7418.899999976158,8011.100000023842,11316.300000011921,15027.800000011921,19828.80000001192,23588.69999998808,27068.600000023842,31054,56260,60085.19999998808,61844.89999997616]","[]","[0.19999998807907104,4058.800000011921,7418.899999976158,8011.100000023842,11316.300000011921,15027.800000011921,19828.80000001192,23588.69999998808,27068.600000023842,31054,32174.19999998808,56260,60085.19999998808,61844.89999997616,62701.10000002384,63123.60000002384]","0.5","0.8888888888888888","0","","","","","","","","","","","","","","","","","","","","","","","","","","","","",""
"2443","1753865054949","<p style='font-size:1.1em;line-height:1.25'>Thank you for your answers! Now we will ask you a few more questions relating to your feelings in the last 24 hours.<br></p><p style='font-size:1.1em;line-height:1.25'>Press the <strong>Next</strong> button to continue.</p>","0","custom-html-button-response","6","97951","0.0-4.0-2.0","41","1","2025-07-30 08:42:34","36c45c0696341be0efffe67d72a12abb","90.249.94.127","Mozilla/5.0 (Windows NT 10.0; Win64; x64) AppleWebKit/537.36 (KHTML, like Gecko) Chrome/138.0.0.0 Safari/537.36","WebKit","Chrome","138.0.0.0","Windows","10.0","https://app.prolific.com/","en-US,en;q=0.9","66446d88662725412dc27d06","687a19d2168e237449fb8af4","6889da0d5b0bdc7a49e2ccb2","0","66446d88662725412dc27d06","0","2025-07-30T08:44:14.950Z","","","","","","","","","","","","","","","","","","","","","","","","","","","","","","","","","","","","","","","","","",""
"59564","","","","survey-template","7","157522","0.0-4.0-3.0","41","1","2025-07-30 08:42:34","36c45c0696341be0efffe67d72a12abb","90.249.94.127","Mozilla/5.0 (Windows NT 10.0; Win64; x64) AppleWebKit/537.36 (KHTML, like Gecko) Chrome/138.0.0.0 Safari/537.36","WebKit","Chrome","138.0.0.0","Windows","10.0","https://app.prolific.com/","en-US,en;q=0.9","66446d88662725412dc27d06","687a19d2168e237449fb8af4","6889da0d5b0bdc7a49e2ccb2","0","66446d88662725412dc27d06","0","2025-07-30T08:45:14.522Z","","","","drsp","{""Q01"":""1"",""Q02"":""3"",""Q03"":""3"",""Q04"":""1"",""Q05"":""2"",""Q06"":""0"",""Q07"":""0"",""Q08"":""0"",""Q09"":""2"",""Q10"":""1"",""Q11"":""2"",""Q12"":""0"",""Q13"":""5"",""Q14"":""3"",""Q15"":""0"",""Q16"":""0"",""Q17"":""1"",""Q18"":""0"",""Q19"":""0"",""Q20"":""1"",""Q21"":""0"",""Q22"":""1""}","[0,1,2,3,4,5,6,7,8,9,10,11,12,13,14,15,16,17,18,19,20,21]","[""Q01"",""Q02"",""Q03"",""Q04"",""Q05"",""Q06"",""Q07"",""Q08"",""Q09"",""Q10"",""Q11"",""Q12"",""Q13"",""Q14"",""Q14"",""Q15"",""Q16"",""Q17"",""Q17"",""Q18"",""Q18"",""Q19"",""Q20"",""Q22"",""Q21"",""Q22""]","[2405.5,3974.400000035763,5246.600000023842,6740.100000023842,9821.400000035763,11767.800000011921,13062.900000035763,14622.600000023842,16709.900000035763,20112.600000023842,22224.700000047684,24216.30000001192,25728.5,28080.100000023842,29657,31819,33385.40000003576,34289.200000047684,34777.200000047684,36162.40000003576,37049.30000001192,38514.80000001192,45507.40000003576,57181.200000047684,58188.30000001192,58891.80000001192]","[]","[0,2405.5,3974.400000035763,5246.600000023842,6740.100000023842,9821.400000035763,11767.800000011921,13062.900000035763,14622.600000023842,16709.900000035763,19047.700000047684,20112.600000023842,22224.700000047684,24216.30000001192,25728.5,28080.100000023842,29657,31819,32922.60000002384,33385.40000003576,34289.200000047684,34777.200000047684,36162.40000003576,37049.30000001192,38514.80000001192,45507.40000003576,54476.80000001192,57181.200000047684,57710.200000047684,58188.30000001192,58891.80000001192,59550.10000002384]","0.4090909090909091","0.42857142857142855","0","","","","","","","","","","","","","","","","","","","","","","","","","","","","",""
"9286","","","","survey-template","8","166814","0.0-4.0-4.0","41","1","2025-07-30 08:42:34","36c45c0696341be0efffe67d72a12abb","90.249.94.127","Mozilla/5.0 (Windows NT 10.0; Win64; x64) AppleWebKit/537.36 (KHTML, like Gecko) Chrome/138.0.0.0 Safari/537.36","WebKit","Chrome","138.0.0.0","Windows","10.0","https://app.prolific.com/","en-US,en;q=0.9","66446d88662725412dc27d06","687a19d2168e237449fb8af4","6889da0d5b0bdc7a49e2ccb2","0","66446d88662725412dc27d06","0","2025-07-30T08:45:23.813Z","","","","stress","{""Q01"":""1"",""Q02"":""3"",""Q03"":""0""}","[0,1,2]","[""Q01"",""Q02"",""Q03""]","[3635.199999988079,5530.800000011921,8258.699999988079]","[]","[3635.199999988079,5530.800000011921,7771.100000023842,8258.699999988079,9283.100000023842]","0.3333333333333333","0.5","0","","","","","","","","","","","","","","","","","","","","","","","","","","","","",""
"38154","","","","instructions","9","204970","0.0-5.0-0.0","41","1","2025-07-30 08:42:34","36c45c0696341be0efffe67d72a12abb","90.249.94.127","Mozilla/5.0 (Windows NT 10.0; Win64; x64) AppleWebKit/537.36 (KHTML, like Gecko) Chrome/138.0.0.0 Safari/537.36","WebKit","Chrome","138.0.0.0","Windows","10.0","https://app.prolific.com/","en-US,en;q=0.9","66446d88662725412dc27d06","687a19d2168e237449fb8af4","6889da0d5b0bdc7a49e2ccb2","0","66446d88662725412dc27d06","0","","","","","","","","","","","","","","","[{""page_index"":0,""viewing_time"":38154}]","","","","","","","","","","","","","","","","","","","","","","","","","","","",""
"12193","","<p>Before you start with this game please answer the following three questions yourself. </p>
  <p>Through this game, we measure several aspects of your cognitive performance, such as reaction times, multi-tasking capabilities </p>
  <p>and the ability to assess the situation you are in.</p>
  <p></p>
  <p><b>How good do you usually are in such tasks?</b></p>","82","html-slider-response","10","217164","0.0-6.0-0.0","41","1","2025-07-30 08:42:34","36c45c0696341be0efffe67d72a12abb","90.249.94.127","Mozilla/5.0 (Windows NT 10.0; Win64; x64) AppleWebKit/537.36 (KHTML, like Gecko) Chrome/138.0.0.0 Safari/537.36","WebKit","Chrome","138.0.0.0","Windows","10.0","https://app.prolific.com/","en-US,en;q=0.9","66446d88662725412dc27d06","687a19d2168e237449fb8af4","6889da0d5b0bdc7a49e2ccb2","0","66446d88662725412dc27d06","0","2025-07-30T08:46:14.163Z","","","","PreSkillQ","","","","","","","","","","","50","","","","","","","","","","","","","","","","","","","","","","","","","","",""
"3680","","<div style=""width:500px;"">
  <p>How well do you think you will perform in this task compared to other participants?</p>
  </div>","67","html-slider-response","11","220846","0.0-6.0-1.0","41","1","2025-07-30 08:42:34","36c45c0696341be0efffe67d72a12abb","90.249.94.127","Mozilla/5.0 (Windows NT 10.0; Win64; x64) AppleWebKit/537.36 (KHTML, like Gecko) Chrome/138.0.0.0 Safari/537.36","WebKit","Chrome","138.0.0.0","Windows","10.0","https://app.prolific.com/","en-US,en;q=0.9","66446d88662725412dc27d06","687a19d2168e237449fb8af4","6889da0d5b0bdc7a49e2ccb2","0","66446d88662725412dc27d06","0","2025-07-30T08:46:17.845Z","","","","PrePerfQ","","","","","","","","","","","50","","","","","","","","","","","","","","","","","","","","","","","","","","",""
"3598","","<div style=""width:500px;"">
  <p>What best describes how you currently feel?</p>
  </div>","86","html-slider-response","12","224447","0.0-6.0-2.0","41","1","2025-07-30 08:42:34","36c45c0696341be0efffe67d72a12abb","90.249.94.127","Mozilla/5.0 (Windows NT 10.0; Win64; x64) AppleWebKit/537.36 (KHTML, like Gecko) Chrome/138.0.0.0 Safari/537.36","WebKit","Chrome","138.0.0.0","Windows","10.0","https://app.prolific.com/","en-US,en;q=0.9","66446d88662725412dc27d06","687a19d2168e237449fb8af4","6889da0d5b0bdc7a49e2ccb2","0","66446d88662725412dc27d06","0","2025-07-30T08:46:21.446Z","","","","PreMotivationQ","","","","","","","","","","","50","","","","","","","","","","","","","","","","","","","","","","","","","","",""
"","","","","ctl-task-cpt","13","281623","0.0-7.0-0.0","41","1","2025-07-30 08:42:34","36c45c0696341be0efffe67d72a12abb","90.249.94.127","Mozilla/5.0 (Windows NT 10.0; Win64; x64) AppleWebKit/537.36 (KHTML, like Gecko) Chrome/138.0.0.0 Safari/537.36","WebKit","Chrome","138.0.0.0","Windows","10.0","https://app.prolific.com/","en-US,en;q=0.9","66446d88662725412dc27d06","687a19d2168e237449fb8af4","6889da0d5b0bdc7a49e2ccb2","0","66446d88662725412dc27d06","0","2025-07-30T08:47:18.622Z","","","","","","","","","","","","","","","","win-only","3","g1:SW,g2:NE","1","1","0","227068.1","8728.3","13732.4","54165.6","1","4","4","6","2","4","2","2","0","0.015151515151515152","3549.5","3000","680","[""up"",""right""]","{""num_key_presses"":9,""num_perfect"":6,""num_errors"":2,""num_randdir"":0,""num_randdir_good_moves"":0,""num_whilered"":1,""num_whileblue"":0,""num_blue"":4,""num_good_moves"":6}","[415.3214133126395,417.82142761775424,0.2,422.8214133126395,411.57142761775424,2371.7,419.0714133126395,411.57142761775424,2473.2,419.0714133126395,411.57142761775424,2577.8,419.0714133126395,411.57142761775424,2678.5,419.0714133126395,411.57142761775424,2785.9,419.0714133126395,412.82142761775424,2887.5,421.5714133126395,407.82142761775424,2988,559.0714133126395,305.32142761775424,3093,644.0714133126395,199.07142761775424,3193.3,669.0714133126395,145.32142761775424,3300,692.8214133126395,135.32142761775424,3400.4,736.5714133126395,112.82142761775425,3502.3,736.5714133126395,110.32142761775425,3602.8,736.5714133126395,110.32142761775425,3708.6,736.5714133126395,110.32142761775425,3808.7,736.5714133126395,110.32142761775425,3909.2,736.5714133126395,110.32142761775425,4016.9,736.5714133126395,110.32142761775425,4117.4,736.5714133126395,110.32142761775425,4217.5,736.5714133126395,110.32142761775425,4323.5,736.5714133126395,110.32142761775425,4433.4,736.5714133126395,110.32142761775425,4537.7,736.5714133126395,110.32142761775425,4637.9,736.5714133126395,110.32142761775425,4738.4,736.5714133126395,110.32142761775425,4839.1,736.5714133126395,110.32142761775425,4943.6]","[984.3,984.3,1000,0.1,-15.7,""error"",""-"",""-"",""no_move"",8768.3,7783.3,2123.8,5254.3,1390.2,""smooth"",""up"",""up"",""good_move"",11652.6,2882.4,2330.8,8770.3,551.5,""smooth"",""up"",""up"",""good_move"",14528.1,2875.1,2391.9,11653,483.2,""smooth"",""up"",""up"",""good_move"",19893.9,5365.3,2666.9,14528.6,2698.4,""smooth"",""right"",""right"",""good_move"",19896.8,0.8,2681.8,19896,-2681,""error"",""-"",""-"",""no_move"",19897.8,0.5,2681.8,19896,-2680,""while_red"",""-"",""-"",""no_move"",33470.7,13573.4,2307,27044.4,4119.3,""smooth"",""right"",""right"",""good_move"",40306.6,6835.7,2573.1,37270.3,463.3,""smooth"",""right"",""right"",""good_move""]"
"3856","","<div style=""width:500px;"">
  <p>What determined the result of this run?</p>
  </div>","87","html-slider-response","14","285481","0.0-7.0-1.0","41","1","2025-07-30 08:42:34","36c45c0696341be0efffe67d72a12abb","90.249.94.127","Mozilla/5.0 (Windows NT 10.0; Win64; x64) AppleWebKit/537.36 (KHTML, like Gecko) Chrome/138.0.0.0 Safari/537.36","WebKit","Chrome","138.0.0.0","Windows","10.0","https://app.prolific.com/","en-US,en;q=0.9","66446d88662725412dc27d06","687a19d2168e237449fb8af4","6889da0d5b0bdc7a49e2ccb2","0","66446d88662725412dc27d06","0","2025-07-30T08:47:22.481Z","","","","AttribQ","","","","","","","","","","","50","","","","","","","","","","","","","","","","","","","","","","","","","","",""
"3516","","<div style=""width:500px;"">
  <p>How much control did you have over the ball?</p>
  </div>","100","html-slider-response","15","289001","0.0-7.0-2.0","41","1","2025-07-30 08:42:34","36c45c0696341be0efffe67d72a12abb","90.249.94.127","Mozilla/5.0 (Windows NT 10.0; Win64; x64) AppleWebKit/537.36 (KHTML, like Gecko) Chrome/138.0.0.0 Safari/537.36","WebKit","Chrome","138.0.0.0","Windows","10.0","https://app.prolific.com/","en-US,en;q=0.9","66446d88662725412dc27d06","687a19d2168e237449fb8af4","6889da0d5b0bdc7a49e2ccb2","0","66446d88662725412dc27d06","0","2025-07-30T08:47:26.001Z","","","","ControlQ","","","","","","","","","","","50","","","","","","","","","","","","","","","","","","","","","","","","","","",""
"2757","","<div style=""width:500px;"">
  <p>How would you describe your current emotional state?</p>
  </div>","71","html-slider-response","16","291761","0.0-7.0-3.0","41","1","2025-07-30 08:42:34","36c45c0696341be0efffe67d72a12abb","90.249.94.127","Mozilla/5.0 (Windows NT 10.0; Win64; x64) AppleWebKit/537.36 (KHTML, like Gecko) Chrome/138.0.0.0 Safari/537.36","WebKit","Chrome","138.0.0.0","Windows","10.0","https://app.prolific.com/","en-US,en;q=0.9","66446d88662725412dc27d06","687a19d2168e237449fb8af4","6889da0d5b0bdc7a49e2ccb2","0","66446d88662725412dc27d06","0","2025-07-30T08:47:28.760Z","","","","StressQ","","","","","","","","","","","50","","","","","","","","","","","","","","","","","","","","","","","","","","",""
"1773","","<div style=""width:500px;"">
  <p>What best describes how you currently feel?</p>
  </div>","67","html-slider-response","17","293536","0.0-7.0-4.0","41","1","2025-07-30 08:42:34","36c45c0696341be0efffe67d72a12abb","90.249.94.127","Mozilla/5.0 (Windows NT 10.0; Win64; x64) AppleWebKit/537.36 (KHTML, like Gecko) Chrome/138.0.0.0 Safari/537.36","WebKit","Chrome","138.0.0.0","Windows","10.0","https://app.prolific.com/","en-US,en;q=0.9","66446d88662725412dc27d06","687a19d2168e237449fb8af4","6889da0d5b0bdc7a49e2ccb2","0","66446d88662725412dc27d06","0","2025-07-30T08:47:30.535Z","","","","MotivationQ","","","","","","","","","","","50","","","","","","","","","","","","","","","","","","","","","","","","","","",""
"","","","","ctl-task-cpt","18","326161","0.0-7.0-0.1","41","1","2025-07-30 08:42:34","36c45c0696341be0efffe67d72a12abb","90.249.94.127","Mozilla/5.0 (Windows NT 10.0; Win64; x64) AppleWebKit/537.36 (KHTML, like Gecko) Chrome/138.0.0.0 Safari/537.36","WebKit","Chrome","138.0.0.0","Windows","10.0","https://app.prolific.com/","en-US,en;q=0.9","66446d88662725412dc27d06","687a19d2168e237449fb8af4","6889da0d5b0bdc7a49e2ccb2","0","66446d88662725412dc27d06","0","2025-07-30T08:48:03.160Z","","","","","","","","","","","","","","","","win-only","3","g1:SW,g2:NE","0.9","2","0","296150","2673.5","7680.8","29608.3","1","4","8","6","2","8","8","10","2","0.07575757575757576","936.8","3000","705","[""up"",""right""]","{""num_key_presses"":6,""num_perfect"":6,""num_errors"":0,""num_randdir"":0,""num_randdir_good_moves"":0,""num_whilered"":0,""num_whileblue"":0,""num_blue"":2,""num_good_moves"":6}","[404.0714133126395,412.82142761775424,0.2,404.0714133126395,412.82142761775424,102,404.0714133126395,412.82142761775424,202.2,404.0714133126395,412.82142761775424,302.6,520.3214133126395,295.32142761775424,409.5,627.8214133126395,199.07142761775424,512.5,686.5714133126395,146.57142761775424,612.6,704.0714133126395,127.82142761775425,713.3,722.8214133126395,121.57142761775425,818.1,741.5714133126395,104.07142761775425,923.4,741.5714133126395,104.07142761775425,1028.2,741.5714133126395,104.07142761775425,1132.7,741.5714133126395,104.07142761775425,1239,741.5714133126395,104.07142761775425,1340.2,741.5714133126395,104.07142761775425,1447,741.5714133126395,104.07142761775425,1547.4,741.5714133126395,104.07142761775425,1647.8,741.5714133126395,104.07142761775425,1754.1,741.5714133126395,104.07142761775425,1857.2,741.5714133126395,104.07142761775425,1957.2,741.5714133126395,104.07142761775425,2058.3,741.5714133126395,104.07142761775425,2158.6,741.5714133126395,104.07142761775425,2262.2,741.5714133126395,104.07142761775425,2363.1,741.5714133126395,104.07142761775425,2467.9,741.5714133126395,104.07142761775425,2573.8,741.5714133126395,104.07142761775425,2673.9,741.5714133126395,104.07142761775425,2774.7,741.5714133126395,104.07142761775425,2877.2,741.5714133126395,104.07142761775425,2977.7,741.5714133126395,104.07142761775425,3077.9,741.5714133126395,104.07142761775425,3182.2,741.5714133126395,104.07142761775425,3287.1,741.5714133126395,104.07142761775425,3390.4,741.5714133126395,104.07142761775425,3491.9,741.5714133126395,104.07142761775425,3592.4,741.5714133126395,104.07142761775425,3697.3,741.5714133126395,104.07142761775425,3798.1,741.5714133126395,104.07142761775425,3903.2,741.5714133126395,104.07142761775425,4003.3,741.5714133126395,104.07142761775425,4108.6,741.5714133126395,104.07142761775425,4208.8,741.5714133126395,104.07142761775425,4311.9,741.5714133126395,104.07142761775425,4413.2,741.5714133126395,104.07142761775425,4518,741.5714133126395,104.07142761775425,4625,741.5714133126395,104.07142761775425,4727.6,741.5714133126395,104.07142761775425,4833,741.5714133126395,104.07142761775425,4933.3]","[1433.1,1433.1,1000,0,433.2,""smooth"",""up"",""up"",""good_move"",3716.2,2282.3,1892.8,1433.9,389.5,""smooth"",""up"",""up"",""good_move"",6649.2,2932.5,2564.9,3716.7,367.6,""smooth"",""up"",""up"",""good_move"",15363,8713.2,2012.1,13020.2,330.8,""smooth"",""right"",""right"",""good_move"",18328.5,2964.7,2560.3,15363.8,404.4,""smooth"",""right"",""right"",""good_move"",21828,3499,3057.7,18329,441.3,""smooth"",""right"",""right"",""good_move""]"
"3044","","<div style=""width:500px;"">
  <p>What determined the result of this run?</p>
  </div>","100","html-slider-response","19","329207","0.0-7.0-1.1","41","1","2025-07-30 08:42:34","36c45c0696341be0efffe67d72a12abb","90.249.94.127","Mozilla/5.0 (Windows NT 10.0; Win64; x64) AppleWebKit/537.36 (KHTML, like Gecko) Chrome/138.0.0.0 Safari/537.36","WebKit","Chrome","138.0.0.0","Windows","10.0","https://app.prolific.com/","en-US,en;q=0.9","66446d88662725412dc27d06","687a19d2168e237449fb8af4","6889da0d5b0bdc7a49e2ccb2","0","66446d88662725412dc27d06","0","2025-07-30T08:48:06.206Z","","","","AttribQ","","","","","","","","","","","50","","","","","","","","","","","","","","","","","","","","","","","","","","",""
"5215","","<div style=""width:500px;"">
  <p>How much control did you have over the ball?</p>
  </div>","100","html-slider-response","20","334425","0.0-7.0-2.1","41","1","2025-07-30 08:42:34","36c45c0696341be0efffe67d72a12abb","90.249.94.127","Mozilla/5.0 (Windows NT 10.0; Win64; x64) AppleWebKit/537.36 (KHTML, like Gecko) Chrome/138.0.0.0 Safari/537.36","WebKit","Chrome","138.0.0.0","Windows","10.0","https://app.prolific.com/","en-US,en;q=0.9","66446d88662725412dc27d06","687a19d2168e237449fb8af4","6889da0d5b0bdc7a49e2ccb2","0","66446d88662725412dc27d06","0","2025-07-30T08:48:11.424Z","","","","ControlQ","","","","","","","","","","","50","","","","","","","","","","","","","","","","","","","","","","","","","","",""
"2628","","<div style=""width:500px;"">
  <p>How would you describe your current emotional state?</p>
  </div>","39","html-slider-response","21","337056","0.0-7.0-3.1","41","1","2025-07-30 08:42:34","36c45c0696341be0efffe67d72a12abb","90.249.94.127","Mozilla/5.0 (Windows NT 10.0; Win64; x64) AppleWebKit/537.36 (KHTML, like Gecko) Chrome/138.0.0.0 Safari/537.36","WebKit","Chrome","138.0.0.0","Windows","10.0","https://app.prolific.com/","en-US,en;q=0.9","66446d88662725412dc27d06","687a19d2168e237449fb8af4","6889da0d5b0bdc7a49e2ccb2","0","66446d88662725412dc27d06","0","2025-07-30T08:48:14.055Z","","","","StressQ","","","","","","","","","","","50","","","","","","","","","","","","","","","","","","","","","","","","","","",""
"2333","","<div style=""width:500px;"">
  <p>What best describes how you currently feel?</p>
  </div>","84","html-slider-response","22","339391","0.0-7.0-4.1","41","1","2025-07-30 08:42:34","36c45c0696341be0efffe67d72a12abb","90.249.94.127","Mozilla/5.0 (Windows NT 10.0; Win64; x64) AppleWebKit/537.36 (KHTML, like Gecko) Chrome/138.0.0.0 Safari/537.36","WebKit","Chrome","138.0.0.0","Windows","10.0","https://app.prolific.com/","en-US,en;q=0.9","66446d88662725412dc27d06","687a19d2168e237449fb8af4","6889da0d5b0bdc7a49e2ccb2","0","66446d88662725412dc27d06","0","2025-07-30T08:48:16.390Z","","","","MotivationQ","","","","","","","","","","","50","","","","","","","","","","","","","","","","","","","","","","","","","","",""
"","","","","ctl-task-cpt","23","384618","0.0-7.0-0.2","41","1","2025-07-30 08:42:34","36c45c0696341be0efffe67d72a12abb","90.249.94.127","Mozilla/5.0 (Windows NT 10.0; Win64; x64) AppleWebKit/537.36 (KHTML, like Gecko) Chrome/138.0.0.0 Safari/537.36","WebKit","Chrome","138.0.0.0","Windows","10.0","https://app.prolific.com/","en-US,en;q=0.9","66446d88662725412dc27d06","687a19d2168e237449fb8af4","6889da0d5b0bdc7a49e2ccb2","0","66446d88662725412dc27d06","0","2025-07-30T08:49:01.617Z","","","","","","","","","","","","","","","","win-only","3","g1:SW,g2:NE","0.8","3","0","342008.5","853.3","5857.2","42216.2","1","4","4","6","2","4","4","14","10","0.10606060606060606","978.2","3000","225","[""up"",""right""]","{""num_key_presses"":8,""num_perfect"":7,""num_errors"":0,""num_randdir"":1,""num_randdir_good_moves"":0,""num_whilered"":0,""num_whileblue"":0,""num_blue"":4,""num_good_moves"":7}","[421.5714133126395,411.57142761775424,0.2,421.5714133126395,412.82142761775424,103,421.5714133126395,412.82142761775424,212.3,421.5714133126395,412.82142761775424,313.5,542.8214133126395,290.32142761775424,417.8,657.8214133126395,171.57142761775424,518,712.8214133126395,126.57142761775425,624.2,747.8214133126395,96.57142761775425,727.9,755.3214133126395,89.07142761775425,828.2,755.3214133126395,89.07142761775425,933,755.3214133126395,89.07142761775425,1034.6,755.3214133126395,89.07142761775425,1138.8,755.3214133126395,89.07142761775425,1246.4,755.3214133126395,89.07142761775425,1346.6,755.3214133126395,89.07142761775425,1447.5,755.3214133126395,89.07142761775425,1547.9,755.3214133126395,89.07142761775425,1648.4,755.3214133126395,89.07142761775425,1753.7,755.3214133126395,89.07142761775425,1853.9,755.3214133126395,89.07142761775425,1961.5,755.3214133126395,89.07142761775425,2063.2,755.3214133126395,89.07142761775425,2168.4,755.3214133126395,89.07142761775425,2273.6,755.3214133126395,89.07142761775425,2377.7,755.3214133126395,89.07142761775425,2478.6,755.3214133126395,89.07142761775425,2578.6,755.3214133126395,89.07142761775425,2678.9,755.3214133126395,89.07142761775425,2783.4,755.3214133126395,89.07142761775425,2888.1,755.3214133126395,89.07142761775425,2989.1,755.3214133126395,89.07142761775425,3096.9,755.3214133126395,89.07142761775425,3199,755.3214133126395,89.07142761775425,3303.1,755.3214133126395,89.07142761775425,3403.7,755.3214133126395,89.07142761775425,3512.9,755.3214133126395,89.07142761775425,3618,755.3214133126395,89.07142761775425,3718,755.3214133126395,89.07142761775425,3818.1,755.3214133126395,89.07142761775425,3918.1,755.3214133126395,89.07142761775425,4018.1,755.3214133126395,89.07142761775425,4128.4,755.3214133126395,89.07142761775425,4229.5,755.3214133126395,89.07142761775425,4333.5,755.3214133126395,89.07142761775425,4433.7,755.3214133126395,89.07142761775425,4538.4,755.3214133126395,89.07142761775425,4645.8,755.3214133126395,89.07142761775425,4747.7,755.3214133126395,89.07142761775425,4848.7,755.3214133126395,89.07142761775425,4953.7]","[1482.3,1482.3,1000,0,482.3,""smooth"",""up"",""up"",""good_move"",7088.7,5605.6,2046.7,4629.3,412.7,""smooth"",""up"",""up"",""good_move"",12837.3,5748.3,2239.9,10213.8,383.6,""smooth"",""up"",""up"",""good_move"",15469.8,2632.3,2142.9,12837.5,489.4,""oops"",""right"",""down"",""bad_move"",18834.9,3364.6,3007.2,15470.3,357.4,""smooth"",""right"",""right"",""good_move"",29999.9,11164.6,3048.1,26424.3,527.5,""smooth"",""up"",""up"",""good_move"",33631.8,3631.7,3268.7,30000.1,363,""smooth"",""right"",""right"",""good_move"",36250,2617.8,2251.1,33632.2,366.7,""smooth"",""right"",""right"",""good_move""]"
"3078","","<div style=""width:500px;"">
  <p>What determined the result of this run?</p>
  </div>","88","html-slider-response","24","387698","0.0-7.0-1.2","41","1","2025-07-30 08:42:34","36c45c0696341be0efffe67d72a12abb","90.249.94.127","Mozilla/5.0 (Windows NT 10.0; Win64; x64) AppleWebKit/537.36 (KHTML, like Gecko) Chrome/138.0.0.0 Safari/537.36","WebKit","Chrome","138.0.0.0","Windows","10.0","https://app.prolific.com/","en-US,en;q=0.9","66446d88662725412dc27d06","687a19d2168e237449fb8af4","6889da0d5b0bdc7a49e2ccb2","0","66446d88662725412dc27d06","0","2025-07-30T08:49:04.697Z","","","","AttribQ","","","","","","","","","","","50","","","","","","","","","","","","","","","","","","","","","","","","","","",""
"2124","","<div style=""width:500px;"">
  <p>How much control did you have over the ball?</p>
  </div>","79","html-slider-response","25","389824","0.0-7.0-2.2","41","1","2025-07-30 08:42:34","36c45c0696341be0efffe67d72a12abb","90.249.94.127","Mozilla/5.0 (Windows NT 10.0; Win64; x64) AppleWebKit/537.36 (KHTML, like Gecko) Chrome/138.0.0.0 Safari/537.36","WebKit","Chrome","138.0.0.0","Windows","10.0","https://app.prolific.com/","en-US,en;q=0.9","66446d88662725412dc27d06","687a19d2168e237449fb8af4","6889da0d5b0bdc7a49e2ccb2","0","66446d88662725412dc27d06","0","2025-07-30T08:49:06.823Z","","","","ControlQ","","","","","","","","","","","50","","","","","","","","","","","","","","","","","","","","","","","","","","",""
"2470","","<div style=""width:500px;"">
  <p>How would you describe your current emotional state?</p>
  </div>","72","html-slider-response","26","392296","0.0-7.0-3.2","41","1","2025-07-30 08:42:34","36c45c0696341be0efffe67d72a12abb","90.249.94.127","Mozilla/5.0 (Windows NT 10.0; Win64; x64) AppleWebKit/537.36 (KHTML, like Gecko) Chrome/138.0.0.0 Safari/537.36","WebKit","Chrome","138.0.0.0","Windows","10.0","https://app.prolific.com/","en-US,en;q=0.9","66446d88662725412dc27d06","687a19d2168e237449fb8af4","6889da0d5b0bdc7a49e2ccb2","0","66446d88662725412dc27d06","0","2025-07-30T08:49:09.295Z","","","","StressQ","","","","","","","","","","","50","","","","","","","","","","","","","","","","","","","","","","","","","","",""
"2912","","<div style=""width:500px;"">
  <p>What best describes how you currently feel?</p>
  </div>","69","html-slider-response","27","395210","0.0-7.0-4.2","41","1","2025-07-30 08:42:34","36c45c0696341be0efffe67d72a12abb","90.249.94.127","Mozilla/5.0 (Windows NT 10.0; Win64; x64) AppleWebKit/537.36 (KHTML, like Gecko) Chrome/138.0.0.0 Safari/537.36","WebKit","Chrome","138.0.0.0","Windows","10.0","https://app.prolific.com/","en-US,en;q=0.9","66446d88662725412dc27d06","687a19d2168e237449fb8af4","6889da0d5b0bdc7a49e2ccb2","0","66446d88662725412dc27d06","0","2025-07-30T08:49:12.209Z","","","","MotivationQ","","","","","","","","","","","50","","","","","","","","","","","","","","","","","","","","","","","","","","",""
"","","","","ctl-task-cpt","28","430607","0.0-7.0-0.3","41","1","2025-07-30 08:42:34","36c45c0696341be0efffe67d72a12abb","90.249.94.127","Mozilla/5.0 (Windows NT 10.0; Win64; x64) AppleWebKit/537.36 (KHTML, like Gecko) Chrome/138.0.0.0 Safari/537.36","WebKit","Chrome","138.0.0.0","Windows","10.0","https://app.prolific.com/","en-US,en;q=0.9","66446d88662725412dc27d06","687a19d2168e237449fb8af4","6889da0d5b0bdc7a49e2ccb2","0","66446d88662725412dc27d06","0","2025-07-30T08:49:47.607Z","","","","","","","","","","","","","","","","win-only","2","g1:SE,g2:NW","0.7","4","0","397831.3","1217","6221.9","32367.7","1","4","8","6","2","8","8","22","14","0.16666666666666666","775.6","3000","120","[""left"",""up""]","{""num_key_presses"":10,""num_perfect"":7,""num_errors"":0,""num_randdir"":3,""num_randdir_good_moves"":1,""num_whilered"":0,""num_whileblue"":0,""num_blue"":0,""num_good_moves"":8}","[417.8214133126395,411.57142761775424,0.4,417.8214133126395,411.57142761775424,114.3,417.8214133126395,411.57142761775424,219.1,417.8214133126395,411.57142761775424,319.4,266.5714133126395,282.82142761775424,431.4,129.0714133126395,185.32142761775424,534.7,121.5714133126395,165.32142761775424,647.9,99.0714133126395,106.57142761775425,749.9,97.8214133126395,105.32142761775425,854.5,97.8214133126395,105.32142761775425,958.9,97.8214133126395,105.32142761775425,1066.5,97.8214133126395,105.32142761775425,1169.5,97.8214133126395,104.07142761775425,1274.6,97.8214133126395,104.07142761775425,1378.8,97.8214133126395,104.07142761775425,1484.1,97.8214133126395,104.07142761775425,1584.3,97.8214133126395,104.07142761775425,1697.1,97.8214133126395,104.07142761775425,1797.5,97.8214133126395,104.07142761775425,1900.9,97.8214133126395,104.07142761775425,2013.4,97.8214133126395,104.07142761775425,2113.5,97.8214133126395,104.07142761775425,2219,97.8214133126395,104.07142761775425,2319.3,97.8214133126395,104.07142761775425,2423.7,97.8214133126395,104.07142761775425,2523.9,97.8214133126395,104.07142761775425,2624,97.8214133126395,104.07142761775425,2724,97.8214133126395,104.07142761775425,2828.8,97.8214133126395,104.07142761775425,2929.8,97.8214133126395,104.07142761775425,3034.9,97.8214133126395,104.07142761775425,3147.2,97.8214133126395,104.07142761775425,3248.4,97.8214133126395,104.07142761775425,3349.7,97.8214133126395,104.07142761775425,3454.9,97.8214133126395,104.07142761775425,3561.5,97.8214133126395,104.07142761775425,3662.8,97.8214133126395,104.07142761775425,3763.5,97.8214133126395,104.07142761775425,3864.1,97.8214133126395,104.07142761775425,3969.6,97.8214133126395,104.07142761775425,4079.7,97.8214133126395,104.07142761775425,4184.4,97.8214133126395,104.07142761775425,4301.1,97.8214133126395,104.07142761775425,4404.1,97.8214133126395,104.07142761775425,4513.7,97.8214133126395,104.07142761775425,4614.4,97.8214133126395,104.07142761775425,4714.4,97.8214133126395,104.07142761775425,4814.6,97.8214133126395,104.07142761775425,4914.6]","[1391.4,1391.4,1000,0,391.4,""smooth"",""up"",""up"",""good_move"",4079.2,2687.2,2360.1,1392,327.1,""smooth"",""up"",""up"",""good_move"",6656,2576.5,2204.3,4079.5,372.2,""smooth"",""up"",""up"",""good_move"",9655.3,2999.2,2668.7,6656.2,330.4,""oops"",""left"",""left"",""good_move"",11918.9,2263.1,1855,9655.8,408.1,""smooth"",""left"",""left"",""good_move"",14603.2,2684.1,2348.7,11919.1,335.5,""oops"",""left"",""right"",""bad_move"",18603.5,3999.8,3636.5,14603.7,363.3,""smooth"",""left"",""left"",""good_move"",20771.1,2167.3,1739.1,18603.8,428.2,""oops"",""left"",""right"",""bad_move"",23355.2,2583.4,2191,20771.8,392.4,""smooth"",""left"",""left"",""good_move"",26032.7,2677.2,2316.6,23355.5,360.6,""smooth"",""left"",""left"",""good_move""]"
"2773","","<div style=""width:500px;"">
  <p>What determined the result of this run?</p>
  </div>","75","html-slider-response","29","433383","0.0-7.0-1.3","41","1","2025-07-30 08:42:34","36c45c0696341be0efffe67d72a12abb","90.249.94.127","Mozilla/5.0 (Windows NT 10.0; Win64; x64) AppleWebKit/537.36 (KHTML, like Gecko) Chrome/138.0.0.0 Safari/537.36","WebKit","Chrome","138.0.0.0","Windows","10.0","https://app.prolific.com/","en-US,en;q=0.9","66446d88662725412dc27d06","687a19d2168e237449fb8af4","6889da0d5b0bdc7a49e2ccb2","0","66446d88662725412dc27d06","0","2025-07-30T08:49:50.382Z","","","","AttribQ","","","","","","","","","","","50","","","","","","","","","","","","","","","","","","","","","","","","","","",""
"3518","","<div style=""width:500px;"">
  <p>How much control did you have over the ball?</p>
  </div>","75","html-slider-response","30","436902","0.0-7.0-2.3","41","1","2025-07-30 08:42:34","36c45c0696341be0efffe67d72a12abb","90.249.94.127","Mozilla/5.0 (Windows NT 10.0; Win64; x64) AppleWebKit/537.36 (KHTML, like Gecko) Chrome/138.0.0.0 Safari/537.36","WebKit","Chrome","138.0.0.0","Windows","10.0","https://app.prolific.com/","en-US,en;q=0.9","66446d88662725412dc27d06","687a19d2168e237449fb8af4","6889da0d5b0bdc7a49e2ccb2","0","66446d88662725412dc27d06","0","2025-07-30T08:49:53.902Z","","","","ControlQ","","","","","","","","","","","50","","","","","","","","","","","","","","","","","","","","","","","","","","",""
"1983","","<div style=""width:500px;"">
  <p>How would you describe your current emotional state?</p>
  </div>","93","html-slider-response","31","438887","0.0-7.0-3.3","41","1","2025-07-30 08:42:34","36c45c0696341be0efffe67d72a12abb","90.249.94.127","Mozilla/5.0 (Windows NT 10.0; Win64; x64) AppleWebKit/537.36 (KHTML, like Gecko) Chrome/138.0.0.0 Safari/537.36","WebKit","Chrome","138.0.0.0","Windows","10.0","https://app.prolific.com/","en-US,en;q=0.9","66446d88662725412dc27d06","687a19d2168e237449fb8af4","6889da0d5b0bdc7a49e2ccb2","0","66446d88662725412dc27d06","0","2025-07-30T08:49:55.886Z","","","","StressQ","","","","","","","","","","","50","","","","","","","","","","","","","","","","","","","","","","","","","","",""
"2823","","<div style=""width:500px;"">
  <p>What best describes how you currently feel?</p>
  </div>","84","html-slider-response","32","441711","0.0-7.0-4.3","41","1","2025-07-30 08:42:34","36c45c0696341be0efffe67d72a12abb","90.249.94.127","Mozilla/5.0 (Windows NT 10.0; Win64; x64) AppleWebKit/537.36 (KHTML, like Gecko) Chrome/138.0.0.0 Safari/537.36","WebKit","Chrome","138.0.0.0","Windows","10.0","https://app.prolific.com/","en-US,en;q=0.9","66446d88662725412dc27d06","687a19d2168e237449fb8af4","6889da0d5b0bdc7a49e2ccb2","0","66446d88662725412dc27d06","0","2025-07-30T08:49:58.710Z","","","","MotivationQ","","","","","","","","","","","50","","","","","","","","","","","","","","","","","","","","","","","","","","",""
"","","","","ctl-task-cpt","33","469598","0.0-7.0-0.4","41","1","2025-07-30 08:42:34","36c45c0696341be0efffe67d72a12abb","90.249.94.127","Mozilla/5.0 (Windows NT 10.0; Win64; x64) AppleWebKit/537.36 (KHTML, like Gecko) Chrome/138.0.0.0 Safari/537.36","WebKit","Chrome","138.0.0.0","Windows","10.0","https://app.prolific.com/","en-US,en;q=0.9","66446d88662725412dc27d06","687a19d2168e237449fb8af4","6889da0d5b0bdc7a49e2ccb2","0","66446d88662725412dc27d06","0","2025-07-30T08:50:26.597Z","","","","","","","","","","","","","","","","win-only","3","g1:SW,g2:NE","0.6","5","0","444326.6","1117.1","6121.5","24872.4","1","4","4","6","2","4","4","26","22","0.19696969696969696","753.8","3000","1260","[""up"",""right""]","{""num_key_presses"":6,""num_perfect"":4,""num_errors"":0,""num_randdir"":2,""num_randdir_good_moves"":2,""num_whilered"":0,""num_whileblue"":0,""num_blue"":1,""num_good_moves"":6}","[429.0714133126395,420.32142761775424,0.3,429.0714133126395,420.32142761775424,105.5,429.0714133126395,420.32142761775424,208.8,435.3214133126395,410.32142761775424,313.3,580.3214133126395,264.07142761775424,415.3,682.8214133126395,170.32142761775424,518.4,730.3214133126395,124.07142761775425,626.3,747.8214133126395,102.82142761775425,728.9,747.8214133126395,101.57142761775425,833.6,747.8214133126395,101.57142761775425,941.9,747.8214133126395,101.57142761775425,1043.5,747.8214133126395,101.57142761775425,1144.5,747.8214133126395,101.57142761775425,1249.4,747.8214133126395,101.57142761775425,1358.5,747.8214133126395,101.57142761775425,1459.9,747.8214133126395,101.57142761775425,1564.2,747.8214133126395,101.57142761775425,1669.1,747.8214133126395,101.57142761775425,1774.7,747.8214133126395,101.57142761775425,1875.1,747.8214133126395,101.57142761775425,1978.8,747.8214133126395,101.57142761775425,2087.6,747.8214133126395,101.57142761775425,2188.2,747.8214133126395,101.57142761775425,2289.1,747.8214133126395,101.57142761775425,2395.2,747.8214133126395,101.57142761775425,2502.3,747.8214133126395,101.57142761775425,2603.7,747.8214133126395,101.57142761775425,2704.1,747.8214133126395,101.57142761775425,2804.3,747.8214133126395,101.57142761775425,2906.8,747.8214133126395,101.57142761775425,3009,747.8214133126395,101.57142761775425,3109.1,747.8214133126395,101.57142761775425,3213.7,747.8214133126395,101.57142761775425,3314,747.8214133126395,101.57142761775425,3420.9,747.8214133126395,101.57142761775425,3523.2,747.8214133126395,101.57142761775425,3624.2,747.8214133126395,101.57142761775425,3725.3,747.8214133126395,101.57142761775425,3828.9,747.8214133126395,101.57142761775425,3933.4,747.8214133126395,101.57142761775425,4033.4,747.8214133126395,101.57142761775425,4133.5,747.8214133126395,101.57142761775425,4233.6,747.8214133126395,101.57142761775425,4339,747.8214133126395,101.57142761775425,4439.5,747.8214133126395,101.57142761775425,4539.7,747.8214133126395,101.57142761775425,4640.7,747.8214133126395,101.57142761775425,4743.6,747.8214133126395,101.57142761775425,4843.8,747.8214133126395,101.57142761775425,4944.9]","[1334.2,1334.2,1000,0,334.2,""smooth"",""up"",""up"",""good_move"",4612.1,3276.9,2905.9,1335.3,370.9,""oops"",""up"",""right"",""good_move"",6836.2,2223.5,1777.9,4612.7,445.6,""smooth"",""up"",""up"",""good_move"",12315.9,5479.4,1919.8,9994.5,401.6,""smooth"",""up"",""up"",""good_move"",15604.1,3287.9,2911.8,12316.2,376.1,""oops"",""right"",""right"",""good_move"",18636.1,3031.7,2690.7,15604.4,341,""smooth"",""right"",""right"",""good_move""]"
"6500","","<div style=""width:500px;"">
  <p>What determined the result of this run?</p>
  </div>","96","html-slider-response","34","476098","0.0-7.0-1.4","41","1","2025-07-30 08:42:34","36c45c0696341be0efffe67d72a12abb","90.249.94.127","Mozilla/5.0 (Windows NT 10.0; Win64; x64) AppleWebKit/537.36 (KHTML, like Gecko) Chrome/138.0.0.0 Safari/537.36","WebKit","Chrome","138.0.0.0","Windows","10.0","https://app.prolific.com/","en-US,en;q=0.9","66446d88662725412dc27d06","687a19d2168e237449fb8af4","6889da0d5b0bdc7a49e2ccb2","0","66446d88662725412dc27d06","0","2025-07-30T08:50:33.097Z","","","","AttribQ","","","","","","","","","","","50","","","","","","","","","","","","","","","","","","","","","","","","","","",""
"1952","","<div style=""width:500px;"">
  <p>How much control did you have over the ball?</p>
  </div>","89","html-slider-response","35","478051","0.0-7.0-2.4","41","1","2025-07-30 08:42:34","36c45c0696341be0efffe67d72a12abb","90.249.94.127","Mozilla/5.0 (Windows NT 10.0; Win64; x64) AppleWebKit/537.36 (KHTML, like Gecko) Chrome/138.0.0.0 Safari/537.36","WebKit","Chrome","138.0.0.0","Windows","10.0","https://app.prolific.com/","en-US,en;q=0.9","66446d88662725412dc27d06","687a19d2168e237449fb8af4","6889da0d5b0bdc7a49e2ccb2","0","66446d88662725412dc27d06","0","2025-07-30T08:50:35.051Z","","","","ControlQ","","","","","","","","","","","50","","","","","","","","","","","","","","","","","","","","","","","","","","",""
"3231","","<div style=""width:500px;"">
  <p>How would you describe your current emotional state?</p>
  </div>","75","html-slider-response","36","481284","0.0-7.0-3.4","41","1","2025-07-30 08:42:34","36c45c0696341be0efffe67d72a12abb","90.249.94.127","Mozilla/5.0 (Windows NT 10.0; Win64; x64) AppleWebKit/537.36 (KHTML, like Gecko) Chrome/138.0.0.0 Safari/537.36","WebKit","Chrome","138.0.0.0","Windows","10.0","https://app.prolific.com/","en-US,en;q=0.9","66446d88662725412dc27d06","687a19d2168e237449fb8af4","6889da0d5b0bdc7a49e2ccb2","0","66446d88662725412dc27d06","0","2025-07-30T08:50:38.283Z","","","","StressQ","","","","","","","","","","","50","","","","","","","","","","","","","","","","","","","","","","","","","","",""
"2632","","<div style=""width:500px;"">
  <p>What best describes how you currently feel?</p>
  </div>","94","html-slider-response","37","483917","0.0-7.0-4.4","41","1","2025-07-30 08:42:34","36c45c0696341be0efffe67d72a12abb","90.249.94.127","Mozilla/5.0 (Windows NT 10.0; Win64; x64) AppleWebKit/537.36 (KHTML, like Gecko) Chrome/138.0.0.0 Safari/537.36","WebKit","Chrome","138.0.0.0","Windows","10.0","https://app.prolific.com/","en-US,en;q=0.9","66446d88662725412dc27d06","687a19d2168e237449fb8af4","6889da0d5b0bdc7a49e2ccb2","0","66446d88662725412dc27d06","0","2025-07-30T08:50:40.916Z","","","","MotivationQ","","","","","","","","","","","50","","","","","","","","","","","","","","","","","","","","","","","","","","",""
"","","","","ctl-task-cpt","38","522105","0.0-7.0-0.5","41","1","2025-07-30 08:42:34","36c45c0696341be0efffe67d72a12abb","90.249.94.127","Mozilla/5.0 (Windows NT 10.0; Win64; x64) AppleWebKit/537.36 (KHTML, like Gecko) Chrome/138.0.0.0 Safari/537.36","WebKit","Chrome","138.0.0.0","Windows","10.0","https://app.prolific.com/","en-US,en;q=0.9","66446d88662725412dc27d06","687a19d2168e237449fb8af4","6889da0d5b0bdc7a49e2ccb2","0","66446d88662725412dc27d06","0","2025-07-30T08:51:19.104Z","","","","","","","","","","","","","","","","win-only","3","g1:SW,g2:NE","0.5","6","0","486532.6","903.3","5905.5","35169.2","1","4","8","6","2","8","7","33","26","0.25","687.6","3000","690","[""up"",""right""]","{""num_key_presses"":9,""num_perfect"":5,""num_errors"":1,""num_randdir"":3,""num_randdir_good_moves"":2,""num_whilered"":0,""num_whileblue"":0,""num_blue"":2,""num_good_moves"":7}","[409.0714133126395,421.57142761775424,0.2,409.0714133126395,421.57142761775424,101.3,409.0714133126395,421.57142761775424,207.6,500.3214133126395,371.57142761775424,307.8,685.3214133126395,182.82142761775424,408,741.5714133126395,116.57142761775425,512.9,746.5714133126395,100.32142761775425,613,746.5714133126395,96.57142761775425,724.1,746.5714133126395,96.57142761775425,827.9,746.5714133126395,96.57142761775425,941.8,746.5714133126395,96.57142761775425,1042.1,746.5714133126395,96.57142761775425,1142.3,746.5714133126395,96.57142761775425,1242.9,746.5714133126395,96.57142761775425,1342.9,746.5714133126395,96.57142761775425,1448.3,746.5714133126395,96.57142761775425,1554.9,746.5714133126395,96.57142761775425,1657.1,746.5714133126395,96.57142761775425,1773.6,746.5714133126395,96.57142761775425,1878.3,746.5714133126395,96.57142761775425,1983.2,746.5714133126395,96.57142761775425,2088.7,746.5714133126395,96.57142761775425,2192.2,746.5714133126395,96.57142761775425,2293.2,746.5714133126395,96.57142761775425,2407.8,746.5714133126395,96.57142761775425,2507.8,746.5714133126395,96.57142761775425,2608.2,746.5714133126395,96.57142761775425,2714.1,746.5714133126395,96.57142761775425,2817.8,746.5714133126395,96.57142761775425,2921.3,746.5714133126395,96.57142761775425,3024.4,746.5714133126395,96.57142761775425,3127,746.5714133126395,96.57142761775425,3228.1,746.5714133126395,96.57142761775425,3328.1,746.5714133126395,96.57142761775425,3441.3,746.5714133126395,96.57142761775425,3541.5,746.5714133126395,96.57142761775425,3641.9,746.5714133126395,96.57142761775425,3741.9,746.5714133126395,96.57142761775425,3842.3,746.5714133126395,96.57142761775425,3942.4,746.5714133126395,96.57142761775425,4057.4,746.5714133126395,96.57142761775425,4163.4,746.5714133126395,96.57142761775425,4272.2,746.5714133126395,96.57142761775425,4373.5,746.5714133126395,96.57142761775425,4477.6,746.5714133126395,96.57142761775425,4578,746.5714133126395,96.57142761775425,4678.2,746.5714133126395,96.57142761775425,4789.7,746.5714133126395,96.57142761775425,4892.6,746.5714133126395,96.57142761775425,4993.1]","[1371.1,1371.1,1000,0,371.1,""smooth"",""up"",""up"",""good_move"",4354.3,2982.6,2617,1371.7,365.6,""oops"",""up"",""down"",""bad_move"",7000,2645.2,2283.7,4354.8,361.5,""smooth"",""right"",""right"",""good_move"",16575.1,9574.8,2441.4,13520.9,612.9,""oops"",""right"",""right"",""good_move"",16714.4,139,2963,16575.4,-2824,""error"",""-"",""-"",""no_move"",20566.6,3852,2446.2,17716,404.5,""smooth"",""right"",""right"",""good_move"",23646.9,3080,2693.1,20566.9,386.9,""oops"",""up"",""up"",""good_move"",26628.4,2981.2,2621.2,23647.2,360.1,""smooth"",""up"",""up"",""good_move"",29144.4,2515.7,2161.2,26628.8,354.4,""smooth"",""up"",""up"",""good_move""]"
"3981","","<div style=""width:500px;"">
  <p>What determined the result of this run?</p>
  </div>","81","html-slider-response","39","526088","0.0-7.0-1.5","41","1","2025-07-30 08:42:34","36c45c0696341be0efffe67d72a12abb","90.249.94.127","Mozilla/5.0 (Windows NT 10.0; Win64; x64) AppleWebKit/537.36 (KHTML, like Gecko) Chrome/138.0.0.0 Safari/537.36","WebKit","Chrome","138.0.0.0","Windows","10.0","https://app.prolific.com/","en-US,en;q=0.9","66446d88662725412dc27d06","687a19d2168e237449fb8af4","6889da0d5b0bdc7a49e2ccb2","0","66446d88662725412dc27d06","0","2025-07-30T08:51:23.087Z","","","","AttribQ","","","","","","","","","","","50","","","","","","","","","","","","","","","","","","","","","","","","","","",""
"1991","","<div style=""width:500px;"">
  <p>How much control did you have over the ball?</p>
  </div>","83","html-slider-response","40","528080","0.0-7.0-2.5","41","1","2025-07-30 08:42:34","36c45c0696341be0efffe67d72a12abb","90.249.94.127","Mozilla/5.0 (Windows NT 10.0; Win64; x64) AppleWebKit/537.36 (KHTML, like Gecko) Chrome/138.0.0.0 Safari/537.36","WebKit","Chrome","138.0.0.0","Windows","10.0","https://app.prolific.com/","en-US,en;q=0.9","66446d88662725412dc27d06","687a19d2168e237449fb8af4","6889da0d5b0bdc7a49e2ccb2","0","66446d88662725412dc27d06","0","2025-07-30T08:51:25.080Z","","","","ControlQ","","","","","","","","","","","50","","","","","","","","","","","","","","","","","","","","","","","","","","",""
"2222","","<div style=""width:500px;"">
  <p>How would you describe your current emotional state?</p>
  </div>","83","html-slider-response","41","530303","0.0-7.0-3.5","41","1","2025-07-30 08:42:34","36c45c0696341be0efffe67d72a12abb","90.249.94.127","Mozilla/5.0 (Windows NT 10.0; Win64; x64) AppleWebKit/537.36 (KHTML, like Gecko) Chrome/138.0.0.0 Safari/537.36","WebKit","Chrome","138.0.0.0","Windows","10.0","https://app.prolific.com/","en-US,en;q=0.9","66446d88662725412dc27d06","687a19d2168e237449fb8af4","6889da0d5b0bdc7a49e2ccb2","0","66446d88662725412dc27d06","0","2025-07-30T08:51:27.302Z","","","","StressQ","","","","","","","","","","","50","","","","","","","","","","","","","","","","","","","","","","","","","","",""
"2376","","<div style=""width:500px;"">
  <p>What best describes how you currently feel?</p>
  </div>","100","html-slider-response","42","532680","0.0-7.0-4.5","41","1","2025-07-30 08:42:34","36c45c0696341be0efffe67d72a12abb","90.249.94.127","Mozilla/5.0 (Windows NT 10.0; Win64; x64) AppleWebKit/537.36 (KHTML, like Gecko) Chrome/138.0.0.0 Safari/537.36","WebKit","Chrome","138.0.0.0","Windows","10.0","https://app.prolific.com/","en-US,en;q=0.9","66446d88662725412dc27d06","687a19d2168e237449fb8af4","6889da0d5b0bdc7a49e2ccb2","0","66446d88662725412dc27d06","0","2025-07-30T08:51:29.679Z","","","","MotivationQ","","","","","","","","","","","50","","","","","","","","","","","","","","","","","","","","","","","","","","",""
"","","","","ctl-task-cpt","43","578375","0.0-7.0-0.6","41","1","2025-07-30 08:42:34","36c45c0696341be0efffe67d72a12abb","90.249.94.127","Mozilla/5.0 (Windows NT 10.0; Win64; x64) AppleWebKit/537.36 (KHTML, like Gecko) Chrome/138.0.0.0 Safari/537.36","WebKit","Chrome","138.0.0.0","Windows","10.0","https://app.prolific.com/","en-US,en;q=0.9","66446d88662725412dc27d06","687a19d2168e237449fb8af4","6889da0d5b0bdc7a49e2ccb2","0","66446d88662725412dc27d06","0","2025-07-30T08:52:15.374Z","","","","","","","","","","","","","","","","win-only","2","g1:SE,g2:NW","0.4","7","0","535295.7","784.6","5787.3","42661.6","1","4","4","6","2","-4","-4","29","33","0.2196969696969697","1617","3000","-2140","[""left"",""up""]","{""num_key_presses"":10,""num_perfect"":4,""num_errors"":0,""num_randdir"":6,""num_randdir_good_moves"":2,""num_whilered"":0,""num_whileblue"":0,""num_blue"":2,""num_good_moves"":6}","[421.5714133126395,410.32142761775424,0.2,421.5714133126395,410.32142761775424,102,421.5714133126395,410.32142761775424,206.5,416.5714133126395,396.57142761775424,306.6,246.5714133126395,234.07142761775424,411.8,156.5714133126395,160.32142761775424,516.2,151.5714133126395,155.32142761775424,621,116.5714133126395,122.82142761775425,721.3,106.5714133126395,110.32142761775425,821.4,100.3214133126395,102.82142761775425,937,100.3214133126395,102.82142761775425,1037.6,100.3214133126395,102.82142761775425,1141.8,100.3214133126395,102.82142761775425,1241.8,100.3214133126395,102.82142761775425,1354.6,100.3214133126395,102.82142761775425,1457.3,100.3214133126395,102.82142761775425,1560.8,100.3214133126395,102.82142761775425,1661.4,100.3214133126395,102.82142761775425,1769.7,100.3214133126395,102.82142761775425,1871.3,114.0714133126395,116.57142761775425,1971.5,242.8214133126395,236.57142761775424,2071.6,351.5714133126395,331.57142761775424,2187.7,351.5714133126395,331.57142761775424,2287.9,351.5714133126395,331.57142761775424,2391.1,351.5714133126395,331.57142761775424,2491.2,351.5714133126395,331.57142761775424,2591.2,351.5714133126395,331.57142761775424,2691.9,351.5714133126395,331.57142761775424,2796.6,351.5714133126395,331.57142761775424,2898,351.5714133126395,331.57142761775424,3001.8,351.5714133126395,331.57142761775424,3102.6,351.5714133126395,331.57142761775424,3218.3,351.5714133126395,331.57142761775424,3321.1,351.5714133126395,331.57142761775424,3421.7,351.5714133126395,331.57142761775424,3521.9,351.5714133126395,331.57142761775424,3622,351.5714133126395,331.57142761775424,3726,351.5714133126395,331.57142761775424,3836.4,351.5714133126395,331.57142761775424,3936.7,351.5714133126395,331.57142761775424,4036.7,351.5714133126395,331.57142761775424,4141.1,351.5714133126395,331.57142761775424,4247.3,351.5714133126395,331.57142761775424,4351.1,351.5714133126395,331.57142761775424,4467.6,351.5714133126395,331.57142761775424,4568.5,351.5714133126395,331.57142761775424,4672,351.5714133126395,331.57142761775424,4775.8,351.5714133126395,331.57142761775424,4882,351.5714133126395,331.57142761775424,4986.1]","[1382.2,1382.2,1000,0,382.2,""smooth"",""up"",""up"",""good_move"",4529.9,3147.2,2769.4,1382.7,377.8,""oops"",""up"",""right"",""bad_move"",6905.8,2375.7,2024.6,4530.2,351.1,""oops"",""up"",""right"",""bad_move"",10090.4,3184.3,2826.6,6906.2,357.7,""smooth"",""up"",""up"",""good_move"",12346.2,2255.4,1852.5,10090.8,402.9,""oops"",""up"",""down"",""bad_move"",15601.9,3255.3,2905.5,12346.6,349.8,""smooth"",""up"",""up"",""good_move"",25112.7,9510.5,2969.7,21643.5,499.5,""oops"",""up"",""left"",""good_move"",27857.9,2744.7,2327.1,25113.2,417.6,""smooth"",""up"",""up"",""good_move"",30791.2,2932.9,2572.3,27858.3,360.6,""oops"",""left"",""left"",""good_move"",33713.9,2922.5,2636.1,30791.4,286.4,""oops"",""left"",""right"",""bad_move""]"
"16134","","<div style=""width:500px;"">
  <p>What determined the result of this run?</p>
  </div>","12","html-slider-response","44","594510","0.0-7.0-1.6","41","1","2025-07-30 08:42:34","36c45c0696341be0efffe67d72a12abb","90.249.94.127","Mozilla/5.0 (Windows NT 10.0; Win64; x64) AppleWebKit/537.36 (KHTML, like Gecko) Chrome/138.0.0.0 Safari/537.36","WebKit","Chrome","138.0.0.0","Windows","10.0","https://app.prolific.com/","en-US,en;q=0.9","66446d88662725412dc27d06","687a19d2168e237449fb8af4","6889da0d5b0bdc7a49e2ccb2","0","66446d88662725412dc27d06","0","2025-07-30T08:52:31.509Z","","","","AttribQ","","","","","","","","","","","50","","","","","","","","","","","","","","","","","","","","","","","","","","",""
"1909","","<div style=""width:500px;"">
  <p>How much control did you have over the ball?</p>
  </div>","8","html-slider-response","45","596420","0.0-7.0-2.6","41","1","2025-07-30 08:42:34","36c45c0696341be0efffe67d72a12abb","90.249.94.127","Mozilla/5.0 (Windows NT 10.0; Win64; x64) AppleWebKit/537.36 (KHTML, like Gecko) Chrome/138.0.0.0 Safari/537.36","WebKit","Chrome","138.0.0.0","Windows","10.0","https://app.prolific.com/","en-US,en;q=0.9","66446d88662725412dc27d06","687a19d2168e237449fb8af4","6889da0d5b0bdc7a49e2ccb2","0","66446d88662725412dc27d06","0","2025-07-30T08:52:33.419Z","","","","ControlQ","","","","","","","","","","","50","","","","","","","","","","","","","","","","","","","","","","","","","","",""
"2297","","<div style=""width:500px;"">
  <p>How would you describe your current emotional state?</p>
  </div>","100","html-slider-response","46","598718","0.0-7.0-3.6","41","1","2025-07-30 08:42:34","36c45c0696341be0efffe67d72a12abb","90.249.94.127","Mozilla/5.0 (Windows NT 10.0; Win64; x64) AppleWebKit/537.36 (KHTML, like Gecko) Chrome/138.0.0.0 Safari/537.36","WebKit","Chrome","138.0.0.0","Windows","10.0","https://app.prolific.com/","en-US,en;q=0.9","66446d88662725412dc27d06","687a19d2168e237449fb8af4","6889da0d5b0bdc7a49e2ccb2","0","66446d88662725412dc27d06","0","2025-07-30T08:52:35.717Z","","","","StressQ","","","","","","","","","","","50","","","","","","","","","","","","","","","","","","","","","","","","","","",""
"2349","","<div style=""width:500px;"">
  <p>What best describes how you currently feel?</p>
  </div>","67","html-slider-response","47","601069","0.0-7.0-4.6","41","1","2025-07-30 08:42:34","36c45c0696341be0efffe67d72a12abb","90.249.94.127","Mozilla/5.0 (Windows NT 10.0; Win64; x64) AppleWebKit/537.36 (KHTML, like Gecko) Chrome/138.0.0.0 Safari/537.36","WebKit","Chrome","138.0.0.0","Windows","10.0","https://app.prolific.com/","en-US,en;q=0.9","66446d88662725412dc27d06","687a19d2168e237449fb8af4","6889da0d5b0bdc7a49e2ccb2","0","66446d88662725412dc27d06","0","2025-07-30T08:52:38.068Z","","","","MotivationQ","","","","","","","","","","","50","","","","","","","","","","","","","","","","","","","","","","","","","","",""
"","","","","ctl-task-cpt","48","657139","0.0-7.0-0.7","41","1","2025-07-30 08:42:34","36c45c0696341be0efffe67d72a12abb","90.249.94.127","Mozilla/5.0 (Windows NT 10.0; Win64; x64) AppleWebKit/537.36 (KHTML, like Gecko) Chrome/138.0.0.0 Safari/537.36","WebKit","Chrome","138.0.0.0","Windows","10.0","https://app.prolific.com/","en-US,en;q=0.9","66446d88662725412dc27d06","687a19d2168e237449fb8af4","6889da0d5b0bdc7a49e2ccb2","0","66446d88662725412dc27d06","0","2025-07-30T08:53:34.138Z","","","","","","","","","","","","","","","","win-only","0","g1:NW,g2:SE","0.3","8","0","603685.5","764.9","5766.7","53035.7","1","4","8","6","2","-8","-8","21","29","0.1590909090909091","1033.2","3000","-2020","[""down"",""right""]","{""num_key_presses"":10,""num_perfect"":3,""num_errors"":0,""num_randdir"":7,""num_randdir_good_moves"":3,""num_whilered"":0,""num_whileblue"":0,""num_blue"":5,""num_good_moves"":6}","[420.3214133126395,412.82142761775424,0.2,420.3214133126395,416.57142761775424,101.2,420.3214133126395,416.57142761775424,202.8,420.3214133126395,410.32142761775424,303.1,404.0714133126395,374.07142761775424,405.7,491.5714133126395,446.57142761775424,506.2,585.3214133126395,545.3214276177542,606.7,654.0714133126395,641.5714276177542,707.9,702.8214133126395,700.3214276177542,811.2,726.5714133126395,724.0714276177542,917.8,741.5714133126395,744.0714276177542,1018.7,742.8214133126395,744.0714276177542,1133.4,742.8214133126395,744.0714276177542,1234.1,742.8214133126395,744.0714276177542,1337,742.8214133126395,744.0714276177542,1441.4,742.8214133126395,744.0714276177542,1545.9,742.8214133126395,744.0714276177542,1646.4,742.8214133126395,744.0714276177542,1751.3,742.8214133126395,744.0714276177542,1855.6,742.8214133126395,744.0714276177542,1957.5,742.8214133126395,744.0714276177542,2057.5,742.8214133126395,744.0714276177542,2160.6,742.8214133126395,744.0714276177542,2261.4,742.8214133126395,744.0714276177542,2365.8,742.8214133126395,744.0714276177542,2466.1,742.8214133126395,744.0714276177542,2583.6,742.8214133126395,744.0714276177542,2686,742.8214133126395,744.0714276177542,2801.4,742.8214133126395,744.0714276177542,2906,742.8214133126395,744.0714276177542,3006.7,742.8214133126395,744.0714276177542,3111.7,742.8214133126395,744.0714276177542,3216.1,742.8214133126395,744.0714276177542,3316.8,742.8214133126395,744.0714276177542,3417,742.8214133126395,744.0714276177542,3521.3,742.8214133126395,744.0714276177542,3621.3,742.8214133126395,744.0714276177542,3726.6,742.8214133126395,744.0714276177542,3826.8,742.8214133126395,744.0714276177542,3927.5,742.8214133126395,744.0714276177542,4032.3,742.8214133126395,744.0714276177542,4132.6,742.8214133126395,744.0714276177542,4233.7,742.8214133126395,744.0714276177542,4335.8,742.8214133126395,744.0714276177542,4436.8,742.8214133126395,744.0714276177542,4536.8,742.8214133126395,744.0714276177542,4636.9,742.8214133126395,744.0714276177542,4740.8,742.8214133126395,744.0714276177542,4841,742.8214133126395,744.0714276177542,4952.6]","[1394.2,1394.2,1000,0,394.2,""smooth"",""down"",""down"",""good_move"",6890.3,5495.8,1987.3,4514.2,388.8,""oops"",""down"",""right"",""good_move"",9626.3,2735.5,2296,6890.8,439.5,""smooth"",""down"",""down"",""good_move"",12626.2,2999.7,2598.4,9626.6,401.3,""oops"",""down"",""left"",""bad_move"",22189.6,9562.5,2618,19127.6,444,""oops"",""down"",""down"",""good_move"",28688.6,6498.6,2230.6,26084.9,373.1,""smooth"",""right"",""right"",""good_move"",31773.4,3084.6,2686.2,28688.9,398.4,""oops"",""right"",""left"",""bad_move"",38501.4,6727.7,2389.8,35736.1,375.5,""oops"",""right"",""left"",""bad_move"",41317.7,2816.3,2402.3,38501.4,414,""oops"",""right"",""right"",""good_move"",44481,3162.8,2784.2,41318.2,378.6,""oops"",""right"",""left"",""bad_move""]"
"2746","","<div style=""width:500px;"">
  <p>What determined the result of this run?</p>
  </div>","0","html-slider-response","49","659886","0.0-7.0-1.7","41","1","2025-07-30 08:42:34","36c45c0696341be0efffe67d72a12abb","90.249.94.127","Mozilla/5.0 (Windows NT 10.0; Win64; x64) AppleWebKit/537.36 (KHTML, like Gecko) Chrome/138.0.0.0 Safari/537.36","WebKit","Chrome","138.0.0.0","Windows","10.0","https://app.prolific.com/","en-US,en;q=0.9","66446d88662725412dc27d06","687a19d2168e237449fb8af4","6889da0d5b0bdc7a49e2ccb2","0","66446d88662725412dc27d06","0","2025-07-30T08:53:36.885Z","","","","AttribQ","","","","","","","","","","","50","","","","","","","","","","","","","","","","","","","","","","","","","","",""
"2383","","<div style=""width:500px;"">
  <p>How much control did you have over the ball?</p>
  </div>","0","html-slider-response","50","662270","0.0-7.0-2.7","41","1","2025-07-30 08:42:34","36c45c0696341be0efffe67d72a12abb","90.249.94.127","Mozilla/5.0 (Windows NT 10.0; Win64; x64) AppleWebKit/537.36 (KHTML, like Gecko) Chrome/138.0.0.0 Safari/537.36","WebKit","Chrome","138.0.0.0","Windows","10.0","https://app.prolific.com/","en-US,en;q=0.9","66446d88662725412dc27d06","687a19d2168e237449fb8af4","6889da0d5b0bdc7a49e2ccb2","0","66446d88662725412dc27d06","0","2025-07-30T08:53:39.269Z","","","","ControlQ","","","","","","","","","","","50","","","","","","","","","","","","","","","","","","","","","","","","","","",""
"2248","","<div style=""width:500px;"">
  <p>How would you describe your current emotional state?</p>
  </div>","100","html-slider-response","51","664520","0.0-7.0-3.7","41","1","2025-07-30 08:42:34","36c45c0696341be0efffe67d72a12abb","90.249.94.127","Mozilla/5.0 (Windows NT 10.0; Win64; x64) AppleWebKit/537.36 (KHTML, like Gecko) Chrome/138.0.0.0 Safari/537.36","WebKit","Chrome","138.0.0.0","Windows","10.0","https://app.prolific.com/","en-US,en;q=0.9","66446d88662725412dc27d06","687a19d2168e237449fb8af4","6889da0d5b0bdc7a49e2ccb2","0","66446d88662725412dc27d06","0","2025-07-30T08:53:41.519Z","","","","StressQ","","","","","","","","","","","50","","","","","","","","","","","","","","","","","","","","","","","","","","",""
"1847","","<div style=""width:500px;"">
  <p>What best describes how you currently feel?</p>
  </div>","52","html-slider-response","52","666367","0.0-7.0-4.7","41","1","2025-07-30 08:42:34","36c45c0696341be0efffe67d72a12abb","90.249.94.127","Mozilla/5.0 (Windows NT 10.0; Win64; x64) AppleWebKit/537.36 (KHTML, like Gecko) Chrome/138.0.0.0 Safari/537.36","WebKit","Chrome","138.0.0.0","Windows","10.0","https://app.prolific.com/","en-US,en;q=0.9","66446d88662725412dc27d06","687a19d2168e237449fb8af4","6889da0d5b0bdc7a49e2ccb2","0","66446d88662725412dc27d06","0","2025-07-30T08:53:43.366Z","","","","MotivationQ","","","","","","","","","","","50","","","","","","","","","","","","","","","","","","","","","","","","","","",""
"","","","","ctl-task-cpt","53","709004","0.0-7.0-0.8","41","1","2025-07-30 08:42:34","36c45c0696341be0efffe67d72a12abb","90.249.94.127","Mozilla/5.0 (Windows NT 10.0; Win64; x64) AppleWebKit/537.36 (KHTML, like Gecko) Chrome/138.0.0.0 Safari/537.36","WebKit","Chrome","138.0.0.0","Windows","10.0","https://app.prolific.com/","en-US,en;q=0.9","66446d88662725412dc27d06","687a19d2168e237449fb8af4","6889da0d5b0bdc7a49e2ccb2","0","66446d88662725412dc27d06","0","2025-07-30T08:54:26.003Z","","","","","","","","","","","","","","","","win-only","0","g1:NW,g2:SE","0.4","9","0","668982.8","970.2","5971.2","39617.6","1","4","4","6","2","-4","-4","17","21","0.12878787878787878","1132.1","3000","-2320","[""down"",""right""]","{""num_key_presses"":10,""num_perfect"":4,""num_errors"":0,""num_randdir"":6,""num_randdir_good_moves"":3,""num_whilered"":0,""num_whileblue"":0,""num_blue"":1,""num_good_moves"":7}","[410.3214133126395,421.57142761775424,0.2,410.3214133126395,421.57142761775424,100.7,410.3214133126395,421.57142761775424,206,410.3214133126395,421.57142761775424,306.3,410.3214133126395,421.57142761775424,411.5,576.5714133126395,571.5714276177542,519.3,636.5714133126395,660.3214276177542,620.5,669.0714133126395,706.5714276177542,726.7,700.3214133126395,735.3214276177542,826.8,707.8214133126395,739.0714276177542,930.9,715.3214133126395,739.0714276177542,1035.5,726.5714133126395,736.5714276177542,1136.1,726.5714133126395,736.5714276177542,1236.5,726.5714133126395,736.5714276177542,1336.6,726.5714133126395,736.5714276177542,1443.6,726.5714133126395,736.5714276177542,1549.2,726.5714133126395,736.5714276177542,1650.8,726.5714133126395,736.5714276177542,1756,726.5714133126395,736.5714276177542,1860.7,726.5714133126395,736.5714276177542,1964.7,726.5714133126395,736.5714276177542,2066.5,726.5714133126395,736.5714276177542,2166.6,726.5714133126395,736.5714276177542,2284.9,726.5714133126395,736.5714276177542,2384.9,726.5714133126395,736.5714276177542,2499.8,726.5714133126395,736.5714276177542,2616.6,726.5714133126395,736.5714276177542,2718.9,726.5714133126395,736.5714276177542,2819.4,726.5714133126395,736.5714276177542,2935.1,726.5714133126395,736.5714276177542,3035.2,726.5714133126395,736.5714276177542,3135.9,726.5714133126395,736.5714276177542,3238.6,726.5714133126395,736.5714276177542,3353.5,726.5714133126395,736.5714276177542,3456.9,726.5714133126395,736.5714276177542,3560.8,726.5714133126395,736.5714276177542,3662.4,726.5714133126395,736.5714276177542,3766.9,726.5714133126395,736.5714276177542,3870.6,726.5714133126395,736.5714276177542,3971.9,726.5714133126395,736.5714276177542,4078.6,726.5714133126395,736.5714276177542,4181.4,726.5714133126395,736.5714276177542,4293.3,726.5714133126395,736.5714276177542,4395.8,726.5714133126395,736.5714276177542,4496.8,726.5714133126395,736.5714276177542,4600.3,726.5714133126395,736.5714276177542,4709.8,726.5714133126395,736.5714276177542,4810,726.5714133126395,736.5714276177542,4911.1]","[1404.4,1404.4,1000,0,404.4,""smooth"",""right"",""right"",""good_move"",4429.7,3024.7,2618.7,1405.1,405.9,""oops"",""right"",""up"",""bad_move"",12285,7854.9,3367,8532.9,385.1,""oops"",""right"",""right"",""good_move"",15820.7,3535.3,3159.7,12285.4,375.6,""oops"",""right"",""down"",""good_move"",18820.5,2999.3,2650.7,15821.2,348.6,""smooth"",""right"",""right"",""good_move"",22171.6,3350.8,2964.6,18820.9,386.2,""smooth"",""down"",""down"",""good_move"",23876,1703.9,1295.9,22172.1,408,""oops"",""down"",""down"",""good_move"",25901.1,2024.9,1644.7,23876.2,380.2,""oops"",""down"",""left"",""bad_move"",28513.7,2612.1,2250.5,25901.6,361.6,""oops"",""down"",""left"",""bad_move"",30600.7,2086.7,1692.2,28514,394.5,""smooth"",""right"",""right"",""good_move""]"
"2711","","<div style=""width:500px;"">
  <p>What determined the result of this run?</p>
  </div>","1","html-slider-response","54","711717","0.0-7.0-1.8","41","1","2025-07-30 08:42:34","36c45c0696341be0efffe67d72a12abb","90.249.94.127","Mozilla/5.0 (Windows NT 10.0; Win64; x64) AppleWebKit/537.36 (KHTML, like Gecko) Chrome/138.0.0.0 Safari/537.36","WebKit","Chrome","138.0.0.0","Windows","10.0","https://app.prolific.com/","en-US,en;q=0.9","66446d88662725412dc27d06","687a19d2168e237449fb8af4","6889da0d5b0bdc7a49e2ccb2","0","66446d88662725412dc27d06","0","2025-07-30T08:54:28.716Z","","","","AttribQ","","","","","","","","","","","50","","","","","","","","","","","","","","","","","","","","","","","","","","",""
"2495","","<div style=""width:500px;"">
  <p>How much control did you have over the ball?</p>
  </div>","0","html-slider-response","55","714213","0.0-7.0-2.8","41","1","2025-07-30 08:42:34","36c45c0696341be0efffe67d72a12abb","90.249.94.127","Mozilla/5.0 (Windows NT 10.0; Win64; x64) AppleWebKit/537.36 (KHTML, like Gecko) Chrome/138.0.0.0 Safari/537.36","WebKit","Chrome","138.0.0.0","Windows","10.0","https://app.prolific.com/","en-US,en;q=0.9","66446d88662725412dc27d06","687a19d2168e237449fb8af4","6889da0d5b0bdc7a49e2ccb2","0","66446d88662725412dc27d06","0","2025-07-30T08:54:31.212Z","","","","ControlQ","","","","","","","","","","","50","","","","","","","","","","","","","","","","","","","","","","","","","","",""
"2143","","<div style=""width:500px;"">
  <p>How would you describe your current emotional state?</p>
  </div>","100","html-slider-response","56","716357","0.0-7.0-3.8","41","1","2025-07-30 08:42:34","36c45c0696341be0efffe67d72a12abb","90.249.94.127","Mozilla/5.0 (Windows NT 10.0; Win64; x64) AppleWebKit/537.36 (KHTML, like Gecko) Chrome/138.0.0.0 Safari/537.36","WebKit","Chrome","138.0.0.0","Windows","10.0","https://app.prolific.com/","en-US,en;q=0.9","66446d88662725412dc27d06","687a19d2168e237449fb8af4","6889da0d5b0bdc7a49e2ccb2","0","66446d88662725412dc27d06","0","2025-07-30T08:54:33.356Z","","","","StressQ","","","","","","","","","","","50","","","","","","","","","","","","","","","","","","","","","","","","","","",""
"1704","","<div style=""width:500px;"">
  <p>What best describes how you currently feel?</p>
  </div>","59","html-slider-response","57","718062","0.0-7.0-4.8","41","1","2025-07-30 08:42:34","36c45c0696341be0efffe67d72a12abb","90.249.94.127","Mozilla/5.0 (Windows NT 10.0; Win64; x64) AppleWebKit/537.36 (KHTML, like Gecko) Chrome/138.0.0.0 Safari/537.36","WebKit","Chrome","138.0.0.0","Windows","10.0","https://app.prolific.com/","en-US,en;q=0.9","66446d88662725412dc27d06","687a19d2168e237449fb8af4","6889da0d5b0bdc7a49e2ccb2","0","66446d88662725412dc27d06","0","2025-07-30T08:54:35.061Z","","","","MotivationQ","","","","","","","","","","","50","","","","","","","","","","","","","","","","","","","","","","","","","","",""
"","","","","ctl-task-cpt","58","748785","0.0-7.0-0.9","41","1","2025-07-30 08:42:34","36c45c0696341be0efffe67d72a12abb","90.249.94.127","Mozilla/5.0 (Windows NT 10.0; Win64; x64) AppleWebKit/537.36 (KHTML, like Gecko) Chrome/138.0.0.0 Safari/537.36","WebKit","Chrome","138.0.0.0","Windows","10.0","https://app.prolific.com/","en-US,en;q=0.9","66446d88662725412dc27d06","687a19d2168e237449fb8af4","6889da0d5b0bdc7a49e2ccb2","0","66446d88662725412dc27d06","0","2025-07-30T08:55:05.785Z","","","","","","","","","","","","","","","","win-only","0","g1:NW,g2:SE","0.5","10","0","720678.7","1196.5","6206.6","27702.1","1","4","8","6","2","8","8","25","17","0.1893939393939394","873.4","3000","855","[""down"",""right""]","{""num_key_presses"":8,""num_perfect"":5,""num_errors"":0,""num_randdir"":3,""num_randdir_good_moves"":2,""num_whilered"":0,""num_whileblue"":0,""num_blue"":0,""num_good_moves"":7}","[410.3214133126395,411.57142761775424,0.4,410.3214133126395,411.57142761775424,105.7,410.3214133126395,411.57142761775424,216.1,391.5714133126395,397.82142761775424,316.3,499.0714133126395,475.32142761775424,420.2,725.3214133126395,631.5714276177542,530.2,730.3214133126395,644.0714276177542,631.1,736.5714133126395,671.5714276177542,733.8,759.0714133126395,721.5714276177542,841.8,761.5714133126395,726.5714276177542,945.9,761.5714133126395,726.5714276177542,1045.9,761.5714133126395,726.5714276177542,1161.8,761.5714133126395,726.5714276177542,1267.2,761.5714133126395,726.5714276177542,1368.9,761.5714133126395,726.5714276177542,1470.7,761.5714133126395,726.5714276177542,1574.1,761.5714133126395,726.5714276177542,1674.8,761.5714133126395,726.5714276177542,1774.8,761.5714133126395,726.5714276177542,1874.9,761.5714133126395,726.5714276177542,1975.5,761.5714133126395,726.5714276177542,2075.6,761.5714133126395,726.5714276177542,2180.1,761.5714133126395,726.5714276177542,2286.2,761.5714133126395,726.5714276177542,2393.4,761.5714133126395,726.5714276177542,2493.8,761.5714133126395,726.5714276177542,2594.1,761.5714133126395,726.5714276177542,2694.4,761.5714133126395,726.5714276177542,2795.4,761.5714133126395,726.5714276177542,2901.1,761.5714133126395,726.5714276177542,3002.8,761.5714133126395,726.5714276177542,3103.8,761.5714133126395,726.5714276177542,3204.2,761.5714133126395,726.5714276177542,3305.4,761.5714133126395,726.5714276177542,3410.3,761.5714133126395,726.5714276177542,3514.9,761.5714133126395,726.5714276177542,3628.9,761.5714133126395,726.5714276177542,3733,761.5714133126395,726.5714276177542,3834.3,761.5714133126395,726.5714276177542,3940,761.5714133126395,726.5714276177542,4040.3,761.5714133126395,726.5714276177542,4140.3,761.5714133126395,726.5714276177542,4245.9,761.5714133126395,726.5714276177542,4346.5,761.5714133126395,726.5714276177542,4449.8,761.5714133126395,726.5714276177542,4556.6,761.5714133126395,726.5714276177542,4660.5,761.5714133126395,726.5714276177542,4764.4,761.5714133126395,726.5714276177542,4864.6,761.5714133126395,726.5714276177542,4965.4]","[1388.7,1388.7,1000,0,388.7,""smooth"",""right"",""right"",""good_move"",3952,2562.8,2185.8,1389.2,377,""smooth"",""right"",""right"",""good_move"",6664.8,2712.6,2325.8,3952.2,386.8,""smooth"",""right"",""right"",""good_move"",9864.2,3198.8,2832.7,6665.5,366,""oops"",""down"",""up"",""bad_move"",13211.1,3346.6,2974.8,9864.6,371.8,""oops"",""down"",""down"",""good_move"",16673.1,3461.2,3074.3,13211.9,386.9,""smooth"",""down"",""down"",""good_move"",19360.7,2687.2,2291.6,16673.6,395.5,""smooth"",""down"",""down"",""good_move"",21377.3,2016.4,1640.3,19360.9,376.1,""oops"",""down"",""down"",""good_move""]"
"2927","","<div style=""width:500px;"">
  <p>What determined the result of this run?</p>
  </div>","33","html-slider-response","59","751714","0.0-7.0-1.9","41","1","2025-07-30 08:42:34","36c45c0696341be0efffe67d72a12abb","90.249.94.127","Mozilla/5.0 (Windows NT 10.0; Win64; x64) AppleWebKit/537.36 (KHTML, like Gecko) Chrome/138.0.0.0 Safari/537.36","WebKit","Chrome","138.0.0.0","Windows","10.0","https://app.prolific.com/","en-US,en;q=0.9","66446d88662725412dc27d06","687a19d2168e237449fb8af4","6889da0d5b0bdc7a49e2ccb2","0","66446d88662725412dc27d06","0","2025-07-30T08:55:08.713Z","","","","AttribQ","","","","","","","","","","","50","","","","","","","","","","","","","","","","","","","","","","","","","","",""
"1951","","<div style=""width:500px;"">
  <p>How much control did you have over the ball?</p>
  </div>","60","html-slider-response","60","753667","0.0-7.0-2.9","41","1","2025-07-30 08:42:34","36c45c0696341be0efffe67d72a12abb","90.249.94.127","Mozilla/5.0 (Windows NT 10.0; Win64; x64) AppleWebKit/537.36 (KHTML, like Gecko) Chrome/138.0.0.0 Safari/537.36","WebKit","Chrome","138.0.0.0","Windows","10.0","https://app.prolific.com/","en-US,en;q=0.9","66446d88662725412dc27d06","687a19d2168e237449fb8af4","6889da0d5b0bdc7a49e2ccb2","0","66446d88662725412dc27d06","0","2025-07-30T08:55:10.666Z","","","","ControlQ","","","","","","","","","","","50","","","","","","","","","","","","","","","","","","","","","","","","","","",""
"2762","","<div style=""width:500px;"">
  <p>How would you describe your current emotional state?</p>
  </div>","100","html-slider-response","61","756429","0.0-7.0-3.9","41","1","2025-07-30 08:42:34","36c45c0696341be0efffe67d72a12abb","90.249.94.127","Mozilla/5.0 (Windows NT 10.0; Win64; x64) AppleWebKit/537.36 (KHTML, like Gecko) Chrome/138.0.0.0 Safari/537.36","WebKit","Chrome","138.0.0.0","Windows","10.0","https://app.prolific.com/","en-US,en;q=0.9","66446d88662725412dc27d06","687a19d2168e237449fb8af4","6889da0d5b0bdc7a49e2ccb2","0","66446d88662725412dc27d06","0","2025-07-30T08:55:13.429Z","","","","StressQ","","","","","","","","","","","50","","","","","","","","","","","","","","","","","","","","","","","","","","",""
"1229","","<div style=""width:500px;"">
  <p>What best describes how you currently feel?</p>
  </div>","50","html-slider-response","62","757659","0.0-7.0-4.9","41","1","2025-07-30 08:42:34","36c45c0696341be0efffe67d72a12abb","90.249.94.127","Mozilla/5.0 (Windows NT 10.0; Win64; x64) AppleWebKit/537.36 (KHTML, like Gecko) Chrome/138.0.0.0 Safari/537.36","WebKit","Chrome","138.0.0.0","Windows","10.0","https://app.prolific.com/","en-US,en;q=0.9","66446d88662725412dc27d06","687a19d2168e237449fb8af4","6889da0d5b0bdc7a49e2ccb2","0","66446d88662725412dc27d06","0","2025-07-30T08:55:14.659Z","","","","MotivationQ","","","","","","","","","","","50","","","","","","","","","","","","","","","","","","","","","","","","","","",""
"","","","","ctl-task-cpt","63","785929","0.0-7.0-0.10","41","1","2025-07-30 08:42:34","36c45c0696341be0efffe67d72a12abb","90.249.94.127","Mozilla/5.0 (Windows NT 10.0; Win64; x64) AppleWebKit/537.36 (KHTML, like Gecko) Chrome/138.0.0.0 Safari/537.36","WebKit","Chrome","138.0.0.0","Windows","10.0","https://app.prolific.com/","en-US,en;q=0.9","66446d88662725412dc27d06","687a19d2168e237449fb8af4","6889da0d5b0bdc7a49e2ccb2","0","66446d88662725412dc27d06","0","2025-07-30T08:55:42.929Z","","","","","","","","","","","","","","","","win-only","2","g1:SE,g2:NW","0.6","11","0","760276","800.8","5803.5","25252","1","4","8","6","2","8","8","33","25","0.25","1269.1","3000","1425","[""left"",""up""]","{""num_key_presses"":6,""num_perfect"":4,""num_errors"":0,""num_randdir"":2,""num_randdir_good_moves"":2,""num_whilered"":0,""num_whileblue"":0,""num_blue"":1,""num_good_moves"":6}","[409.0714133126395,407.82142761775424,0.6,409.0714133126395,407.82142761775424,101.9,409.0714133126395,407.82142761775424,204.1,409.0714133126395,407.82142761775424,305.4,409.0714133126395,407.82142761775424,408.4,477.8214133126395,465.32142761775424,511.3,489.0714133126395,472.82142761775424,618.4,344.0714133126395,321.57142761775424,720.6,200.3214133126395,202.82142761775424,821.5,151.5714133126395,174.07142761775424,935.3,121.5714133126395,141.57142761775424,1037.8,100.3214133126395,95.32142761775425,1152.3,92.8214133126395,82.82142761775425,1254.5,92.8214133126395,82.82142761775425,1355.9,92.8214133126395,82.82142761775425,1460.9,92.8214133126395,82.82142761775425,1571.3,195.3214133126395,196.57142761775424,1676.8,656.5714133126395,567.8214276177542,1780.6,709.0714133126395,576.5714276177542,1885.5,729.0714133126395,556.5714276177542,1990.7,729.0714133126395,555.3214276177542,2101.2,729.0714133126395,555.3214276177542,2201.7,729.0714133126395,555.3214276177542,2305.1,729.0714133126395,555.3214276177542,2405.9,729.0714133126395,555.3214276177542,2506.5,729.0714133126395,555.3214276177542,2618.9,729.0714133126395,555.3214276177542,2720.6,729.0714133126395,555.3214276177542,2825.6,729.0714133126395,555.3214276177542,2925.9,729.0714133126395,555.3214276177542,3027.5,729.0714133126395,555.3214276177542,3130.7,729.0714133126395,555.3214276177542,3235,729.0714133126395,555.3214276177542,3336.4,729.0714133126395,555.3214276177542,3441.1,729.0714133126395,555.3214276177542,3551.5,729.0714133126395,555.3214276177542,3654.5,729.0714133126395,555.3214276177542,3755.9,729.0714133126395,555.3214276177542,3865.7,729.0714133126395,555.3214276177542,3970.3,729.0714133126395,555.3214276177542,4086.1,729.0714133126395,555.3214276177542,4191.5,729.0714133126395,555.3214276177542,4295.6,729.0714133126395,555.3214276177542,4401.1,729.0714133126395,555.3214276177542,4504.4,729.0714133126395,555.3214276177542,4606.5,729.0714133126395,555.3214276177542,4721,729.0714133126395,555.3214276177542,4821.7,729.0714133126395,555.3214276177542,4936.1]","[4250.3,4250.3,1877.4,2013.5,359.5,""oops"",""left"",""left"",""good_move"",7282.3,3031.5,2585.1,4250.8,446.4,""oops"",""left"",""up"",""good_move"",10570.9,3288.2,2918.8,7282.7,369.4,""smooth"",""left"",""left"",""good_move"",13882.4,3311.1,2911.6,10571.3,399.5,""smooth"",""left"",""left"",""good_move"",16370.7,2488,2119.1,13882.7,368.9,""smooth"",""up"",""up"",""good_move"",19338.8,2967.4,2588.5,16371.5,378.8,""smooth"",""up"",""up"",""good_move""]"
"3100","","<div style=""width:500px;"">
  <p>What determined the result of this run?</p>
  </div>","61","html-slider-response","64","789030","0.0-7.0-1.10","41","1","2025-07-30 08:42:34","36c45c0696341be0efffe67d72a12abb","90.249.94.127","Mozilla/5.0 (Windows NT 10.0; Win64; x64) AppleWebKit/537.36 (KHTML, like Gecko) Chrome/138.0.0.0 Safari/537.36","WebKit","Chrome","138.0.0.0","Windows","10.0","https://app.prolific.com/","en-US,en;q=0.9","66446d88662725412dc27d06","687a19d2168e237449fb8af4","6889da0d5b0bdc7a49e2ccb2","0","66446d88662725412dc27d06","0","2025-07-30T08:55:46.029Z","","","","AttribQ","","","","","","","","","","","50","","","","","","","","","","","","","","","","","","","","","","","","","","",""
"1506","","<div style=""width:500px;"">
  <p>How much control did you have over the ball?</p>
  </div>","62","html-slider-response","65","790538","0.0-7.0-2.10","41","1","2025-07-30 08:42:34","36c45c0696341be0efffe67d72a12abb","90.249.94.127","Mozilla/5.0 (Windows NT 10.0; Win64; x64) AppleWebKit/537.36 (KHTML, like Gecko) Chrome/138.0.0.0 Safari/537.36","WebKit","Chrome","138.0.0.0","Windows","10.0","https://app.prolific.com/","en-US,en;q=0.9","66446d88662725412dc27d06","687a19d2168e237449fb8af4","6889da0d5b0bdc7a49e2ccb2","0","66446d88662725412dc27d06","0","2025-07-30T08:55:47.537Z","","","","ControlQ","","","","","","","","","","","50","","","","","","","","","","","","","","","","","","","","","","","","","","",""
"2429","","<div style=""width:500px;"">
  <p>How would you describe your current emotional state?</p>
  </div>","100","html-slider-response","66","792968","0.0-7.0-3.10","41","1","2025-07-30 08:42:34","36c45c0696341be0efffe67d72a12abb","90.249.94.127","Mozilla/5.0 (Windows NT 10.0; Win64; x64) AppleWebKit/537.36 (KHTML, like Gecko) Chrome/138.0.0.0 Safari/537.36","WebKit","Chrome","138.0.0.0","Windows","10.0","https://app.prolific.com/","en-US,en;q=0.9","66446d88662725412dc27d06","687a19d2168e237449fb8af4","6889da0d5b0bdc7a49e2ccb2","0","66446d88662725412dc27d06","0","2025-07-30T08:55:49.967Z","","","","StressQ","","","","","","","","","","","50","","","","","","","","","","","","","","","","","","","","","","","","","","",""
"2271","","<div style=""width:500px;"">
  <p>What best describes how you currently feel?</p>
  </div>","70","html-slider-response","67","795240","0.0-7.0-4.10","41","1","2025-07-30 08:42:34","36c45c0696341be0efffe67d72a12abb","90.249.94.127","Mozilla/5.0 (Windows NT 10.0; Win64; x64) AppleWebKit/537.36 (KHTML, like Gecko) Chrome/138.0.0.0 Safari/537.36","WebKit","Chrome","138.0.0.0","Windows","10.0","https://app.prolific.com/","en-US,en;q=0.9","66446d88662725412dc27d06","687a19d2168e237449fb8af4","6889da0d5b0bdc7a49e2ccb2","0","66446d88662725412dc27d06","0","2025-07-30T08:55:52.239Z","","","","MotivationQ","","","","","","","","","","","50","","","","","","","","","","","","","","","","","","","","","","","","","","",""
"","","","","ctl-task-cpt","68","825986","0.0-7.0-0.11","41","1","2025-07-30 08:42:34","36c45c0696341be0efffe67d72a12abb","90.249.94.127","Mozilla/5.0 (Windows NT 10.0; Win64; x64) AppleWebKit/537.36 (KHTML, like Gecko) Chrome/138.0.0.0 Safari/537.36","WebKit","Chrome","138.0.0.0","Windows","10.0","https://app.prolific.com/","en-US,en;q=0.9","66446d88662725412dc27d06","687a19d2168e237449fb8af4","6889da0d5b0bdc7a49e2ccb2","0","66446d88662725412dc27d06","0","2025-07-30T08:56:22.985Z","","","","","","","","","","","","","","","","win-only","1","g1:NE,g2:SW","0.7","12","0","797856","783.3","5787.4","27737.3","1","4","4","6","2","4","4","37","33","0.2803030303030303","2954.5","3000","1605","[""down"",""left""]","{""num_key_presses"":6,""num_perfect"":6,""num_errors"":0,""num_randdir"":0,""num_randdir_good_moves"":0,""num_whilered"":0,""num_whileblue"":0,""num_blue"":2,""num_good_moves"":6}","[411.5714133126395,415.32142761775424,0.4,411.5714133126395,415.32142761775424,115.9,411.5714133126395,415.32142761775424,230.8,411.5714133126395,415.32142761775424,333.6,430.3214133126395,376.57142761775424,436.9,290.3214133126395,484.07142761775424,551,206.5714133126395,599.0714276177542,653.3,177.8214133126395,656.5714276177542,756.1,157.8214133126395,679.0714276177542,857.3,101.5714133126395,710.3214276177542,960,90.3214133126395,716.5714276177542,1062.3,89.0714133126395,719.0714276177542,1163.8,89.0714133126395,719.0714276177542,1281.2,89.0714133126395,719.0714276177542,1383.6,89.0714133126395,719.0714276177542,1485.2,89.0714133126395,719.0714276177542,1588.1,89.0714133126395,719.0714276177542,1693.3,89.0714133126395,719.0714276177542,1797.4,89.0714133126395,719.0714276177542,1899.2,89.0714133126395,719.0714276177542,2000.5,472.8214133126395,346.57142761775424,2105,637.8214133126395,209.07142761775424,2214.5,662.8214133126395,184.07142761775424,2329.2,666.5714133126395,181.57142761775424,2430.8,514.0714133126395,321.57142761775424,2543.5,335.3214133126395,509.07142761775424,2651.6,196.5714133126395,634.0714276177542,2763.5,137.8214133126395,695.3214276177542,2876.3,137.8214133126395,695.3214276177542,2980.7,137.8214133126395,695.3214276177542,3093.6,136.5714133126395,695.3214276177542,3196.2,94.0714133126395,711.5714276177542,3301.1,94.0714133126395,711.5714276177542,3409.3,94.0714133126395,711.5714276177542,3514.4,146.5714133126395,681.5714276177542,3622.5,249.0714133126395,581.5714276177542,3730.8,302.8214133126395,536.5714276177542,3834.2,304.0714133126395,535.3214276177542,3953.5,304.0714133126395,535.3214276177542,4066.8,304.0714133126395,535.3214276177542,4167.6,304.0714133126395,535.3214276177542,4281.9,304.0714133126395,535.3214276177542,4383.7,304.0714133126395,535.3214276177542,4499.8,304.0714133126395,535.3214276177542,4600.7,304.0714133126395,535.3214276177542,4715.1,304.0714133126395,535.3214276177542,4819.1,304.0714133126395,535.3214276177542,4923.5]","[4370.5,4370.5,2014.3,2005.7,350.5,""smooth"",""down"",""down"",""good_move"",6890.1,2519.2,2150.2,4370.9,369,""smooth"",""down"",""down"",""good_move"",9535.3,2645.1,2285.5,6890.2,359.6,""smooth"",""down"",""down"",""good_move"",15936.6,6400.9,2268.6,13331.1,336.9,""smooth"",""left"",""left"",""good_move"",19006.1,3068.7,2715.3,15937.4,353.4,""smooth"",""left"",""left"",""good_move"",21822.6,2816.4,2487.7,19006.2,328.7,""smooth"",""left"",""left"",""good_move""]"
"2019","","<div style=""width:500px;"">
  <p>What determined the result of this run?</p>
  </div>","59","html-slider-response","69","828006","0.0-7.0-1.11","41","1","2025-07-30 08:42:34","36c45c0696341be0efffe67d72a12abb","90.249.94.127","Mozilla/5.0 (Windows NT 10.0; Win64; x64) AppleWebKit/537.36 (KHTML, like Gecko) Chrome/138.0.0.0 Safari/537.36","WebKit","Chrome","138.0.0.0","Windows","10.0","https://app.prolific.com/","en-US,en;q=0.9","66446d88662725412dc27d06","687a19d2168e237449fb8af4","6889da0d5b0bdc7a49e2ccb2","0","66446d88662725412dc27d06","0","2025-07-30T08:56:25.006Z","","","","AttribQ","","","","","","","","","","","50","","","","","","","","","","","","","","","","","","","","","","","","","","",""
"2949","","<div style=""width:500px;"">
  <p>How much control did you have over the ball?</p>
  </div>","77","html-slider-response","70","830957","0.0-7.0-2.11","41","1","2025-07-30 08:42:34","36c45c0696341be0efffe67d72a12abb","90.249.94.127","Mozilla/5.0 (Windows NT 10.0; Win64; x64) AppleWebKit/537.36 (KHTML, like Gecko) Chrome/138.0.0.0 Safari/537.36","WebKit","Chrome","138.0.0.0","Windows","10.0","https://app.prolific.com/","en-US,en;q=0.9","66446d88662725412dc27d06","687a19d2168e237449fb8af4","6889da0d5b0bdc7a49e2ccb2","0","66446d88662725412dc27d06","0","2025-07-30T08:56:27.956Z","","","","ControlQ","","","","","","","","","","","50","","","","","","","","","","","","","","","","","","","","","","","","","","",""
"3039","","<div style=""width:500px;"">
  <p>How would you describe your current emotional state?</p>
  </div>","100","html-slider-response","71","833998","0.0-7.0-3.11","41","1","2025-07-30 08:42:34","36c45c0696341be0efffe67d72a12abb","90.249.94.127","Mozilla/5.0 (Windows NT 10.0; Win64; x64) AppleWebKit/537.36 (KHTML, like Gecko) Chrome/138.0.0.0 Safari/537.36","WebKit","Chrome","138.0.0.0","Windows","10.0","https://app.prolific.com/","en-US,en;q=0.9","66446d88662725412dc27d06","687a19d2168e237449fb8af4","6889da0d5b0bdc7a49e2ccb2","0","66446d88662725412dc27d06","0","2025-07-30T08:56:30.997Z","","","","StressQ","","","","","","","","","","","50","","","","","","","","","","","","","","","","","","","","","","","","","","",""
"1736","","<div style=""width:500px;"">
  <p>What best describes how you currently feel?</p>
  </div>","67","html-slider-response","72","835735","0.0-7.0-4.11","41","1","2025-07-30 08:42:34","36c45c0696341be0efffe67d72a12abb","90.249.94.127","Mozilla/5.0 (Windows NT 10.0; Win64; x64) AppleWebKit/537.36 (KHTML, like Gecko) Chrome/138.0.0.0 Safari/537.36","WebKit","Chrome","138.0.0.0","Windows","10.0","https://app.prolific.com/","en-US,en;q=0.9","66446d88662725412dc27d06","687a19d2168e237449fb8af4","6889da0d5b0bdc7a49e2ccb2","0","66446d88662725412dc27d06","0","2025-07-30T08:56:32.735Z","","","","MotivationQ","","","","","","","","","","","50","","","","","","","","","","","","","","","","","","","","","","","","","","",""
"","","","","ctl-task-cpt","73","872795","0.0-7.0-0.12","41","1","2025-07-30 08:42:34","36c45c0696341be0efffe67d72a12abb","90.249.94.127","Mozilla/5.0 (Windows NT 10.0; Win64; x64) AppleWebKit/537.36 (KHTML, like Gecko) Chrome/138.0.0.0 Safari/537.36","WebKit","Chrome","138.0.0.0","Windows","10.0","https://app.prolific.com/","en-US,en;q=0.9","66446d88662725412dc27d06","687a19d2168e237449fb8af4","6889da0d5b0bdc7a49e2ccb2","0","66446d88662725412dc27d06","0","2025-07-30T08:57:09.794Z","","","","","","","","","","","","","","","","win-only","3","g1:SW,g2:NE","0.8","13","0","838354.6","857","5859.1","34035.9","1","4","8","6","2","8","8","45","37","0.3409090909090909","1045.2","3000","1125","[""up"",""right""]","{""num_key_presses"":8,""num_perfect"":6,""num_errors"":0,""num_randdir"":2,""num_randdir_good_moves"":1,""num_whilered"":0,""num_whileblue"":0,""num_blue"":2,""num_good_moves"":7}","[409.0714133126395,415.32142761775424,0.3,409.0714133126395,415.32142761775424,102.4,409.0714133126395,415.32142761775424,206.7,409.0714133126395,415.32142761775424,312.3,416.5714133126395,402.82142761775424,413.1,546.5714133126395,241.57142761775424,516.7,624.0714133126395,146.57142761775424,618.5,635.3214133126395,132.82142761775424,731,660.3214133126395,117.82142761775425,836.2,715.3214133126395,92.82142761775425,947.2,717.8214133126395,89.07142761775425,1048.1,717.8214133126395,89.07142761775425,1155.3,717.8214133126395,89.07142761775425,1270.2,727.8214133126395,167.82142761775424,1375.6,760.3214133126395,381.57142761775424,1487.1,760.3214133126395,389.07142761775424,1589.5,760.3214133126395,390.32142761775424,1690.5,760.3214133126395,390.32142761775424,1790.7,760.3214133126395,390.32142761775424,1904.7,760.3214133126395,390.32142761775424,2010,760.3214133126395,390.32142761775424,2116.4,760.3214133126395,390.32142761775424,2220.7,760.3214133126395,390.32142761775424,2320.7,760.3214133126395,390.32142761775424,2439.5,760.3214133126395,390.32142761775424,2542.7,760.3214133126395,390.32142761775424,2646.1,760.3214133126395,390.32142761775424,2754,760.3214133126395,390.32142761775424,2867.8,760.3214133126395,390.32142761775424,2976.3,760.3214133126395,390.32142761775424,3083.2,760.3214133126395,390.32142761775424,3189.4,760.3214133126395,390.32142761775424,3294.6,760.3214133126395,390.32142761775424,3401.1,760.3214133126395,390.32142761775424,3515.2,760.3214133126395,390.32142761775424,3618.2,760.3214133126395,390.32142761775424,3719.8,760.3214133126395,390.32142761775424,3824.6,760.3214133126395,390.32142761775424,3926,760.3214133126395,390.32142761775424,4032.3,760.3214133126395,390.32142761775424,4135.3,760.3214133126395,390.32142761775424,4238.9,760.3214133126395,390.32142761775424,4358,760.3214133126395,390.32142761775424,4463.7,760.3214133126395,390.32142761775424,4567.7,760.3214133126395,390.32142761775424,4669.6,760.3214133126395,390.32142761775424,4773.8,760.3214133126395,390.32142761775424,4885.7,760.3214133126395,390.32142761775424,4988.5]","[1412.5,1412.5,1000,0,412.5,""oops"",""up"",""down"",""bad_move"",4509.6,3096.5,2756.9,1413.1,339.6,""smooth"",""right"",""right"",""good_move"",7824.5,3314.6,2960.1,4509.9,354.5,""smooth"",""right"",""right"",""good_move"",13959.5,6135,2264.4,11330.4,364.7,""smooth"",""right"",""right"",""good_move"",16925.7,2966,2568.1,13959.7,397.9,""oops"",""up"",""up"",""good_move"",19417.5,2490.8,2138.1,16926.7,352.7,""smooth"",""up"",""up"",""good_move"",21639.9,2222,1886.1,19417.9,335.9,""smooth"",""up"",""up"",""good_move"",28048.4,6408.2,2729.6,24948,370.8,""smooth"",""up"",""up"",""good_move""]"
"4136","","<div style=""width:500px;"">
  <p>What determined the result of this run?</p>
  </div>","68","html-slider-response","74","876932","0.0-7.0-1.12","41","1","2025-07-30 08:42:34","36c45c0696341be0efffe67d72a12abb","90.249.94.127","Mozilla/5.0 (Windows NT 10.0; Win64; x64) AppleWebKit/537.36 (KHTML, like Gecko) Chrome/138.0.0.0 Safari/537.36","WebKit","Chrome","138.0.0.0","Windows","10.0","https://app.prolific.com/","en-US,en;q=0.9","66446d88662725412dc27d06","687a19d2168e237449fb8af4","6889da0d5b0bdc7a49e2ccb2","0","66446d88662725412dc27d06","0","2025-07-30T08:57:13.932Z","","","","AttribQ","","","","","","","","","","","50","","","","","","","","","","","","","","","","","","","","","","","","","","",""
"1487","","<div style=""width:500px;"">
  <p>How much control did you have over the ball?</p>
  </div>","62","html-slider-response","75","878421","0.0-7.0-2.12","41","1","2025-07-30 08:42:34","36c45c0696341be0efffe67d72a12abb","90.249.94.127","Mozilla/5.0 (Windows NT 10.0; Win64; x64) AppleWebKit/537.36 (KHTML, like Gecko) Chrome/138.0.0.0 Safari/537.36","WebKit","Chrome","138.0.0.0","Windows","10.0","https://app.prolific.com/","en-US,en;q=0.9","66446d88662725412dc27d06","687a19d2168e237449fb8af4","6889da0d5b0bdc7a49e2ccb2","0","66446d88662725412dc27d06","0","2025-07-30T08:57:15.420Z","","","","ControlQ","","","","","","","","","","","50","","","","","","","","","","","","","","","","","","","","","","","","","","",""
"2270","","<div style=""width:500px;"">
  <p>How would you describe your current emotional state?</p>
  </div>","100","html-slider-response","76","880693","0.0-7.0-3.12","41","1","2025-07-30 08:42:34","36c45c0696341be0efffe67d72a12abb","90.249.94.127","Mozilla/5.0 (Windows NT 10.0; Win64; x64) AppleWebKit/537.36 (KHTML, like Gecko) Chrome/138.0.0.0 Safari/537.36","WebKit","Chrome","138.0.0.0","Windows","10.0","https://app.prolific.com/","en-US,en;q=0.9","66446d88662725412dc27d06","687a19d2168e237449fb8af4","6889da0d5b0bdc7a49e2ccb2","0","66446d88662725412dc27d06","0","2025-07-30T08:57:17.692Z","","","","StressQ","","","","","","","","","","","50","","","","","","","","","","","","","","","","","","","","","","","","","","",""
"1445","","<div style=""width:500px;"">
  <p>What best describes how you currently feel?</p>
  </div>","57","html-slider-response","77","882139","0.0-7.0-4.12","41","1","2025-07-30 08:42:34","36c45c0696341be0efffe67d72a12abb","90.249.94.127","Mozilla/5.0 (Windows NT 10.0; Win64; x64) AppleWebKit/537.36 (KHTML, like Gecko) Chrome/138.0.0.0 Safari/537.36","WebKit","Chrome","138.0.0.0","Windows","10.0","https://app.prolific.com/","en-US,en;q=0.9","66446d88662725412dc27d06","687a19d2168e237449fb8af4","6889da0d5b0bdc7a49e2ccb2","0","66446d88662725412dc27d06","0","2025-07-30T08:57:19.138Z","","","","MotivationQ","","","","","","","","","","","50","","","","","","","","","","","","","","","","","","","","","","","","","","",""
