"rt","response_timestamp","stimulus","response","trial_type","trial_index","time_elapsed","internal_node_id","run_id","condition","recorded_at","source_code_version","ip","user_agent","device","browser","browser_version","platform","platform_version","referer","accept_language","PROLIFIC_PID","STUDY_ID","SESSION_ID","BATCH","prolific_id","batch","realtime","success","question_order","question_id","eventType","responses","item_order","radio_event_ids","radio_event_times","key_event_times","mouse_event_times","straightlining","zigzagging","honeypot","view_history","slider_start","which_type","canvas_config","goals_layout","control_level","trial_number","tutorial_trial_number","trial_start_time","phase1_start_time","phase2_start_time","phase3_start_time","goal_1_value","goal_1_distance","goal_2_value","goal_2_distance","goal_selected","outcome","outcome_total","participant_final_score","participant_initial_score","participant_final_score_prop","goal_choice_rt","allocated_time","allocated_time_remaining","goal_direction","counts","mouse_movements","key_presses"
"2445","1754471017870","<p style='font-size:40px;line-height:1.25'><strong>Welcome to the experiment!</strong></p><p style='font-size:1.1em;line-height:1.25'>Thank you for participanting in our experiment again! You will be asked to play the Dysfunctional Ball Game again. We will briefly recap the rules before we start.</p><p style='font-size:1.1em;line-height:1.25'>Press <strong>Next</strong> to continue.</p>","0","custom-html-button-response","0","2448","0.0-0.0","154","1","2025-08-06 09:03:31","36c45c0696341be0efffe67d72a12abb","223.230.55.133","Mozilla/5.0 (Windows NT 10.0; Win64; x64) AppleWebKit/537.36 (KHTML, like Gecko) Chrome/138.0.0.0 Safari/537.36","WebKit","Chrome","138.0.0.0","Windows","10.0","https://app.prolific.com/","en-US,en;q=0.9","664b3888f484550fe6d377bc","6877649eabb845cf142cd221","68931a394433361b63a84dc1","1","664b3888f484550fe6d377bc","1","2025-08-06T09:03:37.871Z","","","","","","","","","","","","","","","","","","","","","","","","","","","","","","","","","","","","","","","","","",""
"1118","","","","fullscreen","1","4637","0.0-1.0","154","1","2025-08-06 09:03:31","36c45c0696341be0efffe67d72a12abb","223.230.55.133","Mozilla/5.0 (Windows NT 10.0; Win64; x64) AppleWebKit/537.36 (KHTML, like Gecko) Chrome/138.0.0.0 Safari/537.36","WebKit","Chrome","138.0.0.0","Windows","10.0","https://app.prolific.com/","en-US,en;q=0.9","664b3888f484550fe6d377bc","6877649eabb845cf142cd221","68931a394433361b63a84dc1","1","664b3888f484550fe6d377bc","1","","true","","","","","","","","","","","","","","","","","","","","","","","","","","","","","","","","","","","","","","","","",""
"1041","1754471021102"," <p style='font-size:1.1em;line-height:1.25'>Thank you for closing all other tabs.</p><p style='font-size:1.1em;line-height:1.25'>We will now invite you to fill in some questionnaires, before starting the game.<br>This will take about 5 minutes.<br></p><p style='font-size:1.1em;line-height:1.25'>Press the <strong>Next</strong> button to continue.</p>","0","custom-html-button-response","2","5680","0.0-2.0","154","1","2025-08-06 09:03:31","36c45c0696341be0efffe67d72a12abb","223.230.55.133","Mozilla/5.0 (Windows NT 10.0; Win64; x64) AppleWebKit/537.36 (KHTML, like Gecko) Chrome/138.0.0.0 Safari/537.36","WebKit","Chrome","138.0.0.0","Windows","10.0","https://app.prolific.com/","en-US,en;q=0.9","664b3888f484550fe6d377bc","6877649eabb845cf142cd221","68931a394433361b63a84dc1","1","664b3888f484550fe6d377bc","1","2025-08-06T09:03:41.103Z","","","","","","","","","","","","","","","","","","","","","","","","","","","","","","","","","","","","","","","","","",""
"1927","","","{""assigned_sex"":""female""}","survey-multi-choice","3","7608","0.0-3.0-0.0","154","1","2025-08-06 09:03:31","36c45c0696341be0efffe67d72a12abb","223.230.55.133","Mozilla/5.0 (Windows NT 10.0; Win64; x64) AppleWebKit/537.36 (KHTML, like Gecko) Chrome/138.0.0.0 Safari/537.36","WebKit","Chrome","138.0.0.0","Windows","10.0","https://app.prolific.com/","en-US,en;q=0.9","664b3888f484550fe6d377bc","6877649eabb845cf142cd221","68931a394433361b63a84dc1","1","664b3888f484550fe6d377bc","1","","","[0]","0","demographics","","","","","","","","","","","","","","","","","","","","","","","","","","","","","","","","","","","","","",""
"789","1754471023821","<p style='font-size:1.1em;line-height:1.25'>In the following, we will perform a baseline assessment. This means that we will ask you a few questions relating to your experiences over the past month.<br></p><p style='font-size:1.1em;line-height:1.25'>Press the <strong>Next</strong> button to continue.</p>","0","custom-html-button-response","4","8399","0.0-4.0-0.0","154","1","2025-08-06 09:03:31","36c45c0696341be0efffe67d72a12abb","223.230.55.133","Mozilla/5.0 (Windows NT 10.0; Win64; x64) AppleWebKit/537.36 (KHTML, like Gecko) Chrome/138.0.0.0 Safari/537.36","WebKit","Chrome","138.0.0.0","Windows","10.0","https://app.prolific.com/","en-US,en;q=0.9","664b3888f484550fe6d377bc","6877649eabb845cf142cd221","68931a394433361b63a84dc1","1","664b3888f484550fe6d377bc","1","2025-08-06T09:03:43.822Z","","","","","","","","","","","","","","","","","","","","","","","","","","","","","","","","","","","","","","","","","",""
"38529.699999928474","","","","survey-template","5","46931","0.0-4.0-1.0","154","1","2025-08-06 09:03:31","36c45c0696341be0efffe67d72a12abb","223.230.55.133","Mozilla/5.0 (Windows NT 10.0; Win64; x64) AppleWebKit/537.36 (KHTML, like Gecko) Chrome/138.0.0.0 Safari/537.36","WebKit","Chrome","138.0.0.0","Windows","10.0","https://app.prolific.com/","en-US,en;q=0.9","664b3888f484550fe6d377bc","6877649eabb845cf142cd221","68931a394433361b63a84dc1","1","664b3888f484550fe6d377bc","1","2025-08-06T09:04:22.354Z","","","","pss","{""Q01"":""2"",""Q02"":""3"",""Q03"":""3"",""Q04"":""1"",""Q05"":""1"",""Q06"":""2"",""Q07"":""2"",""Q08"":""3"",""Q09"":""3"",""Q10"":""3""}","[0,1,2,3,4,5,6,7,8,9]","[""Q01"",""Q01"",""Q02"",""Q03"",""Q04"",""Q05"",""Q06"",""Q07"",""Q08"",""Q09"",""Q10""]","[6510.099999904633,8838.099999904633,13246.099999904633,15854.299999952316,17966.199999928474,21078.199999928474,23334.399999976158,25198.199999928474,29293.599999904633,34141.5,37902.09999990463]","[]","[0.09999990463256836,3422.0999999046326,6510.099999904633,8838.099999904633,13246.099999904633,15854.299999952316,17966.199999928474,19862.199999928474,21078.199999928474,21909.899999976158,23334.399999976158,25198.199999928474,28173.799999952316,29293.599999904633,34141.5,37902.09999990463,38526.09999990463]","0.6","0.3333333333333333","0","","","","","","","","","","","","","","","","","","","","","","","","","","","","",""
"6122","1754471068477","<p style='font-size:1.1em;line-height:1.25'>Thank you for your answers! Now we will ask you a few more questions relating to your feelings in the last 24 hours.<br></p><p style='font-size:1.1em;line-height:1.25'>Press the <strong>Next</strong> button to continue.</p>","0","custom-html-button-response","6","53054","0.0-4.0-2.0","154","1","2025-08-06 09:03:31","36c45c0696341be0efffe67d72a12abb","223.230.55.133","Mozilla/5.0 (Windows NT 10.0; Win64; x64) AppleWebKit/537.36 (KHTML, like Gecko) Chrome/138.0.0.0 Safari/537.36","WebKit","Chrome","138.0.0.0","Windows","10.0","https://app.prolific.com/","en-US,en;q=0.9","664b3888f484550fe6d377bc","6877649eabb845cf142cd221","68931a394433361b63a84dc1","1","664b3888f484550fe6d377bc","1","2025-08-06T09:04:28.478Z","","","","","","","","","","","","","","","","","","","","","","","","","","","","","","","","","","","","","","","","","",""
"41909.199999928474","","","","survey-template","7","94967","0.0-4.0-3.0","154","1","2025-08-06 09:03:31","36c45c0696341be0efffe67d72a12abb","223.230.55.133","Mozilla/5.0 (Windows NT 10.0; Win64; x64) AppleWebKit/537.36 (KHTML, like Gecko) Chrome/138.0.0.0 Safari/537.36","WebKit","Chrome","138.0.0.0","Windows","10.0","https://app.prolific.com/","en-US,en;q=0.9","664b3888f484550fe6d377bc","6877649eabb845cf142cd221","68931a394433361b63a84dc1","1","664b3888f484550fe6d377bc","1","2025-08-06T09:05:10.390Z","","","","drsp","{""Q01"":""3"",""Q02"":""3"",""Q03"":""2"",""Q04"":""3"",""Q05"":""4"",""Q06"":""3"",""Q07"":""2"",""Q08"":""3"",""Q09"":""3"",""Q10"":""3"",""Q11"":""2"",""Q12"":""2"",""Q13"":""5"",""Q14"":""2"",""Q15"":""3"",""Q16"":""3"",""Q17"":""2"",""Q18"":""2"",""Q19"":""0"",""Q20"":""1"",""Q21"":""1"",""Q22"":""2""}","[0,1,2,3,4,5,6,7,8,9,10,11,12,13,14,15,16,17,18,19,20,21]","[""Q01"",""Q02"",""Q03"",""Q04"",""Q05"",""Q06"",""Q07"",""Q08"",""Q10"",""Q09"",""Q11"",""Q12"",""Q13"",""Q14"",""Q15"",""Q16"",""Q17"",""Q18"",""Q19"",""Q20"",""Q21"",""Q22""]","[6142.100000023842,6998.199999928474,7936.899999976158,9661.899999976158,10997.600000023842,11630.299999952316,12774.100000023842,14062.100000023842,15590.199999928474,17413.600000023842,21525.899999976158,22662.199999928474,23918.600000023842,25710.399999976158,26741.899999976158,27822.199999928474,29054.199999928474,31509.600000023842,35189.5,38542.39999997616,39525.60000002384,40998.699999928474]","[]","[0,6142.100000023842,6998.199999928474,7936.899999976158,9287.600000023842,9661.899999976158,10646.399999976158,10997.600000023842,11630.299999952316,12327.299999952316,12774.100000023842,14062.100000023842,14870.100000023842,15590.199999928474,16166.399999976158,17413.600000023842,21525.899999976158,22662.199999928474,23918.600000023842,25710.399999976158,26741.899999976158,27822.199999928474,29054.199999928474,29622.100000023842,29934,31509.600000023842,33446.199999928474,35189.5,38542.39999997616,39525.60000002384,40998.699999928474,41902.799999952316]","0.4090909090909091","0.5238095238095238","0","","","","","","","","","","","","","","","","","","","","","","","","","","","","",""
"9438.200000047684","","","","survey-template","8","104407","0.0-4.0-4.0","154","1","2025-08-06 09:03:31","36c45c0696341be0efffe67d72a12abb","223.230.55.133","Mozilla/5.0 (Windows NT 10.0; Win64; x64) AppleWebKit/537.36 (KHTML, like Gecko) Chrome/138.0.0.0 Safari/537.36","WebKit","Chrome","138.0.0.0","Windows","10.0","https://app.prolific.com/","en-US,en;q=0.9","664b3888f484550fe6d377bc","6877649eabb845cf142cd221","68931a394433361b63a84dc1","1","664b3888f484550fe6d377bc","1","2025-08-06T09:05:19.830Z","","","","stress","{""Q01"":""2"",""Q02"":""3"",""Q03"":""2""}","[0,1,2]","[""Q01"",""Q02"",""Q03""]","[5661.100000023842,7693.200000047684,8533.799999952316]","[]","[3781.399999976158,5661.100000023842,6509.5,7693.200000047684,8533.799999952316,9437.299999952316]","1","0","0","","","","","","","","","","","","","","","","","","","","","","","","","","","","",""
"6134","","","","instructions","9","110542","0.0-5.0-0.0","154","1","2025-08-06 09:03:31","36c45c0696341be0efffe67d72a12abb","223.230.55.133","Mozilla/5.0 (Windows NT 10.0; Win64; x64) AppleWebKit/537.36 (KHTML, like Gecko) Chrome/138.0.0.0 Safari/537.36","WebKit","Chrome","138.0.0.0","Windows","10.0","https://app.prolific.com/","en-US,en;q=0.9","664b3888f484550fe6d377bc","6877649eabb845cf142cd221","68931a394433361b63a84dc1","1","664b3888f484550fe6d377bc","1","","","","","","","","","","","","","","","[{""page_index"":0,""viewing_time"":6134}]","","","","","","","","","","","","","","","","","","","","","","","","","","","",""
"2542","","<p>Before you start with this game please answer the following three questions yourself. </p>
  <p>Through this game, we measure several aspects of your cognitive performance, such as reaction times, multi-tasking capabilities </p>
  <p>and the ability to assess the situation you are in.</p>
  <p></p>
  <p><b>How good do you usually are in such tasks?</b></p>","74","html-slider-response","10","113086","0.0-6.0-0.0","154","1","2025-08-06 09:03:31","36c45c0696341be0efffe67d72a12abb","223.230.55.133","Mozilla/5.0 (Windows NT 10.0; Win64; x64) AppleWebKit/537.36 (KHTML, like Gecko) Chrome/138.0.0.0 Safari/537.36","WebKit","Chrome","138.0.0.0","Windows","10.0","https://app.prolific.com/","en-US,en;q=0.9","664b3888f484550fe6d377bc","6877649eabb845cf142cd221","68931a394433361b63a84dc1","1","664b3888f484550fe6d377bc","1","2025-08-06T09:05:28.510Z","","","","PreSkillQ","","","","","","","","","","","50","","","","","","","","","","","","","","","","","","","","","","","","","","",""
"1975","","<div style=""width:500px;"">
  <p>How well do you think you will perform in this task compared to other participants?</p>
  </div>","70","html-slider-response","11","115062","0.0-6.0-1.0","154","1","2025-08-06 09:03:31","36c45c0696341be0efffe67d72a12abb","223.230.55.133","Mozilla/5.0 (Windows NT 10.0; Win64; x64) AppleWebKit/537.36 (KHTML, like Gecko) Chrome/138.0.0.0 Safari/537.36","WebKit","Chrome","138.0.0.0","Windows","10.0","https://app.prolific.com/","en-US,en;q=0.9","664b3888f484550fe6d377bc","6877649eabb845cf142cd221","68931a394433361b63a84dc1","1","664b3888f484550fe6d377bc","1","2025-08-06T09:05:30.485Z","","","","PrePerfQ","","","","","","","","","","","50","","","","","","","","","","","","","","","","","","","","","","","","","","",""
"1783","","<div style=""width:500px;"">
  <p>What best describes how you currently feel?</p>
  </div>","67","html-slider-response","12","116846","0.0-6.0-2.0","154","1","2025-08-06 09:03:31","36c45c0696341be0efffe67d72a12abb","223.230.55.133","Mozilla/5.0 (Windows NT 10.0; Win64; x64) AppleWebKit/537.36 (KHTML, like Gecko) Chrome/138.0.0.0 Safari/537.36","WebKit","Chrome","138.0.0.0","Windows","10.0","https://app.prolific.com/","en-US,en;q=0.9","664b3888f484550fe6d377bc","6877649eabb845cf142cd221","68931a394433361b63a84dc1","1","664b3888f484550fe6d377bc","1","2025-08-06T09:05:32.269Z","","","","PreMotivationQ","","","","","","","","","","","50","","","","","","","","","","","","","","","","","","","","","","","","","","",""
"","","","","ctl-task-cpt","13","140796","0.0-7.0-0.0","154","1","2025-08-06 09:03:31","36c45c0696341be0efffe67d72a12abb","223.230.55.133","Mozilla/5.0 (Windows NT 10.0; Win64; x64) AppleWebKit/537.36 (KHTML, like Gecko) Chrome/138.0.0.0 Safari/537.36","WebKit","Chrome","138.0.0.0","Windows","10.0","https://app.prolific.com/","en-US,en;q=0.9","664b3888f484550fe6d377bc","6877649eabb845cf142cd221","68931a394433361b63a84dc1","1","664b3888f484550fe6d377bc","1","2025-08-06T09:05:56.219Z","","","","","","","","","","","","","","","","win-only","3","g1:SW,g2:NE","1","1","0","120994.6","1366.3","6367.6","20944.9","1","4","8","6","2","8","8","8","0","0.06060606060606061","849.9","3000","1430","[""up"",""right""]","{""num_key_presses"":6,""num_perfect"":6,""num_errors"":0,""num_randdir"":0,""num_randdir_good_moves"":0,""num_whilered"":0,""num_whileblue"":0,""num_blue"":0,""num_good_moves"":6}","[414.0714133126395,411.57142761775424,0.3,414.0714133126395,411.57142761775424,109.2,414.0714133126395,411.57142761775424,209.7,514.0714133126395,320.32142761775424,314.3,675.3214133126395,197.82142761775424,421.1,701.5714133126395,161.57142761775424,523,704.0714133126395,151.57142761775424,629.6,739.0714133126395,127.82142761775425,738.3,742.8214133126395,127.82142761775425,840.1,742.8214133126395,127.82142761775425,940.4,742.8214133126395,127.82142761775425,1044.8,742.8214133126395,127.82142761775425,1147.9,742.8214133126395,127.82142761775425,1249.1,742.8214133126395,127.82142761775425,1349.1,742.8214133126395,127.82142761775425,1456.4,742.8214133126395,127.82142761775425,1557.6,742.8214133126395,127.82142761775425,1658,742.8214133126395,127.82142761775425,1760.3,742.8214133126395,127.82142761775425,1867.7,742.8214133126395,127.82142761775425,1973.1,742.8214133126395,127.82142761775425,2076.2,742.8214133126395,127.82142761775425,2179.1,742.8214133126395,127.82142761775425,2286,742.8214133126395,127.82142761775425,2394.1,742.8214133126395,127.82142761775425,2494.1,742.8214133126395,127.82142761775425,2594.4,742.8214133126395,127.82142761775425,2694.5,742.8214133126395,127.82142761775425,2801.2,742.8214133126395,127.82142761775425,2905,742.8214133126395,127.82142761775425,3009.6,742.8214133126395,127.82142761775425,3115.3,742.8214133126395,127.82142761775425,3215.5,742.8214133126395,127.82142761775425,3319.5,742.8214133126395,127.82142761775425,3427.6,742.8214133126395,127.82142761775425,3534.2,742.8214133126395,127.82142761775425,3635.6,742.8214133126395,127.82142761775425,3741.1,742.8214133126395,127.82142761775425,3846.1,742.8214133126395,127.82142761775425,3951.2,742.8214133126395,127.82142761775425,4051.7,742.8214133126395,127.82142761775425,4159,742.8214133126395,127.82142761775425,4261,742.8214133126395,127.82142761775425,4361.2,742.8214133126395,127.82142761775425,4469.7,742.8214133126395,127.82142761775425,4576,742.8214133126395,127.82142761775425,4683.5,742.8214133126395,127.82142761775425,4789.8,742.8214133126395,127.82142761775425,4890.2,742.8214133126395,127.82142761775425,4993.5]","[1369.6,1369.5,1000,0.1,369.5,""smooth"",""up"",""up"",""good_move"",3903.7,2533.7,2186.6,1370,347.1,""smooth"",""up"",""up"",""good_move"",6926,3021.8,2678.9,3904.2,342.9,""smooth"",""right"",""right"",""good_move"",9877.5,2950.9,2634.3,6926.6,316.6,""smooth"",""right"",""right"",""good_move"",12268.3,2390.5,2063,9877.8,327.5,""smooth"",""up"",""up"",""good_move"",14465.2,2196.7,1861.6,12268.5,335.1,""smooth"",""right"",""right"",""good_move""]"
"3098","","<div style=""width:500px;"">
  <p>What determined the result of this run?</p>
  </div>","99","html-slider-response","14","143895","0.0-7.0-1.0","154","1","2025-08-06 09:03:31","36c45c0696341be0efffe67d72a12abb","223.230.55.133","Mozilla/5.0 (Windows NT 10.0; Win64; x64) AppleWebKit/537.36 (KHTML, like Gecko) Chrome/138.0.0.0 Safari/537.36","WebKit","Chrome","138.0.0.0","Windows","10.0","https://app.prolific.com/","en-US,en;q=0.9","664b3888f484550fe6d377bc","6877649eabb845cf142cd221","68931a394433361b63a84dc1","1","664b3888f484550fe6d377bc","1","2025-08-06T09:05:59.318Z","","","","AttribQ","","","","","","","","","","","50","","","","","","","","","","","","","","","","","","","","","","","","","","",""
"1503","","<div style=""width:500px;"">
  <p>How much control did you have over the ball?</p>
  </div>","100","html-slider-response","15","145399","0.0-7.0-2.0","154","1","2025-08-06 09:03:31","36c45c0696341be0efffe67d72a12abb","223.230.55.133","Mozilla/5.0 (Windows NT 10.0; Win64; x64) AppleWebKit/537.36 (KHTML, like Gecko) Chrome/138.0.0.0 Safari/537.36","WebKit","Chrome","138.0.0.0","Windows","10.0","https://app.prolific.com/","en-US,en;q=0.9","664b3888f484550fe6d377bc","6877649eabb845cf142cd221","68931a394433361b63a84dc1","1","664b3888f484550fe6d377bc","1","2025-08-06T09:06:00.822Z","","","","ControlQ","","","","","","","","","","","50","","","","","","","","","","","","","","","","","","","","","","","","","","",""
"2542","","<div style=""width:500px;"">
  <p>How would you describe your current emotional state?</p>
  </div>","9","html-slider-response","16","147942","0.0-7.0-3.0","154","1","2025-08-06 09:03:31","36c45c0696341be0efffe67d72a12abb","223.230.55.133","Mozilla/5.0 (Windows NT 10.0; Win64; x64) AppleWebKit/537.36 (KHTML, like Gecko) Chrome/138.0.0.0 Safari/537.36","WebKit","Chrome","138.0.0.0","Windows","10.0","https://app.prolific.com/","en-US,en;q=0.9","664b3888f484550fe6d377bc","6877649eabb845cf142cd221","68931a394433361b63a84dc1","1","664b3888f484550fe6d377bc","1","2025-08-06T09:06:03.365Z","","","","StressQ","","","","","","","","","","","50","","","","","","","","","","","","","","","","","","","","","","","","","","",""
"2607","","<div style=""width:500px;"">
  <p>What best describes how you currently feel?</p>
  </div>","69","html-slider-response","17","150550","0.0-7.0-4.0","154","1","2025-08-06 09:03:31","36c45c0696341be0efffe67d72a12abb","223.230.55.133","Mozilla/5.0 (Windows NT 10.0; Win64; x64) AppleWebKit/537.36 (KHTML, like Gecko) Chrome/138.0.0.0 Safari/537.36","WebKit","Chrome","138.0.0.0","Windows","10.0","https://app.prolific.com/","en-US,en;q=0.9","664b3888f484550fe6d377bc","6877649eabb845cf142cd221","68931a394433361b63a84dc1","1","664b3888f484550fe6d377bc","1","2025-08-06T09:06:05.973Z","","","","MotivationQ","","","","","","","","","","","50","","","","","","","","","","","","","","","","","","","","","","","","","","",""
"","","","","ctl-task-cpt","18","187190","0.0-7.0-0.1","154","1","2025-08-06 09:03:31","36c45c0696341be0efffe67d72a12abb","223.230.55.133","Mozilla/5.0 (Windows NT 10.0; Win64; x64) AppleWebKit/537.36 (KHTML, like Gecko) Chrome/138.0.0.0 Safari/537.36","WebKit","Chrome","138.0.0.0","Windows","10.0","https://app.prolific.com/","en-US,en;q=0.9","664b3888f484550fe6d377bc","6877649eabb845cf142cd221","68931a394433361b63a84dc1","1","664b3888f484550fe6d377bc","1","2025-08-06T09:06:42.613Z","","","","","","","","","","","","","","","","win-only","2","g1:SE,g2:NW","0.9","2","0","154698.4","1510.7","6518.2","33631.2","1","4","4","6","2","4","3","11","8","0.08333333333333333","663.8","3000","1145","[""left"",""up""]","{""num_key_presses"":7,""num_perfect"":5,""num_errors"":1,""num_randdir"":1,""num_randdir_good_moves"":1,""num_whilered"":0,""num_whileblue"":0,""num_blue"":3,""num_good_moves"":6}","[421.5714133126395,419.07142761775424,0.3,421.5714133126395,420.32142761775424,100.1,421.5714133126395,420.32142761775424,202.4,320.3214133126395,330.32142761775424,302.8,196.5714133126395,187.82142761775424,410.5,161.5714133126395,162.82142761775424,514.9,106.5714133126395,110.32142761775425,614.9,106.5714133126395,110.32142761775425,718.4,106.5714133126395,110.32142761775425,819.7,106.5714133126395,110.32142761775425,920.7,106.5714133126395,110.32142761775425,1028.7,106.5714133126395,110.32142761775425,1129.7,106.5714133126395,110.32142761775425,1230.1,106.5714133126395,110.32142761775425,1335.7,106.5714133126395,110.32142761775425,1443.9,106.5714133126395,110.32142761775425,1547.2,106.5714133126395,110.32142761775425,1647.3,106.5714133126395,110.32142761775425,1753,106.5714133126395,110.32142761775425,1856.9,106.5714133126395,110.32142761775425,1960.8,106.5714133126395,110.32142761775425,2065.5,106.5714133126395,110.32142761775425,2172.3,106.5714133126395,110.32142761775425,2276.3,106.5714133126395,110.32142761775425,2380.4,106.5714133126395,110.32142761775425,2480.5,106.5714133126395,110.32142761775425,2583,106.5714133126395,110.32142761775425,2683,106.5714133126395,110.32142761775425,2791.3,106.5714133126395,110.32142761775425,2898.8,106.5714133126395,110.32142761775425,3000.5,106.5714133126395,110.32142761775425,3105.4,106.5714133126395,110.32142761775425,3213.9,106.5714133126395,110.32142761775425,3313.9,106.5714133126395,110.32142761775425,3414.9,106.5714133126395,110.32142761775425,3515.7,106.5714133126395,110.32142761775425,3622.8,106.5714133126395,110.32142761775425,3725.2,106.5714133126395,110.32142761775425,3827.2,106.5714133126395,110.32142761775425,3930.1,106.5714133126395,110.32142761775425,4037.4,106.5714133126395,110.32142761775425,4138.7,106.5714133126395,110.32142761775425,4241,106.5714133126395,110.32142761775425,4342.7,106.5714133126395,110.32142761775425,4447.1,106.5714133126395,110.32142761775425,4554.4,106.5714133126395,110.32142761775425,4655.5,106.5714133126395,110.32142761775425,4757.9,106.5714133126395,110.32142761775425,4859.6,106.5714133126395,110.32142761775425,4960.6]","[1350.3,1350.3,1000,0,350.3,""smooth"",""left"",""left"",""good_move"",1430.5,79.8,3288.4,1350.7,-3208.6,""error"",""-"",""-"",""no_move"",5763.5,4332.8,3003.8,2435,324.7,""oops"",""up"",""left"",""good_move"",8929.3,3164.9,2816.6,5764.4,348.3,""smooth"",""up"",""up"",""good_move"",11780.5,2850.9,2510.1,8929.6,340.8,""smooth"",""up"",""up"",""good_move"",24025.8,12245.1,1780.8,21748.5,496.5,""smooth"",""up"",""up"",""good_move"",26997,2970.9,2591.6,24026.1,379.3,""smooth"",""left"",""left"",""good_move""]"
"2264","","<div style=""width:500px;"">
  <p>What determined the result of this run?</p>
  </div>","76","html-slider-response","19","189455","0.0-7.0-1.1","154","1","2025-08-06 09:03:31","36c45c0696341be0efffe67d72a12abb","223.230.55.133","Mozilla/5.0 (Windows NT 10.0; Win64; x64) AppleWebKit/537.36 (KHTML, like Gecko) Chrome/138.0.0.0 Safari/537.36","WebKit","Chrome","138.0.0.0","Windows","10.0","https://app.prolific.com/","en-US,en;q=0.9","664b3888f484550fe6d377bc","6877649eabb845cf142cd221","68931a394433361b63a84dc1","1","664b3888f484550fe6d377bc","1","2025-08-06T09:06:44.878Z","","","","AttribQ","","","","","","","","","","","50","","","","","","","","","","","","","","","","","","","","","","","","","","",""
"2477","","<div style=""width:500px;"">
  <p>How much control did you have over the ball?</p>
  </div>","72","html-slider-response","20","191934","0.0-7.0-2.1","154","1","2025-08-06 09:03:31","36c45c0696341be0efffe67d72a12abb","223.230.55.133","Mozilla/5.0 (Windows NT 10.0; Win64; x64) AppleWebKit/537.36 (KHTML, like Gecko) Chrome/138.0.0.0 Safari/537.36","WebKit","Chrome","138.0.0.0","Windows","10.0","https://app.prolific.com/","en-US,en;q=0.9","664b3888f484550fe6d377bc","6877649eabb845cf142cd221","68931a394433361b63a84dc1","1","664b3888f484550fe6d377bc","1","2025-08-06T09:06:47.357Z","","","","ControlQ","","","","","","","","","","","50","","","","","","","","","","","","","","","","","","","","","","","","","","",""
"2232","","<div style=""width:500px;"">
  <p>How would you describe your current emotional state?</p>
  </div>","19","html-slider-response","21","194167","0.0-7.0-3.1","154","1","2025-08-06 09:03:31","36c45c0696341be0efffe67d72a12abb","223.230.55.133","Mozilla/5.0 (Windows NT 10.0; Win64; x64) AppleWebKit/537.36 (KHTML, like Gecko) Chrome/138.0.0.0 Safari/537.36","WebKit","Chrome","138.0.0.0","Windows","10.0","https://app.prolific.com/","en-US,en;q=0.9","664b3888f484550fe6d377bc","6877649eabb845cf142cd221","68931a394433361b63a84dc1","1","664b3888f484550fe6d377bc","1","2025-08-06T09:06:49.590Z","","","","StressQ","","","","","","","","","","","50","","","","","","","","","","","","","","","","","","","","","","","","","","",""
"1918","","<div style=""width:500px;"">
  <p>What best describes how you currently feel?</p>
  </div>","77","html-slider-response","22","196086","0.0-7.0-4.1","154","1","2025-08-06 09:03:31","36c45c0696341be0efffe67d72a12abb","223.230.55.133","Mozilla/5.0 (Windows NT 10.0; Win64; x64) AppleWebKit/537.36 (KHTML, like Gecko) Chrome/138.0.0.0 Safari/537.36","WebKit","Chrome","138.0.0.0","Windows","10.0","https://app.prolific.com/","en-US,en;q=0.9","664b3888f484550fe6d377bc","6877649eabb845cf142cd221","68931a394433361b63a84dc1","1","664b3888f484550fe6d377bc","1","2025-08-06T09:06:51.509Z","","","","MotivationQ","","","","","","","","","","","50","","","","","","","","","","","","","","","","","","","","","","","","","","",""
"","","","","ctl-task-cpt","23","235972","0.0-7.0-0.2","154","1","2025-08-06 09:03:31","36c45c0696341be0efffe67d72a12abb","223.230.55.133","Mozilla/5.0 (Windows NT 10.0; Win64; x64) AppleWebKit/537.36 (KHTML, like Gecko) Chrome/138.0.0.0 Safari/537.36","WebKit","Chrome","138.0.0.0","Windows","10.0","https://app.prolific.com/","en-US,en;q=0.9","664b3888f484550fe6d377bc","6877649eabb845cf142cd221","68931a394433361b63a84dc1","1","664b3888f484550fe6d377bc","1","2025-08-06T09:07:31.395Z","","","","","","","","","","","","","","","","win-only","2","g1:SE,g2:NW","0.8","3","0","200235.4","2182.3","7183.2","36876.3","1","4","4","6","2","4","3","14","11","0.10606060606060606","703.2","3000","130","[""left"",""up""]","{""num_key_presses"":11,""num_perfect"":8,""num_errors"":1,""num_randdir"":2,""num_randdir_good_moves"":0,""num_whilered"":0,""num_whileblue"":0,""num_blue"":0,""num_good_moves"":8}","[411.5714133126395,421.57142761775424,0.3,411.5714133126395,421.57142761775424,100,399.0714133126395,406.57142761775424,208.2,139.0714133126395,301.57142761775424,314.3,81.5714133126395,269.07142761775424,418.2,95.3214133126395,194.07142761775424,525.6,104.0714133126395,131.57142761775424,628.4,104.0714133126395,131.57142761775424,728.8,104.0714133126395,131.57142761775424,833.6,104.0714133126395,131.57142761775424,943.4,104.0714133126395,131.57142761775424,1043.4,126.5714133126395,131.57142761775424,1150.5,126.5714133126395,132.82142761775424,1260,126.5714133126395,132.82142761775424,1367.5,126.5714133126395,132.82142761775424,1474.9,126.5714133126395,132.82142761775424,1579.6,126.5714133126395,132.82142761775424,1686.7,126.5714133126395,132.82142761775424,1792.6,126.5714133126395,132.82142761775424,1894.2,126.5714133126395,132.82142761775424,1995.6,126.5714133126395,132.82142761775424,2095.7,126.5714133126395,132.82142761775424,2204.9,126.5714133126395,132.82142761775424,2310.4,126.5714133126395,132.82142761775424,2413.3,126.5714133126395,132.82142761775424,2515.9,126.5714133126395,132.82142761775424,2616.3,126.5714133126395,132.82142761775424,2723,126.5714133126395,132.82142761775424,2825.7,126.5714133126395,132.82142761775424,2930.9,126.5714133126395,132.82142761775424,3030.9,126.5714133126395,132.82142761775424,3138.2,126.5714133126395,132.82142761775424,3243.7,126.5714133126395,132.82142761775424,3343.8,126.5714133126395,132.82142761775424,3451,126.5714133126395,132.82142761775424,3555,126.5714133126395,132.82142761775424,3658.5,126.5714133126395,132.82142761775424,3758.6,126.5714133126395,132.82142761775424,3859,126.5714133126395,132.82142761775424,3963.2,126.5714133126395,132.82142761775424,4070,126.5714133126395,132.82142761775424,4173.3,126.5714133126395,132.82142761775424,4273.8,126.5714133126395,132.82142761775424,4374.5,126.5714133126395,132.82142761775424,4478.5,126.5714133126395,132.82142761775424,4579,126.5714133126395,132.82142761775424,4687.4,126.5714133126395,132.82142761775424,4788,126.5714133126395,132.82142761775424,4890.1]","[1382.1,1382.1,1000,0,382.1,""smooth"",""up"",""up"",""good_move"",4190.1,2807.7,2415.1,1382.4,392.6,""smooth"",""left"",""left"",""good_move"",6988.8,2798.3,2394.2,4190.5,404.2,""oops"",""up"",""right"",""bad_move"",10324.7,3335.5,2925.8,6989.2,409.8,""smooth"",""up"",""up"",""good_move"",12826.6,2501.4,2177.9,10325.2,323.5,""smooth"",""left"",""left"",""good_move"",15776,2949.1,2639.4,12826.9,309.7,""smooth"",""left"",""left"",""good_move"",18451.7,2675.5,2253.6,15776.2,421.9,""oops"",""up"",""right"",""bad_move"",21116.9,2665,2326.8,18451.9,338.2,""smooth"",""left"",""left"",""good_move"",23685.6,2568.5,2252.9,21117.1,315.6,""smooth"",""up"",""up"",""good_move"",25916.7,2230.9,2421.9,23685.8,-191,""error"",""-"",""-"",""no_move"",29580.4,3663.2,2329.3,26919.5,331.6,""smooth"",""left"",""left"",""good_move""]"
"2146","","<div style=""width:500px;"">
  <p>What determined the result of this run?</p>
  </div>","61","html-slider-response","24","238119","0.0-7.0-1.2","154","1","2025-08-06 09:03:31","36c45c0696341be0efffe67d72a12abb","223.230.55.133","Mozilla/5.0 (Windows NT 10.0; Win64; x64) AppleWebKit/537.36 (KHTML, like Gecko) Chrome/138.0.0.0 Safari/537.36","WebKit","Chrome","138.0.0.0","Windows","10.0","https://app.prolific.com/","en-US,en;q=0.9","664b3888f484550fe6d377bc","6877649eabb845cf142cd221","68931a394433361b63a84dc1","1","664b3888f484550fe6d377bc","1","2025-08-06T09:07:33.542Z","","","","AttribQ","","","","","","","","","","","50","","","","","","","","","","","","","","","","","","","","","","","","","","",""
"3311","","<div style=""width:500px;"">
  <p>How much control did you have over the ball?</p>
  </div>","68","html-slider-response","25","241431","0.0-7.0-2.2","154","1","2025-08-06 09:03:31","36c45c0696341be0efffe67d72a12abb","223.230.55.133","Mozilla/5.0 (Windows NT 10.0; Win64; x64) AppleWebKit/537.36 (KHTML, like Gecko) Chrome/138.0.0.0 Safari/537.36","WebKit","Chrome","138.0.0.0","Windows","10.0","https://app.prolific.com/","en-US,en;q=0.9","664b3888f484550fe6d377bc","6877649eabb845cf142cd221","68931a394433361b63a84dc1","1","664b3888f484550fe6d377bc","1","2025-08-06T09:07:36.854Z","","","","ControlQ","","","","","","","","","","","50","","","","","","","","","","","","","","","","","","","","","","","","","","",""
"2414","","<div style=""width:500px;"">
  <p>How would you describe your current emotional state?</p>
  </div>","27","html-slider-response","26","243846","0.0-7.0-3.2","154","1","2025-08-06 09:03:31","36c45c0696341be0efffe67d72a12abb","223.230.55.133","Mozilla/5.0 (Windows NT 10.0; Win64; x64) AppleWebKit/537.36 (KHTML, like Gecko) Chrome/138.0.0.0 Safari/537.36","WebKit","Chrome","138.0.0.0","Windows","10.0","https://app.prolific.com/","en-US,en;q=0.9","664b3888f484550fe6d377bc","6877649eabb845cf142cd221","68931a394433361b63a84dc1","1","664b3888f484550fe6d377bc","1","2025-08-06T09:07:39.270Z","","","","StressQ","","","","","","","","","","","50","","","","","","","","","","","","","","","","","","","","","","","","","","",""
"1966","","<div style=""width:500px;"">
  <p>What best describes how you currently feel?</p>
  </div>","69","html-slider-response","27","245814","0.0-7.0-4.2","154","1","2025-08-06 09:03:31","36c45c0696341be0efffe67d72a12abb","223.230.55.133","Mozilla/5.0 (Windows NT 10.0; Win64; x64) AppleWebKit/537.36 (KHTML, like Gecko) Chrome/138.0.0.0 Safari/537.36","WebKit","Chrome","138.0.0.0","Windows","10.0","https://app.prolific.com/","en-US,en;q=0.9","664b3888f484550fe6d377bc","6877649eabb845cf142cd221","68931a394433361b63a84dc1","1","664b3888f484550fe6d377bc","1","2025-08-06T09:07:41.237Z","","","","MotivationQ","","","","","","","","","","","50","","","","","","","","","","","","","","","","","","","","","","","","","","",""
"","","","","ctl-task-cpt","28","276946","0.0-7.0-0.3","154","1","2025-08-06 09:03:31","36c45c0696341be0efffe67d72a12abb","223.230.55.133","Mozilla/5.0 (Windows NT 10.0; Win64; x64) AppleWebKit/537.36 (KHTML, like Gecko) Chrome/138.0.0.0 Safari/537.36","WebKit","Chrome","138.0.0.0","Windows","10.0","https://app.prolific.com/","en-US,en;q=0.9","664b3888f484550fe6d377bc","6877649eabb845cf142cd221","68931a394433361b63a84dc1","1","664b3888f484550fe6d377bc","1","2025-08-06T09:08:12.369Z","","","","","","","","","","","","","","","","win-only","0","g1:NW,g2:SE","0.7","4","0","249964.1","796.7","5803.4","28110.1","1","4","8","6","2","8","8","22","14","0.16666666666666666","1887.9","3000","970","[""down"",""right""]","{""num_key_presses"":8,""num_perfect"":6,""num_errors"":0,""num_randdir"":2,""num_randdir_good_moves"":1,""num_whilered"":0,""num_whileblue"":0,""num_blue"":0,""num_good_moves"":7}","[425.3214133126395,419.07142761775424,0.5,425.3214133126395,422.82142761775424,109.3,506.5714133126395,516.5714276177542,214.3,691.5714133126395,706.5714276177542,321.7,807.8214133126395,811.5714276177542,423.3,636.5714133126395,710.3214276177542,525.8,461.5714133126395,506.57142761775424,629.6,250.3214133126395,321.57142761775424,734.6,250.3214133126395,321.57142761775424,835.4,296.5714133126395,351.57142761775424,939.3,306.5714133126395,374.07142761775424,1039.9,306.5714133126395,381.57142761775424,1140,306.5714133126395,385.32142761775424,1241.3,365.3214133126395,470.32142761775424,1346,450.3214133126395,601.5714276177542,1451.5,557.8214133126395,657.8214276177542,1554.4,697.8214133126395,694.0714276177542,1655.3,755.3214133126395,727.8214276177542,1759.8,819.0714133126395,761.5714276177542,1866.8,819.0714133126395,761.5714276177542,1969.2,819.0714133126395,761.5714276177542,2073,819.0714133126395,761.5714276177542,2183.2,819.0714133126395,761.5714276177542,2284.8,819.0714133126395,761.5714276177542,2387.3,819.0714133126395,761.5714276177542,2489.9,819.0714133126395,761.5714276177542,2591,819.0714133126395,761.5714276177542,2701.9,819.0714133126395,761.5714276177542,2805.1,819.0714133126395,761.5714276177542,2908.8,819.0714133126395,761.5714276177542,3018.5,819.0714133126395,761.5714276177542,3121.3,819.0714133126395,761.5714276177542,3231.6,819.0714133126395,761.5714276177542,3331.8,819.0714133126395,761.5714276177542,3433.5,819.0714133126395,761.5714276177542,3535.5,819.0714133126395,761.5714276177542,3638.2,819.0714133126395,761.5714276177542,3742.9,819.0714133126395,761.5714276177542,3848.2,819.0714133126395,761.5714276177542,3949.2,819.0714133126395,761.5714276177542,4049.3,819.0714133126395,761.5714276177542,4155.4,819.0714133126395,761.5714276177542,4263.1,819.0714133126395,761.5714276177542,4365.4,819.0714133126395,761.5714276177542,4468.8,819.0714133126395,761.5714276177542,4571.1,819.0714133126395,761.5714276177542,4682,819.0714133126395,761.5714276177542,4783.1,819.0714133126395,761.5714276177542,4885.6,819.0714133126395,761.5714276177542,4985.8]","[1346.3,1346.3,1000,0,346.3,""smooth"",""right"",""right"",""good_move"",4206.1,2859.5,2521.4,1346.6,338.1,""smooth"",""down"",""down"",""good_move"",7722.5,3516,3190.2,4206.5,325.8,""smooth"",""down"",""down"",""good_move"",10681,2958.2,2629.2,7722.9,329,""smooth"",""right"",""right"",""good_move"",13499.1,2818,2513.9,10681.2,304.1,""smooth"",""down"",""down"",""good_move"",15993.2,2493.8,2179.7,13499.4,314.1,""oops"",""right"",""up"",""bad_move"",18768.6,2775,2435.6,15993.6,339.4,""oops"",""right"",""down"",""good_move"",22183,3414.2,3100.2,18768.8,314,""smooth"",""right"",""right"",""good_move""]"
"1908","","<div style=""width:500px;"">
  <p>What determined the result of this run?</p>
  </div>","75","html-slider-response","29","278854","0.0-7.0-1.3","154","1","2025-08-06 09:03:31","36c45c0696341be0efffe67d72a12abb","223.230.55.133","Mozilla/5.0 (Windows NT 10.0; Win64; x64) AppleWebKit/537.36 (KHTML, like Gecko) Chrome/138.0.0.0 Safari/537.36","WebKit","Chrome","138.0.0.0","Windows","10.0","https://app.prolific.com/","en-US,en;q=0.9","664b3888f484550fe6d377bc","6877649eabb845cf142cd221","68931a394433361b63a84dc1","1","664b3888f484550fe6d377bc","1","2025-08-06T09:08:14.277Z","","","","AttribQ","","","","","","","","","","","50","","","","","","","","","","","","","","","","","","","","","","","","","","",""
"1215","","<div style=""width:500px;"">
  <p>How much control did you have over the ball?</p>
  </div>","75","html-slider-response","30","280070","0.0-7.0-2.3","154","1","2025-08-06 09:03:31","36c45c0696341be0efffe67d72a12abb","223.230.55.133","Mozilla/5.0 (Windows NT 10.0; Win64; x64) AppleWebKit/537.36 (KHTML, like Gecko) Chrome/138.0.0.0 Safari/537.36","WebKit","Chrome","138.0.0.0","Windows","10.0","https://app.prolific.com/","en-US,en;q=0.9","664b3888f484550fe6d377bc","6877649eabb845cf142cd221","68931a394433361b63a84dc1","1","664b3888f484550fe6d377bc","1","2025-08-06T09:08:15.493Z","","","","ControlQ","","","","","","","","","","","50","","","","","","","","","","","","","","","","","","","","","","","","","","",""
"2287","","<div style=""width:500px;"">
  <p>How would you describe your current emotional state?</p>
  </div>","28","html-slider-response","31","282358","0.0-7.0-3.3","154","1","2025-08-06 09:03:31","36c45c0696341be0efffe67d72a12abb","223.230.55.133","Mozilla/5.0 (Windows NT 10.0; Win64; x64) AppleWebKit/537.36 (KHTML, like Gecko) Chrome/138.0.0.0 Safari/537.36","WebKit","Chrome","138.0.0.0","Windows","10.0","https://app.prolific.com/","en-US,en;q=0.9","664b3888f484550fe6d377bc","6877649eabb845cf142cd221","68931a394433361b63a84dc1","1","664b3888f484550fe6d377bc","1","2025-08-06T09:08:17.781Z","","","","StressQ","","","","","","","","","","","50","","","","","","","","","","","","","","","","","","","","","","","","","","",""
"1687","","<div style=""width:500px;"">
  <p>What best describes how you currently feel?</p>
  </div>","77","html-slider-response","32","284046","0.0-7.0-4.3","154","1","2025-08-06 09:03:31","36c45c0696341be0efffe67d72a12abb","223.230.55.133","Mozilla/5.0 (Windows NT 10.0; Win64; x64) AppleWebKit/537.36 (KHTML, like Gecko) Chrome/138.0.0.0 Safari/537.36","WebKit","Chrome","138.0.0.0","Windows","10.0","https://app.prolific.com/","en-US,en;q=0.9","664b3888f484550fe6d377bc","6877649eabb845cf142cd221","68931a394433361b63a84dc1","1","664b3888f484550fe6d377bc","1","2025-08-06T09:08:19.469Z","","","","MotivationQ","","","","","","","","","","","50","","","","","","","","","","","","","","","","","","","","","","","","","","",""
"","","","","ctl-task-cpt","33","302766","0.0-7.0-0.4","154","1","2025-08-06 09:03:31","36c45c0696341be0efffe67d72a12abb","223.230.55.133","Mozilla/5.0 (Windows NT 10.0; Win64; x64) AppleWebKit/537.36 (KHTML, like Gecko) Chrome/138.0.0.0 Safari/537.36","WebKit","Chrome","138.0.0.0","Windows","10.0","https://app.prolific.com/","en-US,en;q=0.9","664b3888f484550fe6d377bc","6877649eabb845cf142cd221","68931a394433361b63a84dc1","1","664b3888f484550fe6d377bc","1","2025-08-06T09:08:38.189Z","","","","","","","","","","","","","","","","win-only","1","g1:NE,g2:SW","0.6","5","0","288194.7","965.9","5966.7","15702.5","1","4","4","6","1","1","1","23","22","0.17424242424242425","1184.2","3000","1850","[""up"",""right""]","{""num_key_presses"":4,""num_perfect"":3,""num_errors"":0,""num_randdir"":1,""num_randdir_good_moves"":1,""num_whilered"":0,""num_whileblue"":0,""num_blue"":0,""num_good_moves"":4}","[412.8214133126395,425.32142761775424,0.2,412.8214133126395,425.32142761775424,105.1,412.8214133126395,425.32142761775424,205.5,454.0714133126395,397.82142761775424,316.5,245.3214133126395,467.82142761775424,417.7,96.5714133126395,734.0714276177542,518.1,116.5714133126395,741.5714276177542,621.6,665.3214133126395,419.07142761775424,732,846.5714133126395,236.57142761775424,832.1,846.5714133126395,204.07142761775424,938.8,777.8214133126395,102.82142761775425,1041.7,775.3214133126395,76.57142761775425,1147,775.3214133126395,76.57142761775425,1250.5,775.3214133126395,76.57142761775425,1354.9,775.3214133126395,76.57142761775425,1454.9,775.3214133126395,76.57142761775425,1554.9,775.3214133126395,76.57142761775425,1667.1,775.3214133126395,76.57142761775425,1769.8,775.3214133126395,76.57142761775425,1869.9,775.3214133126395,76.57142761775425,1971.9,775.3214133126395,76.57142761775425,2079.6,775.3214133126395,76.57142761775425,2187.4,775.3214133126395,76.57142761775425,2297.1,775.3214133126395,76.57142761775425,2398.9,775.3214133126395,76.57142761775425,2500,775.3214133126395,76.57142761775425,2605.3,775.3214133126395,76.57142761775425,2715.5,775.3214133126395,76.57142761775425,2819.7,775.3214133126395,76.57142761775425,2921.5,775.3214133126395,76.57142761775425,3029,775.3214133126395,76.57142761775425,3131.4,775.3214133126395,76.57142761775425,3234.2,775.3214133126395,76.57142761775425,3336,775.3214133126395,76.57142761775425,3447.1,775.3214133126395,76.57142761775425,3547.7,775.3214133126395,76.57142761775425,3649.8,775.3214133126395,76.57142761775425,3750.1,775.3214133126395,76.57142761775425,3864.2,775.3214133126395,76.57142761775425,3968.7,775.3214133126395,76.57142761775425,4072.3,775.3214133126395,76.57142761775425,4179.9,775.3214133126395,76.57142761775425,4281.4,775.3214133126395,76.57142761775425,4384.7,775.3214133126395,76.57142761775425,4496.6,775.3214133126395,76.57142761775425,4597.4,775.3214133126395,76.57142761775425,4697.7,775.3214133126395,76.57142761775425,4800.2,775.3214133126395,76.57142761775425,4900.6]","[1381.2,1381.2,1000,0,381.2,""smooth"",""up"",""up"",""good_move"",3772.7,2391,2044.6,1381.7,346.4,""smooth"",""up"",""up"",""good_move"",7174.3,3401.2,3029.2,3773.1,372,""smooth"",""right"",""right"",""good_move"",9613.6,2438.9,2058.3,7174.7,380.6,""oops"",""right"",""right"",""good_move""]"
"1984","","<div style=""width:500px;"">
  <p>What determined the result of this run?</p>
  </div>","84","html-slider-response","34","304751","0.0-7.0-1.4","154","1","2025-08-06 09:03:31","36c45c0696341be0efffe67d72a12abb","223.230.55.133","Mozilla/5.0 (Windows NT 10.0; Win64; x64) AppleWebKit/537.36 (KHTML, like Gecko) Chrome/138.0.0.0 Safari/537.36","WebKit","Chrome","138.0.0.0","Windows","10.0","https://app.prolific.com/","en-US,en;q=0.9","664b3888f484550fe6d377bc","6877649eabb845cf142cd221","68931a394433361b63a84dc1","1","664b3888f484550fe6d377bc","1","2025-08-06T09:08:40.175Z","","","","AttribQ","","","","","","","","","","","50","","","","","","","","","","","","","","","","","","","","","","","","","","",""
"1797","","<div style=""width:500px;"">
  <p>How much control did you have over the ball?</p>
  </div>","72","html-slider-response","35","306550","0.0-7.0-2.4","154","1","2025-08-06 09:03:31","36c45c0696341be0efffe67d72a12abb","223.230.55.133","Mozilla/5.0 (Windows NT 10.0; Win64; x64) AppleWebKit/537.36 (KHTML, like Gecko) Chrome/138.0.0.0 Safari/537.36","WebKit","Chrome","138.0.0.0","Windows","10.0","https://app.prolific.com/","en-US,en;q=0.9","664b3888f484550fe6d377bc","6877649eabb845cf142cd221","68931a394433361b63a84dc1","1","664b3888f484550fe6d377bc","1","2025-08-06T09:08:41.973Z","","","","ControlQ","","","","","","","","","","","50","","","","","","","","","","","","","","","","","","","","","","","","","","",""
"1871","","<div style=""width:500px;"">
  <p>How would you describe your current emotional state?</p>
  </div>","23","html-slider-response","36","308422","0.0-7.0-3.4","154","1","2025-08-06 09:03:31","36c45c0696341be0efffe67d72a12abb","223.230.55.133","Mozilla/5.0 (Windows NT 10.0; Win64; x64) AppleWebKit/537.36 (KHTML, like Gecko) Chrome/138.0.0.0 Safari/537.36","WebKit","Chrome","138.0.0.0","Windows","10.0","https://app.prolific.com/","en-US,en;q=0.9","664b3888f484550fe6d377bc","6877649eabb845cf142cd221","68931a394433361b63a84dc1","1","664b3888f484550fe6d377bc","1","2025-08-06T09:08:43.845Z","","","","StressQ","","","","","","","","","","","50","","","","","","","","","","","","","","","","","","","","","","","","","","",""
"2142","","<div style=""width:500px;"">
  <p>What best describes how you currently feel?</p>
  </div>","73","html-slider-response","37","310566","0.0-7.0-4.4","154","1","2025-08-06 09:03:31","36c45c0696341be0efffe67d72a12abb","223.230.55.133","Mozilla/5.0 (Windows NT 10.0; Win64; x64) AppleWebKit/537.36 (KHTML, like Gecko) Chrome/138.0.0.0 Safari/537.36","WebKit","Chrome","138.0.0.0","Windows","10.0","https://app.prolific.com/","en-US,en;q=0.9","664b3888f484550fe6d377bc","6877649eabb845cf142cd221","68931a394433361b63a84dc1","1","664b3888f484550fe6d377bc","1","2025-08-06T09:08:45.989Z","","","","MotivationQ","","","","","","","","","","","50","","","","","","","","","","","","","","","","","","","","","","","","","","",""
"","","","","ctl-task-cpt","38","340639","0.0-7.0-0.5","154","1","2025-08-06 09:03:31","36c45c0696341be0efffe67d72a12abb","223.230.55.133","Mozilla/5.0 (Windows NT 10.0; Win64; x64) AppleWebKit/537.36 (KHTML, like Gecko) Chrome/138.0.0.0 Safari/537.36","WebKit","Chrome","138.0.0.0","Windows","10.0","https://app.prolific.com/","en-US,en;q=0.9","664b3888f484550fe6d377bc","6877649eabb845cf142cd221","68931a394433361b63a84dc1","1","664b3888f484550fe6d377bc","1","2025-08-06T09:09:16.062Z","","","","","","","","","","","","","","","","win-only","3","g1:SW,g2:NE","0.5","6","0","314714.3","925.9","5936.6","27065.2","1","4","8","6","2","8","8","31","23","0.23484848484848486","800.2","3000","1060","[""up"",""right""]","{""num_key_presses"":8,""num_perfect"":4,""num_errors"":0,""num_randdir"":4,""num_randdir_good_moves"":3,""num_whilered"":0,""num_whileblue"":0,""num_blue"":0,""num_good_moves"":7}","[416.5714133126395,414.07142761775424,0.3,416.5714133126395,414.07142761775424,100.5,416.5714133126395,414.07142761775424,207.4,386.5714133126395,424.07142761775424,312.1,801.5714133126395,180.32142761775424,412.4,836.5714133126395,111.57142761775425,517.4,841.5714133126395,67.82142761775425,626.9,802.8214133126395,70.32142761775425,732.4,795.3214133126395,79.07142761775425,833.1,795.3214133126395,79.07142761775425,935.1,795.3214133126395,79.07142761775425,1036.8,795.3214133126395,79.07142761775425,1143.2,795.3214133126395,79.07142761775425,1244.7,795.3214133126395,79.07142761775425,1349.6,795.3214133126395,79.07142761775425,1449.7,795.3214133126395,79.07142761775425,1550.1,795.3214133126395,79.07142761775425,1650.3,795.3214133126395,79.07142761775425,1750.8,795.3214133126395,79.07142761775425,1850.9,795.3214133126395,79.07142761775425,1957,795.3214133126395,79.07142761775425,2064.1,795.3214133126395,79.07142761775425,2167.3,795.3214133126395,79.07142761775425,2271.7,795.3214133126395,79.07142761775425,2376.5,795.3214133126395,79.07142761775425,2482.2,795.3214133126395,79.07142761775425,2586.8,795.3214133126395,79.07142761775425,2695.5,795.3214133126395,79.07142761775425,2803.2,795.3214133126395,79.07142761775425,2911.3,795.3214133126395,79.07142761775425,3015,795.3214133126395,79.07142761775425,3127.8,795.3214133126395,79.07142761775425,3228.2,795.3214133126395,79.07142761775425,3331.5,795.3214133126395,79.07142761775425,3431.9,795.3214133126395,79.07142761775425,3543.4,795.3214133126395,79.07142761775425,3645.3,795.3214133126395,79.07142761775425,3752.5,795.3214133126395,79.07142761775425,3852.6,795.3214133126395,79.07142761775425,3959.9,795.3214133126395,79.07142761775425,4059.9,795.3214133126395,79.07142761775425,4163.1,795.3214133126395,79.07142761775425,4266.9,795.3214133126395,79.07142761775425,4375.1,795.3214133126395,79.07142761775425,4475.5,795.3214133126395,79.07142761775425,4582.2,795.3214133126395,79.07142761775425,4684.6,795.3214133126395,79.07142761775425,4794,795.3214133126395,79.07142761775425,4894,795.3214133126395,79.07142761775425,4997.5]","[1357.4,1357.4,1000,0,357.4,""smooth"",""up"",""up"",""good_move"",4513.7,3156,2855.6,1357.7,300.5,""smooth"",""right"",""right"",""good_move"",7215.1,2701,2348.1,4514.1,352.9,""smooth"",""up"",""up"",""good_move"",10777.5,3561.7,3279.2,7215.8,282.5,""oops"",""right"",""up"",""good_move"",13535.9,2758.2,2429.8,10777.7,328.4,""oops"",""right"",""right"",""good_move"",16131.8,2595.6,2269.6,13536.3,326,""oops"",""right"",""down"",""bad_move"",18694.6,2562.3,2230.6,16132.3,331.7,""oops"",""up"",""up"",""good_move"",21029.4,2334.6,2028.4,18694.9,306.2,""smooth"",""right"",""right"",""good_move""]"
"2342","","<div style=""width:500px;"">
  <p>What determined the result of this run?</p>
  </div>","76","html-slider-response","39","342981","0.0-7.0-1.5","154","1","2025-08-06 09:03:31","36c45c0696341be0efffe67d72a12abb","223.230.55.133","Mozilla/5.0 (Windows NT 10.0; Win64; x64) AppleWebKit/537.36 (KHTML, like Gecko) Chrome/138.0.0.0 Safari/537.36","WebKit","Chrome","138.0.0.0","Windows","10.0","https://app.prolific.com/","en-US,en;q=0.9","664b3888f484550fe6d377bc","6877649eabb845cf142cd221","68931a394433361b63a84dc1","1","664b3888f484550fe6d377bc","1","2025-08-06T09:09:18.404Z","","","","AttribQ","","","","","","","","","","","50","","","","","","","","","","","","","","","","","","","","","","","","","","",""
"1303","","<div style=""width:500px;"">
  <p>How much control did you have over the ball?</p>
  </div>","67","html-slider-response","40","344286","0.0-7.0-2.5","154","1","2025-08-06 09:03:31","36c45c0696341be0efffe67d72a12abb","223.230.55.133","Mozilla/5.0 (Windows NT 10.0; Win64; x64) AppleWebKit/537.36 (KHTML, like Gecko) Chrome/138.0.0.0 Safari/537.36","WebKit","Chrome","138.0.0.0","Windows","10.0","https://app.prolific.com/","en-US,en;q=0.9","664b3888f484550fe6d377bc","6877649eabb845cf142cd221","68931a394433361b63a84dc1","1","664b3888f484550fe6d377bc","1","2025-08-06T09:09:19.709Z","","","","ControlQ","","","","","","","","","","","50","","","","","","","","","","","","","","","","","","","","","","","","","","",""
"1719","","<div style=""width:500px;"">
  <p>How would you describe your current emotional state?</p>
  </div>","26","html-slider-response","41","346005","0.0-7.0-3.5","154","1","2025-08-06 09:03:31","36c45c0696341be0efffe67d72a12abb","223.230.55.133","Mozilla/5.0 (Windows NT 10.0; Win64; x64) AppleWebKit/537.36 (KHTML, like Gecko) Chrome/138.0.0.0 Safari/537.36","WebKit","Chrome","138.0.0.0","Windows","10.0","https://app.prolific.com/","en-US,en;q=0.9","664b3888f484550fe6d377bc","6877649eabb845cf142cd221","68931a394433361b63a84dc1","1","664b3888f484550fe6d377bc","1","2025-08-06T09:09:21.428Z","","","","StressQ","","","","","","","","","","","50","","","","","","","","","","","","","","","","","","","","","","","","","","",""
"1343","","<div style=""width:500px;"">
  <p>What best describes how you currently feel?</p>
  </div>","73","html-slider-response","42","347349","0.0-7.0-4.5","154","1","2025-08-06 09:03:31","36c45c0696341be0efffe67d72a12abb","223.230.55.133","Mozilla/5.0 (Windows NT 10.0; Win64; x64) AppleWebKit/537.36 (KHTML, like Gecko) Chrome/138.0.0.0 Safari/537.36","WebKit","Chrome","138.0.0.0","Windows","10.0","https://app.prolific.com/","en-US,en;q=0.9","664b3888f484550fe6d377bc","6877649eabb845cf142cd221","68931a394433361b63a84dc1","1","664b3888f484550fe6d377bc","1","2025-08-06T09:09:22.773Z","","","","MotivationQ","","","","","","","","","","","50","","","","","","","","","","","","","","","","","","","","","","","","","","",""
"","","","","ctl-task-cpt","43","371224","0.0-7.0-0.6","154","1","2025-08-06 09:03:31","36c45c0696341be0efffe67d72a12abb","223.230.55.133","Mozilla/5.0 (Windows NT 10.0; Win64; x64) AppleWebKit/537.36 (KHTML, like Gecko) Chrome/138.0.0.0 Safari/537.36","WebKit","Chrome","138.0.0.0","Windows","10.0","https://app.prolific.com/","en-US,en;q=0.9","664b3888f484550fe6d377bc","6877649eabb845cf142cd221","68931a394433361b63a84dc1","1","664b3888f484550fe6d377bc","1","2025-08-06T09:09:46.647Z","","","","","","","","","","","","","","","","win-only","2","g1:SE,g2:NW","0.4","7","0","351498.4","813.7","5818.9","20857","1","4","8","6","1","1","1","32","31","0.24242424242424243","808.5","3000","1770","[""down"",""right""]","{""num_key_presses"":4,""num_perfect"":2,""num_errors"":0,""num_randdir"":2,""num_randdir_good_moves"":2,""num_whilered"":0,""num_whileblue"":0,""num_blue"":1,""num_good_moves"":4}","[425.3214133126395,420.32142761775424,0.2,425.3214133126395,420.32142761775424,104.1,420.3214133126395,420.32142761775424,204.1,366.5714133126395,387.82142761775424,307.3,509.0714133126395,502.82142761775424,412.3,665.3214133126395,635.3214276177542,513.7,709.0714133126395,717.8214276177542,617.9,722.8214133126395,740.3214276177542,722.8,730.3214133126395,755.3214276177542,825.9,730.3214133126395,755.3214276177542,927.2,731.5714133126395,750.3214276177542,1028.4,731.5714133126395,746.5714276177542,1131.7,731.5714133126395,746.5714276177542,1239.2,731.5714133126395,746.5714276177542,1342.2,731.5714133126395,746.5714276177542,1445.6,731.5714133126395,746.5714276177542,1547.7,731.5714133126395,746.5714276177542,1654.7,731.5714133126395,746.5714276177542,1759.2,731.5714133126395,746.5714276177542,1861.9,731.5714133126395,746.5714276177542,1962.9,731.5714133126395,746.5714276177542,2071.7,731.5714133126395,746.5714276177542,2172.7,731.5714133126395,746.5714276177542,2274.6,731.5714133126395,746.5714276177542,2377.5,731.5714133126395,746.5714276177542,2477.7,731.5714133126395,746.5714276177542,2578.9,731.5714133126395,746.5714276177542,2679,731.5714133126395,746.5714276177542,2779.6,731.5714133126395,746.5714276177542,2879.6,731.5714133126395,746.5714276177542,2984.4,731.5714133126395,746.5714276177542,3088.4,731.5714133126395,746.5714276177542,3194.4,731.5714133126395,746.5714276177542,3304.2,731.5714133126395,746.5714276177542,3407,731.5714133126395,746.5714276177542,3514.1,731.5714133126395,746.5714276177542,3614.1,731.5714133126395,746.5714276177542,3721.2,731.5714133126395,746.5714276177542,3822.2,731.5714133126395,746.5714276177542,3922.9,731.5714133126395,746.5714276177542,4029.4,731.5714133126395,746.5714276177542,4137.2,731.5714133126395,746.5714276177542,4240,731.5714133126395,746.5714276177542,4344.3,731.5714133126395,746.5714276177542,4444.6,731.5714133126395,746.5714276177542,4545.5,731.5714133126395,746.5714276177542,4655.1,731.5714133126395,746.5714276177542,4759.9,731.5714133126395,746.5714276177542,4862.7,731.5714133126395,746.5714276177542,4963.1]","[1339.8,1339.8,1000,0,339.8,""smooth"",""right"",""right"",""good_move"",4602.7,3262.5,2963.3,1340.2,299.2,""oops"",""down"",""right"",""good_move"",11850.2,7247.2,2828.4,8647.5,374.3,""oops"",""down"",""down"",""good_move"",14934.5,3084,2667.1,11850.5,416.9,""smooth"",""down"",""down"",""good_move""]"
"1780","","<div style=""width:500px;"">
  <p>What determined the result of this run?</p>
  </div>","69","html-slider-response","44","373005","0.0-7.0-1.6","154","1","2025-08-06 09:03:31","36c45c0696341be0efffe67d72a12abb","223.230.55.133","Mozilla/5.0 (Windows NT 10.0; Win64; x64) AppleWebKit/537.36 (KHTML, like Gecko) Chrome/138.0.0.0 Safari/537.36","WebKit","Chrome","138.0.0.0","Windows","10.0","https://app.prolific.com/","en-US,en;q=0.9","664b3888f484550fe6d377bc","6877649eabb845cf142cd221","68931a394433361b63a84dc1","1","664b3888f484550fe6d377bc","1","2025-08-06T09:09:48.429Z","","","","AttribQ","","","","","","","","","","","50","","","","","","","","","","","","","","","","","","","","","","","","","","",""
"1975","","<div style=""width:500px;"">
  <p>How much control did you have over the ball?</p>
  </div>","67","html-slider-response","45","374982","0.0-7.0-2.6","154","1","2025-08-06 09:03:31","36c45c0696341be0efffe67d72a12abb","223.230.55.133","Mozilla/5.0 (Windows NT 10.0; Win64; x64) AppleWebKit/537.36 (KHTML, like Gecko) Chrome/138.0.0.0 Safari/537.36","WebKit","Chrome","138.0.0.0","Windows","10.0","https://app.prolific.com/","en-US,en;q=0.9","664b3888f484550fe6d377bc","6877649eabb845cf142cd221","68931a394433361b63a84dc1","1","664b3888f484550fe6d377bc","1","2025-08-06T09:09:50.405Z","","","","ControlQ","","","","","","","","","","","50","","","","","","","","","","","","","","","","","","","","","","","","","","",""
"2126","","<div style=""width:500px;"">
  <p>How would you describe your current emotional state?</p>
  </div>","34","html-slider-response","46","377109","0.0-7.0-3.6","154","1","2025-08-06 09:03:31","36c45c0696341be0efffe67d72a12abb","223.230.55.133","Mozilla/5.0 (Windows NT 10.0; Win64; x64) AppleWebKit/537.36 (KHTML, like Gecko) Chrome/138.0.0.0 Safari/537.36","WebKit","Chrome","138.0.0.0","Windows","10.0","https://app.prolific.com/","en-US,en;q=0.9","664b3888f484550fe6d377bc","6877649eabb845cf142cd221","68931a394433361b63a84dc1","1","664b3888f484550fe6d377bc","1","2025-08-06T09:09:52.532Z","","","","StressQ","","","","","","","","","","","50","","","","","","","","","","","","","","","","","","","","","","","","","","",""
"2168","","<div style=""width:500px;"">
  <p>What best describes how you currently feel?</p>
  </div>","72","html-slider-response","47","379278","0.0-7.0-4.6","154","1","2025-08-06 09:03:31","36c45c0696341be0efffe67d72a12abb","223.230.55.133","Mozilla/5.0 (Windows NT 10.0; Win64; x64) AppleWebKit/537.36 (KHTML, like Gecko) Chrome/138.0.0.0 Safari/537.36","WebKit","Chrome","138.0.0.0","Windows","10.0","https://app.prolific.com/","en-US,en;q=0.9","664b3888f484550fe6d377bc","6877649eabb845cf142cd221","68931a394433361b63a84dc1","1","664b3888f484550fe6d377bc","1","2025-08-06T09:09:54.701Z","","","","MotivationQ","","","","","","","","","","","50","","","","","","","","","","","","","","","","","","","","","","","","","","",""
"","","","","ctl-task-cpt","48","430516","0.0-7.0-0.7","154","1","2025-08-06 09:03:31","36c45c0696341be0efffe67d72a12abb","223.230.55.133","Mozilla/5.0 (Windows NT 10.0; Win64; x64) AppleWebKit/537.36 (KHTML, like Gecko) Chrome/138.0.0.0 Safari/537.36","WebKit","Chrome","138.0.0.0","Windows","10.0","https://app.prolific.com/","en-US,en;q=0.9","664b3888f484550fe6d377bc","6877649eabb845cf142cd221","68931a394433361b63a84dc1","1","664b3888f484550fe6d377bc","1","2025-08-06T09:10:45.939Z","","","","","","","","","","","","","","","","win-only","3","g1:SW,g2:NE","0.3","8","0","383426.6","2143.3","7144.8","48222","1","4","4","6","2","-4","-4","28","32","0.21212121212121213","919.1","3000","-2375","[""up"",""right""]","{""num_key_presses"":10,""num_perfect"":3,""num_errors"":0,""num_randdir"":7,""num_randdir_good_moves"":3,""num_whilered"":0,""num_whileblue"":0,""num_blue"":3,""num_good_moves"":6}","[405.3214133126395,416.57142761775424,0.2,405.3214133126395,416.57142761775424,103.4,405.3214133126395,416.57142761775424,204.6,405.3214133126395,416.57142761775424,309.2,486.5714133126395,376.57142761775424,413.6,735.3214133126395,220.32142761775424,518.5,750.3214133126395,191.57142761775424,620.4,746.5714133126395,159.07142761775424,721.2,746.5714133126395,116.57142761775425,821.4,746.5714133126395,114.07142761775425,925.8,746.5714133126395,114.07142761775425,1028.2,746.5714133126395,114.07142761775425,1134.9,746.5714133126395,114.07142761775425,1236.8,746.5714133126395,114.07142761775425,1339.7,746.5714133126395,114.07142761775425,1440.2,746.5714133126395,114.07142761775425,1543.1,746.5714133126395,114.07142761775425,1644.1,746.5714133126395,114.07142761775425,1750.8,746.5714133126395,114.07142761775425,1855.2,746.5714133126395,114.07142761775425,1955.2,746.5714133126395,114.07142761775425,2058.1,746.5714133126395,114.07142761775425,2158.4,746.5714133126395,114.07142761775425,2259.2,746.5714133126395,114.07142761775425,2359.7,746.5714133126395,114.07142761775425,2462.5,746.5714133126395,114.07142761775425,2571.4,746.5714133126395,114.07142761775425,2674.6,746.5714133126395,114.07142761775425,2785.5,746.5714133126395,114.07142761775425,2888.6,746.5714133126395,114.07142761775425,2988.6,746.5714133126395,114.07142761775425,3090.9,746.5714133126395,114.07142761775425,3193.6,746.5714133126395,114.07142761775425,3298.6,746.5714133126395,114.07142761775425,3400,746.5714133126395,114.07142761775425,3502.6,746.5714133126395,114.07142761775425,3605.3,746.5714133126395,114.07142761775425,3709.1,746.5714133126395,114.07142761775425,3814.5,746.5714133126395,114.07142761775425,3915.9,746.5714133126395,114.07142761775425,4019,746.5714133126395,114.07142761775425,4119,746.5714133126395,114.07142761775425,4219.2,746.5714133126395,114.07142761775425,4323.2,746.5714133126395,114.07142761775425,4428.3,746.5714133126395,114.07142761775425,4529.4,746.5714133126395,114.07142761775425,4632.6,746.5714133126395,114.07142761775425,4735.5,746.5714133126395,114.07142761775425,4837.9,746.5714133126395,114.07142761775425,4940.1]","[1346,1346,1000,0,346,""oops"",""up"",""up"",""good_move"",4696.7,3350.5,2996,1346.2,354.5,""smooth"",""up"",""up"",""good_move"",7704.3,3007.3,2667.2,4697.2,340,""oops"",""right"",""up"",""good_move"",9956.5,2251.8,1912.5,7704.7,339.3,""oops"",""right"",""left"",""bad_move"",12444.3,2487.5,2177.2,9956.8,310.3,""oops"",""right"",""right"",""good_move"",24144.2,11699.4,3112.7,20716.8,314.7,""smooth"",""right"",""right"",""good_move"",26861.3,2716.7,2331.2,24144.6,385.5,""oops"",""right"",""down"",""bad_move"",29847.8,2986.1,2614.6,26861.7,371.5,""oops"",""right"",""down"",""bad_move"",36039.1,6191,2626.2,32991,421.9,""smooth"",""right"",""right"",""good_move"",38461.1,2421.7,2038.5,36039.4,383.2,""oops"",""up"",""down"",""bad_move""]"
"3465","","<div style=""width:500px;"">
  <p>What determined the result of this run?</p>
  </div>","13","html-slider-response","49","433982","0.0-7.0-1.7","154","1","2025-08-06 09:03:31","36c45c0696341be0efffe67d72a12abb","223.230.55.133","Mozilla/5.0 (Windows NT 10.0; Win64; x64) AppleWebKit/537.36 (KHTML, like Gecko) Chrome/138.0.0.0 Safari/537.36","WebKit","Chrome","138.0.0.0","Windows","10.0","https://app.prolific.com/","en-US,en;q=0.9","664b3888f484550fe6d377bc","6877649eabb845cf142cd221","68931a394433361b63a84dc1","1","664b3888f484550fe6d377bc","1","2025-08-06T09:10:49.405Z","","","","AttribQ","","","","","","","","","","","50","","","","","","","","","","","","","","","","","","","","","","","","","","",""
"2062","","<div style=""width:500px;"">
  <p>How much control did you have over the ball?</p>
  </div>","15","html-slider-response","50","436045","0.0-7.0-2.7","154","1","2025-08-06 09:03:31","36c45c0696341be0efffe67d72a12abb","223.230.55.133","Mozilla/5.0 (Windows NT 10.0; Win64; x64) AppleWebKit/537.36 (KHTML, like Gecko) Chrome/138.0.0.0 Safari/537.36","WebKit","Chrome","138.0.0.0","Windows","10.0","https://app.prolific.com/","en-US,en;q=0.9","664b3888f484550fe6d377bc","6877649eabb845cf142cd221","68931a394433361b63a84dc1","1","664b3888f484550fe6d377bc","1","2025-08-06T09:10:51.468Z","","","","ControlQ","","","","","","","","","","","50","","","","","","","","","","","","","","","","","","","","","","","","","","",""
"2111","","<div style=""width:500px;"">
  <p>How would you describe your current emotional state?</p>
  </div>","25","html-slider-response","51","438158","0.0-7.0-3.7","154","1","2025-08-06 09:03:31","36c45c0696341be0efffe67d72a12abb","223.230.55.133","Mozilla/5.0 (Windows NT 10.0; Win64; x64) AppleWebKit/537.36 (KHTML, like Gecko) Chrome/138.0.0.0 Safari/537.36","WebKit","Chrome","138.0.0.0","Windows","10.0","https://app.prolific.com/","en-US,en;q=0.9","664b3888f484550fe6d377bc","6877649eabb845cf142cd221","68931a394433361b63a84dc1","1","664b3888f484550fe6d377bc","1","2025-08-06T09:10:53.581Z","","","","StressQ","","","","","","","","","","","50","","","","","","","","","","","","","","","","","","","","","","","","","","",""
"2910","","<div style=""width:500px;"">
  <p>What best describes how you currently feel?</p>
  </div>","69","html-slider-response","52","441069","0.0-7.0-4.7","154","1","2025-08-06 09:03:31","36c45c0696341be0efffe67d72a12abb","223.230.55.133","Mozilla/5.0 (Windows NT 10.0; Win64; x64) AppleWebKit/537.36 (KHTML, like Gecko) Chrome/138.0.0.0 Safari/537.36","WebKit","Chrome","138.0.0.0","Windows","10.0","https://app.prolific.com/","en-US,en;q=0.9","664b3888f484550fe6d377bc","6877649eabb845cf142cd221","68931a394433361b63a84dc1","1","664b3888f484550fe6d377bc","1","2025-08-06T09:10:56.492Z","","","","MotivationQ","","","","","","","","","","","50","","","","","","","","","","","","","","","","","","","","","","","","","","",""
"","","","","ctl-task-cpt","53","491612","0.0-7.0-0.8","154","1","2025-08-06 09:03:31","36c45c0696341be0efffe67d72a12abb","223.230.55.133","Mozilla/5.0 (Windows NT 10.0; Win64; x64) AppleWebKit/537.36 (KHTML, like Gecko) Chrome/138.0.0.0 Safari/537.36","WebKit","Chrome","138.0.0.0","Windows","10.0","https://app.prolific.com/","en-US,en;q=0.9","664b3888f484550fe6d377bc","6877649eabb845cf142cd221","68931a394433361b63a84dc1","1","664b3888f484550fe6d377bc","1","2025-08-06T09:11:47.036Z","","","","","","","","","","","","","","","","win-only","0","g1:NW,g2:SE","0.4","9","0","445218.3","1094.2","6097.8","47527.3","1","4","4","6","2","4","3","31","28","0.23484848484848486","1016.5","3000","390","[""down"",""right""]","{""num_key_presses"":8,""num_perfect"":3,""num_errors"":1,""num_randdir"":4,""num_randdir_good_moves"":4,""num_whilered"":0,""num_whileblue"":1,""num_blue"":7,""num_good_moves"":7}","[419.0714133126395,412.82142761775424,0.2,419.0714133126395,412.82142761775424,106.6,419.0714133126395,412.82142761775424,207.4,344.0714133126395,370.32142761775424,308.2,370.3214133126395,445.32142761775424,408.4,517.8214133126395,526.5714276177542,512.2,621.5714133126395,600.3214276177542,618.5,671.5714133126395,666.5714276177542,719.2,707.8214133126395,707.8214276177542,823.7,731.5714133126395,721.5714276177542,927.1,734.0714133126395,725.3214276177542,1028.2,734.0714133126395,725.3214276177542,1137.2,734.0714133126395,716.5714276177542,1238.1,734.0714133126395,716.5714276177542,1338.8,734.0714133126395,716.5714276177542,1441.1,734.0714133126395,716.5714276177542,1542.7,734.0714133126395,716.5714276177542,1654.1,734.0714133126395,716.5714276177542,1756.5,734.0714133126395,716.5714276177542,1856.9,734.0714133126395,716.5714276177542,1957.7,734.0714133126395,716.5714276177542,2061.1,734.0714133126395,716.5714276177542,2162.7,734.0714133126395,716.5714276177542,2263.5,734.0714133126395,716.5714276177542,2367.4,734.0714133126395,716.5714276177542,2471.7,734.0714133126395,716.5714276177542,2572.4,734.0714133126395,716.5714276177542,2679.8,734.0714133126395,716.5714276177542,2782.1,734.0714133126395,716.5714276177542,2886.4,734.0714133126395,716.5714276177542,2989.7,734.0714133126395,716.5714276177542,3092,734.0714133126395,716.5714276177542,3192.6,734.0714133126395,716.5714276177542,3298,734.0714133126395,716.5714276177542,3402.4,734.0714133126395,716.5714276177542,3503.2,734.0714133126395,716.5714276177542,3612,734.0714133126395,716.5714276177542,3713.2,734.0714133126395,716.5714276177542,3815.1,734.0714133126395,716.5714276177542,3917.1,734.0714133126395,716.5714276177542,4020.2,734.0714133126395,716.5714276177542,4121.8,734.0714133126395,716.5714276177542,4222.2,734.0714133126395,716.5714276177542,4326.2,734.0714133126395,716.5714276177542,4431.6,734.0714133126395,716.5714276177542,4531.6,734.0714133126395,716.5714276177542,4633.4,734.0714133126395,716.5714276177542,4738.5,734.0714133126395,716.5714276177542,4841.4,734.0714133126395,716.5714276177542,4943.8]","[4199.9,4199.9,1859,2007.7,333.2,""smooth"",""down"",""down"",""good_move"",7038.9,2838.7,2486.7,4200.2,352,""oops"",""down"",""down"",""good_move"",10331.6,3292.4,3031.7,7039.2,260.7,""while_blue"",""right"",""up"",""bad_move"",12890.1,2558.1,2140.1,10332,418,""smooth"",""right"",""right"",""good_move"",23947,11056.6,2356.5,21183.6,406.9,""oops"",""down"",""down"",""good_move"",26232.2,2284.7,1864.1,23947.5,420.6,""oops"",""right"",""right"",""good_move"",29545.5,3312.8,2956.6,26232.7,356.2,""smooth"",""right"",""right"",""good_move"",41339.6,11793.5,1647.8,39269,422.8,""oops"",""down"",""down"",""good_move""]"
"2048","","<div style=""width:500px;"">
  <p>What determined the result of this run?</p>
  </div>","66","html-slider-response","54","493661","0.0-7.0-1.8","154","1","2025-08-06 09:03:31","36c45c0696341be0efffe67d72a12abb","223.230.55.133","Mozilla/5.0 (Windows NT 10.0; Win64; x64) AppleWebKit/537.36 (KHTML, like Gecko) Chrome/138.0.0.0 Safari/537.36","WebKit","Chrome","138.0.0.0","Windows","10.0","https://app.prolific.com/","en-US,en;q=0.9","664b3888f484550fe6d377bc","6877649eabb845cf142cd221","68931a394433361b63a84dc1","1","664b3888f484550fe6d377bc","1","2025-08-06T09:11:49.084Z","","","","AttribQ","","","","","","","","","","","50","","","","","","","","","","","","","","","","","","","","","","","","","","",""
"1271","","<div style=""width:500px;"">
  <p>How much control did you have over the ball?</p>
  </div>","61","html-slider-response","55","494933","0.0-7.0-2.8","154","1","2025-08-06 09:03:31","36c45c0696341be0efffe67d72a12abb","223.230.55.133","Mozilla/5.0 (Windows NT 10.0; Win64; x64) AppleWebKit/537.36 (KHTML, like Gecko) Chrome/138.0.0.0 Safari/537.36","WebKit","Chrome","138.0.0.0","Windows","10.0","https://app.prolific.com/","en-US,en;q=0.9","664b3888f484550fe6d377bc","6877649eabb845cf142cd221","68931a394433361b63a84dc1","1","664b3888f484550fe6d377bc","1","2025-08-06T09:11:50.356Z","","","","ControlQ","","","","","","","","","","","50","","","","","","","","","","","","","","","","","","","","","","","","","","",""
"1559","","<div style=""width:500px;"">
  <p>How would you describe your current emotional state?</p>
  </div>","26","html-slider-response","56","496493","0.0-7.0-3.8","154","1","2025-08-06 09:03:31","36c45c0696341be0efffe67d72a12abb","223.230.55.133","Mozilla/5.0 (Windows NT 10.0; Win64; x64) AppleWebKit/537.36 (KHTML, like Gecko) Chrome/138.0.0.0 Safari/537.36","WebKit","Chrome","138.0.0.0","Windows","10.0","https://app.prolific.com/","en-US,en;q=0.9","664b3888f484550fe6d377bc","6877649eabb845cf142cd221","68931a394433361b63a84dc1","1","664b3888f484550fe6d377bc","1","2025-08-06T09:11:51.916Z","","","","StressQ","","","","","","","","","","","50","","","","","","","","","","","","","","","","","","","","","","","","","","",""
"1447","","<div style=""width:500px;"">
  <p>What best describes how you currently feel?</p>
  </div>","64","html-slider-response","57","497941","0.0-7.0-4.8","154","1","2025-08-06 09:03:31","36c45c0696341be0efffe67d72a12abb","223.230.55.133","Mozilla/5.0 (Windows NT 10.0; Win64; x64) AppleWebKit/537.36 (KHTML, like Gecko) Chrome/138.0.0.0 Safari/537.36","WebKit","Chrome","138.0.0.0","Windows","10.0","https://app.prolific.com/","en-US,en;q=0.9","664b3888f484550fe6d377bc","6877649eabb845cf142cd221","68931a394433361b63a84dc1","1","664b3888f484550fe6d377bc","1","2025-08-06T09:11:53.364Z","","","","MotivationQ","","","","","","","","","","","50","","","","","","","","","","","","","","","","","","","","","","","","","","",""
"","","","","ctl-task-cpt","58","547808","0.0-7.0-0.9","154","1","2025-08-06 09:03:31","36c45c0696341be0efffe67d72a12abb","223.230.55.133","Mozilla/5.0 (Windows NT 10.0; Win64; x64) AppleWebKit/537.36 (KHTML, like Gecko) Chrome/138.0.0.0 Safari/537.36","WebKit","Chrome","138.0.0.0","Windows","10.0","https://app.prolific.com/","en-US,en;q=0.9","664b3888f484550fe6d377bc","6877649eabb845cf142cd221","68931a394433361b63a84dc1","1","664b3888f484550fe6d377bc","1","2025-08-06T09:12:43.231Z","","","","","","","","","","","","","","","","win-only","0","g1:NW,g2:SE","0.5","10","0","502089.5","630.6","5634","46848.7","1","4","8","6","2","-8","-8","23","31","0.17424242424242425","1663.2","3000","-2680","[""down"",""right""]","{""num_key_presses"":10,""num_perfect"":5,""num_errors"":0,""num_randdir"":5,""num_randdir_good_moves"":1,""num_whilered"":0,""num_whileblue"":0,""num_blue"":3,""num_good_moves"":6}","[406.5714133126395,411.57142761775424,0.3,406.5714133126395,411.57142761775424,102.4,395.3214133126395,399.07142761775424,209.3,250.3214133126395,321.57142761775424,314.2,302.8214133126395,379.07142761775424,415.7,346.5714133126395,424.07142761775424,523.6,397.8214133126395,489.07142761775424,629.6,499.0714133126395,567.8214276177542,733.8,636.5714133126395,695.3214276177542,837.7,764.0714133126395,784.0714276177542,943.1,839.0714133126395,784.0714276177542,1043.8,839.0714133126395,784.0714276177542,1147.7,839.0714133126395,784.0714276177542,1249.4,817.8214133126395,771.5714276177542,1350.8,816.5714133126395,771.5714276177542,1452,807.8214133126395,767.8214276177542,1554.1,801.5714133126395,767.8214276177542,1659.6,801.5714133126395,767.8214276177542,1762,801.5714133126395,767.8214276177542,1866.3,801.5714133126395,767.8214276177542,1966.3,801.5714133126395,767.8214276177542,2066.5,801.5714133126395,767.8214276177542,2178.1,801.5714133126395,767.8214276177542,2281.7,801.5714133126395,767.8214276177542,2383.5,801.5714133126395,767.8214276177542,2488.5,801.5714133126395,767.8214276177542,2588.9,801.5714133126395,767.8214276177542,2693.7,801.5714133126395,767.8214276177542,2797.2,801.5714133126395,767.8214276177542,2902.8,801.5714133126395,767.8214276177542,3003.4,801.5714133126395,767.8214276177542,3108,801.5714133126395,767.8214276177542,3208.4,801.5714133126395,767.8214276177542,3312.5,801.5714133126395,767.8214276177542,3412.8,801.5714133126395,767.8214276177542,3513.7,801.5714133126395,767.8214276177542,3616.1,801.5714133126395,767.8214276177542,3722,801.5714133126395,767.8214276177542,3822.7,801.5714133126395,767.8214276177542,3927.1,801.5714133126395,767.8214276177542,4028.6,801.5714133126395,767.8214276177542,4131.8,801.5714133126395,767.8214276177542,4239.2,801.5714133126395,767.8214276177542,4342.2,801.5714133126395,767.8214276177542,4444.8,801.5714133126395,767.8214276177542,4553.7,801.5714133126395,767.8214276177542,4658.8,801.5714133126395,767.8214276177542,4759.9,801.5714133126395,767.8214276177542,4863,801.5714133126395,767.8214276177542,4967.2]","[1337.4,1337.4,1000,0,337.4,""oops"",""down"",""up"",""bad_move"",10879.8,9542.1,2363.9,8187.8,328.1,""smooth"",""right"",""right"",""good_move"",13512.9,2632.8,2251.4,10880.1,381.4,""oops"",""down"",""up"",""bad_move"",16653.5,3140.3,2804.5,13513.2,335.8,""oops"",""right"",""left"",""bad_move"",19081.3,2427.3,1853.6,16654,573.7,""smooth"",""up"",""right"",""good_move"",26649.9,7568.1,3397,22887.3,365.6,""smooth"",""down"",""down"",""good_move"",29933.7,3283.5,2914.6,26650.2,368.9,""oops"",""down"",""down"",""good_move"",32440.1,2506.3,2121.9,29933.8,384.4,""oops"",""right"",""up"",""bad_move"",34780,2339.6,1906,32440.5,433.5,""smooth"",""right"",""right"",""good_move"",38358.7,3578,3267.6,34780.7,310.4,""smooth"",""down"",""down"",""good_move""]"
"2572","","<div style=""width:500px;"">
  <p>What determined the result of this run?</p>
  </div>","20","html-slider-response","59","550381","0.0-7.0-1.9","154","1","2025-08-06 09:03:31","36c45c0696341be0efffe67d72a12abb","223.230.55.133","Mozilla/5.0 (Windows NT 10.0; Win64; x64) AppleWebKit/537.36 (KHTML, like Gecko) Chrome/138.0.0.0 Safari/537.36","WebKit","Chrome","138.0.0.0","Windows","10.0","https://app.prolific.com/","en-US,en;q=0.9","664b3888f484550fe6d377bc","6877649eabb845cf142cd221","68931a394433361b63a84dc1","1","664b3888f484550fe6d377bc","1","2025-08-06T09:12:45.804Z","","","","AttribQ","","","","","","","","","","","50","","","","","","","","","","","","","","","","","","","","","","","","","","",""
"1462","","<div style=""width:500px;"">
  <p>How much control did you have over the ball?</p>
  </div>","14","html-slider-response","60","551844","0.0-7.0-2.9","154","1","2025-08-06 09:03:31","36c45c0696341be0efffe67d72a12abb","223.230.55.133","Mozilla/5.0 (Windows NT 10.0; Win64; x64) AppleWebKit/537.36 (KHTML, like Gecko) Chrome/138.0.0.0 Safari/537.36","WebKit","Chrome","138.0.0.0","Windows","10.0","https://app.prolific.com/","en-US,en;q=0.9","664b3888f484550fe6d377bc","6877649eabb845cf142cd221","68931a394433361b63a84dc1","1","664b3888f484550fe6d377bc","1","2025-08-06T09:12:47.268Z","","","","ControlQ","","","","","","","","","","","50","","","","","","","","","","","","","","","","","","","","","","","","","","",""
"1679","","<div style=""width:500px;"">
  <p>How would you describe your current emotional state?</p>
  </div>","26","html-slider-response","61","553525","0.0-7.0-3.9","154","1","2025-08-06 09:03:31","36c45c0696341be0efffe67d72a12abb","223.230.55.133","Mozilla/5.0 (Windows NT 10.0; Win64; x64) AppleWebKit/537.36 (KHTML, like Gecko) Chrome/138.0.0.0 Safari/537.36","WebKit","Chrome","138.0.0.0","Windows","10.0","https://app.prolific.com/","en-US,en;q=0.9","664b3888f484550fe6d377bc","6877649eabb845cf142cd221","68931a394433361b63a84dc1","1","664b3888f484550fe6d377bc","1","2025-08-06T09:12:48.948Z","","","","StressQ","","","","","","","","","","","50","","","","","","","","","","","","","","","","","","","","","","","","","","",""
"1591","","<div style=""width:500px;"">
  <p>What best describes how you currently feel?</p>
  </div>","63","html-slider-response","62","555117","0.0-7.0-4.9","154","1","2025-08-06 09:03:31","36c45c0696341be0efffe67d72a12abb","223.230.55.133","Mozilla/5.0 (Windows NT 10.0; Win64; x64) AppleWebKit/537.36 (KHTML, like Gecko) Chrome/138.0.0.0 Safari/537.36","WebKit","Chrome","138.0.0.0","Windows","10.0","https://app.prolific.com/","en-US,en;q=0.9","664b3888f484550fe6d377bc","6877649eabb845cf142cd221","68931a394433361b63a84dc1","1","664b3888f484550fe6d377bc","1","2025-08-06T09:12:50.540Z","","","","MotivationQ","","","","","","","","","","","50","","","","","","","","","","","","","","","","","","","","","","","","","","",""
"","","","","ctl-task-cpt","63","605081","0.0-7.0-0.10","154","1","2025-08-06 09:03:31","36c45c0696341be0efffe67d72a12abb","223.230.55.133","Mozilla/5.0 (Windows NT 10.0; Win64; x64) AppleWebKit/537.36 (KHTML, like Gecko) Chrome/138.0.0.0 Safari/537.36","WebKit","Chrome","138.0.0.0","Windows","10.0","https://app.prolific.com/","en-US,en;q=0.9","664b3888f484550fe6d377bc","6877649eabb845cf142cd221","68931a394433361b63a84dc1","1","664b3888f484550fe6d377bc","1","2025-08-06T09:13:40.505Z","","","","","","","","","","","","","","","","win-only","3","g1:SW,g2:NE","0.6","11","0","559265.7","654.1","5661.2","46939.9","1","4","8","6","2","8","6","29","23","0.2196969696969697","1112.4","3000","690","[""up"",""right""]","{""num_key_presses"":12,""num_perfect"":6,""num_errors"":2,""num_randdir"":4,""num_randdir_good_moves"":3,""num_whilered"":0,""num_whileblue"":2,""num_blue"":4,""num_good_moves"":9}","[411.5714133126395,419.07142761775424,0.3,411.5714133126395,419.07142761775424,103.3,411.5714133126395,419.07142761775424,208,426.5714133126395,454.07142761775424,312.6,631.5714133126395,275.32142761775424,416.2,657.8214133126395,196.57142761775424,520,682.8214133126395,101.57142761775425,620.1,685.3214133126395,101.57142761775425,726.4,685.3214133126395,101.57142761775425,834.7,686.5714133126395,101.57142761775425,936.2,721.5714133126395,94.07142761775425,1040.4,724.0714133126395,94.07142761775425,1144.2,724.0714133126395,94.07142761775425,1250.9,724.0714133126395,96.57142761775425,1356.4,724.0714133126395,97.82142761775425,1461.2,724.0714133126395,97.82142761775425,1568.5,724.0714133126395,97.82142761775425,1675,724.0714133126395,97.82142761775425,1777.7,724.0714133126395,97.82142761775425,1885.9,724.0714133126395,97.82142761775425,1991.3,724.0714133126395,97.82142761775425,2095.9,724.0714133126395,97.82142761775425,2199.3,724.0714133126395,97.82142761775425,2302.7,724.0714133126395,97.82142761775425,2403.7,724.0714133126395,97.82142761775425,2509.9,724.0714133126395,97.82142761775425,2615.6,724.0714133126395,97.82142761775425,2723.5,724.0714133126395,97.82142761775425,2823.5,724.0714133126395,97.82142761775425,2924.2,724.0714133126395,97.82142761775425,3029.6,724.0714133126395,97.82142761775425,3137,724.0714133126395,97.82142761775425,3238,724.0714133126395,97.82142761775425,3340,724.0714133126395,97.82142761775425,3444.3,724.0714133126395,97.82142761775425,3552.1,724.0714133126395,97.82142761775425,3657.7,724.0714133126395,97.82142761775425,3763.1,724.0714133126395,97.82142761775425,3868,724.0714133126395,97.82142761775425,3968.4,724.0714133126395,97.82142761775425,4071.8,724.0714133126395,97.82142761775425,4175.9,724.0714133126395,97.82142761775425,4276.3,724.0714133126395,97.82142761775425,4382.9,724.0714133126395,97.82142761775425,4487.7,724.0714133126395,97.82142761775425,4592,724.0714133126395,97.82142761775425,4703.9,724.0714133126395,97.82142761775425,4804.3,724.0714133126395,97.82142761775425,4906.9]","[1355.8,1355.8,1000,0,355.8,""smooth"",""up"",""up"",""good_move"",4697,3340.7,3028.7,1356.3,312,""smooth"",""right"",""right"",""good_move"",7420.9,2723.5,2400.9,4697.4,322.6,""oops"",""up"",""up"",""good_move"",10623.5,3202.1,2881.3,7421.4,320.8,""smooth"",""right"",""right"",""good_move"",13043,2419.1,2095.7,10623.9,323.4,""oops"",""up"",""right"",""good_move"",15655.2,2612,2344.1,13043.3,267.8,""while_blue"",""up"",""down"",""bad_move"",22237.1,6581.7,2098.7,19842.9,295.6,""smooth"",""up"",""up"",""good_move"",25035.8,2798.4,2550.3,22237.5,248.1,""oops"",""up"",""down"",""bad_move"",27593.3,2557.1,2271.9,25036.2,285.2,""while_blue"",""up"",""left"",""bad_move"",30941.3,3347.8,2993,27593.5,354.8,""smooth"",""up"",""up"",""good_move"",34241,3299.4,2870.3,30941.6,429.1,""oops"",""right"",""right"",""good_move"",41153.9,6912,2188.6,38615.9,349.4,""smooth"",""up"",""up"",""good_move""]"
"3146","","<div style=""width:500px;"">
  <p>What determined the result of this run?</p>
  </div>","33","html-slider-response","64","608229","0.0-7.0-1.10","154","1","2025-08-06 09:03:31","36c45c0696341be0efffe67d72a12abb","223.230.55.133","Mozilla/5.0 (Windows NT 10.0; Win64; x64) AppleWebKit/537.36 (KHTML, like Gecko) Chrome/138.0.0.0 Safari/537.36","WebKit","Chrome","138.0.0.0","Windows","10.0","https://app.prolific.com/","en-US,en;q=0.9","664b3888f484550fe6d377bc","6877649eabb845cf142cd221","68931a394433361b63a84dc1","1","664b3888f484550fe6d377bc","1","2025-08-06T09:13:43.652Z","","","","AttribQ","","","","","","","","","","","50","","","","","","","","","","","","","","","","","","","","","","","","","","",""
"1703","","<div style=""width:500px;"">
  <p>How much control did you have over the ball?</p>
  </div>","40","html-slider-response","65","609932","0.0-7.0-2.10","154","1","2025-08-06 09:03:31","36c45c0696341be0efffe67d72a12abb","223.230.55.133","Mozilla/5.0 (Windows NT 10.0; Win64; x64) AppleWebKit/537.36 (KHTML, like Gecko) Chrome/138.0.0.0 Safari/537.36","WebKit","Chrome","138.0.0.0","Windows","10.0","https://app.prolific.com/","en-US,en;q=0.9","664b3888f484550fe6d377bc","6877649eabb845cf142cd221","68931a394433361b63a84dc1","1","664b3888f484550fe6d377bc","1","2025-08-06T09:13:45.356Z","","","","ControlQ","","","","","","","","","","","50","","","","","","","","","","","","","","","","","","","","","","","","","","",""
"1615","","<div style=""width:500px;"">
  <p>How would you describe your current emotional state?</p>
  </div>","35","html-slider-response","66","611548","0.0-7.0-3.10","154","1","2025-08-06 09:03:31","36c45c0696341be0efffe67d72a12abb","223.230.55.133","Mozilla/5.0 (Windows NT 10.0; Win64; x64) AppleWebKit/537.36 (KHTML, like Gecko) Chrome/138.0.0.0 Safari/537.36","WebKit","Chrome","138.0.0.0","Windows","10.0","https://app.prolific.com/","en-US,en;q=0.9","664b3888f484550fe6d377bc","6877649eabb845cf142cd221","68931a394433361b63a84dc1","1","664b3888f484550fe6d377bc","1","2025-08-06T09:13:46.971Z","","","","StressQ","","","","","","","","","","","50","","","","","","","","","","","","","","","","","","","","","","","","","","",""
"1824","","<div style=""width:500px;"">
  <p>What best describes how you currently feel?</p>
  </div>","65","html-slider-response","67","613372","0.0-7.0-4.10","154","1","2025-08-06 09:03:31","36c45c0696341be0efffe67d72a12abb","223.230.55.133","Mozilla/5.0 (Windows NT 10.0; Win64; x64) AppleWebKit/537.36 (KHTML, like Gecko) Chrome/138.0.0.0 Safari/537.36","WebKit","Chrome","138.0.0.0","Windows","10.0","https://app.prolific.com/","en-US,en;q=0.9","664b3888f484550fe6d377bc","6877649eabb845cf142cd221","68931a394433361b63a84dc1","1","664b3888f484550fe6d377bc","1","2025-08-06T09:13:48.796Z","","","","MotivationQ","","","","","","","","","","","50","","","","","","","","","","","","","","","","","","","","","","","","","","",""
"","","","","ctl-task-cpt","68","660101","0.0-7.0-0.11","154","1","2025-08-06 09:03:31","36c45c0696341be0efffe67d72a12abb","223.230.55.133","Mozilla/5.0 (Windows NT 10.0; Win64; x64) AppleWebKit/537.36 (KHTML, like Gecko) Chrome/138.0.0.0 Safari/537.36","WebKit","Chrome","138.0.0.0","Windows","10.0","https://app.prolific.com/","en-US,en;q=0.9","664b3888f484550fe6d377bc","6877649eabb845cf142cd221","68931a394433361b63a84dc1","1","664b3888f484550fe6d377bc","1","2025-08-06T09:14:35.524Z","","","","","","","","","","","","","","","","win-only","0","g1:NW,g2:SE","0.7","12","0","617521","1230.7","6235.5","43704.8","1","4","4","6","2","4","4","33","29","0.25","946.3","3000","1135","[""down"",""right""]","{""num_key_presses"":8,""num_perfect"":7,""num_errors"":0,""num_randdir"":1,""num_randdir_good_moves"":0,""num_whilered"":0,""num_whileblue"":0,""num_blue"":4,""num_good_moves"":7}","[421.5714133126395,419.07142761775424,0.3,421.5714133126395,419.07142761775424,105,421.5714133126395,419.07142761775424,205.8,411.5714133126395,434.07142761775424,311.8,776.5714133126395,721.5714276177542,420.3,781.5714133126395,729.0714276177542,525.4,781.5714133126395,729.0714276177542,627.1,781.5714133126395,729.0714276177542,727.4,781.5714133126395,729.0714276177542,828.8,781.5714133126395,729.0714276177542,931.8,781.5714133126395,729.0714276177542,1032.5,781.5714133126395,726.5714276177542,1136.2,781.5714133126395,726.5714276177542,1243,774.0714133126395,717.8214276177542,1350.5,774.0714133126395,717.8214276177542,1451.1,774.0714133126395,717.8214276177542,1556,774.0714133126395,717.8214276177542,1656.4,774.0714133126395,717.8214276177542,1757.7,774.0714133126395,717.8214276177542,1859.1,774.0714133126395,717.8214276177542,1966.5,774.0714133126395,717.8214276177542,2073.4,774.0714133126395,717.8214276177542,2179,774.0714133126395,717.8214276177542,2283.4,774.0714133126395,717.8214276177542,2388.8,774.0714133126395,717.8214276177542,2499.1,774.0714133126395,717.8214276177542,2602.6,774.0714133126395,717.8214276177542,2708.7,774.0714133126395,717.8214276177542,2816.7,774.0714133126395,717.8214276177542,2922.1,774.0714133126395,717.8214276177542,3022.7,774.0714133126395,717.8214276177542,3125.4,774.0714133126395,717.8214276177542,3228,774.0714133126395,717.8214276177542,3328.2,774.0714133126395,717.8214276177542,3437.2,774.0714133126395,717.8214276177542,3540.8,774.0714133126395,717.8214276177542,3644.7,774.0714133126395,717.8214276177542,3747.1,774.0714133126395,717.8214276177542,3849.6,774.0714133126395,717.8214276177542,3951.5,774.0714133126395,717.8214276177542,4055.8,774.0714133126395,717.8214276177542,4162.2,774.0714133126395,717.8214276177542,4268.8,774.0714133126395,717.8214276177542,4372.5,774.0714133126395,717.8214276177542,4479.5,774.0714133126395,717.8214276177542,4586.2,774.0714133126395,717.8214276177542,4687.2,774.0714133126395,717.8214276177542,4795.2,774.0714133126395,717.8214276177542,4904.8]","[5440.9,5440.9,3028.3,2001.7,410.9,""smooth"",""down"",""down"",""good_move"",8139.7,2698.2,2316.1,5441.5,382.1,""smooth"",""down"",""down"",""good_move"",10798.1,2657.9,2315.2,8140.2,342.7,""smooth"",""right"",""right"",""good_move"",18563,7764.6,3504.7,14499.7,558.6,""smooth"",""right"",""right"",""good_move"",21710.3,3147,2719.6,18563.3,427.4,""smooth"",""right"",""right"",""good_move"",24768.3,3057.7,2653.2,21710.6,404.5,""oops"",""down"",""left"",""bad_move"",34839.8,10070.9,2940.4,31594,305.4,""smooth"",""right"",""right"",""good_move"",37307.8,2467.7,2084.4,34840.1,383.3,""smooth"",""down"",""down"",""good_move""]"
"2022","","<div style=""width:500px;"">
  <p>What determined the result of this run?</p>
  </div>","43","html-slider-response","69","662124","0.0-7.0-1.11","154","1","2025-08-06 09:03:31","36c45c0696341be0efffe67d72a12abb","223.230.55.133","Mozilla/5.0 (Windows NT 10.0; Win64; x64) AppleWebKit/537.36 (KHTML, like Gecko) Chrome/138.0.0.0 Safari/537.36","WebKit","Chrome","138.0.0.0","Windows","10.0","https://app.prolific.com/","en-US,en;q=0.9","664b3888f484550fe6d377bc","6877649eabb845cf142cd221","68931a394433361b63a84dc1","1","664b3888f484550fe6d377bc","1","2025-08-06T09:14:37.547Z","","","","AttribQ","","","","","","","","","","","50","","","","","","","","","","","","","","","","","","","","","","","","","","",""
"2176","","<div style=""width:500px;"">
  <p>How much control did you have over the ball?</p>
  </div>","42","html-slider-response","70","664301","0.0-7.0-2.11","154","1","2025-08-06 09:03:31","36c45c0696341be0efffe67d72a12abb","223.230.55.133","Mozilla/5.0 (Windows NT 10.0; Win64; x64) AppleWebKit/537.36 (KHTML, like Gecko) Chrome/138.0.0.0 Safari/537.36","WebKit","Chrome","138.0.0.0","Windows","10.0","https://app.prolific.com/","en-US,en;q=0.9","664b3888f484550fe6d377bc","6877649eabb845cf142cd221","68931a394433361b63a84dc1","1","664b3888f484550fe6d377bc","1","2025-08-06T09:14:39.724Z","","","","ControlQ","","","","","","","","","","","50","","","","","","","","","","","","","","","","","","","","","","","","","","",""
"3054","","<div style=""width:500px;"">
  <p>How would you describe your current emotional state?</p>
  </div>","40","html-slider-response","71","667356","0.0-7.0-3.11","154","1","2025-08-06 09:03:31","36c45c0696341be0efffe67d72a12abb","223.230.55.133","Mozilla/5.0 (Windows NT 10.0; Win64; x64) AppleWebKit/537.36 (KHTML, like Gecko) Chrome/138.0.0.0 Safari/537.36","WebKit","Chrome","138.0.0.0","Windows","10.0","https://app.prolific.com/","en-US,en;q=0.9","664b3888f484550fe6d377bc","6877649eabb845cf142cd221","68931a394433361b63a84dc1","1","664b3888f484550fe6d377bc","1","2025-08-06T09:14:42.779Z","","","","StressQ","","","","","","","","","","","50","","","","","","","","","","","","","","","","","","","","","","","","","","",""
"1879","","<div style=""width:500px;"">
  <p>What best describes how you currently feel?</p>
  </div>","58","html-slider-response","72","669236","0.0-7.0-4.11","154","1","2025-08-06 09:03:31","36c45c0696341be0efffe67d72a12abb","223.230.55.133","Mozilla/5.0 (Windows NT 10.0; Win64; x64) AppleWebKit/537.36 (KHTML, like Gecko) Chrome/138.0.0.0 Safari/537.36","WebKit","Chrome","138.0.0.0","Windows","10.0","https://app.prolific.com/","en-US,en;q=0.9","664b3888f484550fe6d377bc","6877649eabb845cf142cd221","68931a394433361b63a84dc1","1","664b3888f484550fe6d377bc","1","2025-08-06T09:14:44.659Z","","","","MotivationQ","","","","","","","","","","","50","","","","","","","","","","","","","","","","","","","","","","","","","","",""
"","","","","ctl-task-cpt","73","691573","0.0-7.0-0.12","154","1","2025-08-06 09:03:31","36c45c0696341be0efffe67d72a12abb","223.230.55.133","Mozilla/5.0 (Windows NT 10.0; Win64; x64) AppleWebKit/537.36 (KHTML, like Gecko) Chrome/138.0.0.0 Safari/537.36","WebKit","Chrome","138.0.0.0","Windows","10.0","https://app.prolific.com/","en-US,en;q=0.9","664b3888f484550fe6d377bc","6877649eabb845cf142cd221","68931a394433361b63a84dc1","1","664b3888f484550fe6d377bc","1","2025-08-06T09:15:06.996Z","","","","","","","","","","","","","","","","win-only","0","g1:NW,g2:SE","0.8","13","0","673384.7","937.2","5938.8","19308.8","1","4","8","6","1","1","1","34","33","0.25757575757575757","942.9","3000","2110","[""left"",""up""]","{""num_key_presses"":4,""num_perfect"":3,""num_errors"":0,""num_randdir"":1,""num_randdir_good_moves"":1,""num_whilered"":0,""num_whileblue"":0,""num_blue"":1,""num_good_moves"":4}","[417.8214133126395,409.07142761775424,0.2,417.8214133126395,412.82142761775424,105.2,417.8214133126395,412.82142761775424,206.4,416.5714133126395,424.07142761775424,313,274.0714133126395,311.57142761775424,420.3,147.8214133126395,104.07142761775425,523.1,147.8214133126395,104.07142761775425,629.6,146.5714133126395,102.82142761775425,730.7,106.5714133126395,87.82142761775425,834.7,97.8214133126395,86.57142761775425,936.9,97.8214133126395,86.57142761775425,1038.3,97.8214133126395,86.57142761775425,1143.9,97.8214133126395,86.57142761775425,1246.9,97.8214133126395,86.57142761775425,1353.3,97.8214133126395,86.57142761775425,1459.9,97.8214133126395,86.57142761775425,1561.1,97.8214133126395,86.57142761775425,1667,97.8214133126395,86.57142761775425,1767.4,97.8214133126395,86.57142761775425,1874.8,97.8214133126395,86.57142761775425,1981.2,97.8214133126395,86.57142761775425,2082.4,97.8214133126395,86.57142761775425,2187.3,97.8214133126395,86.57142761775425,2292.1,97.8214133126395,86.57142761775425,2397.5,97.8214133126395,86.57142761775425,2505.1,97.8214133126395,86.57142761775425,2610.5,97.8214133126395,86.57142761775425,2712.2,97.8214133126395,86.57142761775425,2812.6,97.8214133126395,86.57142761775425,2914.6,97.8214133126395,86.57142761775425,3014.8,97.8214133126395,86.57142761775425,3118.9,97.8214133126395,86.57142761775425,3226,97.8214133126395,86.57142761775425,3333.6,97.8214133126395,86.57142761775425,3440.9,97.8214133126395,86.57142761775425,3548.6,97.8214133126395,86.57142761775425,3656.2,97.8214133126395,86.57142761775425,3758.2,97.8214133126395,86.57142761775425,3859.2,97.8214133126395,86.57142761775425,3962.5,97.8214133126395,86.57142761775425,4069.8,97.8214133126395,86.57142761775425,4179.1,97.8214133126395,86.57142761775425,4285.6,97.8214133126395,86.57142761775425,4389,97.8214133126395,86.57142761775425,4496.1,97.8214133126395,86.57142761775425,4603,97.8214133126395,86.57142761775425,4710.1,97.8214133126395,86.57142761775425,4811.1,97.8214133126395,86.57142761775425,4911.7]","[5234.4,5234.4,2875.2,2011.9,347.3,""smooth"",""up"",""up"",""good_move"",7836.9,2602.2,2203.5,5234.7,398.7,""smooth"",""left"",""left"",""good_move"",10776.3,2938.8,2581.1,7837.5,357.7,""oops"",""up"",""left"",""good_move"",13225.1,2448.5,1999.7,10776.6,448.8,""smooth"",""up"",""up"",""good_move""]"
"1648","","<div style=""width:500px;"">
  <p>What determined the result of this run?</p>
  </div>","61","html-slider-response","74","693221","0.0-7.0-1.12","154","1","2025-08-06 09:03:31","36c45c0696341be0efffe67d72a12abb","223.230.55.133","Mozilla/5.0 (Windows NT 10.0; Win64; x64) AppleWebKit/537.36 (KHTML, like Gecko) Chrome/138.0.0.0 Safari/537.36","WebKit","Chrome","138.0.0.0","Windows","10.0","https://app.prolific.com/","en-US,en;q=0.9","664b3888f484550fe6d377bc","6877649eabb845cf142cd221","68931a394433361b63a84dc1","1","664b3888f484550fe6d377bc","1","2025-08-06T09:15:08.644Z","","","","AttribQ","","","","","","","","","","","50","","","","","","","","","","","","","","","","","","","","","","","","","","",""
"1606","","<div style=""width:500px;"">
  <p>How much control did you have over the ball?</p>
  </div>","56","html-slider-response","75","694828","0.0-7.0-2.12","154","1","2025-08-06 09:03:31","36c45c0696341be0efffe67d72a12abb","223.230.55.133","Mozilla/5.0 (Windows NT 10.0; Win64; x64) AppleWebKit/537.36 (KHTML, like Gecko) Chrome/138.0.0.0 Safari/537.36","WebKit","Chrome","138.0.0.0","Windows","10.0","https://app.prolific.com/","en-US,en;q=0.9","664b3888f484550fe6d377bc","6877649eabb845cf142cd221","68931a394433361b63a84dc1","1","664b3888f484550fe6d377bc","1","2025-08-06T09:15:10.251Z","","","","ControlQ","","","","","","","","","","","50","","","","","","","","","","","","","","","","","","","","","","","","","","",""
"3215","","<div style=""width:500px;"">
  <p>How would you describe your current emotional state?</p>
  </div>","38","html-slider-response","76","698045","0.0-7.0-3.12","154","1","2025-08-06 09:03:31","36c45c0696341be0efffe67d72a12abb","223.230.55.133","Mozilla/5.0 (Windows NT 10.0; Win64; x64) AppleWebKit/537.36 (KHTML, like Gecko) Chrome/138.0.0.0 Safari/537.36","WebKit","Chrome","138.0.0.0","Windows","10.0","https://app.prolific.com/","en-US,en;q=0.9","664b3888f484550fe6d377bc","6877649eabb845cf142cd221","68931a394433361b63a84dc1","1","664b3888f484550fe6d377bc","1","2025-08-06T09:15:13.468Z","","","","StressQ","","","","","","","","","","","50","","","","","","","","","","","","","","","","","","","","","","","","","","",""
"1174","","<div style=""width:500px;"">
  <p>What best describes how you currently feel?</p>
  </div>","63","html-slider-response","77","699220","0.0-7.0-4.12","154","1","2025-08-06 09:03:31","36c45c0696341be0efffe67d72a12abb","223.230.55.133","Mozilla/5.0 (Windows NT 10.0; Win64; x64) AppleWebKit/537.36 (KHTML, like Gecko) Chrome/138.0.0.0 Safari/537.36","WebKit","Chrome","138.0.0.0","Windows","10.0","https://app.prolific.com/","en-US,en;q=0.9","664b3888f484550fe6d377bc","6877649eabb845cf142cd221","68931a394433361b63a84dc1","1","664b3888f484550fe6d377bc","1","2025-08-06T09:15:14.643Z","","","","MotivationQ","","","","","","","","","","","50","","","","","","","","","","","","","","","","","","","","","","","","","","",""
