"rt","response_timestamp","stimulus","response","trial_type","trial_index","time_elapsed","internal_node_id","run_id","condition","recorded_at","source_code_version","ip","user_agent","device","browser","browser_version","platform","platform_version","referer","accept_language","PROLIFIC_PID","STUDY_ID","SESSION_ID","BATCH","prolific_id","batch","realtime","success","question_order","question_id","eventType","responses","item_order","radio_event_ids","radio_event_times","key_event_times","mouse_event_times","straightlining","zigzagging","honeypot","view_history","slider_start","which_type","canvas_config","goals_layout","control_level","trial_number","tutorial_trial_number","trial_start_time","phase1_start_time","phase2_start_time","phase3_start_time","goal_1_value","goal_1_distance","goal_2_value","goal_2_distance","goal_selected","outcome","outcome_total","participant_final_score","participant_initial_score","participant_final_score_prop","goal_choice_rt","allocated_time","allocated_time_remaining","goal_direction","counts","mouse_movements","key_presses"
"10594","1753865617907","<p style='font-size:40px;line-height:1.25'><strong>Welcome to the experiment!</strong></p><p style='font-size:1.1em;line-height:1.25'>Thank you for participanting in our experiment again! You will be asked to play the Dysfunctional Ball Game again. We will briefly recap the rules before we start.</p><p style='font-size:1.1em;line-height:1.25'>Press <strong>Next</strong> to continue.</p>","0","custom-html-button-response","0","10605","0.0-0.0","65","1","2025-07-30 08:53:20","36c45c0696341be0efffe67d72a12abb","41.90.5.172","Mozilla/5.0 (Windows NT 10.0; Win64; x64) AppleWebKit/537.36 (KHTML, like Gecko) Chrome/138.0.0.0 Safari/537.36","WebKit","Chrome","138.0.0.0","Windows","10.0","https://app.prolific.com/","en-US,en;q=0.9","664b7cea18fe17cd31b5ab5e","687a19d2168e237449fb8af4","6889dc1888c6a79ab1d0cfe6","0","664b7cea18fe17cd31b5ab5e","0","2025-07-30T08:53:37.916Z","","","","","","","","","","","","","","","","","","","","","","","","","","","","","","","","","","","","","","","","","",""
"26728","","","","fullscreen","1","38360","0.0-1.0","65","1","2025-07-30 08:53:20","36c45c0696341be0efffe67d72a12abb","41.90.5.172","Mozilla/5.0 (Windows NT 10.0; Win64; x64) AppleWebKit/537.36 (KHTML, like Gecko) Chrome/138.0.0.0 Safari/537.36","WebKit","Chrome","138.0.0.0","Windows","10.0","https://app.prolific.com/","en-US,en;q=0.9","664b7cea18fe17cd31b5ab5e","687a19d2168e237449fb8af4","6889dc1888c6a79ab1d0cfe6","0","664b7cea18fe17cd31b5ab5e","0","","true","","","","","","","","","","","","","","","","","","","","","","","","","","","","","","","","","","","","","","","","",""
"8272","1753865653946"," <p style='font-size:1.1em;line-height:1.25'>Thank you for closing all other tabs.</p><p style='font-size:1.1em;line-height:1.25'>We will now invite you to fill in some questionnaires, before starting the game.<br>This will take about 5 minutes.<br></p><p style='font-size:1.1em;line-height:1.25'>Press the <strong>Next</strong> button to continue.</p>","0","custom-html-button-response","2","46638","0.0-2.0","65","1","2025-07-30 08:53:20","36c45c0696341be0efffe67d72a12abb","41.90.5.172","Mozilla/5.0 (Windows NT 10.0; Win64; x64) AppleWebKit/537.36 (KHTML, like Gecko) Chrome/138.0.0.0 Safari/537.36","WebKit","Chrome","138.0.0.0","Windows","10.0","https://app.prolific.com/","en-US,en;q=0.9","664b7cea18fe17cd31b5ab5e","687a19d2168e237449fb8af4","6889dc1888c6a79ab1d0cfe6","0","664b7cea18fe17cd31b5ab5e","0","2025-07-30T08:54:13.948Z","","","","","","","","","","","","","","","","","","","","","","","","","","","","","","","","","","","","","","","","","",""
"4151","","","{""assigned_sex"":""male""}","survey-multi-choice","3","50797","0.0-3.0-0.0","65","1","2025-07-30 08:53:20","36c45c0696341be0efffe67d72a12abb","41.90.5.172","Mozilla/5.0 (Windows NT 10.0; Win64; x64) AppleWebKit/537.36 (KHTML, like Gecko) Chrome/138.0.0.0 Safari/537.36","WebKit","Chrome","138.0.0.0","Windows","10.0","https://app.prolific.com/","en-US,en;q=0.9","664b7cea18fe17cd31b5ab5e","687a19d2168e237449fb8af4","6889dc1888c6a79ab1d0cfe6","0","664b7cea18fe17cd31b5ab5e","0","","","[0]","0","demographics","","","","","","","","","","","","","","","","","","","","","","","","","","","","","","","","","","","","","",""
"10036","1753865668145","<p style='font-size:1.1em;line-height:1.25'>In the following, we will perform a baseline assessment. This means that we will ask you a few questions relating to your experiences over the past month.<br></p><p style='font-size:1.1em;line-height:1.25'>Press the <strong>Next</strong> button to continue.</p>","0","custom-html-button-response","4","60836","0.0-4.0-0.0","65","1","2025-07-30 08:53:20","36c45c0696341be0efffe67d72a12abb","41.90.5.172","Mozilla/5.0 (Windows NT 10.0; Win64; x64) AppleWebKit/537.36 (KHTML, like Gecko) Chrome/138.0.0.0 Safari/537.36","WebKit","Chrome","138.0.0.0","Windows","10.0","https://app.prolific.com/","en-US,en;q=0.9","664b7cea18fe17cd31b5ab5e","687a19d2168e237449fb8af4","6889dc1888c6a79ab1d0cfe6","0","664b7cea18fe17cd31b5ab5e","0","2025-07-30T08:54:28.146Z","","","","","","","","","","","","","","","","","","","","","","","","","","","","","","","","","","","","","","","","","",""
"105710.79999999702","","","","survey-template","5","166567","0.0-4.0-1.0","65","1","2025-07-30 08:53:20","36c45c0696341be0efffe67d72a12abb","41.90.5.172","Mozilla/5.0 (Windows NT 10.0; Win64; x64) AppleWebKit/537.36 (KHTML, like Gecko) Chrome/138.0.0.0 Safari/537.36","WebKit","Chrome","138.0.0.0","Windows","10.0","https://app.prolific.com/","en-US,en;q=0.9","664b7cea18fe17cd31b5ab5e","687a19d2168e237449fb8af4","6889dc1888c6a79ab1d0cfe6","0","664b7cea18fe17cd31b5ab5e","0","2025-07-30T08:56:13.877Z","","","","pss","{""Q01"":""3"",""Q02"":""2"",""Q03"":""2"",""Q04"":""0"",""Q05"":""1"",""Q06"":""2"",""Q07"":""1"",""Q08"":""2"",""Q09"":""3"",""Q10"":""2""}","[0,1,2,3,4,5,6,7,8,9]","[""Q01"",""Q02"",""Q03"",""Q04"",""Q05"",""Q06"",""Q07"",""Q08"",""Q09"",""Q10""]","[26028.59999999404,34161.69999998808,39307,48751.69999998808,58076.69999998808,66717.69999998808,77708.59999999404,86592,95562.79999999702,103734]","[]","[0.29999999701976776,24271.89999999106,26028.59999999404,34161.69999998808,39307,48751.69999998808,56626.09999999404,58076.69999998808,66717.69999998808,73043.19999998808,76241.19999998808,77708.59999999404,86592,93972.39999999106,95562.79999999702,103734,105698.59999999404]","0.5","0.7777777777777778","0","","","","","","","","","","","","","","","","","","","","","","","","","","","","",""
"8597","1753865782476","<p style='font-size:1.1em;line-height:1.25'>Thank you for your answers! Now we will ask you a few more questions relating to your feelings in the last 24 hours.<br></p><p style='font-size:1.1em;line-height:1.25'>Press the <strong>Next</strong> button to continue.</p>","0","custom-html-button-response","6","175167","0.0-4.0-2.0","65","1","2025-07-30 08:53:20","36c45c0696341be0efffe67d72a12abb","41.90.5.172","Mozilla/5.0 (Windows NT 10.0; Win64; x64) AppleWebKit/537.36 (KHTML, like Gecko) Chrome/138.0.0.0 Safari/537.36","WebKit","Chrome","138.0.0.0","Windows","10.0","https://app.prolific.com/","en-US,en;q=0.9","664b7cea18fe17cd31b5ab5e","687a19d2168e237449fb8af4","6889dc1888c6a79ab1d0cfe6","0","664b7cea18fe17cd31b5ab5e","0","2025-07-30T08:56:22.477Z","","","","","","","","","","","","","","","","","","","","","","","","","","","","","","","","","","","","","","","","","",""
"113257.40000000596","","","","survey-template","7","288444","0.0-4.0-3.0","65","1","2025-07-30 08:53:20","36c45c0696341be0efffe67d72a12abb","41.90.5.172","Mozilla/5.0 (Windows NT 10.0; Win64; x64) AppleWebKit/537.36 (KHTML, like Gecko) Chrome/138.0.0.0 Safari/537.36","WebKit","Chrome","138.0.0.0","Windows","10.0","https://app.prolific.com/","en-US,en;q=0.9","664b7cea18fe17cd31b5ab5e","687a19d2168e237449fb8af4","6889dc1888c6a79ab1d0cfe6","0","664b7cea18fe17cd31b5ab5e","0","2025-07-30T08:58:15.754Z","","","","drsp","{""Q01"":""3"",""Q02"":""2"",""Q03"":""1"",""Q04"":""4"",""Q05"":""4"",""Q06"":""3"",""Q07"":""3"",""Q08"":""0"",""Q09"":""2"",""Q10"":""3"",""Q11"":""4"",""Q12"":""2"",""Q13"":""5"",""Q14"":""4"",""Q15"":""3"",""Q16"":""3"",""Q17"":""3"",""Q18"":""1"",""Q19"":""1"",""Q20"":""3"",""Q21"":""1"",""Q22"":""2""}","[0,1,2,3,4,5,6,7,8,9,10,11,12,13,14,15,16,17,18,19,20,21]","[""Q01"",""Q02"",""Q03"",""Q04"",""Q05"",""Q06"",""Q07"",""Q08"",""Q09"",""Q10"",""Q11"",""Q12"",""Q13"",""Q14"",""Q15"",""Q16"",""Q17"",""Q18"",""Q19"",""Q20"",""Q21"",""Q22""]","[5901.4000000059605,10240.70000000298,15841.29999999702,18128.09999999404,21216.79999999702,25027.09999999404,31886.59999999404,38328.29999999702,40306.59999999404,44429.40000000596,48893.20000000298,52461.59999999404,55757.70000000298,60842.59999999404,66360.59999999404,70425.20000000298,74855.20000000298,78378.59999999404,88839,98809.29999999702,105922.5,109808.59999999404]","[]","[0.20000000298023224,5901.4000000059605,10240.70000000298,13692.40000000596,15841.29999999702,18128.09999999404,21216.79999999702,25027.09999999404,28234.29999999702,31886.59999999404,35118.29999999702,38328.29999999702,40306.59999999404,44429.40000000596,48893.20000000298,52461.59999999404,55757.70000000298,60842.59999999404,66360.59999999404,70425.20000000298,73412,74855.20000000298,78378.59999999404,85497.59999999404,87457,88839,98809.29999999702,103633.40000000596,105922.5,109808.59999999404,113237.79999999702]","0.36363636363636365","0.38095238095238093","0","","","","","","","","","","","","","","","","","","","","","","","","","","","","",""
"24627.10000000894","","","","survey-template","8","313076","0.0-4.0-4.0","65","1","2025-07-30 08:53:20","36c45c0696341be0efffe67d72a12abb","41.90.5.172","Mozilla/5.0 (Windows NT 10.0; Win64; x64) AppleWebKit/537.36 (KHTML, like Gecko) Chrome/138.0.0.0 Safari/537.36","WebKit","Chrome","138.0.0.0","Windows","10.0","https://app.prolific.com/","en-US,en;q=0.9","664b7cea18fe17cd31b5ab5e","687a19d2168e237449fb8af4","6889dc1888c6a79ab1d0cfe6","0","664b7cea18fe17cd31b5ab5e","0","2025-07-30T08:58:40.386Z","","","","stress","{""Q01"":""2"",""Q02"":""1"",""Q03"":""4""}","[0,1,2]","[""Q01"",""Q02"",""Q03""]","[13329.300000011921,15402.800000011921,22247]","[]","[7434.70000000298,11855.60000000894,13329.300000011921,15402.800000011921,22247,24622.90000000596]","0.6666666666666666","0","0","","","","","","","","","","","","","","","","","","","","","","","","","","","","",""
"57089","","","","instructions","9","370170","0.0-5.0-0.0","65","1","2025-07-30 08:53:20","36c45c0696341be0efffe67d72a12abb","41.90.5.172","Mozilla/5.0 (Windows NT 10.0; Win64; x64) AppleWebKit/537.36 (KHTML, like Gecko) Chrome/138.0.0.0 Safari/537.36","WebKit","Chrome","138.0.0.0","Windows","10.0","https://app.prolific.com/","en-US,en;q=0.9","664b7cea18fe17cd31b5ab5e","687a19d2168e237449fb8af4","6889dc1888c6a79ab1d0cfe6","0","664b7cea18fe17cd31b5ab5e","0","","","","","","","","","","","","","","","[{""page_index"":0,""viewing_time"":57088}]","","","","","","","","","","","","","","","","","","","","","","","","","","","",""
"23181","","<p>Before you start with this game please answer the following three questions yourself. </p>
  <p>Through this game, we measure several aspects of your cognitive performance, such as reaction times, multi-tasking capabilities </p>
  <p>and the ability to assess the situation you are in.</p>
  <p></p>
  <p><b>How good do you usually are in such tasks?</b></p>","61","html-slider-response","10","393362","0.0-6.0-0.0","65","1","2025-07-30 08:53:20","36c45c0696341be0efffe67d72a12abb","41.90.5.172","Mozilla/5.0 (Windows NT 10.0; Win64; x64) AppleWebKit/537.36 (KHTML, like Gecko) Chrome/138.0.0.0 Safari/537.36","WebKit","Chrome","138.0.0.0","Windows","10.0","https://app.prolific.com/","en-US,en;q=0.9","664b7cea18fe17cd31b5ab5e","687a19d2168e237449fb8af4","6889dc1888c6a79ab1d0cfe6","0","664b7cea18fe17cd31b5ab5e","0","2025-07-30T09:00:00.673Z","","","","PreSkillQ","","","","","","","","","","","50","","","","","","","","","","","","","","","","","","","","","","","","","","",""
"7968","","<div style=""width:500px;"">
  <p>How well do you think you will perform in this task compared to other participants?</p>
  </div>","66","html-slider-response","11","401335","0.0-6.0-1.0","65","1","2025-07-30 08:53:20","36c45c0696341be0efffe67d72a12abb","41.90.5.172","Mozilla/5.0 (Windows NT 10.0; Win64; x64) AppleWebKit/537.36 (KHTML, like Gecko) Chrome/138.0.0.0 Safari/537.36","WebKit","Chrome","138.0.0.0","Windows","10.0","https://app.prolific.com/","en-US,en;q=0.9","664b7cea18fe17cd31b5ab5e","687a19d2168e237449fb8af4","6889dc1888c6a79ab1d0cfe6","0","664b7cea18fe17cd31b5ab5e","0","2025-07-30T09:00:08.645Z","","","","PrePerfQ","","","","","","","","","","","50","","","","","","","","","","","","","","","","","","","","","","","","","","",""
"7253","","<div style=""width:500px;"">
  <p>What best describes how you currently feel?</p>
  </div>","85","html-slider-response","12","408593","0.0-6.0-2.0","65","1","2025-07-30 08:53:20","36c45c0696341be0efffe67d72a12abb","41.90.5.172","Mozilla/5.0 (Windows NT 10.0; Win64; x64) AppleWebKit/537.36 (KHTML, like Gecko) Chrome/138.0.0.0 Safari/537.36","WebKit","Chrome","138.0.0.0","Windows","10.0","https://app.prolific.com/","en-US,en;q=0.9","664b7cea18fe17cd31b5ab5e","687a19d2168e237449fb8af4","6889dc1888c6a79ab1d0cfe6","0","664b7cea18fe17cd31b5ab5e","0","2025-07-30T09:00:15.903Z","","","","PreMotivationQ","","","","","","","","","","","50","","","","","","","","","","","","","","","","","","","","","","","","","","",""
"","","","","ctl-task-cpt","13","453559","0.0-7.0-0.0","65","1","2025-07-30 08:53:20","36c45c0696341be0efffe67d72a12abb","41.90.5.172","Mozilla/5.0 (Windows NT 10.0; Win64; x64) AppleWebKit/537.36 (KHTML, like Gecko) Chrome/138.0.0.0 Safari/537.36","WebKit","Chrome","138.0.0.0","Windows","10.0","https://app.prolific.com/","en-US,en;q=0.9","664b7cea18fe17cd31b5ab5e","687a19d2168e237449fb8af4","6889dc1888c6a79ab1d0cfe6","0","664b7cea18fe17cd31b5ab5e","0","2025-07-30T09:01:00.869Z","","","","","","","","","","","","","","","","win-only","2","g1:SE,g2:NW","1","1","0","416471.3","18561.1","23566.4","41943.4","1","4","4","6","2","4","4","4","0","0.030303030303030304","3794.8","3000","70","[""left"",""up""]","{""num_key_presses"":6,""num_perfect"":6,""num_errors"":0,""num_randdir"":0,""num_randdir_good_moves"":0,""num_whilered"":0,""num_whileblue"":0,""num_blue"":0,""num_good_moves"":6}","[297.22232142857143,303.12857142857143,6.4,297.22232142857143,303.12857142857143,100.2,297.22232142857143,303.12857142857143,202.2,297.22232142857143,303.12857142857143,305.6,297.22232142857143,303.12857142857143,406,297.22232142857143,303.12857142857143,514.4,297.22232142857143,303.12857142857143,615.4,297.22232142857143,303.12857142857143,720.5,297.22232142857143,303.12857142857143,821.4,297.22232142857143,303.12857142857143,927.4,297.22232142857143,303.12857142857143,1032,297.22232142857143,303.12857142857143,1132,297.22232142857143,303.12857142857143,1238.3,297.22232142857143,303.12857142857143,1341.4,297.22232142857143,303.12857142857143,1444.3,297.22232142857143,303.12857142857143,1553.3,297.22232142857143,303.12857142857143,1654.9,302.22232142857143,311.12857142857143,1755.6,318.22232142857143,342.12857142857143,1858.7,328.22232142857143,352.12857142857143,1966.2,335.22232142857143,360.12857142857143,2071.6,336.22232142857143,361.12857142857143,2178.6,336.22232142857143,361.12857142857143,2281.4,336.22232142857143,361.12857142857143,2382.8,336.22232142857143,361.12857142857143,2488.9,336.22232142857143,361.12857142857143,2590.2,336.22232142857143,361.12857142857143,2705.9,336.22232142857143,361.12857142857143,2807.2,336.22232142857143,361.12857142857143,2912.4,336.22232142857143,361.12857142857143,3014.4,336.22232142857143,361.12857142857143,3121.4,92.22232142857143,126.12857142857143,3230.9,50.222321428571426,82.12857142857143,3336.9,35.222321428571426,58.128571428571426,3441.1,31.222321428571426,41.128571428571426,3541.3,31.222321428571426,37.128571428571426,3642.7,31.222321428571426,37.128571428571426,3751,31.222321428571426,37.128571428571426,3855.4,31.222321428571426,37.128571428571426,3961,31.222321428571426,37.128571428571426,4065.9,31.222321428571426,37.128571428571426,4169.1,31.222321428571426,37.128571428571426,4273.9,31.222321428571426,37.128571428571426,4375.6,31.222321428571426,37.128571428571426,4483.5,31.222321428571426,37.128571428571426,4586.4,31.222321428571426,37.128571428571426,4692.3,31.222321428571426,37.128571428571426,4794.3,31.222321428571426,37.128571428571426,4896.1]","[2847.6,2847.6,1000,0.1,1847.6,""smooth"",""left"",""left"",""good_move"",6374.9,3524,2892.5,2851.4,631.1,""smooth"",""left"",""left"",""good_move"",9489.3,3113.1,2344.3,6376.2,768.8,""smooth"",""up"",""up"",""good_move"",12190.6,2699.5,2095.9,9491.1,603.6,""smooth"",""left"",""left"",""good_move"",15089.2,2895.2,2452,12194,443.2,""smooth"",""up"",""up"",""good_move"",18237.7,3147.2,2775,15090.6,372.1,""smooth"",""up"",""up"",""good_move""]"
"20899","","<div style=""width:500px;"">
  <p>What determined the result of this run?</p>
  </div>","87","html-slider-response","14","474463","0.0-7.0-1.0","65","1","2025-07-30 08:53:20","36c45c0696341be0efffe67d72a12abb","41.90.5.172","Mozilla/5.0 (Windows NT 10.0; Win64; x64) AppleWebKit/537.36 (KHTML, like Gecko) Chrome/138.0.0.0 Safari/537.36","WebKit","Chrome","138.0.0.0","Windows","10.0","https://app.prolific.com/","en-US,en;q=0.9","664b7cea18fe17cd31b5ab5e","687a19d2168e237449fb8af4","6889dc1888c6a79ab1d0cfe6","0","664b7cea18fe17cd31b5ab5e","0","2025-07-30T09:01:21.774Z","","","","AttribQ","","","","","","","","","","","50","","","","","","","","","","","","","","","","","","","","","","","","","","",""
"5443","","<div style=""width:500px;"">
  <p>How much control did you have over the ball?</p>
  </div>","100","html-slider-response","15","479911","0.0-7.0-2.0","65","1","2025-07-30 08:53:20","36c45c0696341be0efffe67d72a12abb","41.90.5.172","Mozilla/5.0 (Windows NT 10.0; Win64; x64) AppleWebKit/537.36 (KHTML, like Gecko) Chrome/138.0.0.0 Safari/537.36","WebKit","Chrome","138.0.0.0","Windows","10.0","https://app.prolific.com/","en-US,en;q=0.9","664b7cea18fe17cd31b5ab5e","687a19d2168e237449fb8af4","6889dc1888c6a79ab1d0cfe6","0","664b7cea18fe17cd31b5ab5e","0","2025-07-30T09:01:27.221Z","","","","ControlQ","","","","","","","","","","","50","","","","","","","","","","","","","","","","","","","","","","","","","","",""
"6765","","<div style=""width:500px;"">
  <p>How would you describe your current emotional state?</p>
  </div>","15","html-slider-response","16","486681","0.0-7.0-3.0","65","1","2025-07-30 08:53:20","36c45c0696341be0efffe67d72a12abb","41.90.5.172","Mozilla/5.0 (Windows NT 10.0; Win64; x64) AppleWebKit/537.36 (KHTML, like Gecko) Chrome/138.0.0.0 Safari/537.36","WebKit","Chrome","138.0.0.0","Windows","10.0","https://app.prolific.com/","en-US,en;q=0.9","664b7cea18fe17cd31b5ab5e","687a19d2168e237449fb8af4","6889dc1888c6a79ab1d0cfe6","0","664b7cea18fe17cd31b5ab5e","0","2025-07-30T09:01:33.992Z","","","","StressQ","","","","","","","","","","","50","","","","","","","","","","","","","","","","","","","","","","","","","","",""
"7143","","<div style=""width:500px;"">
  <p>What best describes how you currently feel?</p>
  </div>","98","html-slider-response","17","493828","0.0-7.0-4.0","65","1","2025-07-30 08:53:20","36c45c0696341be0efffe67d72a12abb","41.90.5.172","Mozilla/5.0 (Windows NT 10.0; Win64; x64) AppleWebKit/537.36 (KHTML, like Gecko) Chrome/138.0.0.0 Safari/537.36","WebKit","Chrome","138.0.0.0","Windows","10.0","https://app.prolific.com/","en-US,en;q=0.9","664b7cea18fe17cd31b5ab5e","687a19d2168e237449fb8af4","6889dc1888c6a79ab1d0cfe6","0","664b7cea18fe17cd31b5ab5e","0","2025-07-30T09:01:41.138Z","","","","MotivationQ","","","","","","","","","","","50","","","","","","","","","","","","","","","","","","","","","","","","","","",""
"","","","","ctl-task-cpt","18","527569","0.0-7.0-0.1","65","1","2025-07-30 08:53:20","36c45c0696341be0efffe67d72a12abb","41.90.5.172","Mozilla/5.0 (Windows NT 10.0; Win64; x64) AppleWebKit/537.36 (KHTML, like Gecko) Chrome/138.0.0.0 Safari/537.36","WebKit","Chrome","138.0.0.0","Windows","10.0","https://app.prolific.com/","en-US,en;q=0.9","664b7cea18fe17cd31b5ab5e","687a19d2168e237449fb8af4","6889dc1888c6a79ab1d0cfe6","0","664b7cea18fe17cd31b5ab5e","0","2025-07-30T09:02:14.879Z","","","","","","","","","","","","","","","","win-only","3","g1:SW,g2:NE","0.9","2","0","501707.3","2668.2","7673.3","30714.3","1","4","8","6","2","8","8","12","4","0.09090909090909091","1729","3000","870","[""up"",""right""]","{""num_key_presses"":8,""num_perfect"":7,""num_errors"":0,""num_randdir"":1,""num_randdir_good_moves"":0,""num_whilered"":0,""num_whileblue"":0,""num_blue"":0,""num_good_moves"":7}","[298.22232142857143,298.12857142857143,0.5,298.22232142857143,298.12857142857143,100.8,298.22232142857143,298.12857142857143,206.2,298.22232142857143,298.12857142857143,307.5,298.22232142857143,298.12857142857143,409.8,298.22232142857143,298.12857142857143,513.2,298.22232142857143,298.12857142857143,614.3,298.22232142857143,298.12857142857143,714.5,298.22232142857143,298.12857142857143,824.1,397.22232142857143,198.12857142857143,927.7,464.22232142857143,121.12857142857143,1028.9,474.22232142857143,111.12857142857143,1131.1,485.22232142857143,99.12857142857143,1235.5,502.22232142857143,85.12857142857143,1343.7,512.2223214285714,76.12857142857143,1449.7,517.2223214285714,74.12857142857143,1558.8,517.2223214285714,74.12857142857143,1660.1,517.2223214285714,74.12857142857143,1769.7,517.2223214285714,74.12857142857143,1874.6,517.2223214285714,74.12857142857143,1988.4,517.2223214285714,74.12857142857143,2088.8,517.2223214285714,74.12857142857143,2189.5,517.2223214285714,74.12857142857143,2293.6,517.2223214285714,74.12857142857143,2395.5,517.2223214285714,74.12857142857143,2504.7,517.2223214285714,74.12857142857143,2605.6,517.2223214285714,74.12857142857143,2706.1,517.2223214285714,74.12857142857143,2819.4,517.2223214285714,74.12857142857143,2922.6,517.2223214285714,74.12857142857143,3027,517.2223214285714,74.12857142857143,3129.6,517.2223214285714,74.12857142857143,3248.2,517.2223214285714,74.12857142857143,3349.8,517.2223214285714,74.12857142857143,3455.2,517.2223214285714,74.12857142857143,3566,517.2223214285714,74.12857142857143,3674,517.2223214285714,74.12857142857143,3774.1,517.2223214285714,74.12857142857143,3874.4,517.2223214285714,74.12857142857143,3975.3,517.2223214285714,74.12857142857143,4076.7,517.2223214285714,74.12857142857143,4181.4,517.2223214285714,74.12857142857143,4292.6,517.2223214285714,74.12857142857143,4398.1,517.2223214285714,74.12857142857143,4502.9,517.2223214285714,74.12857142857143,4604.1,517.2223214285714,74.12857142857143,4705,517.2223214285714,74.12857142857143,4820,517.2223214285714,74.12857142857143,4920.4]","[1543,1543.1,1000,0,543.1,""smooth"",""up"",""up"",""good_move"",4927.9,3382.3,2981.3,1545.7,400.9,""oops"",""up"",""left"",""bad_move"",7958,3026.1,2560.5,4932,465.5,""smooth"",""up"",""up"",""good_move"",11076.5,3117.6,2750.5,7958.9,367.1,""smooth"",""right"",""right"",""good_move"",14518.5,3437.3,2959.7,11081.3,477.5,""smooth"",""up"",""up"",""good_move"",17171.5,2649.9,2318.5,14521.7,331.4,""smooth"",""right"",""right"",""good_move"",19904.3,2730.6,2384.1,17173.8,346.6,""smooth"",""right"",""right"",""good_move"",22937.6,3028.6,2704.3,19909.1,324.2,""smooth"",""right"",""right"",""good_move""]"
"7677","","<div style=""width:500px;"">
  <p>What determined the result of this run?</p>
  </div>","100","html-slider-response","19","535252","0.0-7.0-1.1","65","1","2025-07-30 08:53:20","36c45c0696341be0efffe67d72a12abb","41.90.5.172","Mozilla/5.0 (Windows NT 10.0; Win64; x64) AppleWebKit/537.36 (KHTML, like Gecko) Chrome/138.0.0.0 Safari/537.36","WebKit","Chrome","138.0.0.0","Windows","10.0","https://app.prolific.com/","en-US,en;q=0.9","664b7cea18fe17cd31b5ab5e","687a19d2168e237449fb8af4","6889dc1888c6a79ab1d0cfe6","0","664b7cea18fe17cd31b5ab5e","0","2025-07-30T09:02:22.562Z","","","","AttribQ","","","","","","","","","","","50","","","","","","","","","","","","","","","","","","","","","","","","","","",""
"4696","","<div style=""width:500px;"">
  <p>How much control did you have over the ball?</p>
  </div>","100","html-slider-response","20","539962","0.0-7.0-2.1","65","1","2025-07-30 08:53:20","36c45c0696341be0efffe67d72a12abb","41.90.5.172","Mozilla/5.0 (Windows NT 10.0; Win64; x64) AppleWebKit/537.36 (KHTML, like Gecko) Chrome/138.0.0.0 Safari/537.36","WebKit","Chrome","138.0.0.0","Windows","10.0","https://app.prolific.com/","en-US,en;q=0.9","664b7cea18fe17cd31b5ab5e","687a19d2168e237449fb8af4","6889dc1888c6a79ab1d0cfe6","0","664b7cea18fe17cd31b5ab5e","0","2025-07-30T09:02:27.274Z","","","","ControlQ","","","","","","","","","","","50","","","","","","","","","","","","","","","","","","","","","","","","","","",""
"6980","","<div style=""width:500px;"">
  <p>How would you describe your current emotional state?</p>
  </div>","1","html-slider-response","21","546949","0.0-7.0-3.1","65","1","2025-07-30 08:53:20","36c45c0696341be0efffe67d72a12abb","41.90.5.172","Mozilla/5.0 (Windows NT 10.0; Win64; x64) AppleWebKit/537.36 (KHTML, like Gecko) Chrome/138.0.0.0 Safari/537.36","WebKit","Chrome","138.0.0.0","Windows","10.0","https://app.prolific.com/","en-US,en;q=0.9","664b7cea18fe17cd31b5ab5e","687a19d2168e237449fb8af4","6889dc1888c6a79ab1d0cfe6","0","664b7cea18fe17cd31b5ab5e","0","2025-07-30T09:02:34.259Z","","","","StressQ","","","","","","","","","","","50","","","","","","","","","","","","","","","","","","","","","","","","","","",""
"7865","","<div style=""width:500px;"">
  <p>What best describes how you currently feel?</p>
  </div>","91","html-slider-response","22","554823","0.0-7.0-4.1","65","1","2025-07-30 08:53:20","36c45c0696341be0efffe67d72a12abb","41.90.5.172","Mozilla/5.0 (Windows NT 10.0; Win64; x64) AppleWebKit/537.36 (KHTML, like Gecko) Chrome/138.0.0.0 Safari/537.36","WebKit","Chrome","138.0.0.0","Windows","10.0","https://app.prolific.com/","en-US,en;q=0.9","664b7cea18fe17cd31b5ab5e","687a19d2168e237449fb8af4","6889dc1888c6a79ab1d0cfe6","0","664b7cea18fe17cd31b5ab5e","0","2025-07-30T09:02:42.133Z","","","","MotivationQ","","","","","","","","","","","50","","","","","","","","","","","","","","","","","","","","","","","","","","",""
"","","","","ctl-task-cpt","23","590282","0.0-7.0-0.2","65","1","2025-07-30 08:53:20","36c45c0696341be0efffe67d72a12abb","41.90.5.172","Mozilla/5.0 (Windows NT 10.0; Win64; x64) AppleWebKit/537.36 (KHTML, like Gecko) Chrome/138.0.0.0 Safari/537.36","WebKit","Chrome","138.0.0.0","Windows","10.0","https://app.prolific.com/","en-US,en;q=0.9","664b7cea18fe17cd31b5ab5e","687a19d2168e237449fb8af4","6889dc1888c6a79ab1d0cfe6","0","664b7cea18fe17cd31b5ab5e","0","2025-07-30T09:03:17.592Z","","","","","","","","","","","","","","","","win-only","0","g1:NW,g2:SE","0.8","3","0","562701.1","4738.8","9740","32421.7","1","4","8","6","2","8","8","20","12","0.15151515151515152","1912.5","3000","1360","[""down"",""right""]","{""num_key_presses"":6,""num_perfect"":5,""num_errors"":0,""num_randdir"":1,""num_randdir_good_moves"":1,""num_whilered"":0,""num_whileblue"":0,""num_blue"":2,""num_good_moves"":6}","[299.22232142857143,302.12857142857143,0.6,299.22232142857143,302.12857142857143,102,299.22232142857143,302.12857142857143,214.3,299.22232142857143,302.12857142857143,314.5,299.22232142857143,302.12857142857143,415.3,299.22232142857143,302.12857142857143,517.2,299.22232142857143,302.12857142857143,618.2,299.22232142857143,302.12857142857143,720.3,299.22232142857143,302.12857142857143,834.2,299.22232142857143,302.12857142857143,943.1,307.22232142857143,310.12857142857143,1054.8,411.22232142857143,406.12857142857143,1157.5,451.22232142857143,446.12857142857143,1266.3,476.22232142857143,457.12857142857143,1371.7,494.22232142857143,482.12857142857143,1486.4,502.22232142857143,496.12857142857143,1589.2,502.22232142857143,504.12857142857143,1698.4,502.22232142857143,504.12857142857143,1802.3,502.22232142857143,504.12857142857143,1920.9,502.22232142857143,504.12857142857143,2030,502.22232142857143,504.12857142857143,2133.7,502.22232142857143,504.12857142857143,2235.9,502.22232142857143,504.12857142857143,2339,502.22232142857143,504.12857142857143,2439.6,502.22232142857143,504.12857142857143,2543.9,502.22232142857143,504.12857142857143,2644.2,502.22232142857143,504.12857142857143,2750.2,502.22232142857143,504.12857142857143,2851.7,502.22232142857143,504.12857142857143,2953.1,502.22232142857143,504.12857142857143,3073.1,502.22232142857143,504.12857142857143,3173.7,502.22232142857143,504.12857142857143,3278.2,502.22232142857143,504.12857142857143,3384.7,502.22232142857143,504.12857142857143,3484.8,502.22232142857143,504.12857142857143,3585,502.22232142857143,504.12857142857143,3693.6,502.22232142857143,504.12857142857143,3809,502.22232142857143,504.12857142857143,3915.6,502.22232142857143,504.12857142857143,4018.3,502.22232142857143,504.12857142857143,4126.5,502.22232142857143,504.12857142857143,4227.2,502.22232142857143,504.12857142857143,4328.5,502.22232142857143,504.12857142857143,4435.8,502.22232142857143,504.12857142857143,4537.4,502.22232142857143,504.12857142857143,4638.5,502.22232142857143,504.12857142857143,4738.9,502.22232142857143,504.12857142857143,4844.2,502.22232142857143,504.12857142857143,4950.8]","[1422.3,1422.3,1000,0,422.3,""smooth"",""down"",""down"",""good_move"",4409.9,2986.2,2558.6,1423.7,427.6,""smooth"",""down"",""down"",""good_move"",6826.7,2415.9,2040.3,4410.8,375.6,""smooth"",""right"",""right"",""good_move"",17238.2,10409.9,3335,13499.6,403.6,""smooth"",""right"",""right"",""good_move"",19731,2492.2,2061.9,17238.8,430.4,""oops"",""right"",""down"",""good_move"",22553.7,2820.5,2408,19733.2,412.6,""smooth"",""right"",""right"",""good_move""]"
"6195","","<div style=""width:500px;"">
  <p>What determined the result of this run?</p>
  </div>","100","html-slider-response","24","596489","0.0-7.0-1.2","65","1","2025-07-30 08:53:20","36c45c0696341be0efffe67d72a12abb","41.90.5.172","Mozilla/5.0 (Windows NT 10.0; Win64; x64) AppleWebKit/537.36 (KHTML, like Gecko) Chrome/138.0.0.0 Safari/537.36","WebKit","Chrome","138.0.0.0","Windows","10.0","https://app.prolific.com/","en-US,en;q=0.9","664b7cea18fe17cd31b5ab5e","687a19d2168e237449fb8af4","6889dc1888c6a79ab1d0cfe6","0","664b7cea18fe17cd31b5ab5e","0","2025-07-30T09:03:23.799Z","","","","AttribQ","","","","","","","","","","","50","","","","","","","","","","","","","","","","","","","","","","","","","","",""
"4493","","<div style=""width:500px;"">
  <p>How much control did you have over the ball?</p>
  </div>","75","html-slider-response","25","601001","0.0-7.0-2.2","65","1","2025-07-30 08:53:20","36c45c0696341be0efffe67d72a12abb","41.90.5.172","Mozilla/5.0 (Windows NT 10.0; Win64; x64) AppleWebKit/537.36 (KHTML, like Gecko) Chrome/138.0.0.0 Safari/537.36","WebKit","Chrome","138.0.0.0","Windows","10.0","https://app.prolific.com/","en-US,en;q=0.9","664b7cea18fe17cd31b5ab5e","687a19d2168e237449fb8af4","6889dc1888c6a79ab1d0cfe6","0","664b7cea18fe17cd31b5ab5e","0","2025-07-30T09:03:28.311Z","","","","ControlQ","","","","","","","","","","","50","","","","","","","","","","","","","","","","","","","","","","","","","","",""
"6670","","<div style=""width:500px;"">
  <p>How would you describe your current emotional state?</p>
  </div>","12","html-slider-response","26","607678","0.0-7.0-3.2","65","1","2025-07-30 08:53:20","36c45c0696341be0efffe67d72a12abb","41.90.5.172","Mozilla/5.0 (Windows NT 10.0; Win64; x64) AppleWebKit/537.36 (KHTML, like Gecko) Chrome/138.0.0.0 Safari/537.36","WebKit","Chrome","138.0.0.0","Windows","10.0","https://app.prolific.com/","en-US,en;q=0.9","664b7cea18fe17cd31b5ab5e","687a19d2168e237449fb8af4","6889dc1888c6a79ab1d0cfe6","0","664b7cea18fe17cd31b5ab5e","0","2025-07-30T09:03:34.988Z","","","","StressQ","","","","","","","","","","","50","","","","","","","","","","","","","","","","","","","","","","","","","","",""
"5473","","<div style=""width:500px;"">
  <p>What best describes how you currently feel?</p>
  </div>","100","html-slider-response","27","613158","0.0-7.0-4.2","65","1","2025-07-30 08:53:20","36c45c0696341be0efffe67d72a12abb","41.90.5.172","Mozilla/5.0 (Windows NT 10.0; Win64; x64) AppleWebKit/537.36 (KHTML, like Gecko) Chrome/138.0.0.0 Safari/537.36","WebKit","Chrome","138.0.0.0","Windows","10.0","https://app.prolific.com/","en-US,en;q=0.9","664b7cea18fe17cd31b5ab5e","687a19d2168e237449fb8af4","6889dc1888c6a79ab1d0cfe6","0","664b7cea18fe17cd31b5ab5e","0","2025-07-30T09:03:40.469Z","","","","MotivationQ","","","","","","","","","","","50","","","","","","","","","","","","","","","","","","","","","","","","","","",""
"","","","","ctl-task-cpt","28","639315","0.0-7.0-0.3","65","1","2025-07-30 08:53:20","36c45c0696341be0efffe67d72a12abb","41.90.5.172","Mozilla/5.0 (Windows NT 10.0; Win64; x64) AppleWebKit/537.36 (KHTML, like Gecko) Chrome/138.0.0.0 Safari/537.36","WebKit","Chrome","138.0.0.0","Windows","10.0","https://app.prolific.com/","en-US,en;q=0.9","664b7cea18fe17cd31b5ab5e","687a19d2168e237449fb8af4","6889dc1888c6a79ab1d0cfe6","0","664b7cea18fe17cd31b5ab5e","0","2025-07-30T09:04:06.625Z","","","","","","","","","","","","","","","","win-only","3","g1:SW,g2:NE","0.7","4","0","621051.2","2292.3","7293.9","23114.7","1","4","4","6","2","4","3","23","20","0.17424242424242425","1716","3000","1400","[""up"",""right""]","{""num_key_presses"":6,""num_perfect"":4,""num_errors"":1,""num_randdir"":1,""num_randdir_good_moves"":1,""num_whilered"":0,""num_whileblue"":1,""num_blue"":1,""num_good_moves"":6}","[296.22232142857143,294.12857142857143,4,296.22232142857143,294.12857142857143,105.5,296.22232142857143,294.12857142857143,213.2,296.22232142857143,294.12857142857143,314.8,296.22232142857143,294.12857142857143,419.9,296.22232142857143,294.12857142857143,529.4,296.22232142857143,294.12857142857143,629.6,296.22232142857143,294.12857142857143,737.9,355.22232142857143,239.12857142857143,855,423.22232142857143,162.12857142857143,964.6,457.22232142857143,115.12857142857143,1078,471.22232142857143,102.12857142857143,1196.8,483.22232142857143,92.12857142857143,1300.8,505.22232142857143,85.12857142857143,1413.1,514.2223214285714,85.12857142857143,1513.9,516.2223214285714,85.12857142857143,1618.1,516.2223214285714,85.12857142857143,1721.6,516.2223214285714,85.12857142857143,1823.7,516.2223214285714,85.12857142857143,1929.1,516.2223214285714,85.12857142857143,2032.5,516.2223214285714,85.12857142857143,2136.8,516.2223214285714,85.12857142857143,2240,516.2223214285714,85.12857142857143,2341.5,516.2223214285714,85.12857142857143,2443.1,516.2223214285714,85.12857142857143,2544.3,516.2223214285714,85.12857142857143,2653.6,516.2223214285714,85.12857142857143,2753.9,516.2223214285714,85.12857142857143,2859.8,516.2223214285714,85.12857142857143,2964.8,516.2223214285714,85.12857142857143,3066.9,516.2223214285714,85.12857142857143,3171.3,516.2223214285714,85.12857142857143,3271.4,516.2223214285714,85.12857142857143,3378.7,516.2223214285714,85.12857142857143,3489.7,516.2223214285714,85.12857142857143,3592.5,516.2223214285714,85.12857142857143,3703.1,516.2223214285714,85.12857142857143,3804.4,516.2223214285714,85.12857142857143,3904.5,516.2223214285714,85.12857142857143,4008.2,516.2223214285714,85.12857142857143,4112.6,516.2223214285714,85.12857142857143,4216.9,516.2223214285714,85.12857142857143,4321.1,516.2223214285714,85.12857142857143,4428.7,516.2223214285714,85.12857142857143,4532.6,516.2223214285714,85.12857142857143,4637.8,516.2223214285714,85.12857142857143,4742.3,516.2223214285714,85.12857142857143,4844.1,516.2223214285714,85.12857142857143,4946.4]","[1604.1,1604.1,1000,0,604.1,""smooth"",""up"",""up"",""good_move"",4004,2396.6,1896.5,1607.5,500,""smooth"",""up"",""up"",""good_move"",6351.6,2347,1896.2,4004.6,450.8,""smooth"",""right"",""right"",""good_move"",9767.2,3413.4,2969.8,6353.8,443.6,""oops"",""right"",""up"",""good_move"",13443.9,3675.7,3270.5,9768.2,405.2,""smooth"",""right"",""right"",""good_move"",15700.8,2255.5,1926.6,13445.3,328.9,""while_blue"",""right"",""right"",""good_move""]"
"8549","","<div style=""width:500px;"">
  <p>What determined the result of this run?</p>
  </div>","100","html-slider-response","29","647873","0.0-7.0-1.3","65","1","2025-07-30 08:53:20","36c45c0696341be0efffe67d72a12abb","41.90.5.172","Mozilla/5.0 (Windows NT 10.0; Win64; x64) AppleWebKit/537.36 (KHTML, like Gecko) Chrome/138.0.0.0 Safari/537.36","WebKit","Chrome","138.0.0.0","Windows","10.0","https://app.prolific.com/","en-US,en;q=0.9","664b7cea18fe17cd31b5ab5e","687a19d2168e237449fb8af4","6889dc1888c6a79ab1d0cfe6","0","664b7cea18fe17cd31b5ab5e","0","2025-07-30T09:04:15.184Z","","","","AttribQ","","","","","","","","","","","50","","","","","","","","","","","","","","","","","","","","","","","","","","",""
"4445","","<div style=""width:500px;"">
  <p>How much control did you have over the ball?</p>
  </div>","89","html-slider-response","30","652335","0.0-7.0-2.3","65","1","2025-07-30 08:53:20","36c45c0696341be0efffe67d72a12abb","41.90.5.172","Mozilla/5.0 (Windows NT 10.0; Win64; x64) AppleWebKit/537.36 (KHTML, like Gecko) Chrome/138.0.0.0 Safari/537.36","WebKit","Chrome","138.0.0.0","Windows","10.0","https://app.prolific.com/","en-US,en;q=0.9","664b7cea18fe17cd31b5ab5e","687a19d2168e237449fb8af4","6889dc1888c6a79ab1d0cfe6","0","664b7cea18fe17cd31b5ab5e","0","2025-07-30T09:04:19.646Z","","","","ControlQ","","","","","","","","","","","50","","","","","","","","","","","","","","","","","","","","","","","","","","",""
"4014","","<div style=""width:500px;"">
  <p>How would you describe your current emotional state?</p>
  </div>","9","html-slider-response","31","656355","0.0-7.0-3.3","65","1","2025-07-30 08:53:20","36c45c0696341be0efffe67d72a12abb","41.90.5.172","Mozilla/5.0 (Windows NT 10.0; Win64; x64) AppleWebKit/537.36 (KHTML, like Gecko) Chrome/138.0.0.0 Safari/537.36","WebKit","Chrome","138.0.0.0","Windows","10.0","https://app.prolific.com/","en-US,en;q=0.9","664b7cea18fe17cd31b5ab5e","687a19d2168e237449fb8af4","6889dc1888c6a79ab1d0cfe6","0","664b7cea18fe17cd31b5ab5e","0","2025-07-30T09:04:23.666Z","","","","StressQ","","","","","","","","","","","50","","","","","","","","","","","","","","","","","","","","","","","","","","",""
"4492","","<div style=""width:500px;"">
  <p>What best describes how you currently feel?</p>
  </div>","83","html-slider-response","32","660854","0.0-7.0-4.3","65","1","2025-07-30 08:53:20","36c45c0696341be0efffe67d72a12abb","41.90.5.172","Mozilla/5.0 (Windows NT 10.0; Win64; x64) AppleWebKit/537.36 (KHTML, like Gecko) Chrome/138.0.0.0 Safari/537.36","WebKit","Chrome","138.0.0.0","Windows","10.0","https://app.prolific.com/","en-US,en;q=0.9","664b7cea18fe17cd31b5ab5e","687a19d2168e237449fb8af4","6889dc1888c6a79ab1d0cfe6","0","664b7cea18fe17cd31b5ab5e","0","2025-07-30T09:04:28.165Z","","","","MotivationQ","","","","","","","","","","","50","","","","","","","","","","","","","","","","","","","","","","","","","","",""
"","","","","ctl-task-cpt","33","720423","0.0-7.0-0.4","65","1","2025-07-30 08:53:20","36c45c0696341be0efffe67d72a12abb","41.90.5.172","Mozilla/5.0 (Windows NT 10.0; Win64; x64) AppleWebKit/537.36 (KHTML, like Gecko) Chrome/138.0.0.0 Safari/537.36","WebKit","Chrome","138.0.0.0","Windows","10.0","https://app.prolific.com/","en-US,en;q=0.9","664b7cea18fe17cd31b5ab5e","687a19d2168e237449fb8af4","6889dc1888c6a79ab1d0cfe6","0","664b7cea18fe17cd31b5ab5e","0","2025-07-30T09:05:27.733Z","","","","","","","","","","","","","","","","win-only","0","g1:NW,g2:SE","0.6","5","0","668738.1","5090.5","10096.3","56527.6","1","4","8","6","2","-8","-10","13","23","0.09848484848484848","1550.9","3000","-1890","[""down"",""right""]","{""num_key_presses"":12,""num_perfect"":6,""num_errors"":2,""num_randdir"":4,""num_randdir_good_moves"":0,""num_whilered"":0,""num_whileblue"":2,""num_blue"":5,""num_good_moves"":7}","[294.22232142857143,292.12857142857143,1,294.22232142857143,292.12857142857143,101,294.22232142857143,292.12857142857143,202,294.22232142857143,292.12857142857143,313.3,294.22232142857143,292.12857142857143,415.3,294.22232142857143,292.12857142857143,516.9,294.22232142857143,292.12857142857143,617.6,294.22232142857143,292.12857142857143,719.6,294.22232142857143,292.12857142857143,821.6,387.22232142857143,372.12857142857143,929.5,485.22232142857143,470.12857142857143,1032.2,515.2223214285714,504.12857142857143,1140,526.2223214285714,516.1285714285714,1243.7,532.2223214285714,523.1285714285714,1346.1,532.2223214285714,525.1285714285714,1448.8,532.2223214285714,525.1285714285714,1555.5,532.2223214285714,525.1285714285714,1663.3,532.2223214285714,525.1285714285714,1767.2,532.2223214285714,525.1285714285714,1870.9,532.2223214285714,525.1285714285714,1971.9,532.2223214285714,525.1285714285714,2072.5,532.2223214285714,525.1285714285714,2185.9,532.2223214285714,525.1285714285714,2287,532.2223214285714,525.1285714285714,2389.6,532.2223214285714,525.1285714285714,2496.7,532.2223214285714,525.1285714285714,2596.9,532.2223214285714,525.1285714285714,2700.8,532.2223214285714,525.1285714285714,2801.6,532.2223214285714,525.1285714285714,2917.2,532.2223214285714,525.1285714285714,3020.6,532.2223214285714,525.1285714285714,3128.9,532.2223214285714,525.1285714285714,3231.9,532.2223214285714,525.1285714285714,3344.4,532.2223214285714,525.1285714285714,3454.4,532.2223214285714,525.1285714285714,3557.2,532.2223214285714,525.1285714285714,3660.6,532.2223214285714,525.1285714285714,3774,532.2223214285714,525.1285714285714,3887.8,532.2223214285714,525.1285714285714,3988.5,532.2223214285714,525.1285714285714,4090,532.2223214285714,525.1285714285714,4194,532.2223214285714,525.1285714285714,4295.4,532.2223214285714,525.1285714285714,4401.3,532.2223214285714,525.1285714285714,4502.4,532.2223214285714,525.1285714285714,4606.8,532.2223214285714,525.1285714285714,4712.1,532.2223214285714,525.1285714285714,4812.4,532.2223214285714,525.1285714285714,4916.9]","[1471.2,1471.2,1000,0,471.2,""smooth"",""down"",""down"",""good_move"",4219.6,2747.1,2302.7,1472.5,444.4,""smooth"",""down"",""down"",""good_move"",10179.8,5956.9,2363.7,7374.9,441.2,""oops"",""right"",""up"",""bad_move"",16086.7,5905.8,2768.7,12903.3,414.7,""oops"",""right"",""left"",""bad_move"",19436.4,3347.8,2312.8,16088.7,1034.9,""smooth"",""right"",""right"",""good_move"",22057.4,2616.5,2211.3,19441,405.1,""while_blue"",""down"",""down"",""good_move"",25084.8,3021.6,2419,22063.2,602.6,""smooth"",""right"",""right"",""good_move"",27704.3,2617.8,2226.1,25086.5,391.8,""smooth"",""right"",""right"",""good_move"",30841.6,3133.9,2647.1,27707.7,486.8,""smooth"",""right"",""right"",""good_move"",33720.9,2875.5,2501.9,30845.4,373.6,""oops"",""down"",""left"",""bad_move"",36747.4,3021.2,2590.1,33726.3,431.1,""oops"",""right"",""up"",""bad_move"",43439.8,6688.9,3021.2,40030.3,388.3,""while_blue"",""down"",""up"",""bad_move""]"
"7076","","<div style=""width:500px;"">
  <p>What determined the result of this run?</p>
  </div>","75","html-slider-response","34","727502","0.0-7.0-1.4","65","1","2025-07-30 08:53:20","36c45c0696341be0efffe67d72a12abb","41.90.5.172","Mozilla/5.0 (Windows NT 10.0; Win64; x64) AppleWebKit/537.36 (KHTML, like Gecko) Chrome/138.0.0.0 Safari/537.36","WebKit","Chrome","138.0.0.0","Windows","10.0","https://app.prolific.com/","en-US,en;q=0.9","664b7cea18fe17cd31b5ab5e","687a19d2168e237449fb8af4","6889dc1888c6a79ab1d0cfe6","0","664b7cea18fe17cd31b5ab5e","0","2025-07-30T09:05:34.812Z","","","","AttribQ","","","","","","","","","","","50","","","","","","","","","","","","","","","","","","","","","","","","","","",""
"4482","","<div style=""width:500px;"">
  <p>How much control did you have over the ball?</p>
  </div>","29","html-slider-response","35","731994","0.0-7.0-2.4","65","1","2025-07-30 08:53:20","36c45c0696341be0efffe67d72a12abb","41.90.5.172","Mozilla/5.0 (Windows NT 10.0; Win64; x64) AppleWebKit/537.36 (KHTML, like Gecko) Chrome/138.0.0.0 Safari/537.36","WebKit","Chrome","138.0.0.0","Windows","10.0","https://app.prolific.com/","en-US,en;q=0.9","664b7cea18fe17cd31b5ab5e","687a19d2168e237449fb8af4","6889dc1888c6a79ab1d0cfe6","0","664b7cea18fe17cd31b5ab5e","0","2025-07-30T09:05:39.304Z","","","","ControlQ","","","","","","","","","","","50","","","","","","","","","","","","","","","","","","","","","","","","","","",""
"5294","","<div style=""width:500px;"">
  <p>How would you describe your current emotional state?</p>
  </div>","63","html-slider-response","36","737292","0.0-7.0-3.4","65","1","2025-07-30 08:53:20","36c45c0696341be0efffe67d72a12abb","41.90.5.172","Mozilla/5.0 (Windows NT 10.0; Win64; x64) AppleWebKit/537.36 (KHTML, like Gecko) Chrome/138.0.0.0 Safari/537.36","WebKit","Chrome","138.0.0.0","Windows","10.0","https://app.prolific.com/","en-US,en;q=0.9","664b7cea18fe17cd31b5ab5e","687a19d2168e237449fb8af4","6889dc1888c6a79ab1d0cfe6","0","664b7cea18fe17cd31b5ab5e","0","2025-07-30T09:05:44.602Z","","","","StressQ","","","","","","","","","","","50","","","","","","","","","","","","","","","","","","","","","","","","","","",""
"5559","","<div style=""width:500px;"">
  <p>What best describes how you currently feel?</p>
  </div>","72","html-slider-response","37","742858","0.0-7.0-4.4","65","1","2025-07-30 08:53:20","36c45c0696341be0efffe67d72a12abb","41.90.5.172","Mozilla/5.0 (Windows NT 10.0; Win64; x64) AppleWebKit/537.36 (KHTML, like Gecko) Chrome/138.0.0.0 Safari/537.36","WebKit","Chrome","138.0.0.0","Windows","10.0","https://app.prolific.com/","en-US,en;q=0.9","664b7cea18fe17cd31b5ab5e","687a19d2168e237449fb8af4","6889dc1888c6a79ab1d0cfe6","0","664b7cea18fe17cd31b5ab5e","0","2025-07-30T09:05:50.169Z","","","","MotivationQ","","","","","","","","","","","50","","","","","","","","","","","","","","","","","","","","","","","","","","",""
"","","","","ctl-task-cpt","38","794061","0.0-7.0-0.5","65","1","2025-07-30 08:53:20","36c45c0696341be0efffe67d72a12abb","41.90.5.172","Mozilla/5.0 (Windows NT 10.0; Win64; x64) AppleWebKit/537.36 (KHTML, like Gecko) Chrome/138.0.0.0 Safari/537.36","WebKit","Chrome","138.0.0.0","Windows","10.0","https://app.prolific.com/","en-US,en;q=0.9","664b7cea18fe17cd31b5ab5e","687a19d2168e237449fb8af4","6889dc1888c6a79ab1d0cfe6","0","664b7cea18fe17cd31b5ab5e","0","2025-07-30T09:06:41.371Z","","","","","","","","","","","","","","","","win-only","0","g1:NW,g2:SE","0.5","6","0","750738.9","2611.4","7618.6","48159.2","1","4","4","6","2","-4","-6","7","13","0.05303030303030303","1553.5","3000","-1865","[""down"",""right""]","{""num_key_presses"":10,""num_perfect"":4,""num_errors"":2,""num_randdir"":4,""num_randdir_good_moves"":1,""num_whilered"":0,""num_whileblue"":2,""num_blue"":4,""num_good_moves"":6}","[290.22232142857143,291.12857142857143,0.4,290.22232142857143,291.12857142857143,103.1,290.22232142857143,291.12857142857143,204.2,290.22232142857143,291.12857142857143,305.9,290.22232142857143,291.12857142857143,406.9,290.22232142857143,291.12857142857143,508.4,290.22232142857143,291.12857142857143,613.1,290.22232142857143,291.12857142857143,720.1,290.22232142857143,291.12857142857143,825.7,347.22232142857143,334.12857142857143,940.4,460.22232142857143,425.12857142857143,1045.2,525.2223214285714,486.12857142857143,1149.3,549.2223214285714,520.1285714285714,1259.6,551.2223214285714,527.1285714285714,1374.9,551.2223214285714,527.1285714285714,1485.4,551.2223214285714,527.1285714285714,1589.2,551.2223214285714,527.1285714285714,1692,551.2223214285714,527.1285714285714,1796.2,551.2223214285714,527.1285714285714,1899.7,551.2223214285714,527.1285714285714,2004.6,551.2223214285714,527.1285714285714,2115.1,551.2223214285714,527.1285714285714,2215.2,504.22232142857143,524.1285714285714,2321.9,428.22232142857143,512.1285714285714,2424.7,374.22232142857143,485.12857142857143,2539.4,365.22232142857143,479.12857142857143,2653.8,365.22232142857143,479.12857142857143,2755.1,365.22232142857143,479.12857142857143,2856.3,365.22232142857143,479.12857142857143,2958.4,365.22232142857143,479.12857142857143,3061.2,365.22232142857143,479.12857142857143,3164,365.22232142857143,479.12857142857143,3266.1,365.22232142857143,479.12857142857143,3367.1,365.22232142857143,479.12857142857143,3469.5,365.22232142857143,479.12857142857143,3579.8,365.22232142857143,479.12857142857143,3682.2,365.22232142857143,479.12857142857143,3784,365.22232142857143,479.12857142857143,3888.1,365.22232142857143,479.12857142857143,4001.6,365.22232142857143,479.12857142857143,4104.4,365.22232142857143,479.12857142857143,4213.1,365.22232142857143,479.12857142857143,4318.8,365.22232142857143,479.12857142857143,4420.5,365.22232142857143,479.12857142857143,4531.4,365.22232142857143,479.12857142857143,4636.3,365.22232142857143,479.12857142857143,4744.3,365.22232142857143,479.12857142857143,4850,365.22232142857143,479.12857142857143,4950.4]","[1539.2,1539.2,1000,0,539.2,""oops"",""down"",""down"",""good_move"",4356.4,2816.5,2396.1,1539.9,420.4,""oops"",""down"",""up"",""bad_move"",7379.4,3019.5,2644.1,4359.9,375.4,""while_blue"",""right"",""right"",""good_move"",10342.7,2955,2389.1,7387.7,565.9,""smooth"",""down"",""down"",""good_move"",12786.4,2443.2,1981.4,10343.2,461.9,""smooth"",""down"",""down"",""good_move"",15550.1,2762.1,2076.7,12788,685.4,""smooth"",""down"",""down"",""good_move"",19095.4,3542.7,3169.2,15552.7,373.5,""while_blue"",""right"",""up"",""bad_move"",22418,3317.1,2553.9,19101,763.2,""smooth"",""right"",""right"",""good_move"",29323,6903.4,2819.3,25936,567.8,""oops"",""right"",""left"",""bad_move"",36734.4,7401.7,3000.2,33012.7,721.5,""oops"",""down"",""up"",""bad_move""]"
"6388","","<div style=""width:500px;"">
  <p>What determined the result of this run?</p>
  </div>","19","html-slider-response","39","800453","0.0-7.0-1.5","65","1","2025-07-30 08:53:20","36c45c0696341be0efffe67d72a12abb","41.90.5.172","Mozilla/5.0 (Windows NT 10.0; Win64; x64) AppleWebKit/537.36 (KHTML, like Gecko) Chrome/138.0.0.0 Safari/537.36","WebKit","Chrome","138.0.0.0","Windows","10.0","https://app.prolific.com/","en-US,en;q=0.9","664b7cea18fe17cd31b5ab5e","687a19d2168e237449fb8af4","6889dc1888c6a79ab1d0cfe6","0","664b7cea18fe17cd31b5ab5e","0","2025-07-30T09:06:47.763Z","","","","AttribQ","","","","","","","","","","","50","","","","","","","","","","","","","","","","","","","","","","","","","","",""
"4614","","<div style=""width:500px;"">
  <p>How much control did you have over the ball?</p>
  </div>","20","html-slider-response","40","805077","0.0-7.0-2.5","65","1","2025-07-30 08:53:20","36c45c0696341be0efffe67d72a12abb","41.90.5.172","Mozilla/5.0 (Windows NT 10.0; Win64; x64) AppleWebKit/537.36 (KHTML, like Gecko) Chrome/138.0.0.0 Safari/537.36","WebKit","Chrome","138.0.0.0","Windows","10.0","https://app.prolific.com/","en-US,en;q=0.9","664b7cea18fe17cd31b5ab5e","687a19d2168e237449fb8af4","6889dc1888c6a79ab1d0cfe6","0","664b7cea18fe17cd31b5ab5e","0","2025-07-30T09:06:52.387Z","","","","ControlQ","","","","","","","","","","","50","","","","","","","","","","","","","","","","","","","","","","","","","","",""
"4446","","<div style=""width:500px;"">
  <p>How would you describe your current emotional state?</p>
  </div>","25","html-slider-response","41","809534","0.0-7.0-3.5","65","1","2025-07-30 08:53:20","36c45c0696341be0efffe67d72a12abb","41.90.5.172","Mozilla/5.0 (Windows NT 10.0; Win64; x64) AppleWebKit/537.36 (KHTML, like Gecko) Chrome/138.0.0.0 Safari/537.36","WebKit","Chrome","138.0.0.0","Windows","10.0","https://app.prolific.com/","en-US,en;q=0.9","664b7cea18fe17cd31b5ab5e","687a19d2168e237449fb8af4","6889dc1888c6a79ab1d0cfe6","0","664b7cea18fe17cd31b5ab5e","0","2025-07-30T09:06:56.845Z","","","","StressQ","","","","","","","","","","","50","","","","","","","","","","","","","","","","","","","","","","","","","","",""
"4125","","<div style=""width:500px;"">
  <p>What best describes how you currently feel?</p>
  </div>","83","html-slider-response","42","813669","0.0-7.0-4.5","65","1","2025-07-30 08:53:20","36c45c0696341be0efffe67d72a12abb","41.90.5.172","Mozilla/5.0 (Windows NT 10.0; Win64; x64) AppleWebKit/537.36 (KHTML, like Gecko) Chrome/138.0.0.0 Safari/537.36","WebKit","Chrome","138.0.0.0","Windows","10.0","https://app.prolific.com/","en-US,en;q=0.9","664b7cea18fe17cd31b5ab5e","687a19d2168e237449fb8af4","6889dc1888c6a79ab1d0cfe6","0","664b7cea18fe17cd31b5ab5e","0","2025-07-30T09:07:00.979Z","","","","MotivationQ","","","","","","","","","","","50","","","","","","","","","","","","","","","","","","","","","","","","","","",""
"","","","","ctl-task-cpt","43","841627","0.0-7.0-0.6","65","1","2025-07-30 08:53:20","36c45c0696341be0efffe67d72a12abb","41.90.5.172","Mozilla/5.0 (Windows NT 10.0; Win64; x64) AppleWebKit/537.36 (KHTML, like Gecko) Chrome/138.0.0.0 Safari/537.36","WebKit","Chrome","138.0.0.0","Windows","10.0","https://app.prolific.com/","en-US,en;q=0.9","664b7cea18fe17cd31b5ab5e","687a19d2168e237449fb8af4","6889dc1888c6a79ab1d0cfe6","0","664b7cea18fe17cd31b5ab5e","0","2025-07-30T09:07:28.937Z","","","","","","","","","","","","","","","","win-only","0","g1:NW,g2:SE","0.4","7","0","821542.3","4571.4","9580.1","24928.8","1","4","4","6","2","4","4","11","7","0.08333333333333333","1579.7","3000","1390","[""down"",""right""]","{""num_key_presses"":6,""num_perfect"":4,""num_errors"":0,""num_randdir"":2,""num_randdir_good_moves"":2,""num_whilered"":0,""num_whileblue"":0,""num_blue"":0,""num_good_moves"":6}","[295.22232142857143,302.12857142857143,1,295.22232142857143,302.12857142857143,105.8,295.22232142857143,302.12857142857143,207.6,295.22232142857143,302.12857142857143,311.7,295.22232142857143,302.12857142857143,414.1,295.22232142857143,302.12857142857143,517.3,295.22232142857143,302.12857142857143,624.8,295.22232142857143,302.12857142857143,727.3,295.22232142857143,302.12857142857143,829.9,396.22232142857143,357.12857142857143,931.3,501.22232142857143,432.12857142857143,1035.6,522.2223214285714,472.12857142857143,1147.1,554.2223214285714,530.1285714285714,1251.1,556.2223214285714,543.1285714285714,1351.4,556.2223214285714,543.1285714285714,1459,556.2223214285714,543.1285714285714,1565.2,556.2223214285714,543.1285714285714,1669.6,556.2223214285714,543.1285714285714,1780.4,556.2223214285714,543.1285714285714,1884.6,556.2223214285714,543.1285714285714,1986.5,556.2223214285714,543.1285714285714,2091.5,556.2223214285714,543.1285714285714,2200.1,556.2223214285714,543.1285714285714,2307.9,556.2223214285714,543.1285714285714,2416.2,556.2223214285714,543.1285714285714,2520,556.2223214285714,543.1285714285714,2627.5,556.2223214285714,543.1285714285714,2740.7,556.2223214285714,543.1285714285714,2841.3,556.2223214285714,543.1285714285714,2949,556.2223214285714,543.1285714285714,3062.4,556.2223214285714,543.1285714285714,3173.7,556.2223214285714,543.1285714285714,3275.4,556.2223214285714,543.1285714285714,3378,556.2223214285714,543.1285714285714,3483.9,556.2223214285714,543.1285714285714,3586.1,556.2223214285714,543.1285714285714,3691,556.2223214285714,543.1285714285714,3791.5,556.2223214285714,543.1285714285714,3891.8,556.2223214285714,543.1285714285714,4003.4,556.2223214285714,543.1285714285714,4112.3,556.2223214285714,543.1285714285714,4226.4,556.2223214285714,543.1285714285714,4333.7,556.2223214285714,543.1285714285714,4434.8,556.2223214285714,543.1285714285714,4543.3,556.2223214285714,543.1285714285714,4645.8,556.2223214285714,543.1285714285714,4750.4,556.2223214285714,543.1285714285714,4858.5,556.2223214285714,543.1285714285714,4962]","[1526.4,1526.4,1000,0,526.4,""oops"",""right"",""down"",""good_move"",4282,2754.8,2265.1,1527.2,489.7,""smooth"",""right"",""right"",""good_move"",6481.4,2196.6,1752.8,4284.8,443.8,""smooth"",""right"",""right"",""good_move"",8786,2298.2,1863.1,6487.9,435,""oops"",""right"",""down"",""good_move"",12384.9,3597.1,3100.8,8787.9,496.2,""smooth"",""right"",""right"",""good_move"",15179.5,2793,2410.1,12386.6,382.8,""smooth"",""down"",""down"",""good_move""]"
"5333","","<div style=""width:500px;"">
  <p>What determined the result of this run?</p>
  </div>","100","html-slider-response","44","846963","0.0-7.0-1.6","65","1","2025-07-30 08:53:20","36c45c0696341be0efffe67d72a12abb","41.90.5.172","Mozilla/5.0 (Windows NT 10.0; Win64; x64) AppleWebKit/537.36 (KHTML, like Gecko) Chrome/138.0.0.0 Safari/537.36","WebKit","Chrome","138.0.0.0","Windows","10.0","https://app.prolific.com/","en-US,en;q=0.9","664b7cea18fe17cd31b5ab5e","687a19d2168e237449fb8af4","6889dc1888c6a79ab1d0cfe6","0","664b7cea18fe17cd31b5ab5e","0","2025-07-30T09:07:34.275Z","","","","AttribQ","","","","","","","","","","","50","","","","","","","","","","","","","","","","","","","","","","","","","","",""
"5388","","<div style=""width:500px;"">
  <p>How much control did you have over the ball?</p>
  </div>","82","html-slider-response","45","852361","0.0-7.0-2.6","65","1","2025-07-30 08:53:20","36c45c0696341be0efffe67d72a12abb","41.90.5.172","Mozilla/5.0 (Windows NT 10.0; Win64; x64) AppleWebKit/537.36 (KHTML, like Gecko) Chrome/138.0.0.0 Safari/537.36","WebKit","Chrome","138.0.0.0","Windows","10.0","https://app.prolific.com/","en-US,en;q=0.9","664b7cea18fe17cd31b5ab5e","687a19d2168e237449fb8af4","6889dc1888c6a79ab1d0cfe6","0","664b7cea18fe17cd31b5ab5e","0","2025-07-30T09:07:39.673Z","","","","ControlQ","","","","","","","","","","","50","","","","","","","","","","","","","","","","","","","","","","","","","","",""
"3865","","<div style=""width:500px;"">
  <p>How would you describe your current emotional state?</p>
  </div>","18","html-slider-response","46","856233","0.0-7.0-3.6","65","1","2025-07-30 08:53:20","36c45c0696341be0efffe67d72a12abb","41.90.5.172","Mozilla/5.0 (Windows NT 10.0; Win64; x64) AppleWebKit/537.36 (KHTML, like Gecko) Chrome/138.0.0.0 Safari/537.36","WebKit","Chrome","138.0.0.0","Windows","10.0","https://app.prolific.com/","en-US,en;q=0.9","664b7cea18fe17cd31b5ab5e","687a19d2168e237449fb8af4","6889dc1888c6a79ab1d0cfe6","0","664b7cea18fe17cd31b5ab5e","0","2025-07-30T09:07:43.544Z","","","","StressQ","","","","","","","","","","","50","","","","","","","","","","","","","","","","","","","","","","","","","","",""
"3927","","<div style=""width:500px;"">
  <p>What best describes how you currently feel?</p>
  </div>","75","html-slider-response","47","860170","0.0-7.0-4.6","65","1","2025-07-30 08:53:20","36c45c0696341be0efffe67d72a12abb","41.90.5.172","Mozilla/5.0 (Windows NT 10.0; Win64; x64) AppleWebKit/537.36 (KHTML, like Gecko) Chrome/138.0.0.0 Safari/537.36","WebKit","Chrome","138.0.0.0","Windows","10.0","https://app.prolific.com/","en-US,en;q=0.9","664b7cea18fe17cd31b5ab5e","687a19d2168e237449fb8af4","6889dc1888c6a79ab1d0cfe6","0","664b7cea18fe17cd31b5ab5e","0","2025-07-30T09:07:47.482Z","","","","MotivationQ","","","","","","","","","","","50","","","","","","","","","","","","","","","","","","","","","","","","","","",""
"","","","","ctl-task-cpt","48","920951","0.0-7.0-0.7","65","1","2025-07-30 08:53:20","36c45c0696341be0efffe67d72a12abb","41.90.5.172","Mozilla/5.0 (Windows NT 10.0; Win64; x64) AppleWebKit/537.36 (KHTML, like Gecko) Chrome/138.0.0.0 Safari/537.36","WebKit","Chrome","138.0.0.0","Windows","10.0","https://app.prolific.com/","en-US,en;q=0.9","664b7cea18fe17cd31b5ab5e","687a19d2168e237449fb8af4","6889dc1888c6a79ab1d0cfe6","0","664b7cea18fe17cd31b5ab5e","0","2025-07-30T09:08:48.261Z","","","","","","","","","","","","","","","","win-only","3","g1:SW,g2:NE","0.3","8","0","868047.5","2247.8","7250.5","57748.4","1","4","8","6","2","-8","-8","3","11","0.022727272727272728","1269.9","3000","-1535","[""up"",""right""]","{""num_key_presses"":11,""num_perfect"":4,""num_errors"":0,""num_randdir"":7,""num_randdir_good_moves"":3,""num_whilered"":0,""num_whileblue"":0,""num_blue"":5,""num_good_moves"":7}","[294.22232142857143,297.12857142857143,0.5,294.22232142857143,297.12857142857143,105.9,294.22232142857143,297.12857142857143,205.9,294.22232142857143,297.12857142857143,310.5,294.22232142857143,297.12857142857143,423.4,294.22232142857143,297.12857142857143,525.8,294.22232142857143,297.12857142857143,629.3,397.22232142857143,175.12857142857143,737.4,487.22232142857143,101.12857142857143,840.9,532.2223214285714,76.12857142857143,946.4,541.2223214285714,74.12857142857143,1049.8,544.2223214285714,71.12857142857143,1161.4,544.2223214285714,71.12857142857143,1267.3,544.2223214285714,71.12857142857143,1371,544.2223214285714,71.12857142857143,1471.5,544.2223214285714,71.12857142857143,1575.2,544.2223214285714,71.12857142857143,1681.3,544.2223214285714,71.12857142857143,1781.6,544.2223214285714,71.12857142857143,1888.9,544.2223214285714,71.12857142857143,1995.2,544.2223214285714,71.12857142857143,2098.9,544.2223214285714,71.12857142857143,2202.9,544.2223214285714,71.12857142857143,2307.6,544.2223214285714,71.12857142857143,2414.9,544.2223214285714,71.12857142857143,2523.8,544.2223214285714,71.12857142857143,2633.3,544.2223214285714,71.12857142857143,2741.8,544.2223214285714,71.12857142857143,2847.8,544.2223214285714,71.12857142857143,2951.6,544.2223214285714,71.12857142857143,3056.4,544.2223214285714,71.12857142857143,3157.1,544.2223214285714,71.12857142857143,3262.8,544.2223214285714,71.12857142857143,3374.6,544.2223214285714,71.12857142857143,3483.2,544.2223214285714,71.12857142857143,3587.7,544.2223214285714,71.12857142857143,3692.7,544.2223214285714,71.12857142857143,3793.1,544.2223214285714,71.12857142857143,3906.4,544.2223214285714,71.12857142857143,4009.4,544.2223214285714,71.12857142857143,4114.9,544.2223214285714,71.12857142857143,4221,544.2223214285714,71.12857142857143,4326.4,544.2223214285714,71.12857142857143,4430.4,544.2223214285714,71.12857142857143,4538.4,544.2223214285714,71.12857142857143,4639.1,544.2223214285714,71.12857142857143,4740.6,544.2223214285714,71.12857142857143,4847.2,544.2223214285714,71.12857142857143,4954.7]","[1467,1467,1000,0,467,""oops"",""up"",""right"",""good_move"",4628.9,3155.5,2682.3,1473.5,473.1,""oops"",""up"",""left"",""bad_move"",7645.6,3011.4,2524.8,4634.2,486.6,""oops"",""up"",""down"",""bad_move"",11071.8,3424.3,2871.2,7647.5,553.1,""smooth"",""up"",""up"",""good_move"",16830.6,5756,2315.3,14109,406.3,""smooth"",""up"",""up"",""good_move"",22497.3,5666.2,1972.7,20028.3,496.3,""oops"",""up"",""right"",""good_move"",25742.4,3241.6,2815,22500.8,426.6,""oops"",""up"",""right"",""good_move"",28814.5,3071.4,2593.1,25743.1,478.3,""oops"",""up"",""down"",""bad_move"",38658.1,9835.5,2193.3,35986.5,478.3,""smooth"",""up"",""up"",""good_move"",42288.1,3629.5,3094.7,38659.3,534.1,""oops"",""up"",""left"",""bad_move"",48393.2,6104,2003.4,45860.2,529.7,""smooth"",""up"",""up"",""good_move""]"
"6260","","<div style=""width:500px;"">
  <p>What determined the result of this run?</p>
  </div>","13","html-slider-response","49","927213","0.0-7.0-1.7","65","1","2025-07-30 08:53:20","36c45c0696341be0efffe67d72a12abb","41.90.5.172","Mozilla/5.0 (Windows NT 10.0; Win64; x64) AppleWebKit/537.36 (KHTML, like Gecko) Chrome/138.0.0.0 Safari/537.36","WebKit","Chrome","138.0.0.0","Windows","10.0","https://app.prolific.com/","en-US,en;q=0.9","664b7cea18fe17cd31b5ab5e","687a19d2168e237449fb8af4","6889dc1888c6a79ab1d0cfe6","0","664b7cea18fe17cd31b5ab5e","0","2025-07-30T09:08:54.523Z","","","","AttribQ","","","","","","","","","","","50","","","","","","","","","","","","","","","","","","","","","","","","","","",""
"4090","","<div style=""width:500px;"">
  <p>How much control did you have over the ball?</p>
  </div>","32","html-slider-response","50","931316","0.0-7.0-2.7","65","1","2025-07-30 08:53:20","36c45c0696341be0efffe67d72a12abb","41.90.5.172","Mozilla/5.0 (Windows NT 10.0; Win64; x64) AppleWebKit/537.36 (KHTML, like Gecko) Chrome/138.0.0.0 Safari/537.36","WebKit","Chrome","138.0.0.0","Windows","10.0","https://app.prolific.com/","en-US,en;q=0.9","664b7cea18fe17cd31b5ab5e","687a19d2168e237449fb8af4","6889dc1888c6a79ab1d0cfe6","0","664b7cea18fe17cd31b5ab5e","0","2025-07-30T09:08:58.626Z","","","","ControlQ","","","","","","","","","","","50","","","","","","","","","","","","","","","","","","","","","","","","","","",""
"5167","","<div style=""width:500px;"">
  <p>How would you describe your current emotional state?</p>
  </div>","68","html-slider-response","51","936485","0.0-7.0-3.7","65","1","2025-07-30 08:53:20","36c45c0696341be0efffe67d72a12abb","41.90.5.172","Mozilla/5.0 (Windows NT 10.0; Win64; x64) AppleWebKit/537.36 (KHTML, like Gecko) Chrome/138.0.0.0 Safari/537.36","WebKit","Chrome","138.0.0.0","Windows","10.0","https://app.prolific.com/","en-US,en;q=0.9","664b7cea18fe17cd31b5ab5e","687a19d2168e237449fb8af4","6889dc1888c6a79ab1d0cfe6","0","664b7cea18fe17cd31b5ab5e","0","2025-07-30T09:09:03.796Z","","","","StressQ","","","","","","","","","","","50","","","","","","","","","","","","","","","","","","","","","","","","","","",""
"6125","","<div style=""width:500px;"">
  <p>What best describes how you currently feel?</p>
  </div>","68","html-slider-response","52","942617","0.0-7.0-4.7","65","1","2025-07-30 08:53:20","36c45c0696341be0efffe67d72a12abb","41.90.5.172","Mozilla/5.0 (Windows NT 10.0; Win64; x64) AppleWebKit/537.36 (KHTML, like Gecko) Chrome/138.0.0.0 Safari/537.36","WebKit","Chrome","138.0.0.0","Windows","10.0","https://app.prolific.com/","en-US,en;q=0.9","664b7cea18fe17cd31b5ab5e","687a19d2168e237449fb8af4","6889dc1888c6a79ab1d0cfe6","0","664b7cea18fe17cd31b5ab5e","0","2025-07-30T09:09:09.927Z","","","","MotivationQ","","","","","","","","","","","50","","","","","","","","","","","","","","","","","","","","","","","","","","",""
"","","","","ctl-task-cpt","53","1006292","0.0-7.0-0.8","65","1","2025-07-30 08:53:20","36c45c0696341be0efffe67d72a12abb","41.90.5.172","Mozilla/5.0 (Windows NT 10.0; Win64; x64) AppleWebKit/537.36 (KHTML, like Gecko) Chrome/138.0.0.0 Safari/537.36","WebKit","Chrome","138.0.0.0","Windows","10.0","https://app.prolific.com/","en-US,en;q=0.9","664b7cea18fe17cd31b5ab5e","687a19d2168e237449fb8af4","6889dc1888c6a79ab1d0cfe6","0","664b7cea18fe17cd31b5ab5e","0","2025-07-30T09:10:13.602Z","","","","","","","","","","","","","","","","win-only","3","g1:SW,g2:NE","0.4","9","0","950487.3","5304.3","10311.2","60646.9","1","4","8","6","2","-8","-8","0","3","0","1610.4","3000","-1610","[""up"",""right""]","{""num_key_presses"":10,""num_perfect"":4,""num_errors"":0,""num_randdir"":6,""num_randdir_good_moves"":3,""num_whilered"":0,""num_whileblue"":0,""num_blue"":6,""num_good_moves"":7}","[297.22232142857143,294.12857142857143,0.6,297.22232142857143,294.12857142857143,110.4,297.22232142857143,294.12857142857143,212.9,297.22232142857143,294.12857142857143,315,297.22232142857143,294.12857142857143,420.9,297.22232142857143,294.12857142857143,529.4,297.22232142857143,294.12857142857143,639.1,297.22232142857143,294.12857142857143,752.4,301.22232142857143,293.12857142857143,863.4,433.22232142857143,165.12857142857143,963.8,475.22232142857143,131.12857142857143,1069.9,496.22232142857143,112.12857142857143,1175.4,509.22232142857143,96.12857142857143,1279.5,521.2223214285714,81.12857142857143,1388.8,521.2223214285714,81.12857142857143,1491.9,521.2223214285714,81.12857142857143,1595.5,521.2223214285714,81.12857142857143,1702.4,521.2223214285714,81.12857142857143,1811.4,521.2223214285714,81.12857142857143,1914,521.2223214285714,81.12857142857143,2014,521.2223214285714,81.12857142857143,2128.1,521.2223214285714,81.12857142857143,2231.2,521.2223214285714,81.12857142857143,2336,521.2223214285714,81.12857142857143,2439.9,521.2223214285714,81.12857142857143,2546.5,521.2223214285714,81.12857142857143,2649.2,521.2223214285714,81.12857142857143,2753.8,521.2223214285714,81.12857142857143,2858.2,521.2223214285714,81.12857142857143,2961,521.2223214285714,81.12857142857143,3065.8,521.2223214285714,81.12857142857143,3184.3,521.2223214285714,81.12857142857143,3286.3,521.2223214285714,81.12857142857143,3388.3,521.2223214285714,81.12857142857143,3496.3,521.2223214285714,81.12857142857143,3603.5,521.2223214285714,81.12857142857143,3704.6,521.2223214285714,81.12857142857143,3809,521.2223214285714,81.12857142857143,3913.8,521.2223214285714,81.12857142857143,4023.1,521.2223214285714,81.12857142857143,4124,521.2223214285714,81.12857142857143,4226.7,521.2223214285714,81.12857142857143,4326.7,521.2223214285714,81.12857142857143,4427.5,521.2223214285714,81.12857142857143,4536.1,521.2223214285714,81.12857142857143,4639.7,521.2223214285714,81.12857142857143,4742.3,521.2223214285714,81.12857142857143,4843.8,521.2223214285714,81.12857142857143,4951.3]","[1756,1756.1,1000,0,756.1,""smooth"",""up"",""up"",""good_move"",8519,6760.9,2313.9,5730.7,474.4,""oops"",""up"",""right"",""good_move"",18832.8,10312.8,2316.8,16033.9,482.1,""smooth"",""up"",""up"",""good_move"",21400.2,2566.9,2006.2,18833.3,560.7,""smooth"",""right"",""right"",""good_move"",24615.3,3209.8,2670.9,21405.5,538.9,""oops"",""up"",""down"",""bad_move"",27781.5,3165.8,2691.7,24615.8,474.1,""oops"",""right"",""up"",""good_move"",33784,5998,2076.4,31236.2,471.4,""oops"",""right"",""down"",""bad_move"",36428.9,2644.3,2020.5,33784.7,623.7,""oops"",""up"",""right"",""good_move"",42035.6,5605.8,1821.8,39791.2,422.7,""smooth"",""up"",""up"",""good_move"",44604.5,2566.1,2063.9,42038.4,502.2,""oops"",""up"",""left"",""bad_move""]"
"6079","","<div style=""width:500px;"">
  <p>What determined the result of this run?</p>
  </div>","5","html-slider-response","54","1012373","0.0-7.0-1.8","65","1","2025-07-30 08:53:20","36c45c0696341be0efffe67d72a12abb","41.90.5.172","Mozilla/5.0 (Windows NT 10.0; Win64; x64) AppleWebKit/537.36 (KHTML, like Gecko) Chrome/138.0.0.0 Safari/537.36","WebKit","Chrome","138.0.0.0","Windows","10.0","https://app.prolific.com/","en-US,en;q=0.9","664b7cea18fe17cd31b5ab5e","687a19d2168e237449fb8af4","6889dc1888c6a79ab1d0cfe6","0","664b7cea18fe17cd31b5ab5e","0","2025-07-30T09:10:19.685Z","","","","AttribQ","","","","","","","","","","","50","","","","","","","","","","","","","","","","","","","","","","","","","","",""
"7027","","<div style=""width:500px;"">
  <p>How much control did you have over the ball?</p>
  </div>","23","html-slider-response","55","1019411","0.0-7.0-2.8","65","1","2025-07-30 08:53:20","36c45c0696341be0efffe67d72a12abb","41.90.5.172","Mozilla/5.0 (Windows NT 10.0; Win64; x64) AppleWebKit/537.36 (KHTML, like Gecko) Chrome/138.0.0.0 Safari/537.36","WebKit","Chrome","138.0.0.0","Windows","10.0","https://app.prolific.com/","en-US,en;q=0.9","664b7cea18fe17cd31b5ab5e","687a19d2168e237449fb8af4","6889dc1888c6a79ab1d0cfe6","0","664b7cea18fe17cd31b5ab5e","0","2025-07-30T09:10:26.722Z","","","","ControlQ","","","","","","","","","","","50","","","","","","","","","","","","","","","","","","","","","","","","","","",""
"5805","","<div style=""width:500px;"">
  <p>How would you describe your current emotional state?</p>
  </div>","74","html-slider-response","56","1025224","0.0-7.0-3.8","65","1","2025-07-30 08:53:20","36c45c0696341be0efffe67d72a12abb","41.90.5.172","Mozilla/5.0 (Windows NT 10.0; Win64; x64) AppleWebKit/537.36 (KHTML, like Gecko) Chrome/138.0.0.0 Safari/537.36","WebKit","Chrome","138.0.0.0","Windows","10.0","https://app.prolific.com/","en-US,en;q=0.9","664b7cea18fe17cd31b5ab5e","687a19d2168e237449fb8af4","6889dc1888c6a79ab1d0cfe6","0","664b7cea18fe17cd31b5ab5e","0","2025-07-30T09:10:32.536Z","","","","StressQ","","","","","","","","","","","50","","","","","","","","","","","","","","","","","","","","","","","","","","",""
"4498","","<div style=""width:500px;"">
  <p>What best describes how you currently feel?</p>
  </div>","23","html-slider-response","57","1029727","0.0-7.0-4.8","65","1","2025-07-30 08:53:20","36c45c0696341be0efffe67d72a12abb","41.90.5.172","Mozilla/5.0 (Windows NT 10.0; Win64; x64) AppleWebKit/537.36 (KHTML, like Gecko) Chrome/138.0.0.0 Safari/537.36","WebKit","Chrome","138.0.0.0","Windows","10.0","https://app.prolific.com/","en-US,en;q=0.9","664b7cea18fe17cd31b5ab5e","687a19d2168e237449fb8af4","6889dc1888c6a79ab1d0cfe6","0","664b7cea18fe17cd31b5ab5e","0","2025-07-30T09:10:37.038Z","","","","MotivationQ","","","","","","","","","","","50","","","","","","","","","","","","","","","","","","","","","","","","","","",""
"","","","","ctl-task-cpt","58","1105874","0.0-7.0-0.9","65","1","2025-07-30 08:53:20","36c45c0696341be0efffe67d72a12abb","41.90.5.172","Mozilla/5.0 (Windows NT 10.0; Win64; x64) AppleWebKit/537.36 (KHTML, like Gecko) Chrome/138.0.0.0 Safari/537.36","WebKit","Chrome","138.0.0.0","Windows","10.0","https://app.prolific.com/","en-US,en;q=0.9","664b7cea18fe17cd31b5ab5e","687a19d2168e237449fb8af4","6889dc1888c6a79ab1d0cfe6","0","664b7cea18fe17cd31b5ab5e","0","2025-07-30T09:11:53.185Z","","","","","","","","","","","","","","","","win-only","3","g1:SW,g2:NE","0.5","10","0","1037605.3","43169.1","48178.6","73115.1","1","4","4","6","2","4","4","4","0","0.030303030303030304","2039.8","3000","1365","[""up"",""right""]","{""num_key_presses"":6,""num_perfect"":3,""num_errors"":0,""num_randdir"":3,""num_randdir_good_moves"":3,""num_whilered"":0,""num_whileblue"":0,""num_blue"":2,""num_good_moves"":6}","[296.22232142857143,294.12857142857143,0.9,296.22232142857143,294.12857142857143,104.2,296.22232142857143,294.12857142857143,206.8,296.22232142857143,294.12857142857143,314.5,296.22232142857143,294.12857142857143,421.8,296.22232142857143,294.12857142857143,531.5,296.22232142857143,294.12857142857143,635.4,296.22232142857143,294.12857142857143,743.3,296.22232142857143,294.12857142857143,851.6,296.22232142857143,294.12857142857143,962.6,296.22232142857143,294.12857142857143,1066.6,296.22232142857143,294.12857142857143,1170.8,296.22232142857143,294.12857142857143,1279.3,371.22232142857143,261.12857142857143,1392.9,508.22232142857143,143.12857142857143,1500.8,536.2223214285714,110.12857142857143,1601.6,546.2223214285714,93.12857142857143,1706.8,546.2223214285714,69.12857142857143,1807.1,546.2223214285714,65.12857142857143,1917.8,546.2223214285714,65.12857142857143,2019.5,546.2223214285714,65.12857142857143,2132.3,546.2223214285714,65.12857142857143,2235.6,546.2223214285714,65.12857142857143,2342.3,546.2223214285714,65.12857142857143,2443.3,546.2223214285714,65.12857142857143,2544.7,546.2223214285714,65.12857142857143,2644.7,546.2223214285714,65.12857142857143,2749.7,546.2223214285714,65.12857142857143,2851.6,546.2223214285714,65.12857142857143,2953,546.2223214285714,65.12857142857143,3056.5,546.2223214285714,65.12857142857143,3156.8,546.2223214285714,65.12857142857143,3266.2,546.2223214285714,65.12857142857143,3367.9,546.2223214285714,65.12857142857143,3473.6,546.2223214285714,65.12857142857143,3581.6,546.2223214285714,65.12857142857143,3685.7,546.2223214285714,65.12857142857143,3790.9,546.2223214285714,65.12857142857143,3905.8,546.2223214285714,65.12857142857143,4006.2,546.2223214285714,65.12857142857143,4108.8,546.2223214285714,65.12857142857143,4219.7,546.2223214285714,65.12857142857143,4320.8,546.2223214285714,65.12857142857143,4423.4,546.2223214285714,65.12857142857143,4529.6,546.2223214285714,65.12857142857143,4635.3,546.2223214285714,65.12857142857143,4738.5,546.2223214285714,65.12857142857143,4847.6,546.2223214285714,65.12857142857143,4959.3]","[1508,1508,1000,0,508,""smooth"",""up"",""up"",""good_move"",8790,7279.7,2939,5433,418.1,""smooth"",""up"",""up"",""good_move"",12209.7,3417.6,2929.7,8792.5,487.7,""oops"",""right"",""up"",""good_move"",14677.9,2466.4,1973.3,12211.7,493.1,""oops"",""right"",""right"",""good_move"",21409.2,6728.9,2711.6,18206.7,490.9,""oops"",""right"",""right"",""good_move"",24780.6,3371.1,2945,21409.5,426.1,""smooth"",""right"",""right"",""good_move""]"
"5390","","<div style=""width:500px;"">
  <p>What determined the result of this run?</p>
  </div>","100","html-slider-response","59","1111268","0.0-7.0-1.9","65","1","2025-07-30 08:53:20","36c45c0696341be0efffe67d72a12abb","41.90.5.172","Mozilla/5.0 (Windows NT 10.0; Win64; x64) AppleWebKit/537.36 (KHTML, like Gecko) Chrome/138.0.0.0 Safari/537.36","WebKit","Chrome","138.0.0.0","Windows","10.0","https://app.prolific.com/","en-US,en;q=0.9","664b7cea18fe17cd31b5ab5e","687a19d2168e237449fb8af4","6889dc1888c6a79ab1d0cfe6","0","664b7cea18fe17cd31b5ab5e","0","2025-07-30T09:11:58.579Z","","","","AttribQ","","","","","","","","","","","50","","","","","","","","","","","","","","","","","","","","","","","","","","",""
"4268","","<div style=""width:500px;"">
  <p>How much control did you have over the ball?</p>
  </div>","98","html-slider-response","60","1115545","0.0-7.0-2.9","65","1","2025-07-30 08:53:20","36c45c0696341be0efffe67d72a12abb","41.90.5.172","Mozilla/5.0 (Windows NT 10.0; Win64; x64) AppleWebKit/537.36 (KHTML, like Gecko) Chrome/138.0.0.0 Safari/537.36","WebKit","Chrome","138.0.0.0","Windows","10.0","https://app.prolific.com/","en-US,en;q=0.9","664b7cea18fe17cd31b5ab5e","687a19d2168e237449fb8af4","6889dc1888c6a79ab1d0cfe6","0","664b7cea18fe17cd31b5ab5e","0","2025-07-30T09:12:02.855Z","","","","ControlQ","","","","","","","","","","","50","","","","","","","","","","","","","","","","","","","","","","","","","","",""
"4380","","<div style=""width:500px;"">
  <p>How would you describe your current emotional state?</p>
  </div>","3","html-slider-response","61","1119930","0.0-7.0-3.9","65","1","2025-07-30 08:53:20","36c45c0696341be0efffe67d72a12abb","41.90.5.172","Mozilla/5.0 (Windows NT 10.0; Win64; x64) AppleWebKit/537.36 (KHTML, like Gecko) Chrome/138.0.0.0 Safari/537.36","WebKit","Chrome","138.0.0.0","Windows","10.0","https://app.prolific.com/","en-US,en;q=0.9","664b7cea18fe17cd31b5ab5e","687a19d2168e237449fb8af4","6889dc1888c6a79ab1d0cfe6","0","664b7cea18fe17cd31b5ab5e","0","2025-07-30T09:12:07.241Z","","","","StressQ","","","","","","","","","","","50","","","","","","","","","","","","","","","","","","","","","","","","","","",""
"3976","","<div style=""width:500px;"">
  <p>What best describes how you currently feel?</p>
  </div>","80","html-slider-response","62","1123913","0.0-7.0-4.9","65","1","2025-07-30 08:53:20","36c45c0696341be0efffe67d72a12abb","41.90.5.172","Mozilla/5.0 (Windows NT 10.0; Win64; x64) AppleWebKit/537.36 (KHTML, like Gecko) Chrome/138.0.0.0 Safari/537.36","WebKit","Chrome","138.0.0.0","Windows","10.0","https://app.prolific.com/","en-US,en;q=0.9","664b7cea18fe17cd31b5ab5e","687a19d2168e237449fb8af4","6889dc1888c6a79ab1d0cfe6","0","664b7cea18fe17cd31b5ab5e","0","2025-07-30T09:12:11.225Z","","","","MotivationQ","","","","","","","","","","","50","","","","","","","","","","","","","","","","","","","","","","","","","","",""
"","","","","ctl-task-cpt","63","1177223","0.0-7.0-0.10","65","1","2025-07-30 08:53:20","36c45c0696341be0efffe67d72a12abb","41.90.5.172","Mozilla/5.0 (Windows NT 10.0; Win64; x64) AppleWebKit/537.36 (KHTML, like Gecko) Chrome/138.0.0.0 Safari/537.36","WebKit","Chrome","138.0.0.0","Windows","10.0","https://app.prolific.com/","en-US,en;q=0.9","664b7cea18fe17cd31b5ab5e","687a19d2168e237449fb8af4","6889dc1888c6a79ab1d0cfe6","0","664b7cea18fe17cd31b5ab5e","0","2025-07-30T09:13:04.533Z","","","","","","","","","","","","","","","","win-only","3","g1:SW,g2:NE","0.6","11","0","1131789.7","1669.4","6672","50275","1","4","8","6","2","8","8","12","4","0.09090909090909091","2092.8","3000","175","[""up"",""right""]","{""num_key_presses"":12,""num_perfect"":8,""num_errors"":0,""num_randdir"":4,""num_randdir_good_moves"":1,""num_whilered"":0,""num_whileblue"":0,""num_blue"":2,""num_good_moves"":9}","[298.22232142857143,297.12857142857143,0.4,298.22232142857143,297.12857142857143,103.5,298.22232142857143,297.12857142857143,205.9,298.22232142857143,297.12857142857143,318.3,298.22232142857143,297.12857142857143,422.3,298.22232142857143,297.12857142857143,525,298.22232142857143,297.12857142857143,630.6,298.22232142857143,297.12857142857143,736.2,298.22232142857143,297.12857142857143,838.2,306.22232142857143,292.12857142857143,939.5,413.22232142857143,223.12857142857143,1042.5,439.22232142857143,215.12857142857143,1144.8,459.22232142857143,177.12857142857143,1265.1,478.22232142857143,113.12857142857143,1372.7,486.22232142857143,102.12857142857143,1473.8,488.22232142857143,97.12857142857143,1574.9,495.22232142857143,89.12857142857143,1689.3,504.22232142857143,81.12857142857143,1790.6,507.22232142857143,79.12857142857143,1898.3,507.22232142857143,79.12857142857143,2005.9,507.22232142857143,79.12857142857143,2108.2,507.22232142857143,79.12857142857143,2209.4,507.22232142857143,79.12857142857143,2323.8,507.22232142857143,79.12857142857143,2424.3,507.22232142857143,79.12857142857143,2527.5,507.22232142857143,79.12857142857143,2634.1,507.22232142857143,79.12857142857143,2736.8,507.22232142857143,79.12857142857143,2851,507.22232142857143,79.12857142857143,2953.4,507.22232142857143,79.12857142857143,3063.2,507.22232142857143,79.12857142857143,3168.5,507.22232142857143,79.12857142857143,3273.3,507.22232142857143,79.12857142857143,3379.4,507.22232142857143,79.12857142857143,3481.4,507.22232142857143,79.12857142857143,3591.6,507.22232142857143,79.12857142857143,3696.8,507.22232142857143,79.12857142857143,3799.9,507.22232142857143,79.12857142857143,3900,507.22232142857143,79.12857142857143,4003.4,507.22232142857143,79.12857142857143,4104.6,507.22232142857143,79.12857142857143,4210.1,507.22232142857143,79.12857142857143,4316.3,507.22232142857143,79.12857142857143,4416.8,507.22232142857143,79.12857142857143,4518.9,507.22232142857143,79.12857142857143,4622,507.22232142857143,79.12857142857143,4802.8,507.22232142857143,79.12857142857143,4904.2]","[5306.5,5306.5,2848.2,2018.7,439.7,""smooth"",""up"",""up"",""good_move"",8463.6,3151,2623.6,5312.6,527.4,""oops"",""up"",""up"",""good_move"",15538.2,7074.2,3010,12096.4,431.8,""smooth"",""up"",""up"",""good_move"",19368.6,3829,3350,15539.7,479,""smooth"",""right"",""right"",""good_move"",23015.2,3644.5,3226.6,19370.7,417.9,""oops"",""right"",""left"",""bad_move"",25955.6,2939,2523.7,23016.6,415.3,""oops"",""right"",""left"",""bad_move"",29626.9,3668.4,3269.4,25958.6,398.9,""smooth"",""right"",""right"",""good_move"",32189.5,2560.3,2120.1,29629.2,440.2,""smooth"",""right"",""right"",""good_move"",34917.6,2726,2252.8,32191.6,473.2,""oops"",""right"",""left"",""bad_move"",38118.9,3200.9,2760.6,34918,440.3,""smooth"",""right"",""right"",""good_move"",40822.9,2703.3,2257.2,38119.6,446.1,""smooth"",""right"",""right"",""good_move"",43422,2596.7,2193.8,40825.3,402.9,""smooth"",""right"",""right"",""good_move""]"
"6490","","<div style=""width:500px;"">
  <p>What determined the result of this run?</p>
  </div>","84","html-slider-response","64","1183715","0.0-7.0-1.10","65","1","2025-07-30 08:53:20","36c45c0696341be0efffe67d72a12abb","41.90.5.172","Mozilla/5.0 (Windows NT 10.0; Win64; x64) AppleWebKit/537.36 (KHTML, like Gecko) Chrome/138.0.0.0 Safari/537.36","WebKit","Chrome","138.0.0.0","Windows","10.0","https://app.prolific.com/","en-US,en;q=0.9","664b7cea18fe17cd31b5ab5e","687a19d2168e237449fb8af4","6889dc1888c6a79ab1d0cfe6","0","664b7cea18fe17cd31b5ab5e","0","2025-07-30T09:13:11.025Z","","","","AttribQ","","","","","","","","","","","50","","","","","","","","","","","","","","","","","","","","","","","","","","",""
"5388","","<div style=""width:500px;"">
  <p>How much control did you have over the ball?</p>
  </div>","33","html-slider-response","65","1189110","0.0-7.0-2.10","65","1","2025-07-30 08:53:20","36c45c0696341be0efffe67d72a12abb","41.90.5.172","Mozilla/5.0 (Windows NT 10.0; Win64; x64) AppleWebKit/537.36 (KHTML, like Gecko) Chrome/138.0.0.0 Safari/537.36","WebKit","Chrome","138.0.0.0","Windows","10.0","https://app.prolific.com/","en-US,en;q=0.9","664b7cea18fe17cd31b5ab5e","687a19d2168e237449fb8af4","6889dc1888c6a79ab1d0cfe6","0","664b7cea18fe17cd31b5ab5e","0","2025-07-30T09:13:16.420Z","","","","ControlQ","","","","","","","","","","","50","","","","","","","","","","","","","","","","","","","","","","","","","","",""
"4671","","<div style=""width:500px;"">
  <p>How would you describe your current emotional state?</p>
  </div>","36","html-slider-response","66","1193784","0.0-7.0-3.10","65","1","2025-07-30 08:53:20","36c45c0696341be0efffe67d72a12abb","41.90.5.172","Mozilla/5.0 (Windows NT 10.0; Win64; x64) AppleWebKit/537.36 (KHTML, like Gecko) Chrome/138.0.0.0 Safari/537.36","WebKit","Chrome","138.0.0.0","Windows","10.0","https://app.prolific.com/","en-US,en;q=0.9","664b7cea18fe17cd31b5ab5e","687a19d2168e237449fb8af4","6889dc1888c6a79ab1d0cfe6","0","664b7cea18fe17cd31b5ab5e","0","2025-07-30T09:13:21.094Z","","","","StressQ","","","","","","","","","","","50","","","","","","","","","","","","","","","","","","","","","","","","","","",""
"3757","","<div style=""width:500px;"">
  <p>What best describes how you currently feel?</p>
  </div>","77","html-slider-response","67","1197543","0.0-7.0-4.10","65","1","2025-07-30 08:53:20","36c45c0696341be0efffe67d72a12abb","41.90.5.172","Mozilla/5.0 (Windows NT 10.0; Win64; x64) AppleWebKit/537.36 (KHTML, like Gecko) Chrome/138.0.0.0 Safari/537.36","WebKit","Chrome","138.0.0.0","Windows","10.0","https://app.prolific.com/","en-US,en;q=0.9","664b7cea18fe17cd31b5ab5e","687a19d2168e237449fb8af4","6889dc1888c6a79ab1d0cfe6","0","664b7cea18fe17cd31b5ab5e","0","2025-07-30T09:13:24.853Z","","","","MotivationQ","","","","","","","","","","","50","","","","","","","","","","","","","","","","","","","","","","","","","","",""
"","","","","ctl-task-cpt","68","1235593","0.0-7.0-0.11","65","1","2025-07-30 08:53:20","36c45c0696341be0efffe67d72a12abb","41.90.5.172","Mozilla/5.0 (Windows NT 10.0; Win64; x64) AppleWebKit/537.36 (KHTML, like Gecko) Chrome/138.0.0.0 Safari/537.36","WebKit","Chrome","138.0.0.0","Windows","10.0","https://app.prolific.com/","en-US,en;q=0.9","664b7cea18fe17cd31b5ab5e","687a19d2168e237449fb8af4","6889dc1888c6a79ab1d0cfe6","0","664b7cea18fe17cd31b5ab5e","0","2025-07-30T09:14:02.903Z","","","","","","","","","","","","","","","","win-only","2","g1:SE,g2:NW","0.7","12","0","1205415.3","2506.9","7520.3","35022.4","1","4","4","6","2","4","3","15","12","0.11363636363636363","1805.7","3000","870","[""left"",""up""]","{""num_key_presses"":10,""num_perfect"":6,""num_errors"":1,""num_randdir"":3,""num_randdir_good_moves"":1,""num_whilered"":0,""num_whileblue"":1,""num_blue"":1,""num_good_moves"":8}","[293.22232142857143,298.12857142857143,0.3,293.22232142857143,298.12857142857143,104.1,293.22232142857143,298.12857142857143,209.7,293.22232142857143,298.12857142857143,314.8,293.22232142857143,298.12857142857143,422.5,293.22232142857143,298.12857142857143,525.1,293.22232142857143,298.12857142857143,627.9,293.22232142857143,298.12857142857143,734.4,266.22232142857143,274.12857142857143,839.6,258.22232142857143,264.12857142857143,947.1,241.22232142857143,247.12857142857143,1047.8,201.22232142857143,199.12857142857143,1155.3,151.22232142857143,148.12857142857143,1256.5,96.22232142857143,68.12857142857143,1365.8,89.22232142857143,56.128571428571426,1467.5,89.22232142857143,56.128571428571426,1572.7,89.22232142857143,56.128571428571426,1673.8,89.22232142857143,56.128571428571426,1775.1,89.22232142857143,56.128571428571426,1881.3,89.22232142857143,56.128571428571426,1993.2,89.22232142857143,56.128571428571426,2095.7,89.22232142857143,56.128571428571426,2206.2,89.22232142857143,56.128571428571426,2307.3,89.22232142857143,56.128571428571426,2411.5,89.22232142857143,56.128571428571426,2511.9,89.22232142857143,56.128571428571426,2616.3,89.22232142857143,56.128571428571426,2721.2,89.22232142857143,56.128571428571426,2826,89.22232142857143,56.128571428571426,2926.1,89.22232142857143,56.128571428571426,3029.7,89.22232142857143,56.128571428571426,3130.8,89.22232142857143,56.128571428571426,3234.5,89.22232142857143,56.128571428571426,3338.7,89.22232142857143,56.128571428571426,3446.1,89.22232142857143,56.128571428571426,3548.2,89.22232142857143,56.128571428571426,3654.3,89.22232142857143,56.128571428571426,3755.2,89.22232142857143,56.128571428571426,3860.3,89.22232142857143,56.128571428571426,3961.4,89.22232142857143,56.128571428571426,4067.5,89.22232142857143,56.128571428571426,4171.2,89.22232142857143,56.128571428571426,4273.1,89.22232142857143,56.128571428571426,4381.2,89.22232142857143,56.128571428571426,4481.3,89.22232142857143,56.128571428571426,4588.7,89.22232142857143,56.128571428571426,4692.9,89.22232142857143,56.128571428571426,4799.8,89.22232142857143,56.128571428571426,4904.5]","[1590.5,1590.5,1000,0,590.5,""smooth"",""up"",""up"",""good_move"",4588.3,2995.4,2550.5,1592.9,444.9,""oops"",""up"",""left"",""good_move"",8229.3,3638.4,3198.7,4590.9,439.7,""smooth"",""up"",""up"",""good_move"",10840.9,2611.1,2199.8,8229.8,411.4,""oops"",""up"",""right"",""bad_move"",14300.6,3455.4,2979.7,10845.2,475.7,""smooth"",""up"",""up"",""good_move"",16700,2397.9,1887,14302.2,510.9,""oops"",""left"",""right"",""bad_move"",19468,2763.8,2332.4,16704.2,431.4,""smooth"",""left"",""left"",""good_move"",22116.1,2645.3,2225.7,19470.8,419.6,""smooth"",""left"",""left"",""good_move"",24708.7,2591.2,2199.4,22117.6,391.8,""smooth"",""left"",""left"",""good_move"",27256.4,2546.8,2096.5,24709.6,450.3,""while_blue"",""left"",""left"",""good_move""]"
"6602","","<div style=""width:500px;"">
  <p>What determined the result of this run?</p>
  </div>","85","html-slider-response","69","1242201","0.0-7.0-1.11","65","1","2025-07-30 08:53:20","36c45c0696341be0efffe67d72a12abb","41.90.5.172","Mozilla/5.0 (Windows NT 10.0; Win64; x64) AppleWebKit/537.36 (KHTML, like Gecko) Chrome/138.0.0.0 Safari/537.36","WebKit","Chrome","138.0.0.0","Windows","10.0","https://app.prolific.com/","en-US,en;q=0.9","664b7cea18fe17cd31b5ab5e","687a19d2168e237449fb8af4","6889dc1888c6a79ab1d0cfe6","0","664b7cea18fe17cd31b5ab5e","0","2025-07-30T09:14:09.511Z","","","","AttribQ","","","","","","","","","","","50","","","","","","","","","","","","","","","","","","","","","","","","","","",""
"5032","","<div style=""width:500px;"">
  <p>How much control did you have over the ball?</p>
  </div>","28","html-slider-response","70","1247237","0.0-7.0-2.11","65","1","2025-07-30 08:53:20","36c45c0696341be0efffe67d72a12abb","41.90.5.172","Mozilla/5.0 (Windows NT 10.0; Win64; x64) AppleWebKit/537.36 (KHTML, like Gecko) Chrome/138.0.0.0 Safari/537.36","WebKit","Chrome","138.0.0.0","Windows","10.0","https://app.prolific.com/","en-US,en;q=0.9","664b7cea18fe17cd31b5ab5e","687a19d2168e237449fb8af4","6889dc1888c6a79ab1d0cfe6","0","664b7cea18fe17cd31b5ab5e","0","2025-07-30T09:14:14.548Z","","","","ControlQ","","","","","","","","","","","50","","","","","","","","","","","","","","","","","","","","","","","","","","",""
"5088","","<div style=""width:500px;"">
  <p>How would you describe your current emotional state?</p>
  </div>","38","html-slider-response","71","1252329","0.0-7.0-3.11","65","1","2025-07-30 08:53:20","36c45c0696341be0efffe67d72a12abb","41.90.5.172","Mozilla/5.0 (Windows NT 10.0; Win64; x64) AppleWebKit/537.36 (KHTML, like Gecko) Chrome/138.0.0.0 Safari/537.36","WebKit","Chrome","138.0.0.0","Windows","10.0","https://app.prolific.com/","en-US,en;q=0.9","664b7cea18fe17cd31b5ab5e","687a19d2168e237449fb8af4","6889dc1888c6a79ab1d0cfe6","0","664b7cea18fe17cd31b5ab5e","0","2025-07-30T09:14:19.640Z","","","","StressQ","","","","","","","","","","","50","","","","","","","","","","","","","","","","","","","","","","","","","","",""
"15923","","<div style=""width:500px;"">
  <p>What best describes how you currently feel?</p>
  </div>","70","html-slider-response","72","1268257","0.0-7.0-4.11","65","1","2025-07-30 08:53:20","36c45c0696341be0efffe67d72a12abb","41.90.5.172","Mozilla/5.0 (Windows NT 10.0; Win64; x64) AppleWebKit/537.36 (KHTML, like Gecko) Chrome/138.0.0.0 Safari/537.36","WebKit","Chrome","138.0.0.0","Windows","10.0","https://app.prolific.com/","en-US,en;q=0.9","664b7cea18fe17cd31b5ab5e","687a19d2168e237449fb8af4","6889dc1888c6a79ab1d0cfe6","0","664b7cea18fe17cd31b5ab5e","0","2025-07-30T09:14:35.568Z","","","","MotivationQ","","","","","","","","","","","50","","","","","","","","","","","","","","","","","","","","","","","","","","",""
"","","","","ctl-task-cpt","73","1299875","0.0-7.0-0.12","65","1","2025-07-30 08:53:20","36c45c0696341be0efffe67d72a12abb","41.90.5.172","Mozilla/5.0 (Windows NT 10.0; Win64; x64) AppleWebKit/537.36 (KHTML, like Gecko) Chrome/138.0.0.0 Safari/537.36","WebKit","Chrome","138.0.0.0","Windows","10.0","https://app.prolific.com/","en-US,en;q=0.9","664b7cea18fe17cd31b5ab5e","687a19d2168e237449fb8af4","6889dc1888c6a79ab1d0cfe6","0","664b7cea18fe17cd31b5ab5e","0","2025-07-30T09:15:07.186Z","","","","","","","","","","","","","","","","win-only","3","g1:SW,g2:NE","0.8","13","0","1276129","3065.4","8076.9","28589.8","1","4","8","6","2","8","8","23","15","0.17424242424242425","1657.1","3000","1660","[""up"",""right""]","{""num_key_presses"":6,""num_perfect"":6,""num_errors"":0,""num_randdir"":0,""num_randdir_good_moves"":0,""num_whilered"":0,""num_whileblue"":0,""num_blue"":1,""num_good_moves"":6}","[295.22232142857143,304.12857142857143,0.9,295.22232142857143,304.12857142857143,104.8,295.22232142857143,304.12857142857143,206.1,295.22232142857143,304.12857142857143,310.4,295.22232142857143,304.12857142857143,417.8,295.22232142857143,304.12857142857143,528,295.22232142857143,304.12857142857143,638,295.22232142857143,304.12857142857143,741.9,400.22232142857143,188.12857142857143,845.6,477.22232142857143,131.12857142857143,952.6,505.22232142857143,113.12857142857143,1066.5,526.2223214285714,94.12857142857143,1174.1,542.2223214285714,79.12857142857143,1282.6,544.2223214285714,79.12857142857143,1384.4,544.2223214285714,78.12857142857143,1494.9,544.2223214285714,78.12857142857143,1600.1,544.2223214285714,78.12857142857143,1700.5,544.2223214285714,78.12857142857143,1802.1,544.2223214285714,78.12857142857143,1907,544.2223214285714,78.12857142857143,2016.6,544.2223214285714,78.12857142857143,2125.4,544.2223214285714,78.12857142857143,2233,544.2223214285714,78.12857142857143,2337.3,544.2223214285714,78.12857142857143,2442,544.2223214285714,78.12857142857143,2543,544.2223214285714,78.12857142857143,2651,544.2223214285714,78.12857142857143,2754.6,544.2223214285714,78.12857142857143,2855.7,544.2223214285714,78.12857142857143,2958.4,544.2223214285714,78.12857142857143,3066.4,544.2223214285714,78.12857142857143,3171.7,544.2223214285714,78.12857142857143,3272.5,544.2223214285714,78.12857142857143,3377.7,544.2223214285714,78.12857142857143,3491.9,544.2223214285714,78.12857142857143,3601.8,544.2223214285714,78.12857142857143,3703.2,544.2223214285714,78.12857142857143,3806.3,544.2223214285714,78.12857142857143,3913.8,544.2223214285714,78.12857142857143,4019.2,544.2223214285714,78.12857142857143,4127.9,544.2223214285714,78.12857142857143,4232.8,544.2223214285714,78.12857142857143,4333.4,544.2223214285714,78.12857142857143,4435.5,544.2223214285714,78.12857142857143,4539.1,544.2223214285714,78.12857142857143,4647.9,544.2223214285714,78.12857142857143,4748.9,544.2223214285714,78.12857142857143,4853.9,544.2223214285714,78.12857142857143,4961.1]","[1838.3,1838.3,1000,0,838.3,""smooth"",""up"",""up"",""good_move"",4830.5,2991.7,2561.7,1838.8,430,""smooth"",""up"",""up"",""good_move"",7615.2,2782.9,2401,4832.4,381.8,""smooth"",""right"",""right"",""good_move"",10170.2,2552.7,2051.5,7617.6,501.1,""smooth"",""right"",""right"",""good_move"",13144.2,2973.5,2567.9,10170.8,405.6,""smooth"",""up"",""up"",""good_move"",20350.8,7205.5,2358.2,17472,520.6,""smooth"",""right"",""right"",""good_move""]"
"5009","","<div style=""width:500px;"">
  <p>What determined the result of this run?</p>
  </div>","83","html-slider-response","74","1304887","0.0-7.0-1.12","65","1","2025-07-30 08:53:20","36c45c0696341be0efffe67d72a12abb","41.90.5.172","Mozilla/5.0 (Windows NT 10.0; Win64; x64) AppleWebKit/537.36 (KHTML, like Gecko) Chrome/138.0.0.0 Safari/537.36","WebKit","Chrome","138.0.0.0","Windows","10.0","https://app.prolific.com/","en-US,en;q=0.9","664b7cea18fe17cd31b5ab5e","687a19d2168e237449fb8af4","6889dc1888c6a79ab1d0cfe6","0","664b7cea18fe17cd31b5ab5e","0","2025-07-30T09:15:12.197Z","","","","AttribQ","","","","","","","","","","","50","","","","","","","","","","","","","","","","","","","","","","","","","","",""
"4913","","<div style=""width:500px;"">
  <p>How much control did you have over the ball?</p>
  </div>","82","html-slider-response","75","1309802","0.0-7.0-2.12","65","1","2025-07-30 08:53:20","36c45c0696341be0efffe67d72a12abb","41.90.5.172","Mozilla/5.0 (Windows NT 10.0; Win64; x64) AppleWebKit/537.36 (KHTML, like Gecko) Chrome/138.0.0.0 Safari/537.36","WebKit","Chrome","138.0.0.0","Windows","10.0","https://app.prolific.com/","en-US,en;q=0.9","664b7cea18fe17cd31b5ab5e","687a19d2168e237449fb8af4","6889dc1888c6a79ab1d0cfe6","0","664b7cea18fe17cd31b5ab5e","0","2025-07-30T09:15:17.113Z","","","","ControlQ","","","","","","","","","","","50","","","","","","","","","","","","","","","","","","","","","","","","","","",""
"4732","","<div style=""width:500px;"">
  <p>How would you describe your current emotional state?</p>
  </div>","29","html-slider-response","76","1314541","0.0-7.0-3.12","65","1","2025-07-30 08:53:20","36c45c0696341be0efffe67d72a12abb","41.90.5.172","Mozilla/5.0 (Windows NT 10.0; Win64; x64) AppleWebKit/537.36 (KHTML, like Gecko) Chrome/138.0.0.0 Safari/537.36","WebKit","Chrome","138.0.0.0","Windows","10.0","https://app.prolific.com/","en-US,en;q=0.9","664b7cea18fe17cd31b5ab5e","687a19d2168e237449fb8af4","6889dc1888c6a79ab1d0cfe6","0","664b7cea18fe17cd31b5ab5e","0","2025-07-30T09:15:21.851Z","","","","StressQ","","","","","","","","","","","50","","","","","","","","","","","","","","","","","","","","","","","","","","",""
"5448","","<div style=""width:500px;"">
  <p>What best describes how you currently feel?</p>
  </div>","68","html-slider-response","77","1319992","0.0-7.0-4.12","65","1","2025-07-30 08:53:20","36c45c0696341be0efffe67d72a12abb","41.90.5.172","Mozilla/5.0 (Windows NT 10.0; Win64; x64) AppleWebKit/537.36 (KHTML, like Gecko) Chrome/138.0.0.0 Safari/537.36","WebKit","Chrome","138.0.0.0","Windows","10.0","https://app.prolific.com/","en-US,en;q=0.9","664b7cea18fe17cd31b5ab5e","687a19d2168e237449fb8af4","6889dc1888c6a79ab1d0cfe6","0","664b7cea18fe17cd31b5ab5e","0","2025-07-30T09:15:27.302Z","","","","MotivationQ","","","","","","","","","","","50","","","","","","","","","","","","","","","","","","","","","","","","","","",""
