"rt","response_timestamp","stimulus","response","trial_type","trial_index","time_elapsed","internal_node_id","run_id","condition","recorded_at","source_code_version","ip","user_agent","device","browser","browser_version","platform","platform_version","referer","accept_language","PROLIFIC_PID","STUDY_ID","SESSION_ID","BATCH","prolific_id","batch","realtime","success","question_order","question_id","eventType","responses","item_order","radio_event_ids","radio_event_times","key_event_times","mouse_event_times","straightlining","zigzagging","honeypot","view_history","slider_start","which_type","canvas_config","goals_layout","control_level","trial_number","tutorial_trial_number","trial_start_time","phase1_start_time","phase2_start_time","phase3_start_time","goal_1_value","goal_1_distance","goal_2_value","goal_2_distance","goal_selected","outcome","outcome_total","participant_final_score","participant_initial_score","participant_final_score_prop","goal_choice_rt","allocated_time","allocated_time_remaining","goal_direction","counts","mouse_movements","key_presses"
"7807","1753864854498","<p style='font-size:40px;line-height:1.25'><strong>Welcome to the experiment!</strong></p><p style='font-size:1.1em;line-height:1.25'>Thank you for participanting in our experiment again! You will be asked to play the Dysfunctional Ball Game again. We will briefly recap the rules before we start.</p><p style='font-size:1.1em;line-height:1.25'>Press <strong>Next</strong> to continue.</p>","0","custom-html-button-response","0","7809","0.0-0.0","29","1","2025-07-30 08:40:45","36c45c0696341be0efffe67d72a12abb","92.53.153.233","Mozilla/5.0 (Windows NT 10.0; Win64; x64; rv:141.0) Gecko/20100101 Firefox/141.0","","Firefox","141.0","Windows","10.0","https://app.prolific.com/","sl,en-GB;q=0.7,en;q=0.3","664b4f0017b082f48ee8a033","687a19d2168e237449fb8af4","6889da39a02b3278d58d3a34","0","664b4f0017b082f48ee8a033","0","2025-07-30T08:40:54.498Z","","","","","","","","","","","","","","","","","","","","","","","","","","","","","","","","","","","","","","","","","",""
"12186","","","","fullscreen","1","21004","0.0-1.0","29","1","2025-07-30 08:40:45","36c45c0696341be0efffe67d72a12abb","92.53.153.233","Mozilla/5.0 (Windows NT 10.0; Win64; x64; rv:141.0) Gecko/20100101 Firefox/141.0","","Firefox","141.0","Windows","10.0","https://app.prolific.com/","sl,en-GB;q=0.7,en;q=0.3","664b4f0017b082f48ee8a033","687a19d2168e237449fb8af4","6889da39a02b3278d58d3a34","0","664b4f0017b082f48ee8a033","0","","true","","","","","","","","","","","","","","","","","","","","","","","","","","","","","","","","","","","","","","","","",""
"3738","1753864871434"," <p style='font-size:1.1em;line-height:1.25'>Thank you for closing all other tabs.</p><p style='font-size:1.1em;line-height:1.25'>We will now invite you to fill in some questionnaires, before starting the game.<br>This will take about 5 minutes.<br></p><p style='font-size:1.1em;line-height:1.25'>Press the <strong>Next</strong> button to continue.</p>","0","custom-html-button-response","2","24746","0.0-2.0","29","1","2025-07-30 08:40:45","36c45c0696341be0efffe67d72a12abb","92.53.153.233","Mozilla/5.0 (Windows NT 10.0; Win64; x64; rv:141.0) Gecko/20100101 Firefox/141.0","","Firefox","141.0","Windows","10.0","https://app.prolific.com/","sl,en-GB;q=0.7,en;q=0.3","664b4f0017b082f48ee8a033","687a19d2168e237449fb8af4","6889da39a02b3278d58d3a34","0","664b4f0017b082f48ee8a033","0","2025-07-30T08:41:11.435Z","","","","","","","","","","","","","","","","","","","","","","","","","","","","","","","","","","","","","","","","","",""
"3935","","","{""assigned_sex"":""male""}","survey-multi-choice","3","28683","0.0-3.0-0.0","29","1","2025-07-30 08:40:45","36c45c0696341be0efffe67d72a12abb","92.53.153.233","Mozilla/5.0 (Windows NT 10.0; Win64; x64; rv:141.0) Gecko/20100101 Firefox/141.0","","Firefox","141.0","Windows","10.0","https://app.prolific.com/","sl,en-GB;q=0.7,en;q=0.3","664b4f0017b082f48ee8a033","687a19d2168e237449fb8af4","6889da39a02b3278d58d3a34","0","664b4f0017b082f48ee8a033","0","","","[0]","0","demographics","","","","","","","","","","","","","","","","","","","","","","","","","","","","","","","","","","","","","",""
"4990","1753864880363","<p style='font-size:1.1em;line-height:1.25'>In the following, we will perform a baseline assessment. This means that we will ask you a few questions relating to your experiences over the past month.<br></p><p style='font-size:1.1em;line-height:1.25'>Press the <strong>Next</strong> button to continue.</p>","0","custom-html-button-response","4","33675","0.0-4.0-0.0","29","1","2025-07-30 08:40:45","36c45c0696341be0efffe67d72a12abb","92.53.153.233","Mozilla/5.0 (Windows NT 10.0; Win64; x64; rv:141.0) Gecko/20100101 Firefox/141.0","","Firefox","141.0","Windows","10.0","https://app.prolific.com/","sl,en-GB;q=0.7,en;q=0.3","664b4f0017b082f48ee8a033","687a19d2168e237449fb8af4","6889da39a02b3278d58d3a34","0","664b4f0017b082f48ee8a033","0","2025-07-30T08:41:20.364Z","","","","","","","","","","","","","","","","","","","","","","","","","","","","","","","","","","","","","","","","","",""
"75624","","","","survey-template","5","109301","0.0-4.0-1.0","29","1","2025-07-30 08:40:45","36c45c0696341be0efffe67d72a12abb","92.53.153.233","Mozilla/5.0 (Windows NT 10.0; Win64; x64; rv:141.0) Gecko/20100101 Firefox/141.0","","Firefox","141.0","Windows","10.0","https://app.prolific.com/","sl,en-GB;q=0.7,en;q=0.3","664b4f0017b082f48ee8a033","687a19d2168e237449fb8af4","6889da39a02b3278d58d3a34","0","664b4f0017b082f48ee8a033","0","2025-07-30T08:42:35.990Z","","","","pss","{""Q01"":""2"",""Q02"":""1"",""Q03"":""2"",""Q04"":""0"",""Q05"":""0"",""Q06"":""1"",""Q07"":""0"",""Q08"":""1"",""Q09"":""2"",""Q10"":""1""}","[0,1,2,3,4,5,6,7,8,9]","[""Q01"",""Q02"",""Q03"",""Q01"",""Q02"",""Q04"",""Q04"",""Q04"",""Q05"",""Q05"",""Q05"",""Q06"",""Q07"",""Q08"",""Q09"",""Q09"",""Q09"",""Q10""]","[8829,13933,17045,27219,31264,37366,39446,40167,43799,45011,47187,52316,58097,62087,66676,69352,70773,74888]","[]","[0,8829,13045,13933,17045,25113,27219,31264,37366,39446,40167,43799,45011,47187,51721,52316,57469,58097,61423,62087,66164,66676,69352,70233,70773,74888,75623]","0.3","0.5555555555555556","0","","","","","","","","","","","","","","","","","","","","","","","","","","","","",""
"3340","1753864959333","<p style='font-size:1.1em;line-height:1.25'>Thank you for your answers! Now we will ask you a few more questions relating to your feelings in the last 24 hours.<br></p><p style='font-size:1.1em;line-height:1.25'>Press the <strong>Next</strong> button to continue.</p>","0","custom-html-button-response","6","112644","0.0-4.0-2.0","29","1","2025-07-30 08:40:45","36c45c0696341be0efffe67d72a12abb","92.53.153.233","Mozilla/5.0 (Windows NT 10.0; Win64; x64; rv:141.0) Gecko/20100101 Firefox/141.0","","Firefox","141.0","Windows","10.0","https://app.prolific.com/","sl,en-GB;q=0.7,en;q=0.3","664b4f0017b082f48ee8a033","687a19d2168e237449fb8af4","6889da39a02b3278d58d3a34","0","664b4f0017b082f48ee8a033","0","2025-07-30T08:42:39.333Z","","","","","","","","","","","","","","","","","","","","","","","","","","","","","","","","","","","","","","","","","",""
"74770","","","","survey-template","7","187417","0.0-4.0-3.0","29","1","2025-07-30 08:40:45","36c45c0696341be0efffe67d72a12abb","92.53.153.233","Mozilla/5.0 (Windows NT 10.0; Win64; x64; rv:141.0) Gecko/20100101 Firefox/141.0","","Firefox","141.0","Windows","10.0","https://app.prolific.com/","sl,en-GB;q=0.7,en;q=0.3","664b4f0017b082f48ee8a033","687a19d2168e237449fb8af4","6889da39a02b3278d58d3a34","0","664b4f0017b082f48ee8a033","0","2025-07-30T08:43:54.106Z","","","","drsp","{""Q01"":""0"",""Q02"":""0"",""Q03"":""0"",""Q04"":""1"",""Q05"":""1"",""Q06"":""1"",""Q07"":""1"",""Q08"":""0"",""Q09"":""2"",""Q10"":""0"",""Q11"":""1"",""Q12"":""2"",""Q13"":""5"",""Q14"":""2"",""Q15"":""0"",""Q16"":""0"",""Q17"":""0"",""Q18"":""0"",""Q19"":""3"",""Q20"":""1"",""Q21"":""4"",""Q22"":""0""}","[0,1,2,3,4,5,6,7,8,9,10,11,12,13,14,15,16,17,18,19,20,21]","[""Q01"",""Q02"",""Q03"",""Q04"",""Q05"",""Q06"",""Q07"",""Q08"",""Q09"",""Q09"",""Q10"",""Q11"",""Q12"",""Q13"",""Q14"",""Q15"",""Q16"",""Q17"",""Q18"",""Q19"",""Q20"",""Q21"",""Q21"",""Q19"",""Q20"",""Q21"",""Q22""]","[2373,3237,4843,6978,8600,11266,13235,14831,16688,19802,23706,24398,28994,30785,34932,37754,39666,41464,43163,44769,49948,52046,53009,60372,67534,70530,74025]","[]","[0,2373,3237,4843,6978,8600,10746,11266,13235,14831,16688,17487,19802,21939,23706,24398,27241,28994,30785,34384,34932,37754,39666,41464,43163,44769,48441,49181,49948,52046,53009,60372,67534,70530,74025,74769]","0.45454545454545453","0.19047619047619047","0","","","","","","","","","","","","","","","","","","","","","","","","","","","","",""
"15943","","","","survey-template","8","203364","0.0-4.0-4.0","29","1","2025-07-30 08:40:45","36c45c0696341be0efffe67d72a12abb","92.53.153.233","Mozilla/5.0 (Windows NT 10.0; Win64; x64; rv:141.0) Gecko/20100101 Firefox/141.0","","Firefox","141.0","Windows","10.0","https://app.prolific.com/","sl,en-GB;q=0.7,en;q=0.3","664b4f0017b082f48ee8a033","687a19d2168e237449fb8af4","6889da39a02b3278d58d3a34","0","664b4f0017b082f48ee8a033","0","2025-07-30T08:44:10.053Z","","","","stress","{""Q01"":""1"",""Q02"":""1"",""Q03"":""1""}","[0,1,2]","[""Q01"",""Q02"",""Q03""]","[3595,10142,15158]","[]","[3595,9606,10142,15158,15943]","0.6666666666666666","0","0","","","","","","","","","","","","","","","","","","","","","","","","","","","","",""
"24392","","","","instructions","9","227758","0.0-5.0-0.0","29","1","2025-07-30 08:40:45","36c45c0696341be0efffe67d72a12abb","92.53.153.233","Mozilla/5.0 (Windows NT 10.0; Win64; x64; rv:141.0) Gecko/20100101 Firefox/141.0","","Firefox","141.0","Windows","10.0","https://app.prolific.com/","sl,en-GB;q=0.7,en;q=0.3","664b4f0017b082f48ee8a033","687a19d2168e237449fb8af4","6889da39a02b3278d58d3a34","0","664b4f0017b082f48ee8a033","0","","","","","","","","","","","","","","","[{""page_index"":0,""viewing_time"":24392}]","","","","","","","","","","","","","","","","","","","","","","","","","","","",""
"10786","","<p>Before you start with this game please answer the following three questions yourself. </p>
  <p>Through this game, we measure several aspects of your cognitive performance, such as reaction times, multi-tasking capabilities </p>
  <p>and the ability to assess the situation you are in.</p>
  <p></p>
  <p><b>How good do you usually are in such tasks?</b></p>","78","html-slider-response","10","238544","0.0-6.0-0.0","29","1","2025-07-30 08:40:45","36c45c0696341be0efffe67d72a12abb","92.53.153.233","Mozilla/5.0 (Windows NT 10.0; Win64; x64; rv:141.0) Gecko/20100101 Firefox/141.0","","Firefox","141.0","Windows","10.0","https://app.prolific.com/","sl,en-GB;q=0.7,en;q=0.3","664b4f0017b082f48ee8a033","687a19d2168e237449fb8af4","6889da39a02b3278d58d3a34","0","664b4f0017b082f48ee8a033","0","2025-07-30T08:44:45.234Z","","","","PreSkillQ","","","","","","","","","","","50","","","","","","","","","","","","","","","","","","","","","","","","","","",""
"3144","","<div style=""width:500px;"">
  <p>How well do you think you will perform in this task compared to other participants?</p>
  </div>","65","html-slider-response","11","241689","0.0-6.0-1.0","29","1","2025-07-30 08:40:45","36c45c0696341be0efffe67d72a12abb","92.53.153.233","Mozilla/5.0 (Windows NT 10.0; Win64; x64; rv:141.0) Gecko/20100101 Firefox/141.0","","Firefox","141.0","Windows","10.0","https://app.prolific.com/","sl,en-GB;q=0.7,en;q=0.3","664b4f0017b082f48ee8a033","687a19d2168e237449fb8af4","6889da39a02b3278d58d3a34","0","664b4f0017b082f48ee8a033","0","2025-07-30T08:44:48.378Z","","","","PrePerfQ","","","","","","","","","","","50","","","","","","","","","","","","","","","","","","","","","","","","","","",""
"3464","","<div style=""width:500px;"">
  <p>What best describes how you currently feel?</p>
  </div>","60","html-slider-response","12","245155","0.0-6.0-2.0","29","1","2025-07-30 08:40:45","36c45c0696341be0efffe67d72a12abb","92.53.153.233","Mozilla/5.0 (Windows NT 10.0; Win64; x64; rv:141.0) Gecko/20100101 Firefox/141.0","","Firefox","141.0","Windows","10.0","https://app.prolific.com/","sl,en-GB;q=0.7,en;q=0.3","664b4f0017b082f48ee8a033","687a19d2168e237449fb8af4","6889da39a02b3278d58d3a34","0","664b4f0017b082f48ee8a033","0","2025-07-30T08:44:51.844Z","","","","PreMotivationQ","","","","","","","","","","","50","","","","","","","","","","","","","","","","","","","","","","","","","","",""
"","","","","ctl-task-cpt","13","271078","0.0-7.0-0.0","29","1","2025-07-30 08:40:45","36c45c0696341be0efffe67d72a12abb","92.53.153.233","Mozilla/5.0 (Windows NT 10.0; Win64; x64; rv:141.0) Gecko/20100101 Firefox/141.0","","Firefox","141.0","Windows","10.0","https://app.prolific.com/","sl,en-GB;q=0.7,en;q=0.3","664b4f0017b082f48ee8a033","687a19d2168e237449fb8af4","6889da39a02b3278d58d3a34","0","664b4f0017b082f48ee8a033","0","2025-07-30T08:45:17.767Z","","","","","","","","","","","","","","","","win-only","3","g1:SW,g2:NE","1","1","0","246535","2071","7076","22913","1","4","8","6","1","1","-1","0","0","0","5005","3000","2585","[""down"",""left""]","{""num_key_presses"":5,""num_perfect"":3,""num_errors"":2,""num_randdir"":0,""num_randdir_good_moves"":0,""num_whilered"":0,""num_whileblue"":1,""num_blue"":2,""num_good_moves"":4}","[463.8571428571429,471.5571398053851,0,463.8571428571429,471.5571398053851,109,463.8571428571429,471.5571398053851,217,463.8571428571429,471.5571398053851,326,463.8571428571429,471.5571398053851,435,463.8571428571429,471.5571398053851,544,467.8571428571429,460.5571398053851,651,467.8571428571429,460.5571398053851,759,467.8571428571429,460.5571398053851,866,467.8571428571429,460.5571398053851,974,467.8571428571429,460.5571398053851,1083,467.8571428571429,460.5571398053851,1190,467.8571428571429,460.5571398053851,1296,467.8571428571429,460.5571398053851,1403,467.8571428571429,460.5571398053851,1509,467.8571428571429,460.5571398053851,1617,467.8571428571429,460.5571398053851,1724,467.8571428571429,460.5571398053851,1831,467.8571428571429,460.5571398053851,1937,467.8571428571429,460.5571398053851,2045,467.8571428571429,460.5571398053851,2154,467.8571428571429,460.5571398053851,2259,467.8571428571429,460.5571398053851,2369,467.8571428571429,460.5571398053851,2476,467.8571428571429,460.5571398053851,2584,467.8571428571429,460.5571398053851,2691,467.8571428571429,460.5571398053851,2799,467.8571428571429,460.5571398053851,2907,467.8571428571429,460.5571398053851,3014,467.8571428571429,460.5571398053851,3123,467.8571428571429,460.5571398053851,3231,467.8571428571429,460.5571398053851,3337,467.8571428571429,460.5571398053851,3444,467.8571428571429,460.5571398053851,3552,467.8571428571429,460.5571398053851,3660,467.8571428571429,460.5571398053851,3768,467.8571428571429,460.5571398053851,3877,467.8571428571429,460.5571398053851,3984,467.8571428571429,460.5571398053851,4092,467.8571428571429,460.5571398053851,4200,467.8571428571429,460.5571398053851,4307,467.8571428571429,460.5571398053851,4417,467.8571428571429,460.5571398053851,4525,467.8571428571429,460.5571398053851,4633,467.8571428571429,460.5571398053851,4741,467.8571428571429,460.5571398053851,4850,467.8571428571429,460.5571398053851,4959]","[284,284,1000,0,-716,""error"",""-"",""-"",""no_move"",3401,3117,1678,1293,430,""while_blue"",""right"",""down"",""good_move"",6625,3224,2703.2,3401,520.8,""smooth"",""left"",""left"",""good_move"",13015,6390,2384.7,10238,392.3,""smooth"",""down"",""down"",""good_move"",15566,2551,2132.5,13015,418.5,""smooth"",""left"",""left"",""good_move""]"
"4725","","<div style=""width:500px;"">
  <p>What determined the result of this run?</p>
  </div>","100","html-slider-response","14","275804","0.0-7.0-1.0","29","1","2025-07-30 08:40:45","36c45c0696341be0efffe67d72a12abb","92.53.153.233","Mozilla/5.0 (Windows NT 10.0; Win64; x64; rv:141.0) Gecko/20100101 Firefox/141.0","","Firefox","141.0","Windows","10.0","https://app.prolific.com/","sl,en-GB;q=0.7,en;q=0.3","664b4f0017b082f48ee8a033","687a19d2168e237449fb8af4","6889da39a02b3278d58d3a34","0","664b4f0017b082f48ee8a033","0","2025-07-30T08:45:22.493Z","","","","AttribQ","","","","","","","","","","","50","","","","","","","","","","","","","","","","","","","","","","","","","","",""
"4051","","<div style=""width:500px;"">
  <p>How much control did you have over the ball?</p>
  </div>","100","html-slider-response","15","279856","0.0-7.0-2.0","29","1","2025-07-30 08:40:45","36c45c0696341be0efffe67d72a12abb","92.53.153.233","Mozilla/5.0 (Windows NT 10.0; Win64; x64; rv:141.0) Gecko/20100101 Firefox/141.0","","Firefox","141.0","Windows","10.0","https://app.prolific.com/","sl,en-GB;q=0.7,en;q=0.3","664b4f0017b082f48ee8a033","687a19d2168e237449fb8af4","6889da39a02b3278d58d3a34","0","664b4f0017b082f48ee8a033","0","2025-07-30T08:45:26.546Z","","","","ControlQ","","","","","","","","","","","50","","","","","","","","","","","","","","","","","","","","","","","","","","",""
"3561","","<div style=""width:500px;"">
  <p>How would you describe your current emotional state?</p>
  </div>","51","html-slider-response","16","283417","0.0-7.0-3.0","29","1","2025-07-30 08:40:45","36c45c0696341be0efffe67d72a12abb","92.53.153.233","Mozilla/5.0 (Windows NT 10.0; Win64; x64; rv:141.0) Gecko/20100101 Firefox/141.0","","Firefox","141.0","Windows","10.0","https://app.prolific.com/","sl,en-GB;q=0.7,en;q=0.3","664b4f0017b082f48ee8a033","687a19d2168e237449fb8af4","6889da39a02b3278d58d3a34","0","664b4f0017b082f48ee8a033","0","2025-07-30T08:45:30.106Z","","","","StressQ","","","","","","","","","","","50","","","","","","","","","","","","","","","","","","","","","","","","","","",""
"3293","","<div style=""width:500px;"">
  <p>What best describes how you currently feel?</p>
  </div>","65","html-slider-response","17","286711","0.0-7.0-4.0","29","1","2025-07-30 08:40:45","36c45c0696341be0efffe67d72a12abb","92.53.153.233","Mozilla/5.0 (Windows NT 10.0; Win64; x64; rv:141.0) Gecko/20100101 Firefox/141.0","","Firefox","141.0","Windows","10.0","https://app.prolific.com/","sl,en-GB;q=0.7,en;q=0.3","664b4f0017b082f48ee8a033","687a19d2168e237449fb8af4","6889da39a02b3278d58d3a34","0","664b4f0017b082f48ee8a033","0","2025-07-30T08:45:33.400Z","","","","MotivationQ","","","","","","","","","","","50","","","","","","","","","","","","","","","","","","","","","","","","","","",""
"","","","","ctl-task-cpt","18","316340","0.0-7.0-0.1","29","1","2025-07-30 08:40:45","36c45c0696341be0efffe67d72a12abb","92.53.153.233","Mozilla/5.0 (Windows NT 10.0; Win64; x64; rv:141.0) Gecko/20100101 Firefox/141.0","","Firefox","141.0","Windows","10.0","https://app.prolific.com/","sl,en-GB;q=0.7,en;q=0.3","664b4f0017b082f48ee8a033","687a19d2168e237449fb8af4","6889da39a02b3278d58d3a34","0","664b4f0017b082f48ee8a033","0","2025-07-30T08:46:03.029Z","","","","","","","","","","","","","","","","win-only","2","g1:SE,g2:NW","0.9","2","0","288089","938","5941","26622","1","4","4","6","2","4","4","4","0","0.030303030303030304","1769","3000","2370","[""left"",""up""]","{""num_key_presses"":6,""num_perfect"":5,""num_errors"":0,""num_randdir"":1,""num_randdir_good_moves"":1,""num_whilered"":0,""num_whileblue"":0,""num_blue"":1,""num_good_moves"":6}","[455.8571428571429,466.5571398053851,0,455.8571428571429,466.5571398053851,108,455.8571428571429,466.5571398053851,215,455.8571428571429,466.5571398053851,323,455.8571428571429,466.5571398053851,430,455.8571428571429,466.5571398053851,540,455.8571428571429,466.5571398053851,646,455.8571428571429,466.5571398053851,753,455.8571428571429,466.5571398053851,862,455.8571428571429,466.5571398053851,971,455.8571428571429,466.5571398053851,1079,455.8571428571429,466.5571398053851,1187,455.8571428571429,466.5571398053851,1296,455.8571428571429,466.5571398053851,1404,247.85714285714286,166.55713980538505,1512,155.85714285714286,87.55713980538505,1621,108.85714285714286,85.55713980538505,1728,71.85714285714286,91.55713980538505,1835,71.85714285714286,91.55713980538505,1944,124.85714285714286,112.55713980538505,2052,289.8571428571429,192.55713980538505,2159,358.8571428571429,221.55713980538505,2267,358.8571428571429,221.55713980538505,2376,358.8571428571429,221.55713980538505,2486,358.8571428571429,221.55713980538505,2593,358.8571428571429,221.55713980538505,2703,366.8571428571429,224.55713980538505,2811,402.8571428571429,236.55713980538505,2920,433.8571428571429,268.5571398053851,3030,432.8571428571429,247.55713980538505,3138,438.8571428571429,221.55713980538505,3247,439.8571428571429,221.55713980538505,3354,439.8571428571429,221.55713980538505,3463,439.8571428571429,221.55713980538505,3571,439.8571428571429,221.55713980538505,3678,439.8571428571429,221.55713980538505,3787,439.8571428571429,221.55713980538505,3895,439.8571428571429,221.55713980538505,4003,439.8571428571429,221.55713980538505,4111,439.8571428571429,221.55713980538505,4219,439.8571428571429,221.55713980538505,4328,439.8571428571429,221.55713980538505,4435,439.8571428571429,221.55713980538505,4543,439.8571428571429,221.55713980538505,4650,439.8571428571429,221.55713980538505,4758,439.8571428571429,221.55713980538505,4865,439.8571428571429,221.55713980538505,4972]","[5309,5309,2952.6,2014,342.4,""oops"",""up"",""left"",""good_move"",8323,3014,1945.5,5309,1068.5,""smooth"",""up"",""up"",""good_move"",11584,3261,2970.5,8323,290.5,""smooth"",""up"",""up"",""good_move"",14585,3001,2406.4,11584,594.6,""smooth"",""left"",""left"",""good_move"",17490,2904,2028.5,14586,875.5,""smooth"",""up"",""up"",""good_move"",20390,2900,2588.2,17490,311.8,""smooth"",""left"",""left"",""good_move""]"
"1979","","<div style=""width:500px;"">
  <p>What determined the result of this run?</p>
  </div>","100","html-slider-response","19","318319","0.0-7.0-1.1","29","1","2025-07-30 08:40:45","36c45c0696341be0efffe67d72a12abb","92.53.153.233","Mozilla/5.0 (Windows NT 10.0; Win64; x64; rv:141.0) Gecko/20100101 Firefox/141.0","","Firefox","141.0","Windows","10.0","https://app.prolific.com/","sl,en-GB;q=0.7,en;q=0.3","664b4f0017b082f48ee8a033","687a19d2168e237449fb8af4","6889da39a02b3278d58d3a34","0","664b4f0017b082f48ee8a033","0","2025-07-30T08:46:05.008Z","","","","AttribQ","","","","","","","","","","","50","","","","","","","","","","","","","","","","","","","","","","","","","","",""
"1774","","<div style=""width:500px;"">
  <p>How much control did you have over the ball?</p>
  </div>","100","html-slider-response","20","320094","0.0-7.0-2.1","29","1","2025-07-30 08:40:45","36c45c0696341be0efffe67d72a12abb","92.53.153.233","Mozilla/5.0 (Windows NT 10.0; Win64; x64; rv:141.0) Gecko/20100101 Firefox/141.0","","Firefox","141.0","Windows","10.0","https://app.prolific.com/","sl,en-GB;q=0.7,en;q=0.3","664b4f0017b082f48ee8a033","687a19d2168e237449fb8af4","6889da39a02b3278d58d3a34","0","664b4f0017b082f48ee8a033","0","2025-07-30T08:46:06.783Z","","","","ControlQ","","","","","","","","","","","50","","","","","","","","","","","","","","","","","","","","","","","","","","",""
"4832","","<div style=""width:500px;"">
  <p>How would you describe your current emotional state?</p>
  </div>","32","html-slider-response","21","324926","0.0-7.0-3.1","29","1","2025-07-30 08:40:45","36c45c0696341be0efffe67d72a12abb","92.53.153.233","Mozilla/5.0 (Windows NT 10.0; Win64; x64; rv:141.0) Gecko/20100101 Firefox/141.0","","Firefox","141.0","Windows","10.0","https://app.prolific.com/","sl,en-GB;q=0.7,en;q=0.3","664b4f0017b082f48ee8a033","687a19d2168e237449fb8af4","6889da39a02b3278d58d3a34","0","664b4f0017b082f48ee8a033","0","2025-07-30T08:46:11.615Z","","","","StressQ","","","","","","","","","","","50","","","","","","","","","","","","","","","","","","","","","","","","","","",""
"2720","","<div style=""width:500px;"">
  <p>What best describes how you currently feel?</p>
  </div>","86","html-slider-response","22","327647","0.0-7.0-4.1","29","1","2025-07-30 08:40:45","36c45c0696341be0efffe67d72a12abb","92.53.153.233","Mozilla/5.0 (Windows NT 10.0; Win64; x64; rv:141.0) Gecko/20100101 Firefox/141.0","","Firefox","141.0","Windows","10.0","https://app.prolific.com/","sl,en-GB;q=0.7,en;q=0.3","664b4f0017b082f48ee8a033","687a19d2168e237449fb8af4","6889da39a02b3278d58d3a34","0","664b4f0017b082f48ee8a033","0","2025-07-30T08:46:14.336Z","","","","MotivationQ","","","","","","","","","","","50","","","","","","","","","","","","","","","","","","","","","","","","","","",""
"","","","","ctl-task-cpt","23","366222","0.0-7.0-0.2","29","1","2025-07-30 08:40:45","36c45c0696341be0efffe67d72a12abb","92.53.153.233","Mozilla/5.0 (Windows NT 10.0; Win64; x64; rv:141.0) Gecko/20100101 Firefox/141.0","","Firefox","141.0","Windows","10.0","https://app.prolific.com/","sl,en-GB;q=0.7,en;q=0.3","664b4f0017b082f48ee8a033","687a19d2168e237449fb8af4","6889da39a02b3278d58d3a34","0","664b4f0017b082f48ee8a033","0","2025-07-30T08:46:52.911Z","","","","","","","","","","","","","","","","win-only","2","g1:SE,g2:NW","0.8","3","0","329025","774","5784","35560","1","4","4","6","2","4","3","7","4","0.05303030303030303","1491","3000","2305","[""left"",""up""]","{""num_key_presses"":7,""num_perfect"":6,""num_errors"":1,""num_randdir"":0,""num_randdir_good_moves"":0,""num_whilered"":0,""num_whileblue"":0,""num_blue"":3,""num_good_moves"":6}","[454.8571428571429,455.5571398053851,0,454.8571428571429,455.5571398053851,112,454.8571428571429,455.5571398053851,220,454.8571428571429,455.5571398053851,328,454.8571428571429,455.5571398053851,436,454.8571428571429,455.5571398053851,543,454.8571428571429,455.5571398053851,651,454.8571428571429,455.5571398053851,759,454.8571428571429,452.5571398053851,866,454.8571428571429,452.5571398053851,976,454.8571428571429,452.5571398053851,1085,408.8571428571429,424.5571398053851,1194,64.85714285714286,166.55713980538505,1301,59.85714285714286,127.55713980538505,1410,49.85714285714286,91.55713980538505,1517,50.85714285714286,103.55713980538505,1625,50.85714285714286,103.55713980538505,1734,50.85714285714286,103.55713980538505,1842,192.85714285714286,226.55713980538505,1951,586.8571428571429,435.5571398053851,2063,625.8571428571429,447.5571398053851,2173,686.8571428571429,465.5571398053851,2281,668.8571428571429,476.5571398053851,2387,675.8571428571429,452.5571398053851,2497,675.8571428571429,449.5571398053851,2606,673.8571428571429,449.5571398053851,2714,672.8571428571429,449.5571398053851,2822,664.8571428571429,449.5571398053851,2932,664.8571428571429,449.5571398053851,3040,664.8571428571429,449.5571398053851,3150,661.8571428571429,450.5571398053851,3260,660.8571428571429,450.5571398053851,3368,660.8571428571429,450.5571398053851,3475,660.8571428571429,450.5571398053851,3582,660.8571428571429,450.5571398053851,3690,660.8571428571429,450.5571398053851,3797,660.8571428571429,450.5571398053851,3904,660.8571428571429,450.5571398053851,4011,660.8571428571429,450.5571398053851,4118,660.8571428571429,450.5571398053851,4228,660.8571428571429,450.5571398053851,4336,660.8571428571429,450.5571398053851,4443,660.8571428571429,450.5571398053851,4550,660.8571428571429,450.5571398053851,4659,660.8571428571429,450.5571398053851,4766,660.8571428571429,450.5571398053851,4872,660.8571428571429,450.5571398053851,4979]","[2320,2320,2911.4,2019,-2610.4,""error"",""-"",""-"",""no_move"",9905,7585,2451.4,7052,401.6,""smooth"",""up"",""up"",""good_move"",12883,2978,2354.9,9905,623.1,""smooth"",""left"",""left"",""good_move"",15845,2962,2476.1,12883,485.9,""smooth"",""up"",""up"",""good_move"",18834,2989,2573.7,15845,415.3,""smooth"",""left"",""left"",""good_move"",21765,2931,2572.3,18834,358.7,""smooth"",""up"",""up"",""good_move"",29499,7734,3063.8,26041,394.2,""smooth"",""left"",""left"",""good_move""]"
"2984","","<div style=""width:500px;"">
  <p>What determined the result of this run?</p>
  </div>","100","html-slider-response","24","369207","0.0-7.0-1.2","29","1","2025-07-30 08:40:45","36c45c0696341be0efffe67d72a12abb","92.53.153.233","Mozilla/5.0 (Windows NT 10.0; Win64; x64; rv:141.0) Gecko/20100101 Firefox/141.0","","Firefox","141.0","Windows","10.0","https://app.prolific.com/","sl,en-GB;q=0.7,en;q=0.3","664b4f0017b082f48ee8a033","687a19d2168e237449fb8af4","6889da39a02b3278d58d3a34","0","664b4f0017b082f48ee8a033","0","2025-07-30T08:46:55.896Z","","","","AttribQ","","","","","","","","","","","50","","","","","","","","","","","","","","","","","","","","","","","","","","",""
"3280","","<div style=""width:500px;"">
  <p>How much control did you have over the ball?</p>
  </div>","100","html-slider-response","25","372487","0.0-7.0-2.2","29","1","2025-07-30 08:40:45","36c45c0696341be0efffe67d72a12abb","92.53.153.233","Mozilla/5.0 (Windows NT 10.0; Win64; x64; rv:141.0) Gecko/20100101 Firefox/141.0","","Firefox","141.0","Windows","10.0","https://app.prolific.com/","sl,en-GB;q=0.7,en;q=0.3","664b4f0017b082f48ee8a033","687a19d2168e237449fb8af4","6889da39a02b3278d58d3a34","0","664b4f0017b082f48ee8a033","0","2025-07-30T08:46:59.176Z","","","","ControlQ","","","","","","","","","","","50","","","","","","","","","","","","","","","","","","","","","","","","","","",""
"2974","","<div style=""width:500px;"">
  <p>How would you describe your current emotional state?</p>
  </div>","19","html-slider-response","26","375462","0.0-7.0-3.2","29","1","2025-07-30 08:40:45","36c45c0696341be0efffe67d72a12abb","92.53.153.233","Mozilla/5.0 (Windows NT 10.0; Win64; x64; rv:141.0) Gecko/20100101 Firefox/141.0","","Firefox","141.0","Windows","10.0","https://app.prolific.com/","sl,en-GB;q=0.7,en;q=0.3","664b4f0017b082f48ee8a033","687a19d2168e237449fb8af4","6889da39a02b3278d58d3a34","0","664b4f0017b082f48ee8a033","0","2025-07-30T08:47:02.151Z","","","","StressQ","","","","","","","","","","","50","","","","","","","","","","","","","","","","","","","","","","","","","","",""
"3953","","<div style=""width:500px;"">
  <p>What best describes how you currently feel?</p>
  </div>","100","html-slider-response","27","379415","0.0-7.0-4.2","29","1","2025-07-30 08:40:45","36c45c0696341be0efffe67d72a12abb","92.53.153.233","Mozilla/5.0 (Windows NT 10.0; Win64; x64; rv:141.0) Gecko/20100101 Firefox/141.0","","Firefox","141.0","Windows","10.0","https://app.prolific.com/","sl,en-GB;q=0.7,en;q=0.3","664b4f0017b082f48ee8a033","687a19d2168e237449fb8af4","6889da39a02b3278d58d3a34","0","664b4f0017b082f48ee8a033","0","2025-07-30T08:47:06.104Z","","","","MotivationQ","","","","","","","","","","","50","","","","","","","","","","","","","","","","","","","","","","","","","","",""
"","","","","ctl-task-cpt","28","409447","0.0-7.0-0.3","29","1","2025-07-30 08:40:45","36c45c0696341be0efffe67d72a12abb","92.53.153.233","Mozilla/5.0 (Windows NT 10.0; Win64; x64; rv:141.0) Gecko/20100101 Firefox/141.0","","Firefox","141.0","Windows","10.0","https://app.prolific.com/","sl,en-GB;q=0.7,en;q=0.3","664b4f0017b082f48ee8a033","687a19d2168e237449fb8af4","6889da39a02b3278d58d3a34","0","664b4f0017b082f48ee8a033","0","2025-07-30T08:47:36.136Z","","","","","","","","","","","","","","","","win-only","3","g1:SW,g2:NE","0.7","4","0","380794","774","5787","27031","1","4","8","6","2","8","8","15","7","0.11363636363636363","1043","3000","2180","[""up"",""right""]","{""num_key_presses"":8,""num_perfect"":6,""num_errors"":0,""num_randdir"":2,""num_randdir_good_moves"":1,""num_whilered"":0,""num_whileblue"":0,""num_blue"":0,""num_good_moves"":7}","[447.8571428571429,459.5571398053851,0,449.8571428571429,459.5571398053851,114,449.8571428571429,460.5571398053851,223,449.8571428571429,460.5571398053851,332,584.8571428571429,327.5571398053851,440,733.8571428571429,178.55713980538505,548,735.8571428571429,176.55713980538505,656,750.8571428571429,176.55713980538505,765,800.8571428571429,148.55713980538505,874,818.8571428571429,148.55713980538505,981,818.8571428571429,146.55713980538505,1088,818.8571428571429,147.55713980538505,1195,820.8571428571429,130.55713980538505,1303,799.8571428571429,163.55713980538505,1410,750.8571428571429,223.55713980538505,1520,708.8571428571429,276.5571398053851,1627,708.8571428571429,276.5571398053851,1735,707.8571428571429,290.5571398053851,1842,673.8571428571429,315.5571398053851,1951,672.8571428571429,317.5571398053851,2058,672.8571428571429,317.5571398053851,2166,672.8571428571429,317.5571398053851,2276,669.8571428571429,329.5571398053851,2384,677.8571428571429,370.5571398053851,2492,680.8571428571429,365.5571398053851,2601,702.8571428571429,341.5571398053851,2709,687.8571428571429,339.5571398053851,2817,687.8571428571429,338.5571398053851,2924,683.8571428571429,339.5571398053851,3032,683.8571428571429,339.5571398053851,3139,683.8571428571429,339.5571398053851,3249,683.8571428571429,339.5571398053851,3357,683.8571428571429,339.5571398053851,3468,683.8571428571429,339.5571398053851,3577,683.8571428571429,339.5571398053851,3686,683.8571428571429,339.5571398053851,3794,683.8571428571429,339.5571398053851,3901,683.8571428571429,339.5571398053851,4009,683.8571428571429,339.5571398053851,4116,683.8571428571429,336.5571398053851,4222,682.8571428571429,334.5571398053851,4329,682.8571428571429,334.5571398053851,4439,682.8571428571429,334.5571398053851,4546,682.8571428571429,334.5571398053851,4656,682.8571428571429,334.5571398053851,4766,682.8571428571429,334.5571398053851,4873,682.8571428571429,334.5571398053851,4982]","[1442,1442,1000,0,442,""smooth"",""right"",""right"",""good_move"",3993,2550,2207.5,1443,342.5,""smooth"",""up"",""up"",""good_move"",6937,2944,2170.1,3993,773.9,""oops"",""right"",""left"",""bad_move"",9878,2941,1906.8,6937,1034.2,""smooth"",""up"",""up"",""good_move"",12767,2889,2532.3,9878,356.7,""smooth"",""up"",""up"",""good_move"",15679,2912,1683.3,12767,1228.7,""oops"",""right"",""right"",""good_move"",18414,2735,2458.8,15679,276.2,""smooth"",""right"",""right"",""good_move"",20957,2542,2209.9,18415,332.1,""smooth"",""right"",""right"",""good_move""]"
"1874","","<div style=""width:500px;"">
  <p>What determined the result of this run?</p>
  </div>","100","html-slider-response","29","411322","0.0-7.0-1.3","29","1","2025-07-30 08:40:45","36c45c0696341be0efffe67d72a12abb","92.53.153.233","Mozilla/5.0 (Windows NT 10.0; Win64; x64; rv:141.0) Gecko/20100101 Firefox/141.0","","Firefox","141.0","Windows","10.0","https://app.prolific.com/","sl,en-GB;q=0.7,en;q=0.3","664b4f0017b082f48ee8a033","687a19d2168e237449fb8af4","6889da39a02b3278d58d3a34","0","664b4f0017b082f48ee8a033","0","2025-07-30T08:47:38.012Z","","","","AttribQ","","","","","","","","","","","50","","","","","","","","","","","","","","","","","","","","","","","","","","",""
"2379","","<div style=""width:500px;"">
  <p>How much control did you have over the ball?</p>
  </div>","100","html-slider-response","30","413703","0.0-7.0-2.3","29","1","2025-07-30 08:40:45","36c45c0696341be0efffe67d72a12abb","92.53.153.233","Mozilla/5.0 (Windows NT 10.0; Win64; x64; rv:141.0) Gecko/20100101 Firefox/141.0","","Firefox","141.0","Windows","10.0","https://app.prolific.com/","sl,en-GB;q=0.7,en;q=0.3","664b4f0017b082f48ee8a033","687a19d2168e237449fb8af4","6889da39a02b3278d58d3a34","0","664b4f0017b082f48ee8a033","0","2025-07-30T08:47:40.392Z","","","","ControlQ","","","","","","","","","","","50","","","","","","","","","","","","","","","","","","","","","","","","","","",""
"3099","","<div style=""width:500px;"">
  <p>How would you describe your current emotional state?</p>
  </div>","19","html-slider-response","31","416803","0.0-7.0-3.3","29","1","2025-07-30 08:40:45","36c45c0696341be0efffe67d72a12abb","92.53.153.233","Mozilla/5.0 (Windows NT 10.0; Win64; x64; rv:141.0) Gecko/20100101 Firefox/141.0","","Firefox","141.0","Windows","10.0","https://app.prolific.com/","sl,en-GB;q=0.7,en;q=0.3","664b4f0017b082f48ee8a033","687a19d2168e237449fb8af4","6889da39a02b3278d58d3a34","0","664b4f0017b082f48ee8a033","0","2025-07-30T08:47:43.492Z","","","","StressQ","","","","","","","","","","","50","","","","","","","","","","","","","","","","","","","","","","","","","","",""
"2086","","<div style=""width:500px;"">
  <p>What best describes how you currently feel?</p>
  </div>","92","html-slider-response","32","418890","0.0-7.0-4.3","29","1","2025-07-30 08:40:45","36c45c0696341be0efffe67d72a12abb","92.53.153.233","Mozilla/5.0 (Windows NT 10.0; Win64; x64; rv:141.0) Gecko/20100101 Firefox/141.0","","Firefox","141.0","Windows","10.0","https://app.prolific.com/","sl,en-GB;q=0.7,en;q=0.3","664b4f0017b082f48ee8a033","687a19d2168e237449fb8af4","6889da39a02b3278d58d3a34","0","664b4f0017b082f48ee8a033","0","2025-07-30T08:47:45.579Z","","","","MotivationQ","","","","","","","","","","","50","","","","","","","","","","","","","","","","","","","","","","","","","","",""
"","","","","ctl-task-cpt","33","460470","0.0-7.0-0.4","29","1","2025-07-30 08:40:45","36c45c0696341be0efffe67d72a12abb","92.53.153.233","Mozilla/5.0 (Windows NT 10.0; Win64; x64; rv:141.0) Gecko/20100101 Firefox/141.0","","Firefox","141.0","Windows","10.0","https://app.prolific.com/","sl,en-GB;q=0.7,en;q=0.3","664b4f0017b082f48ee8a033","687a19d2168e237449fb8af4","6889da39a02b3278d58d3a34","0","664b4f0017b082f48ee8a033","0","2025-07-30T08:48:27.159Z","","","","","","","","","","","","","","","","win-only","0","g1:NW,g2:SE","0.6","5","0","420269","1404","6420","38567","1","4","4","6","2","4","3","18","15","0.13636363636363635","1075","3000","1730","[""down"",""right""]","{""num_key_presses"":12,""num_perfect"":7,""num_errors"":1,""num_randdir"":4,""num_randdir_good_moves"":2,""num_whilered"":0,""num_whileblue"":1,""num_blue"":1,""num_good_moves"":9}","[468.8571428571429,471.5571398053851,0,468.8571428571429,471.5571398053851,104,468.8571428571429,471.5571398053851,211,464.8571428571429,463.5571398053851,319,463.8571428571429,463.5571398053851,427,435.8571428571429,453.5571398053851,534,388.8571428571429,429.5571398053851,643,419.8571428571429,453.5571398053851,752,802.8571428571429,741.5571398053851,859,859.8571428571429,800.5571398053851,966,869.8571428571429,817.5571398053851,1074,869.8571428571429,817.5571398053851,1181,874.8571428571429,808.5571398053851,1288,859.8571428571429,826.5571398053851,1396,807.8571428571429,782.5571398053851,1505,746.8571428571429,748.5571398053851,1613,746.8571428571429,748.5571398053851,1722,748.8571428571429,702.5571398053851,1829,748.8571428571429,687.5571398053851,1935,747.8571428571429,712.5571398053851,2045,747.8571428571429,704.5571398053851,2152,720.8571428571429,689.5571398053851,2263,713.8571428571429,669.5571398053851,2371,713.8571428571429,675.5571398053851,2482,721.8571428571429,641.5571398053851,2590,704.8571428571429,637.5571398053851,2697,703.8571428571429,624.5571398053851,2804,703.8571428571429,624.5571398053851,2912,703.8571428571429,624.5571398053851,3020,703.8571428571429,622.5571398053851,3127,704.8571428571429,620.5571398053851,3235,705.8571428571429,619.5571398053851,3344,705.8571428571429,619.5571398053851,3451,705.8571428571429,619.5571398053851,3558,705.8571428571429,619.5571398053851,3667,705.8571428571429,619.5571398053851,3775,705.8571428571429,619.5571398053851,3883,705.8571428571429,619.5571398053851,3992,705.8571428571429,619.5571398053851,4101,705.8571428571429,612.5571398053851,4209,705.8571428571429,612.5571398053851,4319,705.8571428571429,612.5571398053851,4426,705.8571428571429,612.5571398053851,4537,705.8571428571429,612.5571398053851,4646,705.8571428571429,612.5571398053851,4754,705.8571428571429,612.5571398053851,4861,705.8571428571429,612.5571398053851,4969]","[1273,1273,1000,0,273,""oops"",""down"",""down"",""good_move"",3854,2581,2257.9,1273,323.1,""oops"",""down"",""left"",""bad_move"",6771,2917,2254.2,3854,662.8,""oops"",""down"",""left"",""bad_move"",9660,2889,2607,6771,282,""while_blue"",""down"",""up"",""bad_move"",12797,3136,2742.6,9661,393.4,""smooth"",""down"",""down"",""good_move"",15965,3168,2818.8,12797,349.2,""smooth"",""down"",""down"",""good_move"",18661,2695,2316.5,15966,378.5,""smooth"",""down"",""down"",""good_move"",21547,2886,2549.8,18661,336.2,""smooth"",""right"",""right"",""good_move"",23524,1977,1475.9,21548,500.1,""smooth"",""right"",""right"",""good_move"",25948,2424,2020.9,23524,403.1,""smooth"",""right"",""right"",""good_move"",29429,3481,3087,25948,394,""oops"",""right"",""right"",""good_move"",31854,2425,2016.1,29429,408.9,""smooth"",""right"",""right"",""good_move""]"
"1762","","<div style=""width:500px;"">
  <p>What determined the result of this run?</p>
  </div>","75","html-slider-response","34","462233","0.0-7.0-1.4","29","1","2025-07-30 08:40:45","36c45c0696341be0efffe67d72a12abb","92.53.153.233","Mozilla/5.0 (Windows NT 10.0; Win64; x64; rv:141.0) Gecko/20100101 Firefox/141.0","","Firefox","141.0","Windows","10.0","https://app.prolific.com/","sl,en-GB;q=0.7,en;q=0.3","664b4f0017b082f48ee8a033","687a19d2168e237449fb8af4","6889da39a02b3278d58d3a34","0","664b4f0017b082f48ee8a033","0","2025-07-30T08:48:28.922Z","","","","AttribQ","","","","","","","","","","","50","","","","","","","","","","","","","","","","","","","","","","","","","","",""
"3143","","<div style=""width:500px;"">
  <p>How much control did you have over the ball?</p>
  </div>","74","html-slider-response","35","465378","0.0-7.0-2.4","29","1","2025-07-30 08:40:45","36c45c0696341be0efffe67d72a12abb","92.53.153.233","Mozilla/5.0 (Windows NT 10.0; Win64; x64; rv:141.0) Gecko/20100101 Firefox/141.0","","Firefox","141.0","Windows","10.0","https://app.prolific.com/","sl,en-GB;q=0.7,en;q=0.3","664b4f0017b082f48ee8a033","687a19d2168e237449fb8af4","6889da39a02b3278d58d3a34","0","664b4f0017b082f48ee8a033","0","2025-07-30T08:48:32.067Z","","","","ControlQ","","","","","","","","","","","50","","","","","","","","","","","","","","","","","","","","","","","","","","",""
"2388","","<div style=""width:500px;"">
  <p>How would you describe your current emotional state?</p>
  </div>","9","html-slider-response","36","467766","0.0-7.0-3.4","29","1","2025-07-30 08:40:45","36c45c0696341be0efffe67d72a12abb","92.53.153.233","Mozilla/5.0 (Windows NT 10.0; Win64; x64; rv:141.0) Gecko/20100101 Firefox/141.0","","Firefox","141.0","Windows","10.0","https://app.prolific.com/","sl,en-GB;q=0.7,en;q=0.3","664b4f0017b082f48ee8a033","687a19d2168e237449fb8af4","6889da39a02b3278d58d3a34","0","664b4f0017b082f48ee8a033","0","2025-07-30T08:48:34.455Z","","","","StressQ","","","","","","","","","","","50","","","","","","","","","","","","","","","","","","","","","","","","","","",""
"1884","","<div style=""width:500px;"">
  <p>What best describes how you currently feel?</p>
  </div>","83","html-slider-response","37","469651","0.0-7.0-4.4","29","1","2025-07-30 08:40:45","36c45c0696341be0efffe67d72a12abb","92.53.153.233","Mozilla/5.0 (Windows NT 10.0; Win64; x64; rv:141.0) Gecko/20100101 Firefox/141.0","","Firefox","141.0","Windows","10.0","https://app.prolific.com/","sl,en-GB;q=0.7,en;q=0.3","664b4f0017b082f48ee8a033","687a19d2168e237449fb8af4","6889da39a02b3278d58d3a34","0","664b4f0017b082f48ee8a033","0","2025-07-30T08:48:36.340Z","","","","MotivationQ","","","","","","","","","","","50","","","","","","","","","","","","","","","","","","","","","","","","","","",""
"","","","","ctl-task-cpt","38","568768","0.0-7.0-0.5","29","1","2025-07-30 08:40:45","36c45c0696341be0efffe67d72a12abb","92.53.153.233","Mozilla/5.0 (Windows NT 10.0; Win64; x64; rv:141.0) Gecko/20100101 Firefox/141.0","","Firefox","141.0","Windows","10.0","https://app.prolific.com/","sl,en-GB;q=0.7,en;q=0.3","664b4f0017b082f48ee8a033","687a19d2168e237449fb8af4","6889da39a02b3278d58d3a34","0","664b4f0017b082f48ee8a033","0","2025-07-30T08:50:15.457Z","","","","","","","","","","","","","","","","win-only","3","g1:SW,g2:NE","0.5","6","0","471031","941","5954","96101","1","4","8","6","2","-8","-9","9","18","0.06818181818181818","929","3000","-970","[""up"",""right""]","{""num_key_presses"":26,""num_perfect"":13,""num_errors"":1,""num_randdir"":12,""num_randdir_good_moves"":1,""num_whilered"":0,""num_whileblue"":1,""num_blue"":5,""num_good_moves"":14}","[458.8571428571429,466.5571398053851,0,458.8571428571429,466.5571398053851,100,456.8571428571429,466.5571398053851,208,453.8571428571429,463.5571398053851,317,451.8571428571429,458.5571398053851,426,477.8571428571429,435.5571398053851,534,780.8571428571429,263.5571398053851,642,815.8571428571429,191.55713980538505,751,820.8571428571429,173.55713980538505,859,830.8571428571429,118.55713980538505,967,831.8571428571429,119.55713980538505,1078,832.8571428571429,133.55713980538505,1185,842.8571428571429,290.5571398053851,1292,829.8571428571429,342.5571398053851,1401,786.8571428571429,495.5571398053851,1509,755.8571428571429,567.5571398053851,1617,746.8571428571429,576.5571398053851,1724,747.8571428571429,552.5571398053851,1832,742.8571428571429,533.5571398053851,1942,721.8571428571429,545.5571398053851,2052,718.8571428571429,534.5571398053851,2159,708.8571428571429,535.5571398053851,2267,710.8571428571429,535.5571398053851,2374,711.8571428571429,532.5571398053851,2482,711.8571428571429,525.5571398053851,2589,700.8571428571429,511.5571398053851,2697,700.8571428571429,511.5571398053851,2805,700.8571428571429,511.5571398053851,2912,700.8571428571429,511.5571398053851,3021,700.8571428571429,511.5571398053851,3130,700.8571428571429,511.5571398053851,3238,700.8571428571429,511.5571398053851,3346,700.8571428571429,511.5571398053851,3454,700.8571428571429,511.5571398053851,3561,700.8571428571429,511.5571398053851,3669,700.8571428571429,511.5571398053851,3778,700.8571428571429,511.5571398053851,3886,700.8571428571429,511.5571398053851,3994,700.8571428571429,511.5571398053851,4102,699.8571428571429,515.5571398053851,4212,699.8571428571429,515.5571398053851,4318,695.8571428571429,516.5571398053851,4425,695.8571428571429,516.5571398053851,4532,695.8571428571429,516.5571398053851,4640,695.8571428571429,516.5571398053851,4747,695.8571428571429,516.5571398053851,4857,695.8571428571429,516.5571398053851,4966]","[1389,1389,1000,0,389,""smooth"",""right"",""right"",""good_move"",4303,2914,2549,1389,365,""smooth"",""right"",""right"",""good_move"",7090,2787,2452.6,4303,334.4,""smooth"",""right"",""right"",""good_move"",8682,1591,1155.8,7091,435.2,""smooth"",""up"",""up"",""good_move"",14908,6226,2153.4,12309,445.6,""oops"",""up"",""left"",""bad_move"",17849,2941,1796.1,14908,1144.9,""smooth"",""right"",""right"",""good_move"",20478,2629,2268.3,17849,360.7,""oops"",""up"",""left"",""bad_move"",23407,2929,2622,20478,307,""while_blue"",""right"",""right"",""good_move"",26319,2912,2568,23407,344,""oops"",""up"",""down"",""bad_move"",29114,2795,2078.5,26319,716.5,""oops"",""up"",""left"",""bad_move"",32088,2974,2491.1,29114,482.9,""oops"",""right"",""left"",""bad_move"",35597,3509,3127.3,32088,381.7,""smooth"",""left"",""left"",""bad_move"",42180,6583,2599.8,39207,373.2,""smooth"",""up"",""up"",""good_move"",45156,2976,2297.6,42180,678.4,""smooth"",""up"",""up"",""good_move"",48206,3050,2737.1,45156,312.9,""oops"",""up"",""down"",""bad_move"",51488,3282,2894.6,48206,387.4,""smooth"",""right"",""right"",""good_move"",54330,2842,2518.8,51488,323.2,""oops"",""right"",""left"",""bad_move"",57278,2948,2553.4,54330,394.6,""smooth"",""right"",""right"",""good_move"",60228,2949,2626.7,57279,322.3,""oops"",""right"",""right"",""good_move"",62602,2374,2039.9,60228,334.1,""oops"",""right"",""left"",""bad_move"",68717,6115,2161.4,66209,346.6,""oops"",""right"",""left"",""bad_move"",71664,2947,2529.2,68717,417.8,""oops"",""up"",""left"",""bad_move"",74640,2976,2460.4,71664,515.6,""oops"",""right"",""left"",""bad_move"",77684,3044,2687.5,74641,355.5,""smooth"",""up"",""up"",""good_move"",84343,6659,2223.6,81810,309.4,""smooth"",""right"",""right"",""good_move"",87097,2754,2385,84343,369,""smooth"",""right"",""right"",""good_move""]"
"4365","","<div style=""width:500px;"">
  <p>What determined the result of this run?</p>
  </div>","32","html-slider-response","39","573134","0.0-7.0-1.5","29","1","2025-07-30 08:40:45","36c45c0696341be0efffe67d72a12abb","92.53.153.233","Mozilla/5.0 (Windows NT 10.0; Win64; x64; rv:141.0) Gecko/20100101 Firefox/141.0","","Firefox","141.0","Windows","10.0","https://app.prolific.com/","sl,en-GB;q=0.7,en;q=0.3","664b4f0017b082f48ee8a033","687a19d2168e237449fb8af4","6889da39a02b3278d58d3a34","0","664b4f0017b082f48ee8a033","0","2025-07-30T08:50:19.823Z","","","","AttribQ","","","","","","","","","","","50","","","","","","","","","","","","","","","","","","","","","","","","","","",""
"2176","","<div style=""width:500px;"">
  <p>How much control did you have over the ball?</p>
  </div>","0","html-slider-response","40","575311","0.0-7.0-2.5","29","1","2025-07-30 08:40:45","36c45c0696341be0efffe67d72a12abb","92.53.153.233","Mozilla/5.0 (Windows NT 10.0; Win64; x64; rv:141.0) Gecko/20100101 Firefox/141.0","","Firefox","141.0","Windows","10.0","https://app.prolific.com/","sl,en-GB;q=0.7,en;q=0.3","664b4f0017b082f48ee8a033","687a19d2168e237449fb8af4","6889da39a02b3278d58d3a34","0","664b4f0017b082f48ee8a033","0","2025-07-30T08:50:22.000Z","","","","ControlQ","","","","","","","","","","","50","","","","","","","","","","","","","","","","","","","","","","","","","","",""
"2177","","<div style=""width:500px;"">
  <p>How would you describe your current emotional state?</p>
  </div>","64","html-slider-response","41","577490","0.0-7.0-3.5","29","1","2025-07-30 08:40:45","36c45c0696341be0efffe67d72a12abb","92.53.153.233","Mozilla/5.0 (Windows NT 10.0; Win64; x64; rv:141.0) Gecko/20100101 Firefox/141.0","","Firefox","141.0","Windows","10.0","https://app.prolific.com/","sl,en-GB;q=0.7,en;q=0.3","664b4f0017b082f48ee8a033","687a19d2168e237449fb8af4","6889da39a02b3278d58d3a34","0","664b4f0017b082f48ee8a033","0","2025-07-30T08:50:24.179Z","","","","StressQ","","","","","","","","","","","50","","","","","","","","","","","","","","","","","","","","","","","","","","",""
"2736","","<div style=""width:500px;"">
  <p>What best describes how you currently feel?</p>
  </div>","60","html-slider-response","42","580227","0.0-7.0-4.5","29","1","2025-07-30 08:40:45","36c45c0696341be0efffe67d72a12abb","92.53.153.233","Mozilla/5.0 (Windows NT 10.0; Win64; x64; rv:141.0) Gecko/20100101 Firefox/141.0","","Firefox","141.0","Windows","10.0","https://app.prolific.com/","sl,en-GB;q=0.7,en;q=0.3","664b4f0017b082f48ee8a033","687a19d2168e237449fb8af4","6889da39a02b3278d58d3a34","0","664b4f0017b082f48ee8a033","0","2025-07-30T08:50:26.916Z","","","","MotivationQ","","","","","","","","","","","50","","","","","","","","","","","","","","","","","","","","","","","","","","",""
"","","","","ctl-task-cpt","43","624466","0.0-7.0-0.6","29","1","2025-07-30 08:40:45","36c45c0696341be0efffe67d72a12abb","92.53.153.233","Mozilla/5.0 (Windows NT 10.0; Win64; x64; rv:141.0) Gecko/20100101 Firefox/141.0","","Firefox","141.0","Windows","10.0","https://app.prolific.com/","sl,en-GB;q=0.7,en;q=0.3","664b4f0017b082f48ee8a033","687a19d2168e237449fb8af4","6889da39a02b3278d58d3a34","0","664b4f0017b082f48ee8a033","0","2025-07-30T08:51:11.155Z","","","","","","","","","","","","","","","","win-only","3","g1:SW,g2:NE","0.4","7","0","581607","694","5707","41226","1","4","4","6","2","4","4","13","9","0.09848484848484848","1792","3000","1880","[""up"",""right""]","{""num_key_presses"":10,""num_perfect"":4,""num_errors"":0,""num_randdir"":6,""num_randdir_good_moves"":4,""num_whilered"":0,""num_whileblue"":0,""num_blue"":2,""num_good_moves"":8}","[462.8571428571429,455.5571398053851,0,462.8571428571429,455.5571398053851,109,462.8571428571429,454.5571398053851,217,462.8571428571429,459.5571398053851,325,463.8571428571429,456.5571398053851,433,463.8571428571429,463.5571398053851,540,468.8571428571429,443.5571398053851,649,470.8571428571429,447.5571398053851,757,474.8571428571429,434.5571398053851,864,474.8571428571429,434.5571398053851,972,475.8571428571429,431.5571398053851,1079,475.8571428571429,433.5571398053851,1186,476.8571428571429,427.5571398053851,1292,476.8571428571429,427.5571398053851,1399,511.8571428571429,417.5571398053851,1508,777.8571428571429,183.55713980538505,1616,884.8571428571429,53.55713980538505,1726,908.8571428571429,14.557139805385049,1833,906.8571428571429,25.55713980538505,1941,898.8571428571429,43.55713980538505,2048,895.8571428571429,50.55713980538505,2156,888.8571428571429,131.55713980538505,2265,931.8571428571429,234.55713980538505,2372,1049.857142857143,314.5571398053851,2481,1098.857142857143,267.5571398053851,2591,1103.857142857143,266.5571398053851,2700,1102.857142857143,264.5571398053851,2807,1090.857142857143,259.5571398053851,2916,1074.857142857143,256.5571398053851,3023,1072.857142857143,255.55713980538505,3131,1068.857142857143,258.5571398053851,3238,1068.857142857143,258.5571398053851,3347,1068.857142857143,258.5571398053851,3454,1068.857142857143,258.5571398053851,3563,1068.857142857143,258.5571398053851,3672,1068.857142857143,258.5571398053851,3780,1068.857142857143,258.5571398053851,3888,1068.857142857143,258.5571398053851,3997,1068.857142857143,258.5571398053851,4105,1068.857142857143,257.5571398053851,4212,1068.857142857143,257.5571398053851,4318,1068.857142857143,257.5571398053851,4428,1068.857142857143,257.5571398053851,4535,1068.857142857143,257.5571398053851,4643,1068.857142857143,257.5571398053851,4750,1067.857142857143,257.5571398053851,4859,1067.857142857143,258.5571398053851,4966]","[1352,1352,1000,0,352,""oops"",""right"",""up"",""good_move"",4728,3376,3023.2,1352,352.8,""smooth"",""right"",""right"",""good_move"",7662,2934,2588.3,4728,345.7,""oops"",""right"",""up"",""good_move"",11058,3396,2983.8,7662,412.2,""oops"",""right"",""down"",""bad_move"",17030,5972,2455.6,14214,360.4,""oops"",""right"",""up"",""good_move"",19989,2959,2458.9,17030,500.1,""oops"",""right"",""down"",""bad_move"",22261,2272,1888.2,19989,383.8,""smooth"",""right"",""right"",""good_move"",29121,6860,3011.3,25770,339.7,""oops"",""up"",""right"",""good_move"",32055,2933,2585.8,29122,347.2,""smooth"",""up"",""up"",""good_move"",35250,3195,2826.7,32055,368.3,""smooth"",""up"",""up"",""good_move""]"
"4101","","<div style=""width:500px;"">
  <p>What determined the result of this run?</p>
  </div>","97","html-slider-response","44","628567","0.0-7.0-1.6","29","1","2025-07-30 08:40:45","36c45c0696341be0efffe67d72a12abb","92.53.153.233","Mozilla/5.0 (Windows NT 10.0; Win64; x64; rv:141.0) Gecko/20100101 Firefox/141.0","","Firefox","141.0","Windows","10.0","https://app.prolific.com/","sl,en-GB;q=0.7,en;q=0.3","664b4f0017b082f48ee8a033","687a19d2168e237449fb8af4","6889da39a02b3278d58d3a34","0","664b4f0017b082f48ee8a033","0","2025-07-30T08:51:15.256Z","","","","AttribQ","","","","","","","","","","","50","","","","","","","","","","","","","","","","","","","","","","","","","","",""
"3354","","<div style=""width:500px;"">
  <p>How much control did you have over the ball?</p>
  </div>","64","html-slider-response","45","631923","0.0-7.0-2.6","29","1","2025-07-30 08:40:45","36c45c0696341be0efffe67d72a12abb","92.53.153.233","Mozilla/5.0 (Windows NT 10.0; Win64; x64; rv:141.0) Gecko/20100101 Firefox/141.0","","Firefox","141.0","Windows","10.0","https://app.prolific.com/","sl,en-GB;q=0.7,en;q=0.3","664b4f0017b082f48ee8a033","687a19d2168e237449fb8af4","6889da39a02b3278d58d3a34","0","664b4f0017b082f48ee8a033","0","2025-07-30T08:51:18.612Z","","","","ControlQ","","","","","","","","","","","50","","","","","","","","","","","","","","","","","","","","","","","","","","",""
"2185","","<div style=""width:500px;"">
  <p>How would you describe your current emotional state?</p>
  </div>","59","html-slider-response","46","634108","0.0-7.0-3.6","29","1","2025-07-30 08:40:45","36c45c0696341be0efffe67d72a12abb","92.53.153.233","Mozilla/5.0 (Windows NT 10.0; Win64; x64; rv:141.0) Gecko/20100101 Firefox/141.0","","Firefox","141.0","Windows","10.0","https://app.prolific.com/","sl,en-GB;q=0.7,en;q=0.3","664b4f0017b082f48ee8a033","687a19d2168e237449fb8af4","6889da39a02b3278d58d3a34","0","664b4f0017b082f48ee8a033","0","2025-07-30T08:51:20.797Z","","","","StressQ","","","","","","","","","","","50","","","","","","","","","","","","","","","","","","","","","","","","","","",""
"2108","","<div style=""width:500px;"">
  <p>What best describes how you currently feel?</p>
  </div>","58","html-slider-response","47","636217","0.0-7.0-4.6","29","1","2025-07-30 08:40:45","36c45c0696341be0efffe67d72a12abb","92.53.153.233","Mozilla/5.0 (Windows NT 10.0; Win64; x64; rv:141.0) Gecko/20100101 Firefox/141.0","","Firefox","141.0","Windows","10.0","https://app.prolific.com/","sl,en-GB;q=0.7,en;q=0.3","664b4f0017b082f48ee8a033","687a19d2168e237449fb8af4","6889da39a02b3278d58d3a34","0","664b4f0017b082f48ee8a033","0","2025-07-30T08:51:22.906Z","","","","MotivationQ","","","","","","","","","","","50","","","","","","","","","","","","","","","","","","","","","","","","","","",""
"","","","","ctl-task-cpt","48","682089","0.0-7.0-0.7","29","1","2025-07-30 08:40:45","36c45c0696341be0efffe67d72a12abb","92.53.153.233","Mozilla/5.0 (Windows NT 10.0; Win64; x64; rv:141.0) Gecko/20100101 Firefox/141.0","","Firefox","141.0","Windows","10.0","https://app.prolific.com/","sl,en-GB;q=0.7,en;q=0.3","664b4f0017b082f48ee8a033","687a19d2168e237449fb8af4","6889da39a02b3278d58d3a34","0","664b4f0017b082f48ee8a033","0","2025-07-30T08:52:08.778Z","","","","","","","","","","","","","","","","win-only","3","g1:SW,g2:NE","0.3","8","0","637597","1211","6216","42863","1","4","8","6","2","8","8","21","13","0.1590909090909091","1339","3000","1770","[""up"",""right""]","{""num_key_presses"":10,""num_perfect"":3,""num_errors"":0,""num_randdir"":7,""num_randdir_good_moves"":5,""num_whilered"":0,""num_whileblue"":0,""num_blue"":2,""num_good_moves"":8}","[458.8571428571429,470.5571398053851,0,458.8571428571429,470.5571398053851,110,458.8571428571429,470.5571398053851,217,474.8571428571429,456.5571398053851,325,495.8571428571429,461.5571398053851,433,495.8571428571429,461.5571398053851,542,524.8571428571429,419.5571398053851,650,749.8571428571429,235.55713980538505,760,797.8571428571429,125.55713980538505,867,797.8571428571429,124.55713980538505,976,797.8571428571429,124.55713980538505,1083,797.8571428571429,123.55713980538505,1192,800.8571428571429,115.55713980538505,1301,800.8571428571429,116.55713980538505,1408,800.8571428571429,116.55713980538505,1516,811.8571428571429,135.55713980538505,1623,833.8571428571429,255.55713980538505,1731,825.8571428571429,333.5571398053851,1838,836.8571428571429,335.5571398053851,1947,843.8571428571429,309.5571398053851,2054,843.8571428571429,316.5571398053851,2163,843.8571428571429,320.5571398053851,2271,818.8571428571429,364.5571398053851,2380,819.8571428571429,365.5571398053851,2487,839.8571428571429,343.5571398053851,2596,839.8571428571429,339.5571398053851,2703,839.8571428571429,338.5571398053851,2812,837.8571428571429,340.5571398053851,2920,836.8571428571429,339.5571398053851,3027,832.8571428571429,335.5571398053851,3135,831.8571428571429,335.5571398053851,3243,828.8571428571429,335.5571398053851,3353,828.8571428571429,335.5571398053851,3461,827.8571428571429,336.5571398053851,3568,827.8571428571429,336.5571398053851,3675,827.8571428571429,336.5571398053851,3786,825.8571428571429,340.5571398053851,3894,825.8571428571429,340.5571398053851,4001,825.8571428571429,340.5571398053851,4110,825.8571428571429,340.5571398053851,4219,825.8571428571429,340.5571398053851,4327,825.8571428571429,342.5571398053851,4435,825.8571428571429,342.5571398053851,4542,824.8571428571429,342.5571398053851,4650,824.8571428571429,342.5571398053851,4758,824.8571428571429,342.5571398053851,4866,824.8571428571429,342.5571398053851,4974]","[5431,5431,3001.2,2012,417.8,""smooth"",""right"",""right"",""good_move"",9254,3823,3372.2,5431,450.8,""oops"",""right"",""up"",""good_move"",12423,3169,2822.4,9254,346.6,""oops"",""right"",""right"",""good_move"",15017,2594,2227.4,12423,366.6,""oops"",""right"",""right"",""good_move"",17192,2176,1791.9,15017,384.1,""oops"",""up"",""left"",""bad_move"",20227,3034,2521.5,17193,512.5,""oops"",""right"",""up"",""good_move"",23814,3587,3199,20227,388,""oops"",""right"",""left"",""bad_move"",27218,3404,3047.2,23814,356.8,""smooth"",""up"",""up"",""good_move"",33189,5971,2003.2,30850,335.8,""smooth"",""right"",""right"",""good_move"",36359,3170,2693.3,33189,476.7,""oops"",""right"",""right"",""good_move""]"
"2497","","<div style=""width:500px;"">
  <p>What determined the result of this run?</p>
  </div>","100","html-slider-response","49","684587","0.0-7.0-1.7","29","1","2025-07-30 08:40:45","36c45c0696341be0efffe67d72a12abb","92.53.153.233","Mozilla/5.0 (Windows NT 10.0; Win64; x64; rv:141.0) Gecko/20100101 Firefox/141.0","","Firefox","141.0","Windows","10.0","https://app.prolific.com/","sl,en-GB;q=0.7,en;q=0.3","664b4f0017b082f48ee8a033","687a19d2168e237449fb8af4","6889da39a02b3278d58d3a34","0","664b4f0017b082f48ee8a033","0","2025-07-30T08:52:11.277Z","","","","AttribQ","","","","","","","","","","","50","","","","","","","","","","","","","","","","","","","","","","","","","","",""
"2956","","<div style=""width:500px;"">
  <p>How much control did you have over the ball?</p>
  </div>","67","html-slider-response","50","687545","0.0-7.0-2.7","29","1","2025-07-30 08:40:45","36c45c0696341be0efffe67d72a12abb","92.53.153.233","Mozilla/5.0 (Windows NT 10.0; Win64; x64; rv:141.0) Gecko/20100101 Firefox/141.0","","Firefox","141.0","Windows","10.0","https://app.prolific.com/","sl,en-GB;q=0.7,en;q=0.3","664b4f0017b082f48ee8a033","687a19d2168e237449fb8af4","6889da39a02b3278d58d3a34","0","664b4f0017b082f48ee8a033","0","2025-07-30T08:52:14.234Z","","","","ControlQ","","","","","","","","","","","50","","","","","","","","","","","","","","","","","","","","","","","","","","",""
"1868","","<div style=""width:500px;"">
  <p>How would you describe your current emotional state?</p>
  </div>","51","html-slider-response","51","689414","0.0-7.0-3.7","29","1","2025-07-30 08:40:45","36c45c0696341be0efffe67d72a12abb","92.53.153.233","Mozilla/5.0 (Windows NT 10.0; Win64; x64; rv:141.0) Gecko/20100101 Firefox/141.0","","Firefox","141.0","Windows","10.0","https://app.prolific.com/","sl,en-GB;q=0.7,en;q=0.3","664b4f0017b082f48ee8a033","687a19d2168e237449fb8af4","6889da39a02b3278d58d3a34","0","664b4f0017b082f48ee8a033","0","2025-07-30T08:52:16.103Z","","","","StressQ","","","","","","","","","","","50","","","","","","","","","","","","","","","","","","","","","","","","","","",""
"2348","","<div style=""width:500px;"">
  <p>What best describes how you currently feel?</p>
  </div>","54","html-slider-response","52","691763","0.0-7.0-4.7","29","1","2025-07-30 08:40:45","36c45c0696341be0efffe67d72a12abb","92.53.153.233","Mozilla/5.0 (Windows NT 10.0; Win64; x64; rv:141.0) Gecko/20100101 Firefox/141.0","","Firefox","141.0","Windows","10.0","https://app.prolific.com/","sl,en-GB;q=0.7,en;q=0.3","664b4f0017b082f48ee8a033","687a19d2168e237449fb8af4","6889da39a02b3278d58d3a34","0","664b4f0017b082f48ee8a033","0","2025-07-30T08:52:18.452Z","","","","MotivationQ","","","","","","","","","","","50","","","","","","","","","","","","","","","","","","","","","","","","","","",""
"","","","","ctl-task-cpt","53","768252","0.0-7.0-0.8","29","1","2025-07-30 08:40:45","36c45c0696341be0efffe67d72a12abb","92.53.153.233","Mozilla/5.0 (Windows NT 10.0; Win64; x64; rv:141.0) Gecko/20100101 Firefox/141.0","","Firefox","141.0","Windows","10.0","https://app.prolific.com/","sl,en-GB;q=0.7,en;q=0.3","664b4f0017b082f48ee8a033","687a19d2168e237449fb8af4","6889da39a02b3278d58d3a34","0","664b4f0017b082f48ee8a033","0","2025-07-30T08:53:34.941Z","","","","","","","","","","","","","","","","win-only","1","g1:NE,g2:SW","0.4","9","0","693143","873","5889","73475","1","4","8","6","2","8","8","29","21","0.2196969696969697","1104","3000","695","[""down"",""left""]","{""num_key_presses"":20,""num_perfect"":8,""num_errors"":0,""num_randdir"":12,""num_randdir_good_moves"":6,""num_whilered"":0,""num_whileblue"":0,""num_blue"":3,""num_good_moves"":13}","[455.8571428571429,455.5571398053851,0,455.8571428571429,455.5571398053851,108,455.8571428571429,455.5571398053851,216,460.8571428571429,453.5571398053851,324,647.8571428571429,319.5571398053851,432,701.8571428571429,258.5571398053851,541,503.8571428571429,445.5571398053851,651,244.85714285714286,668.5571398053851,759,209.85714285714286,751.5571398053851,866,202.85714285714286,768.5571398053851,974,144.85714285714286,827.5571398053851,1082,140.85714285714286,825.5571398053851,1190,137.85714285714286,826.5571398053851,1297,154.85714285714286,784.5571398053851,1404,247.85714285714286,800.5571398053851,1512,384.8571428571429,685.5571398053851,1620,514.8571428571429,658.5571398053851,1731,523.8571428571429,670.5571398053851,1839,523.8571428571429,670.5571398053851,1946,548.8571428571429,617.5571398053851,2053,590.8571428571429,600.5571398053851,2161,585.8571428571429,628.5571398053851,2268,585.8571428571429,628.5571398053851,2377,584.8571428571429,621.5571398053851,2485,607.8571428571429,564.5571398053851,2591,611.8571428571429,562.5571398053851,2700,611.8571428571429,560.5571398053851,2809,611.8571428571429,559.5571398053851,2918,611.8571428571429,559.5571398053851,3027,611.8571428571429,550.5571398053851,3133,611.8571428571429,550.5571398053851,3242,613.8571428571429,539.5571398053851,3350,613.8571428571429,543.5571398053851,3457,613.8571428571429,541.5571398053851,3566,612.8571428571429,545.5571398053851,3673,612.8571428571429,540.5571398053851,3783,612.8571428571429,540.5571398053851,3891,612.8571428571429,540.5571398053851,4000,612.8571428571429,540.5571398053851,4109,612.8571428571429,540.5571398053851,4215,612.8571428571429,540.5571398053851,4323,612.8571428571429,540.5571398053851,4432,612.8571428571429,540.5571398053851,4538,612.8571428571429,540.5571398053851,4645,612.8571428571429,540.5571398053851,4753,612.8571428571429,540.5571398053851,4860,612.8571428571429,540.5571398053851,4968]","[1451,1451,1000,0,451,""smooth"",""left"",""left"",""good_move"",4458,3007,2155.3,1451,851.7,""smooth"",""left"",""left"",""good_move"",11145,6687,2425.5,8301,418.5,""smooth"",""left"",""left"",""good_move"",14187,3042,2276.6,11145,765.4,""smooth"",""down"",""down"",""good_move"",17204,3017,2584.9,14187,432.1,""oops"",""down"",""down"",""good_move"",20152,2948,2560.2,17204,387.8,""oops"",""down"",""right"",""bad_move"",22744,2592,2197.2,20152,394.8,""oops"",""down"",""up"",""bad_move"",25739,2995,2639.9,22744,355.1,""oops"",""left"",""up"",""bad_move"",28718,2979,1941.3,25739,1037.7,""oops"",""up"",""left"",""good_move"",31656,2938,2594.4,28718,343.6,""oops"",""down"",""up"",""bad_move"",34701,3045,2724.4,31656,320.6,""smooth"",""up"",""up"",""bad_move"",37632,2931,2450.2,34701,480.8,""smooth"",""down"",""down"",""good_move"",39771,2139,1759.8,37632,379.2,""smooth"",""down"",""down"",""good_move"",46104,6333,2085.3,43640,378.7,""smooth"",""down"",""down"",""good_move"",48833,2728,2340.6,46105,387.4,""oops"",""down"",""up"",""bad_move"",55664,6831,2883.2,52463,317.8,""oops"",""down"",""down"",""good_move"",58305,2641,2244.6,55664,396.4,""oops"",""down"",""right"",""bad_move"",61334,3029,2723.5,58305,305.5,""oops"",""down"",""left"",""good_move"",64411,3076,2769.3,61335,306.7,""oops"",""down"",""down"",""good_move"",67294,2883,2548.5,64411,334.5,""oops"",""down"",""down"",""good_move""]"
"3150","","<div style=""width:500px;"">
  <p>What determined the result of this run?</p>
  </div>","61","html-slider-response","54","771402","0.0-7.0-1.8","29","1","2025-07-30 08:40:45","36c45c0696341be0efffe67d72a12abb","92.53.153.233","Mozilla/5.0 (Windows NT 10.0; Win64; x64; rv:141.0) Gecko/20100101 Firefox/141.0","","Firefox","141.0","Windows","10.0","https://app.prolific.com/","sl,en-GB;q=0.7,en;q=0.3","664b4f0017b082f48ee8a033","687a19d2168e237449fb8af4","6889da39a02b3278d58d3a34","0","664b4f0017b082f48ee8a033","0","2025-07-30T08:53:38.091Z","","","","AttribQ","","","","","","","","","","","50","","","","","","","","","","","","","","","","","","","","","","","","","","",""
"1871","","<div style=""width:500px;"">
  <p>How much control did you have over the ball?</p>
  </div>","57","html-slider-response","55","773273","0.0-7.0-2.8","29","1","2025-07-30 08:40:45","36c45c0696341be0efffe67d72a12abb","92.53.153.233","Mozilla/5.0 (Windows NT 10.0; Win64; x64; rv:141.0) Gecko/20100101 Firefox/141.0","","Firefox","141.0","Windows","10.0","https://app.prolific.com/","sl,en-GB;q=0.7,en;q=0.3","664b4f0017b082f48ee8a033","687a19d2168e237449fb8af4","6889da39a02b3278d58d3a34","0","664b4f0017b082f48ee8a033","0","2025-07-30T08:53:39.962Z","","","","ControlQ","","","","","","","","","","","50","","","","","","","","","","","","","","","","","","","","","","","","","","",""
"1991","","<div style=""width:500px;"">
  <p>How would you describe your current emotional state?</p>
  </div>","68","html-slider-response","56","775265","0.0-7.0-3.8","29","1","2025-07-30 08:40:45","36c45c0696341be0efffe67d72a12abb","92.53.153.233","Mozilla/5.0 (Windows NT 10.0; Win64; x64; rv:141.0) Gecko/20100101 Firefox/141.0","","Firefox","141.0","Windows","10.0","https://app.prolific.com/","sl,en-GB;q=0.7,en;q=0.3","664b4f0017b082f48ee8a033","687a19d2168e237449fb8af4","6889da39a02b3278d58d3a34","0","664b4f0017b082f48ee8a033","0","2025-07-30T08:53:41.954Z","","","","StressQ","","","","","","","","","","","50","","","","","","","","","","","","","","","","","","","","","","","","","","",""
"2529","","<div style=""width:500px;"">
  <p>What best describes how you currently feel?</p>
  </div>","47","html-slider-response","57","777795","0.0-7.0-4.8","29","1","2025-07-30 08:40:45","36c45c0696341be0efffe67d72a12abb","92.53.153.233","Mozilla/5.0 (Windows NT 10.0; Win64; x64; rv:141.0) Gecko/20100101 Firefox/141.0","","Firefox","141.0","Windows","10.0","https://app.prolific.com/","sl,en-GB;q=0.7,en;q=0.3","664b4f0017b082f48ee8a033","687a19d2168e237449fb8af4","6889da39a02b3278d58d3a34","0","664b4f0017b082f48ee8a033","0","2025-07-30T08:53:44.484Z","","","","MotivationQ","","","","","","","","","","","50","","","","","","","","","","","","","","","","","","","","","","","","","","",""
"","","","","ctl-task-cpt","58","840498","0.0-7.0-0.9","29","1","2025-07-30 08:40:45","36c45c0696341be0efffe67d72a12abb","92.53.153.233","Mozilla/5.0 (Windows NT 10.0; Win64; x64; rv:141.0) Gecko/20100101 Firefox/141.0","","Firefox","141.0","Windows","10.0","https://app.prolific.com/","sl,en-GB;q=0.7,en;q=0.3","664b4f0017b082f48ee8a033","687a19d2168e237449fb8af4","6889da39a02b3278d58d3a34","0","664b4f0017b082f48ee8a033","0","2025-07-30T08:54:47.187Z","","","","","","","","","","","","","","","","win-only","2","g1:SE,g2:NW","0.5","10","0","779176","778","5794","59696","1","4","4","6","2","4","3","32","29","0.24242424242424243","1015","3000","1445","[""left"",""up""]","{""num_key_presses"":14,""num_perfect"":8,""num_errors"":1,""num_randdir"":5,""num_randdir_good_moves"":2,""num_whilered"":0,""num_whileblue"":1,""num_blue"":5,""num_good_moves"":10}","[461.8571428571429,468.5571398053851,0,461.8571428571429,466.5571398053851,101,461.8571428571429,464.5571398053851,208,462.8571428571429,459.5571398053851,318,463.8571428571429,459.5571398053851,427,463.8571428571429,457.5571398053851,533,342.8571428571429,292.5571398053851,642,167.85714285714286,113.55713980538505,752,157.85714285714286,99.55713980538505,859,153.85714285714286,97.55713980538505,967,134.85714285714286,91.55713980538505,1075,134.85714285714286,91.55713980538505,1183,135.85714285714286,95.55713980538505,1290,142.85714285714286,121.55713980538505,1398,406.8571428571429,331.5571398053851,1509,698.8571428571429,436.5571398053851,1617,682.8571428571429,532.5571398053851,1723,677.8571428571429,504.5571398053851,1832,700.8571428571429,518.5571398053851,1941,701.8571428571429,519.5571398053851,2051,697.8571428571429,487.5571398053851,2157,695.8571428571429,467.5571398053851,2267,695.8571428571429,467.5571398053851,2376,692.8571428571429,465.5571398053851,2486,689.8571428571429,461.5571398053851,2592,687.8571428571429,458.5571398053851,2699,686.8571428571429,454.5571398053851,2807,686.8571428571429,453.5571398053851,2915,686.8571428571429,453.5571398053851,3024,686.8571428571429,453.5571398053851,3132,685.8571428571429,452.5571398053851,3240,685.8571428571429,450.5571398053851,3349,685.8571428571429,450.5571398053851,3458,683.8571428571429,451.5571398053851,3566,683.8571428571429,454.5571398053851,3674,683.8571428571429,454.5571398053851,3782,682.8571428571429,457.5571398053851,3891,682.8571428571429,457.5571398053851,3999,682.8571428571429,457.5571398053851,4108,682.8571428571429,457.5571398053851,4217,682.8571428571429,457.5571398053851,4325,681.8571428571429,456.5571398053851,4433,681.8571428571429,456.5571398053851,4541,681.8571428571429,455.5571398053851,4648,681.8571428571429,455.5571398053851,4755,680.8571428571429,454.5571398053851,4863,680.8571428571429,455.5571398053851,4971]","[5031,5031,2694.4,2004,332.6,""smooth"",""left"",""left"",""good_move"",7972,2941,2454,5031,487,""oops"",""up"",""right"",""bad_move"",10717,2745,2450,7972,295,""while_blue"",""left"",""right"",""bad_move"",12951,2234,1781.4,10717,452.6,""oops"",""up"",""up"",""good_move"",17023,4071,3306.4,12952,764.6,""smooth"",""left"",""left"",""good_move"",19978,2955,2044.4,17023,910.6,""smooth"",""left"",""left"",""good_move"",22970,2992,2644.2,19978,347.8,""smooth"",""up"",""up"",""good_move"",29429,6459,2515,26588,326,""oops"",""left"",""up"",""good_move"",32366,2936,2570.5,29430,365.5,""oops"",""left"",""right"",""bad_move"",35551,3185,2896.6,32366,288.4,""oops"",""left"",""right"",""bad_move"",38307,2756,2420.9,35551,335.1,""smooth"",""left"",""left"",""good_move"",41348,3041,2106.6,38307,934.4,""smooth"",""left"",""left"",""good_move"",44276,2928,1953,41348,975,""smooth"",""left"",""left"",""good_move"",53635,9359,2207.9,51033,394.1,""smooth"",""left"",""left"",""good_move""]"
"2573","","<div style=""width:500px;"">
  <p>What determined the result of this run?</p>
  </div>","62","html-slider-response","59","843070","0.0-7.0-1.9","29","1","2025-07-30 08:40:45","36c45c0696341be0efffe67d72a12abb","92.53.153.233","Mozilla/5.0 (Windows NT 10.0; Win64; x64; rv:141.0) Gecko/20100101 Firefox/141.0","","Firefox","141.0","Windows","10.0","https://app.prolific.com/","sl,en-GB;q=0.7,en;q=0.3","664b4f0017b082f48ee8a033","687a19d2168e237449fb8af4","6889da39a02b3278d58d3a34","0","664b4f0017b082f48ee8a033","0","2025-07-30T08:54:49.759Z","","","","AttribQ","","","","","","","","","","","50","","","","","","","","","","","","","","","","","","","","","","","","","","",""
"3534","","<div style=""width:500px;"">
  <p>How much control did you have over the ball?</p>
  </div>","56","html-slider-response","60","846605","0.0-7.0-2.9","29","1","2025-07-30 08:40:45","36c45c0696341be0efffe67d72a12abb","92.53.153.233","Mozilla/5.0 (Windows NT 10.0; Win64; x64; rv:141.0) Gecko/20100101 Firefox/141.0","","Firefox","141.0","Windows","10.0","https://app.prolific.com/","sl,en-GB;q=0.7,en;q=0.3","664b4f0017b082f48ee8a033","687a19d2168e237449fb8af4","6889da39a02b3278d58d3a34","0","664b4f0017b082f48ee8a033","0","2025-07-30T08:54:53.294Z","","","","ControlQ","","","","","","","","","","","50","","","","","","","","","","","","","","","","","","","","","","","","","","",""
"2524","","<div style=""width:500px;"">
  <p>How would you describe your current emotional state?</p>
  </div>","69","html-slider-response","61","849129","0.0-7.0-3.9","29","1","2025-07-30 08:40:45","36c45c0696341be0efffe67d72a12abb","92.53.153.233","Mozilla/5.0 (Windows NT 10.0; Win64; x64; rv:141.0) Gecko/20100101 Firefox/141.0","","Firefox","141.0","Windows","10.0","https://app.prolific.com/","sl,en-GB;q=0.7,en;q=0.3","664b4f0017b082f48ee8a033","687a19d2168e237449fb8af4","6889da39a02b3278d58d3a34","0","664b4f0017b082f48ee8a033","0","2025-07-30T08:54:55.818Z","","","","StressQ","","","","","","","","","","","50","","","","","","","","","","","","","","","","","","","","","","","","","","",""
"1900","","<div style=""width:500px;"">
  <p>What best describes how you currently feel?</p>
  </div>","52","html-slider-response","62","851030","0.0-7.0-4.9","29","1","2025-07-30 08:40:45","36c45c0696341be0efffe67d72a12abb","92.53.153.233","Mozilla/5.0 (Windows NT 10.0; Win64; x64; rv:141.0) Gecko/20100101 Firefox/141.0","","Firefox","141.0","Windows","10.0","https://app.prolific.com/","sl,en-GB;q=0.7,en;q=0.3","664b4f0017b082f48ee8a033","687a19d2168e237449fb8af4","6889da39a02b3278d58d3a34","0","664b4f0017b082f48ee8a033","0","2025-07-30T08:54:57.719Z","","","","MotivationQ","","","","","","","","","","","50","","","","","","","","","","","","","","","","","","","","","","","","","","",""
"","","","","ctl-task-cpt","63","906523","0.0-7.0-0.10","29","1","2025-07-30 08:40:45","36c45c0696341be0efffe67d72a12abb","92.53.153.233","Mozilla/5.0 (Windows NT 10.0; Win64; x64; rv:141.0) Gecko/20100101 Firefox/141.0","","Firefox","141.0","Windows","10.0","https://app.prolific.com/","sl,en-GB;q=0.7,en;q=0.3","664b4f0017b082f48ee8a033","687a19d2168e237449fb8af4","6889da39a02b3278d58d3a34","0","664b4f0017b082f48ee8a033","0","2025-07-30T08:55:53.213Z","","","","","","","","","","","","","","","","win-only","2","g1:SE,g2:NW","0.6","11","0","852411","872","5874","52481","1","4","8","6","2","8","7","39","32","0.29545454545454547","728","3000","1630","[""left"",""up""]","{""num_key_presses"":12,""num_perfect"":7,""num_errors"":1,""num_randdir"":4,""num_randdir_good_moves"":2,""num_whilered"":0,""num_whileblue"":1,""num_blue"":4,""num_good_moves"":9}","[471.8571428571429,459.5571398053851,0,471.8571428571429,459.5571398053851,108,471.8571428571429,459.5571398053851,215,479.8571428571429,442.5571398053851,324,465.8571428571429,420.5571398053851,433,165.85714285714286,155.55713980538505,541,128.85714285714286,123.55713980538505,650,99.85714285714286,96.55713980538505,758,99.85714285714286,96.55713980538505,867,99.85714285714286,96.55713980538505,975,99.85714285714286,96.55713980538505,1086,99.85714285714286,96.55713980538505,1195,99.85714285714286,96.55713980538505,1301,99.85714285714286,96.55713980538505,1409,99.85714285714286,96.55713980538505,1520,99.85714285714286,96.55713980538505,1630,99.85714285714286,96.55713980538505,1738,99.85714285714286,96.55713980538505,1847,99.85714285714286,96.55713980538505,1955,99.85714285714286,96.55713980538505,2064,99.85714285714286,96.55713980538505,2173,99.85714285714286,96.55713980538505,2280,99.85714285714286,96.55713980538505,2388,99.85714285714286,96.55713980538505,2495,99.85714285714286,96.55713980538505,2603,99.85714285714286,96.55713980538505,2711,99.85714285714286,96.55713980538505,2819,99.85714285714286,96.55713980538505,2927,99.85714285714286,96.55713980538505,3036,99.85714285714286,96.55713980538505,3146,99.85714285714286,96.55713980538505,3255,99.85714285714286,96.55713980538505,3362,99.85714285714286,96.55713980538505,3472,99.85714285714286,96.55713980538505,3580,99.85714285714286,96.55713980538505,3688,99.85714285714286,96.55713980538505,3798,99.85714285714286,96.55713980538505,3907,99.85714285714286,96.55713980538505,4015,99.85714285714286,96.55713980538505,4123,99.85714285714286,96.55713980538505,4229,99.85714285714286,96.55713980538505,4337,99.85714285714286,96.55713980538505,4445,99.85714285714286,96.55713980538505,4552,99.85714285714286,96.55713980538505,4662,99.85714285714286,96.55713980538505,4770,99.85714285714286,96.55713980538505,4879,99.85714285714286,96.55713980538505,4986]","[1385,1385,1000,0,385,""oops"",""left"",""down"",""bad_move"",4411,3026,2680.7,1385,345.3,""smooth"",""left"",""left"",""good_move"",11814,7403,2454.9,8990,369.1,""oops"",""left"",""left"",""good_move"",15053,3239,2779.6,11814,459.4,""oops"",""left"",""up"",""good_move"",21931,6878,2559.7,18963,408.3,""smooth"",""left"",""left"",""good_move"",24946,3015,2019.7,21931,995.3,""oops"",""up"",""down"",""bad_move"",27394,2448,2052.3,24946,395.7,""smooth"",""up"",""up"",""good_move"",33846,6451,2499,31031,316,""while_blue"",""up"",""right"",""bad_move"",37191,3345,2898.3,33846,446.7,""smooth"",""up"",""up"",""good_move"",40265,3075,2325.6,37191,749.4,""smooth"",""up"",""up"",""good_move"",43257,2991,1929.5,40266,1061.5,""smooth"",""left"",""left"",""good_move"",46339,3082,2729.3,43257,352.7,""smooth"",""up"",""up"",""good_move""]"
"2074","","<div style=""width:500px;"">
  <p>What determined the result of this run?</p>
  </div>","69","html-slider-response","64","908600","0.0-7.0-1.10","29","1","2025-07-30 08:40:45","36c45c0696341be0efffe67d72a12abb","92.53.153.233","Mozilla/5.0 (Windows NT 10.0; Win64; x64; rv:141.0) Gecko/20100101 Firefox/141.0","","Firefox","141.0","Windows","10.0","https://app.prolific.com/","sl,en-GB;q=0.7,en;q=0.3","664b4f0017b082f48ee8a033","687a19d2168e237449fb8af4","6889da39a02b3278d58d3a34","0","664b4f0017b082f48ee8a033","0","2025-07-30T08:55:55.289Z","","","","AttribQ","","","","","","","","","","","50","","","","","","","","","","","","","","","","","","","","","","","","","","",""
"2556","","<div style=""width:500px;"">
  <p>How much control did you have over the ball?</p>
  </div>","59","html-slider-response","65","911157","0.0-7.0-2.10","29","1","2025-07-30 08:40:45","36c45c0696341be0efffe67d72a12abb","92.53.153.233","Mozilla/5.0 (Windows NT 10.0; Win64; x64; rv:141.0) Gecko/20100101 Firefox/141.0","","Firefox","141.0","Windows","10.0","https://app.prolific.com/","sl,en-GB;q=0.7,en;q=0.3","664b4f0017b082f48ee8a033","687a19d2168e237449fb8af4","6889da39a02b3278d58d3a34","0","664b4f0017b082f48ee8a033","0","2025-07-30T08:55:57.846Z","","","","ControlQ","","","","","","","","","","","50","","","","","","","","","","","","","","","","","","","","","","","","","","",""
"2109","","<div style=""width:500px;"">
  <p>How would you describe your current emotional state?</p>
  </div>","57","html-slider-response","66","913266","0.0-7.0-3.10","29","1","2025-07-30 08:40:45","36c45c0696341be0efffe67d72a12abb","92.53.153.233","Mozilla/5.0 (Windows NT 10.0; Win64; x64; rv:141.0) Gecko/20100101 Firefox/141.0","","Firefox","141.0","Windows","10.0","https://app.prolific.com/","sl,en-GB;q=0.7,en;q=0.3","664b4f0017b082f48ee8a033","687a19d2168e237449fb8af4","6889da39a02b3278d58d3a34","0","664b4f0017b082f48ee8a033","0","2025-07-30T08:55:59.955Z","","","","StressQ","","","","","","","","","","","50","","","","","","","","","","","","","","","","","","","","","","","","","","",""
"3599","","<div style=""width:500px;"">
  <p>What best describes how you currently feel?</p>
  </div>","58","html-slider-response","67","916868","0.0-7.0-4.10","29","1","2025-07-30 08:40:45","36c45c0696341be0efffe67d72a12abb","92.53.153.233","Mozilla/5.0 (Windows NT 10.0; Win64; x64; rv:141.0) Gecko/20100101 Firefox/141.0","","Firefox","141.0","Windows","10.0","https://app.prolific.com/","sl,en-GB;q=0.7,en;q=0.3","664b4f0017b082f48ee8a033","687a19d2168e237449fb8af4","6889da39a02b3278d58d3a34","0","664b4f0017b082f48ee8a033","0","2025-07-30T08:56:03.557Z","","","","MotivationQ","","","","","","","","","","","50","","","","","","","","","","","","","","","","","","","","","","","","","","",""
"","","","","ctl-task-cpt","68","946696","0.0-7.0-0.11","29","1","2025-07-30 08:40:45","36c45c0696341be0efffe67d72a12abb","92.53.153.233","Mozilla/5.0 (Windows NT 10.0; Win64; x64; rv:141.0) Gecko/20100101 Firefox/141.0","","Firefox","141.0","Windows","10.0","https://app.prolific.com/","sl,en-GB;q=0.7,en;q=0.3","664b4f0017b082f48ee8a033","687a19d2168e237449fb8af4","6889da39a02b3278d58d3a34","0","664b4f0017b082f48ee8a033","0","2025-07-30T08:56:33.385Z","","","","","","","","","","","","","","","","win-only","3","g1:SW,g2:NE","0.7","12","0","918249","674","5675","26821","1","4","4","6","2","4","4","43","39","0.32575757575757575","933","3000","2305","[""up"",""right""]","{""num_key_presses"":6,""num_perfect"":4,""num_errors"":0,""num_randdir"":2,""num_randdir_good_moves"":2,""num_whilered"":0,""num_whileblue"":0,""num_blue"":1,""num_good_moves"":6}","[449.8571428571429,454.5571398053851,0,449.8571428571429,454.5571398053851,113,449.8571428571429,454.5571398053851,222,449.8571428571429,449.5571398053851,330,545.8571428571429,337.5571398053851,438,538.8571428571429,350.5571398053851,547,749.8571428571429,196.55713980538505,656,842.8571428571429,90.55713980538505,763,815.8571428571429,110.55713980538505,872,814.8571428571429,111.55713980538505,979,822.8571428571429,99.55713980538505,1089,828.8571428571429,97.55713980538505,1195,828.8571428571429,97.55713980538505,1305,828.8571428571429,97.55713980538505,1411,828.8571428571429,97.55713980538505,1518,828.8571428571429,97.55713980538505,1626,828.8571428571429,97.55713980538505,1733,828.8571428571429,97.55713980538505,1839,828.8571428571429,97.55713980538505,1948,828.8571428571429,97.55713980538505,2057,828.8571428571429,97.55713980538505,2166,828.8571428571429,97.55713980538505,2275,828.8571428571429,97.55713980538505,2382,828.8571428571429,97.55713980538505,2492,828.8571428571429,97.55713980538505,2601,828.8571428571429,97.55713980538505,2710,828.8571428571429,97.55713980538505,2819,828.8571428571429,97.55713980538505,2928,828.8571428571429,97.55713980538505,3035,828.8571428571429,97.55713980538505,3144,828.8571428571429,97.55713980538505,3251,828.8571428571429,97.55713980538505,3359,828.8571428571429,97.55713980538505,3468,828.8571428571429,97.55713980538505,3576,828.8571428571429,97.55713980538505,3683,828.8571428571429,97.55713980538505,3791,828.8571428571429,97.55713980538505,3901,828.8571428571429,97.55713980538505,4009,828.8571428571429,97.55713980538505,4116,828.8571428571429,97.55713980538505,4226,828.8571428571429,97.55713980538505,4335,828.8571428571429,97.55713980538505,4444,828.8571428571429,97.55713980538505,4554,828.8571428571429,97.55713980538505,4661,828.8571428571429,97.55713980538505,4768,828.8571428571429,97.55713980538505,4876,828.8571428571429,97.55713980538505,4985]","[1417,1417,1000,0,417,""smooth"",""right"",""right"",""good_move"",4803,3386,2982.4,1417,403.6,""smooth"",""right"",""right"",""good_move"",11463,6660,3100.6,8002,360.4,""oops"",""up"",""up"",""good_move"",14491,3028,2655.4,11463,372.6,""oops"",""up"",""up"",""good_move"",17921,3430,3103.5,14491,326.5,""smooth"",""up"",""up"",""good_move"",20875,2954,1803.6,17921,1150.4,""smooth"",""right"",""right"",""good_move""]"
"2614","","<div style=""width:500px;"">
  <p>What determined the result of this run?</p>
  </div>","65","html-slider-response","69","949311","0.0-7.0-1.11","29","1","2025-07-30 08:40:45","36c45c0696341be0efffe67d72a12abb","92.53.153.233","Mozilla/5.0 (Windows NT 10.0; Win64; x64; rv:141.0) Gecko/20100101 Firefox/141.0","","Firefox","141.0","Windows","10.0","https://app.prolific.com/","sl,en-GB;q=0.7,en;q=0.3","664b4f0017b082f48ee8a033","687a19d2168e237449fb8af4","6889da39a02b3278d58d3a34","0","664b4f0017b082f48ee8a033","0","2025-07-30T08:56:36.000Z","","","","AttribQ","","","","","","","","","","","50","","","","","","","","","","","","","","","","","","","","","","","","","","",""
"2451","","<div style=""width:500px;"">
  <p>How much control did you have over the ball?</p>
  </div>","77","html-slider-response","70","951763","0.0-7.0-2.11","29","1","2025-07-30 08:40:45","36c45c0696341be0efffe67d72a12abb","92.53.153.233","Mozilla/5.0 (Windows NT 10.0; Win64; x64; rv:141.0) Gecko/20100101 Firefox/141.0","","Firefox","141.0","Windows","10.0","https://app.prolific.com/","sl,en-GB;q=0.7,en;q=0.3","664b4f0017b082f48ee8a033","687a19d2168e237449fb8af4","6889da39a02b3278d58d3a34","0","664b4f0017b082f48ee8a033","0","2025-07-30T08:56:38.452Z","","","","ControlQ","","","","","","","","","","","50","","","","","","","","","","","","","","","","","","","","","","","","","","",""
"5160","","<div style=""width:500px;"">
  <p>How would you describe your current emotional state?</p>
  </div>","54","html-slider-response","71","956924","0.0-7.0-3.11","29","1","2025-07-30 08:40:45","36c45c0696341be0efffe67d72a12abb","92.53.153.233","Mozilla/5.0 (Windows NT 10.0; Win64; x64; rv:141.0) Gecko/20100101 Firefox/141.0","","Firefox","141.0","Windows","10.0","https://app.prolific.com/","sl,en-GB;q=0.7,en;q=0.3","664b4f0017b082f48ee8a033","687a19d2168e237449fb8af4","6889da39a02b3278d58d3a34","0","664b4f0017b082f48ee8a033","0","2025-07-30T08:56:43.613Z","","","","StressQ","","","","","","","","","","","50","","","","","","","","","","","","","","","","","","","","","","","","","","",""
"2568","","<div style=""width:500px;"">
  <p>What best describes how you currently feel?</p>
  </div>","52","html-slider-response","72","959494","0.0-7.0-4.11","29","1","2025-07-30 08:40:45","36c45c0696341be0efffe67d72a12abb","92.53.153.233","Mozilla/5.0 (Windows NT 10.0; Win64; x64; rv:141.0) Gecko/20100101 Firefox/141.0","","Firefox","141.0","Windows","10.0","https://app.prolific.com/","sl,en-GB;q=0.7,en;q=0.3","664b4f0017b082f48ee8a033","687a19d2168e237449fb8af4","6889da39a02b3278d58d3a34","0","664b4f0017b082f48ee8a033","0","2025-07-30T08:56:46.183Z","","","","MotivationQ","","","","","","","","","","","50","","","","","","","","","","","","","","","","","","","","","","","","","","",""
"","","","","ctl-task-cpt","73","1001797","0.0-7.0-0.12","29","1","2025-07-30 08:40:45","36c45c0696341be0efffe67d72a12abb","92.53.153.233","Mozilla/5.0 (Windows NT 10.0; Win64; x64; rv:141.0) Gecko/20100101 Firefox/141.0","","Firefox","141.0","Windows","10.0","https://app.prolific.com/","sl,en-GB;q=0.7,en;q=0.3","664b4f0017b082f48ee8a033","687a19d2168e237449fb8af4","6889da39a02b3278d58d3a34","0","664b4f0017b082f48ee8a033","0","2025-07-30T08:57:28.486Z","","","","","","","","","","","","","","","","win-only","3","g1:SW,g2:NE","0.8","13","0","960875","795","5803","39294","1","4","4","6","2","4","4","47","43","0.3560606060606061","917","3000","1845","[""up"",""right""]","{""num_key_presses"":10,""num_perfect"":8,""num_errors"":0,""num_randdir"":2,""num_randdir_good_moves"":0,""num_whilered"":0,""num_whileblue"":0,""num_blue"":2,""num_good_moves"":8}","[468.8571428571429,468.5571398053851,0,468.8571428571429,468.5571398053851,101,468.8571428571429,468.5571398053851,210,479.8571428571429,453.5571398053851,319,588.8571428571429,347.5571398053851,427,634.8571428571429,269.5571398053851,533,715.8571428571429,199.55713980538505,641,777.8571428571429,162.55713980538505,751,839.8571428571429,138.55713980538505,861,839.8571428571429,138.55713980538505,969,839.8571428571429,138.55713980538505,1078,839.8571428571429,138.55713980538505,1185,839.8571428571429,138.55713980538505,1291,839.8571428571429,138.55713980538505,1400,839.8571428571429,138.55713980538505,1506,839.8571428571429,138.55713980538505,1615,839.8571428571429,138.55713980538505,1723,839.8571428571429,138.55713980538505,1833,839.8571428571429,138.55713980538505,1942,839.8571428571429,138.55713980538505,2050,839.8571428571429,138.55713980538505,2157,839.8571428571429,138.55713980538505,2266,839.8571428571429,138.55713980538505,2374,839.8571428571429,138.55713980538505,2482,839.8571428571429,138.55713980538505,2591,839.8571428571429,138.55713980538505,2698,839.8571428571429,138.55713980538505,2807,839.8571428571429,138.55713980538505,2913,839.8571428571429,138.55713980538505,3021,839.8571428571429,138.55713980538505,3129,839.8571428571429,138.55713980538505,3236,839.8571428571429,138.55713980538505,3347,839.8571428571429,138.55713980538505,3454,839.8571428571429,138.55713980538505,3561,839.8571428571429,138.55713980538505,3669,839.8571428571429,138.55713980538505,3776,839.8571428571429,138.55713980538505,3884,839.8571428571429,138.55713980538505,3991,839.8571428571429,138.55713980538505,4098,839.8571428571429,138.55713980538505,4207,839.8571428571429,138.55713980538505,4315,839.8571428571429,138.55713980538505,4422,839.8571428571429,138.55713980538505,4529,839.8571428571429,138.55713980538505,4637,839.8571428571429,138.55713980538505,4745,839.8571428571429,138.55713980538505,4853,839.8571428571429,138.55713980538505,4962]","[1371,1371,1000,0,371,""smooth"",""right"",""right"",""good_move"",3913,2542,2199,1371,343,""oops"",""up"",""left"",""bad_move"",7810,3897,3532.8,3913,364.2,""oops"",""up"",""left"",""bad_move"",10773,2963,1959.4,7810,1003.6,""smooth"",""up"",""up"",""good_move"",19824,9051,1050.9,18343,430.1,""smooth"",""up"",""up"",""good_move"",22775,2951,2328.5,19824,622.5,""smooth"",""right"",""right"",""good_move"",25477,2702,2230.5,22775,471.5,""smooth"",""right"",""right"",""good_move"",28012,2535,2193.9,25477,341.1,""smooth"",""right"",""right"",""good_move"",30312,2300,1996.9,28012,303.1,""smooth"",""right"",""right"",""good_move"",33214,2902,2541.1,30312,360.9,""smooth"",""up"",""up"",""good_move""]"
"1964","","<div style=""width:500px;"">
  <p>What determined the result of this run?</p>
  </div>","61","html-slider-response","74","1003762","0.0-7.0-1.12","29","1","2025-07-30 08:40:45","36c45c0696341be0efffe67d72a12abb","92.53.153.233","Mozilla/5.0 (Windows NT 10.0; Win64; x64; rv:141.0) Gecko/20100101 Firefox/141.0","","Firefox","141.0","Windows","10.0","https://app.prolific.com/","sl,en-GB;q=0.7,en;q=0.3","664b4f0017b082f48ee8a033","687a19d2168e237449fb8af4","6889da39a02b3278d58d3a34","0","664b4f0017b082f48ee8a033","0","2025-07-30T08:57:30.451Z","","","","AttribQ","","","","","","","","","","","50","","","","","","","","","","","","","","","","","","","","","","","","","","",""
"2414","","<div style=""width:500px;"">
  <p>How much control did you have over the ball?</p>
  </div>","62","html-slider-response","75","1006176","0.0-7.0-2.12","29","1","2025-07-30 08:40:45","36c45c0696341be0efffe67d72a12abb","92.53.153.233","Mozilla/5.0 (Windows NT 10.0; Win64; x64; rv:141.0) Gecko/20100101 Firefox/141.0","","Firefox","141.0","Windows","10.0","https://app.prolific.com/","sl,en-GB;q=0.7,en;q=0.3","664b4f0017b082f48ee8a033","687a19d2168e237449fb8af4","6889da39a02b3278d58d3a34","0","664b4f0017b082f48ee8a033","0","2025-07-30T08:57:32.865Z","","","","ControlQ","","","","","","","","","","","50","","","","","","","","","","","","","","","","","","","","","","","","","","",""
"2179","","<div style=""width:500px;"">
  <p>How would you describe your current emotional state?</p>
  </div>","52","html-slider-response","76","1008357","0.0-7.0-3.12","29","1","2025-07-30 08:40:45","36c45c0696341be0efffe67d72a12abb","92.53.153.233","Mozilla/5.0 (Windows NT 10.0; Win64; x64; rv:141.0) Gecko/20100101 Firefox/141.0","","Firefox","141.0","Windows","10.0","https://app.prolific.com/","sl,en-GB;q=0.7,en;q=0.3","664b4f0017b082f48ee8a033","687a19d2168e237449fb8af4","6889da39a02b3278d58d3a34","0","664b4f0017b082f48ee8a033","0","2025-07-30T08:57:35.046Z","","","","StressQ","","","","","","","","","","","50","","","","","","","","","","","","","","","","","","","","","","","","","","",""
"2123","","<div style=""width:500px;"">
  <p>What best describes how you currently feel?</p>
  </div>","53","html-slider-response","77","1010481","0.0-7.0-4.12","29","1","2025-07-30 08:40:45","36c45c0696341be0efffe67d72a12abb","92.53.153.233","Mozilla/5.0 (Windows NT 10.0; Win64; x64; rv:141.0) Gecko/20100101 Firefox/141.0","","Firefox","141.0","Windows","10.0","https://app.prolific.com/","sl,en-GB;q=0.7,en;q=0.3","664b4f0017b082f48ee8a033","687a19d2168e237449fb8af4","6889da39a02b3278d58d3a34","0","664b4f0017b082f48ee8a033","0","2025-07-30T08:57:37.170Z","","","","MotivationQ","","","","","","","","","","","50","","","","","","","","","","","","","","","","","","","","","","","","","","",""
"","","","","ctl-task-cpt","78","1043903","0.0-7.0-0.13","29","1","2025-07-30 08:40:45","36c45c0696341be0efffe67d72a12abb","92.53.153.233","Mozilla/5.0 (Windows NT 10.0; Win64; x64; rv:141.0) Gecko/20100101 Firefox/141.0","","Firefox","141.0","Windows","10.0","https://app.prolific.com/","sl,en-GB;q=0.7,en;q=0.3","664b4f0017b082f48ee8a033","687a19d2168e237449fb8af4","6889da39a02b3278d58d3a34","0","664b4f0017b082f48ee8a033","0","2025-07-30T08:58:10.592Z","","","","","","","","","","","","","","","","win-only","3","g1:SW,g2:NE","0.9","14","0","1011864","707","5716","30408","1","4","8","6","2","8","8","55","47","0.4166666666666667","780","3000","2285","[""up"",""right""]","{""num_key_presses"":6,""num_perfect"":5,""num_errors"":0,""num_randdir"":1,""num_randdir_good_moves"":1,""num_whilered"":0,""num_whileblue"":0,""num_blue"":2,""num_good_moves"":6}","[464.8571428571429,465.5571398053851,0,464.8571428571429,465.5571398053851,104,464.8571428571429,465.5571398053851,211,468.8571428571429,465.5571398053851,318,675.8571428571429,294.5571398053851,429,730.8571428571429,197.55713980538505,539,781.8571428571429,143.55713980538505,647,808.8571428571429,140.55713980538505,756,808.8571428571429,139.55713980538505,863,812.8571428571429,133.55713980538505,972,812.8571428571429,133.55713980538505,1081,812.8571428571429,133.55713980538505,1190,812.8571428571429,133.55713980538505,1299,812.8571428571429,133.55713980538505,1407,812.8571428571429,133.55713980538505,1515,812.8571428571429,133.55713980538505,1622,812.8571428571429,133.55713980538505,1731,812.8571428571429,133.55713980538505,1839,812.8571428571429,133.55713980538505,1946,812.8571428571429,133.55713980538505,2054,812.8571428571429,133.55713980538505,2161,812.8571428571429,133.55713980538505,2268,812.8571428571429,133.55713980538505,2377,812.8571428571429,133.55713980538505,2484,812.8571428571429,133.55713980538505,2592,812.8571428571429,133.55713980538505,2699,812.8571428571429,133.55713980538505,2806,812.8571428571429,133.55713980538505,2913,812.8571428571429,133.55713980538505,3019,812.8571428571429,133.55713980538505,3127,812.8571428571429,133.55713980538505,3236,812.8571428571429,133.55713980538505,3343,812.8571428571429,133.55713980538505,3451,812.8571428571429,133.55713980538505,3559,812.8571428571429,133.55713980538505,3667,812.8571428571429,133.55713980538505,3776,812.8571428571429,133.55713980538505,3883,812.8571428571429,133.55713980538505,3991,812.8571428571429,133.55713980538505,4097,812.8571428571429,133.55713980538505,4204,812.8571428571429,133.55713980538505,4313,812.8571428571429,133.55713980538505,4422,812.8571428571429,133.55713980538505,4530,812.8571428571429,133.55713980538505,4639,812.8571428571429,133.55713980538505,4746,812.8571428571429,133.55713980538505,4853,812.8571428571429,133.55713980538505,4961]","[1397,1397,1000,0,397,""oops"",""right"",""up"",""good_move"",4887,3490,3137,1397,353,""smooth"",""right"",""right"",""good_move"",7403,2516,2110.4,4887,405.6,""smooth"",""right"",""right"",""good_move"",10879,3476,3074.3,7403,401.7,""smooth"",""up"",""up"",""good_move"",13833,2954,2622.5,10879,331.5,""smooth"",""right"",""right"",""good_move"",24399,10565,3485.8,20511,402.2,""smooth"",""up"",""up"",""good_move""]"
"2110","","<div style=""width:500px;"">
  <p>What determined the result of this run?</p>
  </div>","63","html-slider-response","79","1046015","0.0-7.0-1.13","29","1","2025-07-30 08:40:45","36c45c0696341be0efffe67d72a12abb","92.53.153.233","Mozilla/5.0 (Windows NT 10.0; Win64; x64; rv:141.0) Gecko/20100101 Firefox/141.0","","Firefox","141.0","Windows","10.0","https://app.prolific.com/","sl,en-GB;q=0.7,en;q=0.3","664b4f0017b082f48ee8a033","687a19d2168e237449fb8af4","6889da39a02b3278d58d3a34","0","664b4f0017b082f48ee8a033","0","2025-07-30T08:58:12.704Z","","","","AttribQ","","","","","","","","","","","50","","","","","","","","","","","","","","","","","","","","","","","","","","",""
"2068","","<div style=""width:500px;"">
  <p>How much control did you have over the ball?</p>
  </div>","66","html-slider-response","80","1048084","0.0-7.0-2.13","29","1","2025-07-30 08:40:45","36c45c0696341be0efffe67d72a12abb","92.53.153.233","Mozilla/5.0 (Windows NT 10.0; Win64; x64; rv:141.0) Gecko/20100101 Firefox/141.0","","Firefox","141.0","Windows","10.0","https://app.prolific.com/","sl,en-GB;q=0.7,en;q=0.3","664b4f0017b082f48ee8a033","687a19d2168e237449fb8af4","6889da39a02b3278d58d3a34","0","664b4f0017b082f48ee8a033","0","2025-07-30T08:58:14.773Z","","","","ControlQ","","","","","","","","","","","50","","","","","","","","","","","","","","","","","","","","","","","","","","",""
"2002","","<div style=""width:500px;"">
