"rt","response_timestamp","stimulus","response","trial_type","trial_index","time_elapsed","internal_node_id","run_id","condition","recorded_at","source_code_version","ip","user_agent","device","browser","browser_version","platform","platform_version","referer","accept_language","PROLIFIC_PID","STUDY_ID","SESSION_ID","BATCH","prolific_id","batch","realtime","success","question_order","question_id","eventType","responses","item_order","radio_event_ids","radio_event_times","key_event_times","mouse_event_times","straightlining","zigzagging","honeypot","view_history","slider_start","which_type","canvas_config","goals_layout","control_level","trial_number","tutorial_trial_number","trial_start_time","phase1_start_time","phase2_start_time","phase3_start_time","goal_1_value","goal_1_distance","goal_2_value","goal_2_distance","goal_selected","outcome","outcome_total","participant_final_score","participant_initial_score","participant_final_score_prop","goal_choice_rt","allocated_time","allocated_time_remaining","goal_direction","counts","mouse_movements","key_presses"
"15898","1754470430667","<p style='font-size:40px;line-height:1.25'><strong>Welcome to the experiment!</strong></p><p style='font-size:1.1em;line-height:1.25'>Thank you for participanting in our experiment again! You will be asked to play the Dysfunctional Ball Game again. We will briefly recap the rules before we start.</p><p style='font-size:1.1em;line-height:1.25'>Press <strong>Next</strong> to continue.</p>","0","custom-html-button-response","0","17602","0.0-0.0","140","1","2025-08-06 08:53:30","36c45c0696341be0efffe67d72a12abb","154.159.252.40","Mozilla/5.0 (Windows NT 10.0; Win64; x64) AppleWebKit/537.36 (KHTML, like Gecko) Chrome/138.0.0.0 Safari/537.36","WebKit","Chrome","138.0.0.0","Windows","10.0","https://app.prolific.com/","en-US,en;q=0.9","664c9a37d570871d534dd3c2","687a1a965b9f5b85a264363e","689317569e6897122e69a4b8","1","664c9a37d570871d534dd3c2","1","2025-08-06T08:53:50.669Z","","","","","","","","","","","","","","","","","","","","","","","","","","","","","","","","","","","","","","","","","",""
"17186","","","","fullscreen","1","35810","0.0-1.0","140","1","2025-08-06 08:53:30","36c45c0696341be0efffe67d72a12abb","154.159.252.40","Mozilla/5.0 (Windows NT 10.0; Win64; x64) AppleWebKit/537.36 (KHTML, like Gecko) Chrome/138.0.0.0 Safari/537.36","WebKit","Chrome","138.0.0.0","Windows","10.0","https://app.prolific.com/","en-US,en;q=0.9","664c9a37d570871d534dd3c2","687a1a965b9f5b85a264363e","689317569e6897122e69a4b8","1","664c9a37d570871d534dd3c2","1","","true","","","","","","","","","","","","","","","","","","","","","","","","","","","","","","","","","","","","","","","","",""
"19881","1754470468764"," <p style='font-size:1.1em;line-height:1.25'>Thank you for closing all other tabs.</p><p style='font-size:1.1em;line-height:1.25'>We will now invite you to fill in some questionnaires, before starting the game.<br>This will take about 5 minutes.<br></p><p style='font-size:1.1em;line-height:1.25'>Press the <strong>Next</strong> button to continue.</p>","0","custom-html-button-response","2","55698","0.0-2.0","140","1","2025-08-06 08:53:30","36c45c0696341be0efffe67d72a12abb","154.159.252.40","Mozilla/5.0 (Windows NT 10.0; Win64; x64) AppleWebKit/537.36 (KHTML, like Gecko) Chrome/138.0.0.0 Safari/537.36","WebKit","Chrome","138.0.0.0","Windows","10.0","https://app.prolific.com/","en-US,en;q=0.9","664c9a37d570871d534dd3c2","687a1a965b9f5b85a264363e","689317569e6897122e69a4b8","1","664c9a37d570871d534dd3c2","1","2025-08-06T08:54:28.765Z","","","","","","","","","","","","","","","","","","","","","","","","","","","","","","","","","","","","","","","","","",""
"3169","","","{""assigned_sex"":""female""}","survey-multi-choice","3","58876","0.0-3.0-0.0","140","1","2025-08-06 08:53:30","36c45c0696341be0efffe67d72a12abb","154.159.252.40","Mozilla/5.0 (Windows NT 10.0; Win64; x64) AppleWebKit/537.36 (KHTML, like Gecko) Chrome/138.0.0.0 Safari/537.36","WebKit","Chrome","138.0.0.0","Windows","10.0","https://app.prolific.com/","en-US,en;q=0.9","664c9a37d570871d534dd3c2","687a1a965b9f5b85a264363e","689317569e6897122e69a4b8","1","664c9a37d570871d534dd3c2","1","","","[0]","0","demographics","","","","","","","","","","","","","","","","","","","","","","","","","","","","","","","","","","","","","",""
"9857","1754470481806","<p style='font-size:1.1em;line-height:1.25'>In the following, we will perform a baseline assessment. This means that we will ask you a few questions relating to your experiences over the past month.<br></p><p style='font-size:1.1em;line-height:1.25'>Press the <strong>Next</strong> button to continue.</p>","0","custom-html-button-response","4","68739","0.0-4.0-0.0","140","1","2025-08-06 08:53:30","36c45c0696341be0efffe67d72a12abb","154.159.252.40","Mozilla/5.0 (Windows NT 10.0; Win64; x64) AppleWebKit/537.36 (KHTML, like Gecko) Chrome/138.0.0.0 Safari/537.36","WebKit","Chrome","138.0.0.0","Windows","10.0","https://app.prolific.com/","en-US,en;q=0.9","664c9a37d570871d534dd3c2","687a1a965b9f5b85a264363e","689317569e6897122e69a4b8","1","664c9a37d570871d534dd3c2","1","2025-08-06T08:54:41.806Z","","","","","","","","","","","","","","","","","","","","","","","","","","","","","","","","","","","","","","","","","",""
"150034.60000002384","","","","survey-template","5","218782","0.0-4.0-1.0","140","1","2025-08-06 08:53:30","36c45c0696341be0efffe67d72a12abb","154.159.252.40","Mozilla/5.0 (Windows NT 10.0; Win64; x64) AppleWebKit/537.36 (KHTML, like Gecko) Chrome/138.0.0.0 Safari/537.36","WebKit","Chrome","138.0.0.0","Windows","10.0","https://app.prolific.com/","en-US,en;q=0.9","664c9a37d570871d534dd3c2","687a1a965b9f5b85a264363e","689317569e6897122e69a4b8","1","664c9a37d570871d534dd3c2","1","2025-08-06T08:57:11.849Z","","","","pss","{""Q01"":""3"",""Q02"":""2"",""Q03"":""2"",""Q04"":""0"",""Q05"":""1"",""Q06"":""2"",""Q07"":""1"",""Q08"":""2"",""Q09"":""4"",""Q10"":""3""}","[0,1,2,3,4,5,6,7,8,9]","[""Q01"",""Q02"",""Q03"",""Q04"",""Q05"",""Q06"",""Q07"",""Q08"",""Q09"",""Q10""]","[51143,63102.800000071526,85349.70000004768,90987.5,92155.60000002384,99798.80000007153,111281.30000007153,136314.60000002384,142857.30000007153,148270.30000007153]","[]","[0.30000007152557373,51143,58329,63102.800000071526,64308.39999997616,77692.60000002384,85349.70000004768,87203.30000007153,90987.5,92155.60000002384,99798.80000007153,111281.30000007153,136314.60000002384,142857.30000007153,148270.30000007153,150023.10000002384]","0.4","0.6666666666666666","0","","","","","","","","","","","","","","","","","","","","","","","","","","","","",""
"12084","1754470643937","<p style='font-size:1.1em;line-height:1.25'>Thank you for your answers! Now we will ask you a few more questions relating to your feelings in the last 24 hours.<br></p><p style='font-size:1.1em;line-height:1.25'>Press the <strong>Next</strong> button to continue.</p>","0","custom-html-button-response","6","230871","0.0-4.0-2.0","140","1","2025-08-06 08:53:30","36c45c0696341be0efffe67d72a12abb","154.159.252.40","Mozilla/5.0 (Windows NT 10.0; Win64; x64) AppleWebKit/537.36 (KHTML, like Gecko) Chrome/138.0.0.0 Safari/537.36","WebKit","Chrome","138.0.0.0","Windows","10.0","https://app.prolific.com/","en-US,en;q=0.9","664c9a37d570871d534dd3c2","687a1a965b9f5b85a264363e","689317569e6897122e69a4b8","1","664c9a37d570871d534dd3c2","1","2025-08-06T08:57:23.939Z","","","","","","","","","","","","","","","","","","","","","","","","","","","","","","","","","","","","","","","","","",""
"97894.10000002384","","","","survey-template","7","328781","0.0-4.0-3.0","140","1","2025-08-06 08:53:30","36c45c0696341be0efffe67d72a12abb","154.159.252.40","Mozilla/5.0 (Windows NT 10.0; Win64; x64) AppleWebKit/537.36 (KHTML, like Gecko) Chrome/138.0.0.0 Safari/537.36","WebKit","Chrome","138.0.0.0","Windows","10.0","https://app.prolific.com/","en-US,en;q=0.9","664c9a37d570871d534dd3c2","687a1a965b9f5b85a264363e","689317569e6897122e69a4b8","1","664c9a37d570871d534dd3c2","1","2025-08-06T08:59:01.848Z","","","","drsp","{""Q01"":""0"",""Q02"":""3"",""Q03"":""4"",""Q04"":""5"",""Q05"":""5"",""Q06"":""4"",""Q07"":""5"",""Q08"":""0"",""Q09"":""5"",""Q10"":""5"",""Q11"":""4"",""Q12"":""3"",""Q13"":""5"",""Q14"":""5"",""Q15"":""5"",""Q16"":""0"",""Q17"":""5"",""Q18"":""4"",""Q19"":""5"",""Q20"":""5"",""Q21"":""5"",""Q22"":""3""}","[0,1,2,3,4,5,6,7,8,9,10,11,12,13,14,15,16,17,18,19,20,21]","[""Q01"",""Q02"",""Q03"",""Q04"",""Q05"",""Q06"",""Q07"",""Q08"",""Q09"",""Q10"",""Q11"",""Q12"",""Q13"",""Q14"",""Q15"",""Q16"",""Q17"",""Q18"",""Q19"",""Q20"",""Q21"",""Q22"",""Q21""]","[3597.7999999523163,6213.600000023842,9262,12175.5,14337,18822.5,23966.700000047684,26575.200000047684,35199.89999997616,38780.799999952316,42363.5,45339.39999997616,48137.5,52178.10000002384,54694.299999952316,59255.39999997616,69041.70000004768,72206.60000002384,77004.10000002384,81931.60000002384,86357.60000002384,94856.39999997616,96435.29999995232]","[]","[0.7000000476837158,3597.7999999523163,5829.700000047684,6213.600000023842,9262,12175.5,14337,18822.5,21327.299999952316,23966.700000047684,26575.200000047684,33823.700000047684,35199.89999997616,37425.5,38780.799999952316,42363.5,45339.39999997616,48137.5,52178.10000002384,54694.299999952316,59255.39999997616,67274,69041.70000004768,72206.60000002384,75651.39999997616,77004.10000002384,81931.60000002384,86357.60000002384,93038.79999995232,94856.39999997616,96435.29999995232,97877.79999995232]","0.5454545454545454","0.5714285714285714","0","","","","","","","","","","","","","","","","","","","","","","","","","","","","",""
"20623.699999928474","","","","survey-template","8","349410","0.0-4.0-4.0","140","1","2025-08-06 08:53:30","36c45c0696341be0efffe67d72a12abb","154.159.252.40","Mozilla/5.0 (Windows NT 10.0; Win64; x64) AppleWebKit/537.36 (KHTML, like Gecko) Chrome/138.0.0.0 Safari/537.36","WebKit","Chrome","138.0.0.0","Windows","10.0","https://app.prolific.com/","en-US,en;q=0.9","664c9a37d570871d534dd3c2","687a1a965b9f5b85a264363e","689317569e6897122e69a4b8","1","664c9a37d570871d534dd3c2","1","2025-08-06T08:59:22.477Z","","","","stress","{""Q01"":""5"",""Q02"":""1"",""Q03"":""5""}","[0,1,2]","[""Q01"",""Q02"",""Q03""]","[10307.199999928474,14533.199999928474,19264.699999928474]","[]","[10307.199999928474,14533.199999928474,19264.699999928474,20619.699999928474]","0.6666666666666666","1","0","","","","","","","","","","","","","","","","","","","","","","","","","","","","",""
"95495","","","","instructions","9","444910","0.0-5.0-0.0","140","1","2025-08-06 08:53:30","36c45c0696341be0efffe67d72a12abb","154.159.252.40","Mozilla/5.0 (Windows NT 10.0; Win64; x64) AppleWebKit/537.36 (KHTML, like Gecko) Chrome/138.0.0.0 Safari/537.36","WebKit","Chrome","138.0.0.0","Windows","10.0","https://app.prolific.com/","en-US,en;q=0.9","664c9a37d570871d534dd3c2","687a1a965b9f5b85a264363e","689317569e6897122e69a4b8","1","664c9a37d570871d534dd3c2","1","","","","","","","","","","","","","","","[{""page_index"":0,""viewing_time"":95494}]","","","","","","","","","","","","","","","","","","","","","","","","","","","",""
"16949","","<p>Before you start with this game please answer the following three questions yourself. </p>
  <p>Through this game, we measure several aspects of your cognitive performance, such as reaction times, multi-tasking capabilities </p>
  <p>and the ability to assess the situation you are in.</p>
  <p></p>
  <p><b>How good do you usually are in such tasks?</b></p>","100","html-slider-response","10","461868","0.0-6.0-0.0","140","1","2025-08-06 08:53:30","36c45c0696341be0efffe67d72a12abb","154.159.252.40","Mozilla/5.0 (Windows NT 10.0; Win64; x64) AppleWebKit/537.36 (KHTML, like Gecko) Chrome/138.0.0.0 Safari/537.36","WebKit","Chrome","138.0.0.0","Windows","10.0","https://app.prolific.com/","en-US,en;q=0.9","664c9a37d570871d534dd3c2","687a1a965b9f5b85a264363e","689317569e6897122e69a4b8","1","664c9a37d570871d534dd3c2","1","2025-08-06T09:01:14.935Z","","","","PreSkillQ","","","","","","","","","","","50","","","","","","","","","","","","","","","","","","","","","","","","","","",""
"6618","","<div style=""width:500px;"">
  <p>How well do you think you will perform in this task compared to other participants?</p>
  </div>","100","html-slider-response","11","468498","0.0-6.0-1.0","140","1","2025-08-06 08:53:30","36c45c0696341be0efffe67d72a12abb","154.159.252.40","Mozilla/5.0 (Windows NT 10.0; Win64; x64) AppleWebKit/537.36 (KHTML, like Gecko) Chrome/138.0.0.0 Safari/537.36","WebKit","Chrome","138.0.0.0","Windows","10.0","https://app.prolific.com/","en-US,en;q=0.9","664c9a37d570871d534dd3c2","687a1a965b9f5b85a264363e","689317569e6897122e69a4b8","1","664c9a37d570871d534dd3c2","1","2025-08-06T09:01:21.565Z","","","","PrePerfQ","","","","","","","","","","","50","","","","","","","","","","","","","","","","","","","","","","","","","","",""
"6887","","<div style=""width:500px;"">
  <p>What best describes how you currently feel?</p>
  </div>","100","html-slider-response","12","475388","0.0-6.0-2.0","140","1","2025-08-06 08:53:30","36c45c0696341be0efffe67d72a12abb","154.159.252.40","Mozilla/5.0 (Windows NT 10.0; Win64; x64) AppleWebKit/537.36 (KHTML, like Gecko) Chrome/138.0.0.0 Safari/537.36","WebKit","Chrome","138.0.0.0","Windows","10.0","https://app.prolific.com/","en-US,en;q=0.9","664c9a37d570871d534dd3c2","687a1a965b9f5b85a264363e","689317569e6897122e69a4b8","1","664c9a37d570871d534dd3c2","1","2025-08-06T09:01:28.455Z","","","","PreMotivationQ","","","","","","","","","","","50","","","","","","","","","","","","","","","","","","","","","","","","","","",""
"","","","","ctl-task-cpt","13","605073","0.0-7.0-0.0","140","1","2025-08-06 08:53:30","36c45c0696341be0efffe67d72a12abb","154.159.252.40","Mozilla/5.0 (Windows NT 10.0; Win64; x64) AppleWebKit/537.36 (KHTML, like Gecko) Chrome/138.0.0.0 Safari/537.36","WebKit","Chrome","138.0.0.0","Windows","10.0","https://app.prolific.com/","en-US,en;q=0.9","664c9a37d570871d534dd3c2","687a1a965b9f5b85a264363e","689317569e6897122e69a4b8","1","664c9a37d570871d534dd3c2","1","2025-08-06T09:03:38.140Z","","","","","","","","","","","","","","","","win-only","2","g1:SE,g2:NW","1","1","0","480300.4","104190.2","109191.4","126673","1","4","4","6","2","4","4","4","0","0.030303030303030304","3069","3000","525","[""left"",""up""]","{""num_key_presses"":6,""num_perfect"":6,""num_errors"":0,""num_randdir"":0,""num_randdir_good_moves"":0,""num_whilered"":0,""num_whileblue"":0,""num_blue"":0,""num_good_moves"":6}","[292.22232142857143,298.12857142857143,0.4,292.22232142857143,298.12857142857143,102.1,292.22232142857143,298.12857142857143,206.3,292.22232142857143,298.12857142857143,310.8,292.22232142857143,298.12857142857143,410.8,292.22232142857143,298.12857142857143,511.9,292.22232142857143,298.12857142857143,616.3,292.22232142857143,298.12857142857143,716.8,292.22232142857143,298.12857142857143,821.5,292.22232142857143,298.12857142857143,925.4,292.22232142857143,298.12857142857143,1026.8,288.22232142857143,295.12857142857143,1131.5,190.22232142857143,152.12857142857143,1235.7,182.22232142857143,111.12857142857143,1336.4,182.22232142857143,111.12857142857143,1436.5,182.22232142857143,111.12857142857143,1540.2,166.22232142857143,96.12857142857143,1641.2,89.22232142857143,7.128571428571426,1741.2,66.22232142857143,-37.871428571428574,1841.9,30.222321428571426,-71.87142857142857,1942.9,24.222321428571426,-75.87142857142857,2046,15.222321428571426,-77.87142857142857,2147,26.222321428571426,-45.871428571428574,2250.4,28.222321428571426,-9.871428571428574,2356.9,5.222321428571426,-1.8714285714285737,2460.6,1.2223214285714263,1.1285714285714263,2560.7,12.222321428571426,15.128571428571426,2661,25.222321428571426,28.128571428571426,2761.3,35.222321428571426,37.128571428571426,2866.8,38.222321428571426,38.128571428571426,2971.5,38.222321428571426,38.128571428571426,3087.6,38.222321428571426,38.128571428571426,3190.1,38.222321428571426,38.128571428571426,3294.5,38.222321428571426,38.128571428571426,3396.3,38.222321428571426,38.128571428571426,3496.6,38.222321428571426,38.128571428571426,3600.4,38.222321428571426,38.128571428571426,3701.3,38.222321428571426,38.128571428571426,3806.7,38.222321428571426,38.128571428571426,3907.3,38.222321428571426,38.128571428571426,4012.1,38.222321428571426,38.128571428571426,4115.7,38.222321428571426,38.128571428571426,4216.5,38.222321428571426,38.128571428571426,4317,38.222321428571426,38.128571428571426,4418.8,38.222321428571426,38.128571428571426,4522.9,38.222321428571426,38.128571428571426,4631.3,38.222321428571426,38.128571428571426,4738.4,38.222321428571426,38.128571428571426,4841.8,38.222321428571426,38.128571428571426,4945.7]","[1476.1,1476.2,1000,0.1,476.1,""smooth"",""left"",""left"",""good_move"",4443.2,2966.6,2521.9,1476.7,444.6,""smooth"",""up"",""up"",""good_move"",7168.6,2724.5,2179,4444.1,545.5,""smooth"",""up"",""up"",""good_move"",10397.7,3228.7,2622.8,7169,605.9,""smooth"",""up"",""up"",""good_move"",14296.5,3898.4,3359.2,10398.1,539.2,""smooth"",""left"",""left"",""good_move"",17334.4,3037.4,2326.6,14297,710.8,""smooth"",""left"",""left"",""good_move""]"
"29564","","<div style=""width:500px;"">
  <p>What determined the result of this run?</p>
  </div>","99","html-slider-response","14","634639","0.0-7.0-1.0","140","1","2025-08-06 08:53:30","36c45c0696341be0efffe67d72a12abb","154.159.252.40","Mozilla/5.0 (Windows NT 10.0; Win64; x64) AppleWebKit/537.36 (KHTML, like Gecko) Chrome/138.0.0.0 Safari/537.36","WebKit","Chrome","138.0.0.0","Windows","10.0","https://app.prolific.com/","en-US,en;q=0.9","664c9a37d570871d534dd3c2","687a1a965b9f5b85a264363e","689317569e6897122e69a4b8","1","664c9a37d570871d534dd3c2","1","2025-08-06T09:04:07.706Z","","","","AttribQ","","","","","","","","","","","50","","","","","","","","","","","","","","","","","","","","","","","","","","",""
"3355","","<div style=""width:500px;"">
  <p>How much control did you have over the ball?</p>
  </div>","100","html-slider-response","15","638002","0.0-7.0-2.0","140","1","2025-08-06 08:53:30","36c45c0696341be0efffe67d72a12abb","154.159.252.40","Mozilla/5.0 (Windows NT 10.0; Win64; x64) AppleWebKit/537.36 (KHTML, like Gecko) Chrome/138.0.0.0 Safari/537.36","WebKit","Chrome","138.0.0.0","Windows","10.0","https://app.prolific.com/","en-US,en;q=0.9","664c9a37d570871d534dd3c2","687a1a965b9f5b85a264363e","689317569e6897122e69a4b8","1","664c9a37d570871d534dd3c2","1","2025-08-06T09:04:11.070Z","","","","ControlQ","","","","","","","","","","","50","","","","","","","","","","","","","","","","","","","","","","","","","","",""
"7758","","<div style=""width:500px;"">
  <p>How would you describe your current emotional state?</p>
  </div>","0","html-slider-response","16","645770","0.0-7.0-3.0","140","1","2025-08-06 08:53:30","36c45c0696341be0efffe67d72a12abb","154.159.252.40","Mozilla/5.0 (Windows NT 10.0; Win64; x64) AppleWebKit/537.36 (KHTML, like Gecko) Chrome/138.0.0.0 Safari/537.36","WebKit","Chrome","138.0.0.0","Windows","10.0","https://app.prolific.com/","en-US,en;q=0.9","664c9a37d570871d534dd3c2","687a1a965b9f5b85a264363e","689317569e6897122e69a4b8","1","664c9a37d570871d534dd3c2","1","2025-08-06T09:04:18.838Z","","","","StressQ","","","","","","","","","","","50","","","","","","","","","","","","","","","","","","","","","","","","","","",""
"6044","","<div style=""width:500px;"">
  <p>What best describes how you currently feel?</p>
  </div>","98","html-slider-response","17","651821","0.0-7.0-4.0","140","1","2025-08-06 08:53:30","36c45c0696341be0efffe67d72a12abb","154.159.252.40","Mozilla/5.0 (Windows NT 10.0; Win64; x64) AppleWebKit/537.36 (KHTML, like Gecko) Chrome/138.0.0.0 Safari/537.36","WebKit","Chrome","138.0.0.0","Windows","10.0","https://app.prolific.com/","en-US,en;q=0.9","664c9a37d570871d534dd3c2","687a1a965b9f5b85a264363e","689317569e6897122e69a4b8","1","664c9a37d570871d534dd3c2","1","2025-08-06T09:04:24.889Z","","","","MotivationQ","","","","","","","","","","","50","","","","","","","","","","","","","","","","","","","","","","","","","","",""
"","","","","ctl-task-cpt","18","683585","0.0-7.0-0.1","140","1","2025-08-06 08:53:30","36c45c0696341be0efffe67d72a12abb","154.159.252.40","Mozilla/5.0 (Windows NT 10.0; Win64; x64) AppleWebKit/537.36 (KHTML, like Gecko) Chrome/138.0.0.0 Safari/537.36","WebKit","Chrome","138.0.0.0","Windows","10.0","https://app.prolific.com/","en-US,en;q=0.9","664c9a37d570871d534dd3c2","687a1a965b9f5b85a264363e","689317569e6897122e69a4b8","1","664c9a37d570871d534dd3c2","1","2025-08-06T09:04:56.652Z","","","","","","","","","","","","","","","","win-only","0","g1:NW,g2:SE","0.9","2","0","656736.9","1670.2","6679.5","28732.1","1","4","8","6","2","8","7","11","4","0.08333333333333333","2069.2","3000","1495","[""down"",""right""]","{""num_key_presses"":6,""num_perfect"":5,""num_errors"":1,""num_randdir"":0,""num_randdir_good_moves"":0,""num_whilered"":0,""num_whileblue"":1,""num_blue"":3,""num_good_moves"":6}","[293.22232142857143,299.12857142857143,1.5,293.22232142857143,299.12857142857143,100.9,293.22232142857143,299.12857142857143,201,293.22232142857143,299.12857142857143,313.8,293.22232142857143,299.12857142857143,414.7,293.22232142857143,299.12857142857143,520.3,293.22232142857143,299.12857142857143,623.2,293.22232142857143,299.12857142857143,737.3,293.22232142857143,299.12857142857143,842.6,310.22232142857143,321.12857142857143,943.2,474.22232142857143,464.12857142857143,1046.2,486.22232142857143,482.12857142857143,1155.5,486.22232142857143,482.12857142857143,1255.8,486.22232142857143,482.12857142857143,1360,490.22232142857143,490.12857142857143,1462,511.22232142857143,522.1285714285714,1562.3,526.2223214285714,542.1285714285714,1666.1,535.2223214285714,555.1285714285714,1770.1,535.2223214285714,556.1285714285714,1872.9,535.2223214285714,556.1285714285714,1974.8,535.2223214285714,556.1285714285714,2079.7,535.2223214285714,556.1285714285714,2184.2,535.2223214285714,556.1285714285714,2287.1,535.2223214285714,556.1285714285714,2387.5,535.2223214285714,556.1285714285714,2492,535.2223214285714,556.1285714285714,2595.3,535.2223214285714,556.1285714285714,2702.9,535.2223214285714,556.1285714285714,2810.1,535.2223214285714,556.1285714285714,2911,535.2223214285714,556.1285714285714,3011,535.2223214285714,556.1285714285714,3115.1,535.2223214285714,556.1285714285714,3221.1,535.2223214285714,556.1285714285714,3328.1,535.2223214285714,556.1285714285714,3428.6,535.2223214285714,556.1285714285714,3529.4,535.2223214285714,556.1285714285714,3631,535.2223214285714,556.1285714285714,3733.3,535.2223214285714,556.1285714285714,3834,535.2223214285714,556.1285714285714,3939,535.2223214285714,556.1285714285714,4041,535.2223214285714,556.1285714285714,4145.8,535.2223214285714,556.1285714285714,4252.2,535.2223214285714,556.1285714285714,4353.8,535.2223214285714,556.1285714285714,4457.2,535.2223214285714,556.1285714285714,4559.5,535.2223214285714,556.1285714285714,4659.7,535.2223214285714,556.1285714285714,4761.7,535.2223214285714,556.1285714285714,4863.1,535.2223214285714,556.1285714285714,4964.1]","[1425.6,1425.6,1000,0,425.6,""smooth"",""down"",""down"",""good_move"",3929.2,2501.1,2102.8,1428.2,398.3,""smooth"",""down"",""down"",""good_move"",7203,3272.3,2851,3930.8,421.3,""smooth"",""down"",""down"",""good_move"",9660.4,2456.5,2094.4,7203.9,362.2,""while_blue"",""right"",""right"",""good_move"",18743.6,9081.9,1819.3,16429,495.4,""smooth"",""right"",""right"",""good_move"",21916.1,3172,2657.8,18744.1,514.2,""smooth"",""right"",""right"",""good_move""]"
"94727","","<div style=""width:500px;"">
  <p>What determined the result of this run?</p>
  </div>","100","html-slider-response","19","778316","0.0-7.0-1.1","140","1","2025-08-06 08:53:30","36c45c0696341be0efffe67d72a12abb","154.159.252.40","Mozilla/5.0 (Windows NT 10.0; Win64; x64) AppleWebKit/537.36 (KHTML, like Gecko) Chrome/138.0.0.0 Safari/537.36","WebKit","Chrome","138.0.0.0","Windows","10.0","https://app.prolific.com/","en-US,en;q=0.9","664c9a37d570871d534dd3c2","687a1a965b9f5b85a264363e","689317569e6897122e69a4b8","1","664c9a37d570871d534dd3c2","1","2025-08-06T09:06:31.383Z","","","","AttribQ","","","","","","","","","","","50","","","","","","","","","","","","","","","","","","","","","","","","","","",""
"5422","","<div style=""width:500px;"">
  <p>How much control did you have over the ball?</p>
  </div>","100","html-slider-response","20","783746","0.0-7.0-2.1","140","1","2025-08-06 08:53:30","36c45c0696341be0efffe67d72a12abb","154.159.252.40","Mozilla/5.0 (Windows NT 10.0; Win64; x64) AppleWebKit/537.36 (KHTML, like Gecko) Chrome/138.0.0.0 Safari/537.36","WebKit","Chrome","138.0.0.0","Windows","10.0","https://app.prolific.com/","en-US,en;q=0.9","664c9a37d570871d534dd3c2","687a1a965b9f5b85a264363e","689317569e6897122e69a4b8","1","664c9a37d570871d534dd3c2","1","2025-08-06T09:06:36.813Z","","","","ControlQ","","","","","","","","","","","50","","","","","","","","","","","","","","","","","","","","","","","","","","",""
"6203","","<div style=""width:500px;"">
  <p>How would you describe your current emotional state?</p>
  </div>","0","html-slider-response","21","789953","0.0-7.0-3.1","140","1","2025-08-06 08:53:30","36c45c0696341be0efffe67d72a12abb","154.159.252.40","Mozilla/5.0 (Windows NT 10.0; Win64; x64) AppleWebKit/537.36 (KHTML, like Gecko) Chrome/138.0.0.0 Safari/537.36","WebKit","Chrome","138.0.0.0","Windows","10.0","https://app.prolific.com/","en-US,en;q=0.9","664c9a37d570871d534dd3c2","687a1a965b9f5b85a264363e","689317569e6897122e69a4b8","1","664c9a37d570871d534dd3c2","1","2025-08-06T09:06:43.020Z","","","","StressQ","","","","","","","","","","","50","","","","","","","","","","","","","","","","","","","","","","","","","","",""
"5412","","<div style=""width:500px;"">
  <p>What best describes how you currently feel?</p>
  </div>","100","html-slider-response","22","795370","0.0-7.0-4.1","140","1","2025-08-06 08:53:30","36c45c0696341be0efffe67d72a12abb","154.159.252.40","Mozilla/5.0 (Windows NT 10.0; Win64; x64) AppleWebKit/537.36 (KHTML, like Gecko) Chrome/138.0.0.0 Safari/537.36","WebKit","Chrome","138.0.0.0","Windows","10.0","https://app.prolific.com/","en-US,en;q=0.9","664c9a37d570871d534dd3c2","687a1a965b9f5b85a264363e","689317569e6897122e69a4b8","1","664c9a37d570871d534dd3c2","1","2025-08-06T09:06:48.437Z","","","","MotivationQ","","","","","","","","","","","50","","","","","","","","","","","","","","","","","","","","","","","","","","",""
"","","","","ctl-task-cpt","23","829707","0.0-7.0-0.2","140","1","2025-08-06 08:53:30","36c45c0696341be0efffe67d72a12abb","154.159.252.40","Mozilla/5.0 (Windows NT 10.0; Win64; x64) AppleWebKit/537.36 (KHTML, like Gecko) Chrome/138.0.0.0 Safari/537.36","WebKit","Chrome","138.0.0.0","Windows","10.0","https://app.prolific.com/","en-US,en;q=0.9","664c9a37d570871d534dd3c2","687a1a965b9f5b85a264363e","689317569e6897122e69a4b8","1","664c9a37d570871d534dd3c2","1","2025-08-06T09:07:22.775Z","","","","","","","","","","","","","","","","win-only","2","g1:SE,g2:NW","0.8","3","0","800285.2","1981.4","6987.9","31319.3","1","4","4","6","2","4","4","15","11","0.11363636363636363","2570.2","3000","1140","[""left"",""up""]","{""num_key_presses"":6,""num_perfect"":5,""num_errors"":0,""num_randdir"":1,""num_randdir_good_moves"":1,""num_whilered"":0,""num_whileblue"":0,""num_blue"":2,""num_good_moves"":6}","[288.22232142857143,298.12857142857143,0.9,288.22232142857143,298.12857142857143,104.3,288.22232142857143,298.12857142857143,207.3,288.22232142857143,298.12857142857143,312.3,288.22232142857143,298.12857142857143,416.2,288.22232142857143,298.12857142857143,520.6,288.22232142857143,298.12857142857143,622.5,288.22232142857143,298.12857142857143,729.6,288.22232142857143,298.12857142857143,833.8,288.22232142857143,298.12857142857143,936.5,288.22232142857143,298.12857142857143,1044.3,288.22232142857143,298.12857142857143,1145.3,288.22232142857143,298.12857142857143,1249.5,288.22232142857143,298.12857142857143,1350.7,288.22232142857143,298.12857142857143,1457.8,288.22232142857143,298.12857142857143,1562.3,172.22232142857143,147.12857142857143,1665.1,144.22232142857143,114.12857142857143,1766.4,144.22232142857143,114.12857142857143,1868.5,144.22232142857143,114.12857142857143,1969.8,111.22232142857143,97.12857142857143,2074.1,83.22232142857143,82.12857142857143,2178,51.222321428571426,66.12857142857143,2286.6,37.222321428571426,60.128571428571426,2387.9,37.222321428571426,60.128571428571426,2495.1,37.222321428571426,60.128571428571426,2605.1,37.222321428571426,60.128571428571426,2706.4,37.222321428571426,60.128571428571426,2814.8,37.222321428571426,60.128571428571426,2915.5,37.222321428571426,60.128571428571426,3021.9,37.222321428571426,60.128571428571426,3129.4,37.222321428571426,60.128571428571426,3229.5,37.222321428571426,60.128571428571426,3333,37.222321428571426,60.128571428571426,3433.2,37.222321428571426,60.128571428571426,3537.2,37.222321428571426,60.128571428571426,3649.1,37.222321428571426,60.128571428571426,3753.1,37.222321428571426,60.128571428571426,3856.1,37.222321428571426,60.128571428571426,3961.1,37.222321428571426,60.128571428571426,4063.4,37.222321428571426,60.128571428571426,4166,37.222321428571426,60.128571428571426,4266.5,37.222321428571426,60.128571428571426,4368.5,37.222321428571426,60.128571428571426,4472.6,37.222321428571426,60.128571428571426,4585.5,37.222321428571426,60.128571428571426,4690.5,37.222321428571426,60.128571428571426,4791,37.222321428571426,60.128571428571426,4891.9,37.222321428571426,60.128571428571426,4994.8]","[1602.8,1602.8,1000,0,602.8,""smooth"",""left"",""left"",""good_move"",7448.7,5842.1,1944,5055.6,449.1,""smooth"",""left"",""left"",""good_move"",10397,2947.2,2517.7,7449.8,429.5,""smooth"",""up"",""up"",""good_move"",16698.6,6300.5,2661,13560.3,477.3,""smooth"",""up"",""up"",""good_move"",20444.5,3745.2,3248.8,16699.3,496.4,""smooth"",""up"",""up"",""good_move"",24217.8,3772.6,3326.3,20445.4,446.2,""oops"",""left"",""left"",""good_move""]"
"116618","","<div style=""width:500px;"">
  <p>What determined the result of this run?</p>
  </div>","100","html-slider-response","24","946328","0.0-7.0-1.2","140","1","2025-08-06 08:53:30","36c45c0696341be0efffe67d72a12abb","154.159.252.40","Mozilla/5.0 (Windows NT 10.0; Win64; x64) AppleWebKit/537.36 (KHTML, like Gecko) Chrome/138.0.0.0 Safari/537.36","WebKit","Chrome","138.0.0.0","Windows","10.0","https://app.prolific.com/","en-US,en;q=0.9","664c9a37d570871d534dd3c2","687a1a965b9f5b85a264363e","689317569e6897122e69a4b8","1","664c9a37d570871d534dd3c2","1","2025-08-06T09:09:19.396Z","","","","AttribQ","","","","","","","","","","","50","","","","","","","","","","","","","","","","","","","","","","","","","","",""
"3515","","<div style=""width:500px;"">
  <p>How much control did you have over the ball?</p>
  </div>","98","html-slider-response","25","949848","0.0-7.0-2.2","140","1","2025-08-06 08:53:30","36c45c0696341be0efffe67d72a12abb","154.159.252.40","Mozilla/5.0 (Windows NT 10.0; Win64; x64) AppleWebKit/537.36 (KHTML, like Gecko) Chrome/138.0.0.0 Safari/537.36","WebKit","Chrome","138.0.0.0","Windows","10.0","https://app.prolific.com/","en-US,en;q=0.9","664c9a37d570871d534dd3c2","687a1a965b9f5b85a264363e","689317569e6897122e69a4b8","1","664c9a37d570871d534dd3c2","1","2025-08-06T09:09:22.916Z","","","","ControlQ","","","","","","","","","","","50","","","","","","","","","","","","","","","","","","","","","","","","","","",""
"4444","","<div style=""width:500px;"">
  <p>How would you describe your current emotional state?</p>
  </div>","0","html-slider-response","26","954297","0.0-7.0-3.2","140","1","2025-08-06 08:53:30","36c45c0696341be0efffe67d72a12abb","154.159.252.40","Mozilla/5.0 (Windows NT 10.0; Win64; x64) AppleWebKit/537.36 (KHTML, like Gecko) Chrome/138.0.0.0 Safari/537.36","WebKit","Chrome","138.0.0.0","Windows","10.0","https://app.prolific.com/","en-US,en;q=0.9","664c9a37d570871d534dd3c2","687a1a965b9f5b85a264363e","689317569e6897122e69a4b8","1","664c9a37d570871d534dd3c2","1","2025-08-06T09:09:27.365Z","","","","StressQ","","","","","","","","","","","50","","","","","","","","","","","","","","","","","","","","","","","","","","",""
"3995","","<div style=""width:500px;"">
  <p>What best describes how you currently feel?</p>
  </div>","99","html-slider-response","27","958300","0.0-7.0-4.2","140","1","2025-08-06 08:53:30","36c45c0696341be0efffe67d72a12abb","154.159.252.40","Mozilla/5.0 (Windows NT 10.0; Win64; x64) AppleWebKit/537.36 (KHTML, like Gecko) Chrome/138.0.0.0 Safari/537.36","WebKit","Chrome","138.0.0.0","Windows","10.0","https://app.prolific.com/","en-US,en;q=0.9","664c9a37d570871d534dd3c2","687a1a965b9f5b85a264363e","689317569e6897122e69a4b8","1","664c9a37d570871d534dd3c2","1","2025-08-06T09:09:31.367Z","","","","MotivationQ","","","","","","","","","","","50","","","","","","","","","","","","","","","","","","","","","","","","","","",""
"","","","","ctl-task-cpt","28","1004845","0.0-7.0-0.3","140","1","2025-08-06 08:53:30","36c45c0696341be0efffe67d72a12abb","154.159.252.40","Mozilla/5.0 (Windows NT 10.0; Win64; x64) AppleWebKit/537.36 (KHTML, like Gecko) Chrome/138.0.0.0 Safari/537.36","WebKit","Chrome","138.0.0.0","Windows","10.0","https://app.prolific.com/","en-US,en;q=0.9","664c9a37d570871d534dd3c2","687a1a965b9f5b85a264363e","689317569e6897122e69a4b8","1","664c9a37d570871d534dd3c2","1","2025-08-06T09:10:17.912Z","","","","","","","","","","","","","","","","win-only","1","g1:NE,g2:SW","0.7","4","0","963216.5","2715.3","7719.4","43528.7","1","4","8","6","2","8","7","22","15","0.16666666666666666","2030.4","3000","40","[""down"",""left""]","{""num_key_presses"":10,""num_perfect"":6,""num_errors"":1,""num_randdir"":3,""num_randdir_good_moves"":1,""num_whilered"":0,""num_whileblue"":1,""num_blue"":3,""num_good_moves"":8}","[290.22232142857143,301.12857142857143,0.6,290.22232142857143,301.12857142857143,104.4,290.22232142857143,301.12857142857143,211.2,290.22232142857143,301.12857142857143,325.7,290.22232142857143,301.12857142857143,427.7,290.22232142857143,301.12857142857143,530.6,290.22232142857143,301.12857142857143,634.5,290.22232142857143,301.12857142857143,741.2,290.22232142857143,301.12857142857143,851.6,290.22232142857143,301.12857142857143,953.2,205.22232142857143,396.12857142857143,1056.1,126.22232142857143,500.12857142857143,1159.1,108.22232142857143,530.1285714285714,1261.4,90.22232142857143,553.1285714285714,1363.1,58.222321428571426,575.1285714285714,1465.3,35.222321428571426,581.1285714285714,1568.5,30.222321428571426,581.1285714285714,1671.7,30.222321428571426,576.1285714285714,1781.1,30.222321428571426,573.1285714285714,1885.8,30.222321428571426,573.1285714285714,1986.6,30.222321428571426,573.1285714285714,2091.3,30.222321428571426,573.1285714285714,2191.8,30.222321428571426,573.1285714285714,2295.7,30.222321428571426,573.1285714285714,2396.1,30.222321428571426,573.1285714285714,2498.3,30.222321428571426,573.1285714285714,2607.9,30.222321428571426,573.1285714285714,2713.9,30.222321428571426,573.1285714285714,2815.3,30.222321428571426,573.1285714285714,2921.6,30.222321428571426,573.1285714285714,3025.1,30.222321428571426,573.1285714285714,3125.8,30.222321428571426,573.1285714285714,3230.8,30.222321428571426,573.1285714285714,3336,30.222321428571426,573.1285714285714,3440.3,30.222321428571426,573.1285714285714,3554.1,30.222321428571426,573.1285714285714,3655.7,30.222321428571426,573.1285714285714,3759.1,30.222321428571426,573.1285714285714,3861,30.222321428571426,573.1285714285714,3961.1,30.222321428571426,573.1285714285714,4068.2,30.222321428571426,573.1285714285714,4175.6,30.222321428571426,573.1285714285714,4279.9,30.222321428571426,573.1285714285714,4383.9,30.222321428571426,573.1285714285714,4484.2,30.222321428571426,573.1285714285714,4587.3,30.222321428571426,573.1285714285714,4696,30.222321428571426,573.1285714285714,4797.3,30.222321428571426,573.1285714285714,4905.5]","[1490.3,1490.3,1000,0,490.3,""smooth"",""left"",""left"",""good_move"",4885.2,3393.7,2912.2,1491.5,481.5,""oops"",""left"",""left"",""good_move"",8287.8,3402.1,2893.1,4885.7,509,""smooth"",""left"",""left"",""good_move"",14966.3,6676,2916.7,11522.2,527.4,""smooth"",""down"",""down"",""good_move"",17312.8,2345.8,1787.1,14967,558.7,""smooth"",""down"",""down"",""good_move"",20630.7,3316.5,2830.8,17314.3,485.7,""oops"",""down"",""up"",""bad_move"",26634.2,6002.7,1762.4,24305.3,566.5,""oops"",""down"",""up"",""bad_move"",29607.4,2972.2,2446.3,26635.3,525.8,""smooth"",""down"",""down"",""good_move"",32488,2880.4,2528.4,29607.6,352,""while_blue"",""down"",""down"",""good_move"",35664.1,3175.2,2770.5,32489,404.6,""smooth"",""down"",""down"",""good_move""]"
"5601","","<div style=""width:500px;"">
  <p>What determined the result of this run?</p>
  </div>","100","html-slider-response","29","1010449","0.0-7.0-1.3","140","1","2025-08-06 08:53:30","36c45c0696341be0efffe67d72a12abb","154.159.252.40","Mozilla/5.0 (Windows NT 10.0; Win64; x64) AppleWebKit/537.36 (KHTML, like Gecko) Chrome/138.0.0.0 Safari/537.36","WebKit","Chrome","138.0.0.0","Windows","10.0","https://app.prolific.com/","en-US,en;q=0.9","664c9a37d570871d534dd3c2","687a1a965b9f5b85a264363e","689317569e6897122e69a4b8","1","664c9a37d570871d534dd3c2","1","2025-08-06T09:10:23.516Z","","","","AttribQ","","","","","","","","","","","50","","","","","","","","","","","","","","","","","","","","","","","","","","",""
"3413","","<div style=""width:500px;"">
  <p>How much control did you have over the ball?</p>
  </div>","100","html-slider-response","30","1013866","0.0-7.0-2.3","140","1","2025-08-06 08:53:30","36c45c0696341be0efffe67d72a12abb","154.159.252.40","Mozilla/5.0 (Windows NT 10.0; Win64; x64) AppleWebKit/537.36 (KHTML, like Gecko) Chrome/138.0.0.0 Safari/537.36","WebKit","Chrome","138.0.0.0","Windows","10.0","https://app.prolific.com/","en-US,en;q=0.9","664c9a37d570871d534dd3c2","687a1a965b9f5b85a264363e","689317569e6897122e69a4b8","1","664c9a37d570871d534dd3c2","1","2025-08-06T09:10:26.933Z","","","","ControlQ","","","","","","","","","","","50","","","","","","","","","","","","","","","","","","","","","","","","","","",""
"4645","","<div style=""width:500px;"">
  <p>How would you describe your current emotional state?</p>
  </div>","2","html-slider-response","31","1018514","0.0-7.0-3.3","140","1","2025-08-06 08:53:30","36c45c0696341be0efffe67d72a12abb","154.159.252.40","Mozilla/5.0 (Windows NT 10.0; Win64; x64) AppleWebKit/537.36 (KHTML, like Gecko) Chrome/138.0.0.0 Safari/537.36","WebKit","Chrome","138.0.0.0","Windows","10.0","https://app.prolific.com/","en-US,en;q=0.9","664c9a37d570871d534dd3c2","687a1a965b9f5b85a264363e","689317569e6897122e69a4b8","1","664c9a37d570871d534dd3c2","1","2025-08-06T09:10:31.582Z","","","","StressQ","","","","","","","","","","","50","","","","","","","","","","","","","","","","","","","","","","","","","","",""
"3897","","<div style=""width:500px;"">
  <p>What best describes how you currently feel?</p>
  </div>","100","html-slider-response","32","1022415","0.0-7.0-4.3","140","1","2025-08-06 08:53:30","36c45c0696341be0efffe67d72a12abb","154.159.252.40","Mozilla/5.0 (Windows NT 10.0; Win64; x64) AppleWebKit/537.36 (KHTML, like Gecko) Chrome/138.0.0.0 Safari/537.36","WebKit","Chrome","138.0.0.0","Windows","10.0","https://app.prolific.com/","en-US,en;q=0.9","664c9a37d570871d534dd3c2","687a1a965b9f5b85a264363e","689317569e6897122e69a4b8","1","664c9a37d570871d534dd3c2","1","2025-08-06T09:10:35.482Z","","","","MotivationQ","","","","","","","","","","","50","","","","","","","","","","","","","","","","","","","","","","","","","","",""
"","","","","ctl-task-cpt","33","1072655","0.0-7.0-0.4","140","1","2025-08-06 08:53:30","36c45c0696341be0efffe67d72a12abb","154.159.252.40","Mozilla/5.0 (Windows NT 10.0; Win64; x64) AppleWebKit/537.36 (KHTML, like Gecko) Chrome/138.0.0.0 Safari/537.36","WebKit","Chrome","138.0.0.0","Windows","10.0","https://app.prolific.com/","en-US,en;q=0.9","664c9a37d570871d534dd3c2","687a1a965b9f5b85a264363e","689317569e6897122e69a4b8","1","664c9a37d570871d534dd3c2","1","2025-08-06T09:11:25.722Z","","","","","","","","","","","","","","","","win-only","2","g1:SE,g2:NW","0.6","5","0","1027330.9","1601.2","6603.2","47218.1","1","4","4","6","2","-4","-4","18","22","0.13636363636363635","2103.4","3000","-2055","[""left"",""up""]","{""num_key_presses"":9,""num_perfect"":5,""num_errors"":0,""num_randdir"":4,""num_randdir_good_moves"":1,""num_whilered"":0,""num_whileblue"":0,""num_blue"":3,""num_good_moves"":6}","[296.22232142857143,294.12857142857143,0.5,296.22232142857143,294.12857142857143,105.5,296.22232142857143,294.12857142857143,206.3,296.22232142857143,294.12857142857143,315.7,296.22232142857143,294.12857142857143,416.3,296.22232142857143,294.12857142857143,520.9,296.22232142857143,294.12857142857143,627.5,296.22232142857143,294.12857142857143,731.5,296.22232142857143,294.12857142857143,833.4,296.22232142857143,294.12857142857143,938.8,283.22232142857143,288.12857142857143,1041.9,206.22232142857143,230.12857142857143,1146,167.22232142857143,171.12857142857143,1252.2,167.22232142857143,171.12857142857143,1362.4,167.22232142857143,171.12857142857143,1472.3,167.22232142857143,171.12857142857143,1583.4,66.22232142857143,92.12857142857143,1690.1,45.222321428571426,74.12857142857143,1792.4,43.222321428571426,70.12857142857143,1895.7,43.222321428571426,70.12857142857143,1996.9,43.222321428571426,70.12857142857143,2101.2,43.222321428571426,70.12857142857143,2217.5,43.222321428571426,70.12857142857143,2330.9,43.222321428571426,70.12857142857143,2433.4,43.222321428571426,70.12857142857143,2541.6,43.222321428571426,70.12857142857143,2648.4,43.222321428571426,70.12857142857143,2750.8,43.222321428571426,70.12857142857143,2852.5,43.222321428571426,70.12857142857143,2956.2,43.222321428571426,70.12857142857143,3059.6,43.222321428571426,70.12857142857143,3159.7,43.222321428571426,70.12857142857143,3268,43.222321428571426,70.12857142857143,3370.6,43.222321428571426,70.12857142857143,3481.1,43.222321428571426,70.12857142857143,3581.8,43.222321428571426,70.12857142857143,3682.3,43.222321428571426,70.12857142857143,3787.3,43.222321428571426,70.12857142857143,3890.8,43.222321428571426,70.12857142857143,3992.3,43.222321428571426,70.12857142857143,4096.5,43.222321428571426,70.12857142857143,4200.4,43.222321428571426,70.12857142857143,4300.6,43.222321428571426,70.12857142857143,4402.4,43.222321428571426,70.12857142857143,4511.9,43.222321428571426,70.12857142857143,4619.5,43.222321428571426,70.12857142857143,4721.2,43.222321428571426,70.12857142857143,4825.2,43.222321428571426,70.12857142857143,4932.7]","[1466.8,1466.8,1000,0,466.8,""smooth"",""up"",""up"",""good_move"",5248.9,3781.1,3306,1467.8,475.1,""smooth"",""up"",""up"",""good_move"",8447.3,3197.9,2793.2,5249.4,404.7,""oops"",""up"",""left"",""good_move"",11034.6,2586.7,2126.7,8447.9,460,""smooth"",""up"",""up"",""good_move"",18564.9,7529.2,3166.3,14965.3,433.3,""oops"",""left"",""right"",""bad_move"",24544.6,5979.1,1951.3,22130.3,463.1,""oops"",""left"",""right"",""bad_move"",27969.4,3424.4,2633,24545,791.4,""smooth"",""left"",""left"",""good_move"",31353.8,3383.4,2888,27970.4,495.4,""smooth"",""left"",""left"",""good_move"",34304.6,2949.9,2532,31354.7,417.9,""oops"",""left"",""right"",""bad_move""]"
"7679","","<div style=""width:500px;"">
  <p>What determined the result of this run?</p>
  </div>","0","html-slider-response","34","1080337","0.0-7.0-1.4","140","1","2025-08-06 08:53:30","36c45c0696341be0efffe67d72a12abb","154.159.252.40","Mozilla/5.0 (Windows NT 10.0; Win64; x64) AppleWebKit/537.36 (KHTML, like Gecko) Chrome/138.0.0.0 Safari/537.36","WebKit","Chrome","138.0.0.0","Windows","10.0","https://app.prolific.com/","en-US,en;q=0.9","664c9a37d570871d534dd3c2","687a1a965b9f5b85a264363e","689317569e6897122e69a4b8","1","664c9a37d570871d534dd3c2","1","2025-08-06T09:11:33.405Z","","","","AttribQ","","","","","","","","","","","50","","","","","","","","","","","","","","","","","","","","","","","","","","",""
"6467","","<div style=""width:500px;"">
  <p>How much control did you have over the ball?</p>
  </div>","0","html-slider-response","35","1086810","0.0-7.0-2.4","140","1","2025-08-06 08:53:30","36c45c0696341be0efffe67d72a12abb","154.159.252.40","Mozilla/5.0 (Windows NT 10.0; Win64; x64) AppleWebKit/537.36 (KHTML, like Gecko) Chrome/138.0.0.0 Safari/537.36","WebKit","Chrome","138.0.0.0","Windows","10.0","https://app.prolific.com/","en-US,en;q=0.9","664c9a37d570871d534dd3c2","687a1a965b9f5b85a264363e","689317569e6897122e69a4b8","1","664c9a37d570871d534dd3c2","1","2025-08-06T09:11:39.877Z","","","","ControlQ","","","","","","","","","","","50","","","","","","","","","","","","","","","","","","","","","","","","","","",""
"3910","","<div style=""width:500px;"">
  <p>How would you describe your current emotional state?</p>
  </div>","100","html-slider-response","36","1090728","0.0-7.0-3.4","140","1","2025-08-06 08:53:30","36c45c0696341be0efffe67d72a12abb","154.159.252.40","Mozilla/5.0 (Windows NT 10.0; Win64; x64) AppleWebKit/537.36 (KHTML, like Gecko) Chrome/138.0.0.0 Safari/537.36","WebKit","Chrome","138.0.0.0","Windows","10.0","https://app.prolific.com/","en-US,en;q=0.9","664c9a37d570871d534dd3c2","687a1a965b9f5b85a264363e","689317569e6897122e69a4b8","1","664c9a37d570871d534dd3c2","1","2025-08-06T09:11:43.795Z","","","","StressQ","","","","","","","","","","","50","","","","","","","","","","","","","","","","","","","","","","","","","","",""
"3547","","<div style=""width:500px;"">
  <p>What best describes how you currently feel?</p>
  </div>","45","html-slider-response","37","1094278","0.0-7.0-4.4","140","1","2025-08-06 08:53:30","36c45c0696341be0efffe67d72a12abb","154.159.252.40","Mozilla/5.0 (Windows NT 10.0; Win64; x64) AppleWebKit/537.36 (KHTML, like Gecko) Chrome/138.0.0.0 Safari/537.36","WebKit","Chrome","138.0.0.0","Windows","10.0","https://app.prolific.com/","en-US,en;q=0.9","664c9a37d570871d534dd3c2","687a1a965b9f5b85a264363e","689317569e6897122e69a4b8","1","664c9a37d570871d534dd3c2","1","2025-08-06T09:11:47.345Z","","","","MotivationQ","","","","","","","","","","","50","","","","","","","","","","","","","","","","","","","","","","","","","","",""
"","","","","ctl-task-cpt","38","1139100","0.0-7.0-0.5","140","1","2025-08-06 08:53:30","36c45c0696341be0efffe67d72a12abb","154.159.252.40","Mozilla/5.0 (Windows NT 10.0; Win64; x64) AppleWebKit/537.36 (KHTML, like Gecko) Chrome/138.0.0.0 Safari/537.36","WebKit","Chrome","138.0.0.0","Windows","10.0","https://app.prolific.com/","en-US,en;q=0.9","664c9a37d570871d534dd3c2","687a1a965b9f5b85a264363e","689317569e6897122e69a4b8","1","664c9a37d570871d534dd3c2","1","2025-08-06T09:12:32.167Z","","","","","","","","","","","","","","","","win-only","3","g1:SW,g2:NE","0.5","6","0","1099188.3","1527","6539.8","41801","1","4","8","6","2","-8","-8","10","18","0.07575757575757576","2145.4","3000","-1930","[""up"",""right""]","{""num_key_presses"":9,""num_perfect"":5,""num_errors"":0,""num_randdir"":4,""num_randdir_good_moves"":1,""num_whilered"":0,""num_whileblue"":0,""num_blue"":2,""num_good_moves"":6}","[296.22232142857143,291.12857142857143,1.2,296.22232142857143,291.12857142857143,105.4,296.22232142857143,291.12857142857143,213.3,296.22232142857143,291.12857142857143,314.1,296.22232142857143,291.12857142857143,416.6,296.22232142857143,291.12857142857143,519.9,296.22232142857143,291.12857142857143,626.1,296.22232142857143,291.12857142857143,733.5,296.22232142857143,291.12857142857143,845.1,296.22232142857143,291.12857142857143,961.5,296.22232142857143,291.12857142857143,1063.5,338.22232142857143,244.12857142857143,1169.7,413.22232142857143,150.12857142857143,1277.6,439.22232142857143,133.12857142857143,1383.3,439.22232142857143,133.12857142857143,1483.6,439.22232142857143,133.12857142857143,1583.7,439.22232142857143,133.12857142857143,1692.9,516.2223214285714,58.128571428571426,1795.9,531.2223214285714,47.128571428571426,1899.7,532.2223214285714,46.128571428571426,2005.7,532.2223214285714,46.128571428571426,2108.7,532.2223214285714,46.128571428571426,2211.9,532.2223214285714,46.128571428571426,2313.5,532.2223214285714,46.128571428571426,2414.8,532.2223214285714,46.128571428571426,2524.9,532.2223214285714,46.128571428571426,2629.3,532.2223214285714,46.128571428571426,2729.8,532.2223214285714,46.128571428571426,2832,532.2223214285714,46.128571428571426,2936.8,532.2223214285714,46.128571428571426,3042,532.2223214285714,46.128571428571426,3143.9,532.2223214285714,46.128571428571426,3249.9,532.2223214285714,46.128571428571426,3353.9,532.2223214285714,46.128571428571426,3460.5,532.2223214285714,46.128571428571426,3562.4,532.2223214285714,46.128571428571426,3672.1,532.2223214285714,46.128571428571426,3783.3,532.2223214285714,46.128571428571426,3891.9,532.2223214285714,46.128571428571426,3996,532.2223214285714,46.128571428571426,4106.9,532.2223214285714,46.128571428571426,4210.4,532.2223214285714,46.128571428571426,4314.8,532.2223214285714,46.128571428571426,4417.8,532.2223214285714,46.128571428571426,4522.5,532.2223214285714,46.128571428571426,4627.1,532.2223214285714,46.128571428571426,4733.6,532.2223214285714,46.128571428571426,4838.8,532.2223214285714,46.128571428571426,4948]","[1451.7,1451.7,1000,0,451.7,""oops"",""up"",""down"",""bad_move"",4379.9,2927.4,2488.9,1452.6,438.4,""oops"",""up"",""right"",""good_move"",7316.5,2935.3,2482.8,4381.2,452.5,""smooth"",""up"",""up"",""good_move"",10900.6,3582.8,3167.4,7317.8,415.4,""smooth"",""up"",""up"",""good_move"",18009.9,7108.8,3064.4,14411.7,533.8,""oops"",""right"",""down"",""bad_move"",20732.6,2721.7,1629.6,18010.9,1092.2,""smooth"",""up"",""up"",""good_move"",23402.7,2669.6,2213,20733.1,456.7,""smooth"",""up"",""up"",""good_move"",26358.8,2955.3,2511,23403.5,444.3,""smooth"",""up"",""up"",""good_move"",32836.4,6476.8,2908.5,29529.2,398.7,""oops"",""right"",""down"",""bad_move""]"
"6046","","<div style=""width:500px;"">
  <p>What determined the result of this run?</p>
  </div>","1","html-slider-response","39","1145148","0.0-7.0-1.5","140","1","2025-08-06 08:53:30","36c45c0696341be0efffe67d72a12abb","154.159.252.40","Mozilla/5.0 (Windows NT 10.0; Win64; x64) AppleWebKit/537.36 (KHTML, like Gecko) Chrome/138.0.0.0 Safari/537.36","WebKit","Chrome","138.0.0.0","Windows","10.0","https://app.prolific.com/","en-US,en;q=0.9","664c9a37d570871d534dd3c2","687a1a965b9f5b85a264363e","689317569e6897122e69a4b8","1","664c9a37d570871d534dd3c2","1","2025-08-06T09:12:38.215Z","","","","AttribQ","","","","","","","","","","","50","","","","","","","","","","","","","","","","","","","","","","","","","","",""
"4559","","<div style=""width:500px;"">
  <p>How much control did you have over the ball?</p>
  </div>","1","html-slider-response","40","1149711","0.0-7.0-2.5","140","1","2025-08-06 08:53:30","36c45c0696341be0efffe67d72a12abb","154.159.252.40","Mozilla/5.0 (Windows NT 10.0; Win64; x64) AppleWebKit/537.36 (KHTML, like Gecko) Chrome/138.0.0.0 Safari/537.36","WebKit","Chrome","138.0.0.0","Windows","10.0","https://app.prolific.com/","en-US,en;q=0.9","664c9a37d570871d534dd3c2","687a1a965b9f5b85a264363e","689317569e6897122e69a4b8","1","664c9a37d570871d534dd3c2","1","2025-08-06T09:12:42.778Z","","","","ControlQ","","","","","","","","","","","50","","","","","","","","","","","","","","","","","","","","","","","","","","",""
"4437","","<div style=""width:500px;"">
  <p>How would you describe your current emotional state?</p>
  </div>","4","html-slider-response","41","1154150","0.0-7.0-3.5","140","1","2025-08-06 08:53:30","36c45c0696341be0efffe67d72a12abb","154.159.252.40","Mozilla/5.0 (Windows NT 10.0; Win64; x64) AppleWebKit/537.36 (KHTML, like Gecko) Chrome/138.0.0.0 Safari/537.36","WebKit","Chrome","138.0.0.0","Windows","10.0","https://app.prolific.com/","en-US,en;q=0.9","664c9a37d570871d534dd3c2","687a1a965b9f5b85a264363e","689317569e6897122e69a4b8","1","664c9a37d570871d534dd3c2","1","2025-08-06T09:12:47.217Z","","","","StressQ","","","","","","","","","","","50","","","","","","","","","","","","","","","","","","","","","","","","","","",""
"4653","","<div style=""width:500px;"">
  <p>What best describes how you currently feel?</p>
  </div>","93","html-slider-response","42","1158807","0.0-7.0-4.5","140","1","2025-08-06 08:53:30","36c45c0696341be0efffe67d72a12abb","154.159.252.40","Mozilla/5.0 (Windows NT 10.0; Win64; x64) AppleWebKit/537.36 (KHTML, like Gecko) Chrome/138.0.0.0 Safari/537.36","WebKit","Chrome","138.0.0.0","Windows","10.0","https://app.prolific.com/","en-US,en;q=0.9","664c9a37d570871d534dd3c2","687a1a965b9f5b85a264363e","689317569e6897122e69a4b8","1","664c9a37d570871d534dd3c2","1","2025-08-06T09:12:51.874Z","","","","MotivationQ","","","","","","","","","","","50","","","","","","","","","","","","","","","","","","","","","","","","","","",""
"","","","","ctl-task-cpt","43","1213021","0.0-7.0-0.6","140","1","2025-08-06 08:53:30","36c45c0696341be0efffe67d72a12abb","154.159.252.40","Mozilla/5.0 (Windows NT 10.0; Win64; x64) AppleWebKit/537.36 (KHTML, like Gecko) Chrome/138.0.0.0 Safari/537.36","WebKit","Chrome","138.0.0.0","Windows","10.0","https://app.prolific.com/","en-US,en;q=0.9","664c9a37d570871d534dd3c2","687a1a965b9f5b85a264363e","689317569e6897122e69a4b8","1","664c9a37d570871d534dd3c2","1","2025-08-06T09:13:46.089Z","","","","","","","","","","","","","","","","win-only","1","g1:NE,g2:SW","0.4","7","0","1163717.9","1491","6492.5","51186.4","1","4","4","6","2","-4","-6","4","10","0.030303030303030304","2249.7","3000","-2095","[""down"",""left""]","{""num_key_presses"":12,""num_perfect"":4,""num_errors"":2,""num_randdir"":6,""num_randdir_good_moves"":3,""num_whilered"":0,""num_whileblue"":2,""num_blue"":3,""num_good_moves"":8}","[293.22232142857143,292.12857142857143,0.2,293.22232142857143,292.12857142857143,102.9,293.22232142857143,292.12857142857143,217.5,293.22232142857143,292.12857142857143,322.2,293.22232142857143,292.12857142857143,439.5,293.22232142857143,292.12857142857143,547,293.22232142857143,292.12857142857143,647.1,293.22232142857143,292.12857142857143,752,293.22232142857143,292.12857142857143,852,293.22232142857143,292.12857142857143,960.1,293.22232142857143,292.12857142857143,1062.3,224.22232142857143,333.12857142857143,1165.4,131.22232142857143,398.12857142857143,1267.3,82.22232142857143,461.12857142857143,1369.6,65.22232142857143,477.12857142857143,1473.1,44.222321428571426,493.12857142857143,1574.7,41.222321428571426,494.12857142857143,1675.1,41.222321428571426,496.12857142857143,1775.2,43.222321428571426,508.12857142857143,1882.4,47.222321428571426,521.1285714285714,1990.4,47.222321428571426,521.1285714285714,2095.2,47.222321428571426,521.1285714285714,2196.3,47.222321428571426,521.1285714285714,2297.5,47.222321428571426,521.1285714285714,2400.3,47.222321428571426,521.1285714285714,2501.2,47.222321428571426,521.1285714285714,2607.4,47.222321428571426,521.1285714285714,2713.8,47.222321428571426,521.1285714285714,2814.8,47.222321428571426,521.1285714285714,2918.4,47.222321428571426,521.1285714285714,3025.6,47.222321428571426,521.1285714285714,3129,47.222321428571426,521.1285714285714,3240.4,47.222321428571426,521.1285714285714,3357.4,47.222321428571426,521.1285714285714,3461.2,47.222321428571426,521.1285714285714,3563.7,47.222321428571426,521.1285714285714,3670.5,47.222321428571426,521.1285714285714,3770.8,47.222321428571426,521.1285714285714,3873.5,47.222321428571426,521.1285714285714,3977.2,47.222321428571426,521.1285714285714,4078.1,47.222321428571426,521.1285714285714,4189.5,47.222321428571426,521.1285714285714,4295.6,47.222321428571426,521.1285714285714,4395.7,47.222321428571426,521.1285714285714,4496.2,47.222321428571426,521.1285714285714,4605,47.222321428571426,521.1285714285714,4715.4,47.222321428571426,521.1285714285714,4821.6,47.222321428571426,521.1285714285714,4922.5]","[4773.1,4773.1,2168.9,2006.5,597.7,""smooth"",""down"",""down"",""good_move"",7946.1,3171.8,2721.5,4774.3,450.3,""oops"",""down"",""right"",""bad_move"",11063.7,3116.8,2721.4,7946.9,395.4,""oops"",""down"",""left"",""good_move"",14269.4,3205,2829.4,11064.4,375.6,""while_blue"",""down"",""left"",""good_move"",17813.1,3543.2,3046.1,14269.9,497.1,""smooth"",""down"",""down"",""good_move"",21570.4,3756.3,3354,17814.1,402.3,""smooth"",""down"",""down"",""good_move"",25239,3668.2,3275.7,21570.8,392.5,""while_blue"",""left"",""right"",""bad_move"",28947,3707.1,3139.9,25239.9,567.2,""smooth"",""left"",""left"",""good_move"",31872.5,2924.7,2523.8,28947.8,400.9,""oops"",""left"",""left"",""good_move"",34723.8,2850.8,2409.5,31873,441.3,""oops"",""left"",""right"",""bad_move"",37914.8,3188.9,2763.1,34725.9,425.8,""oops"",""left"",""left"",""good_move"",41388.3,3472.3,3012.1,37916,460.2,""oops"",""left"",""up"",""bad_move""]"
"6382","","<div style=""width:500px;"">
  <p>What determined the result of this run?</p>
  </div>","8","html-slider-response","44","1219407","0.0-7.0-1.6","140","1","2025-08-06 08:53:30","36c45c0696341be0efffe67d72a12abb","154.159.252.40","Mozilla/5.0 (Windows NT 10.0; Win64; x64) AppleWebKit/537.36 (KHTML, like Gecko) Chrome/138.0.0.0 Safari/537.36","WebKit","Chrome","138.0.0.0","Windows","10.0","https://app.prolific.com/","en-US,en;q=0.9","664c9a37d570871d534dd3c2","687a1a965b9f5b85a264363e","689317569e6897122e69a4b8","1","664c9a37d570871d534dd3c2","1","2025-08-06T09:13:52.475Z","","","","AttribQ","","","","","","","","","","","50","","","","","","","","","","","","","","","","","","","","","","","","","","",""
"2869","","<div style=""width:500px;"">
  <p>How much control did you have over the ball?</p>
  </div>","1","html-slider-response","45","1222283","0.0-7.0-2.6","140","1","2025-08-06 08:53:30","36c45c0696341be0efffe67d72a12abb","154.159.252.40","Mozilla/5.0 (Windows NT 10.0; Win64; x64) AppleWebKit/537.36 (KHTML, like Gecko) Chrome/138.0.0.0 Safari/537.36","WebKit","Chrome","138.0.0.0","Windows","10.0","https://app.prolific.com/","en-US,en;q=0.9","664c9a37d570871d534dd3c2","687a1a965b9f5b85a264363e","689317569e6897122e69a4b8","1","664c9a37d570871d534dd3c2","1","2025-08-06T09:13:55.351Z","","","","ControlQ","","","","","","","","","","","50","","","","","","","","","","","","","","","","","","","","","","","","","","",""
"4146","","<div style=""width:500px;"">
  <p>How would you describe your current emotional state?</p>
  </div>","48","html-slider-response","46","1226433","0.0-7.0-3.6","140","1","2025-08-06 08:53:30","36c45c0696341be0efffe67d72a12abb","154.159.252.40","Mozilla/5.0 (Windows NT 10.0; Win64; x64) AppleWebKit/537.36 (KHTML, like Gecko) Chrome/138.0.0.0 Safari/537.36","WebKit","Chrome","138.0.0.0","Windows","10.0","https://app.prolific.com/","en-US,en;q=0.9","664c9a37d570871d534dd3c2","687a1a965b9f5b85a264363e","689317569e6897122e69a4b8","1","664c9a37d570871d534dd3c2","1","2025-08-06T09:13:59.501Z","","","","StressQ","","","","","","","","","","","50","","","","","","","","","","","","","","","","","","","","","","","","","","",""
"5315","","<div style=""width:500px;"">
  <p>What best describes how you currently feel?</p>
  </div>","95","html-slider-response","47","1231753","0.0-7.0-4.6","140","1","2025-08-06 08:53:30","36c45c0696341be0efffe67d72a12abb","154.159.252.40","Mozilla/5.0 (Windows NT 10.0; Win64; x64) AppleWebKit/537.36 (KHTML, like Gecko) Chrome/138.0.0.0 Safari/537.36","WebKit","Chrome","138.0.0.0","Windows","10.0","https://app.prolific.com/","en-US,en;q=0.9","664c9a37d570871d534dd3c2","687a1a965b9f5b85a264363e","689317569e6897122e69a4b8","1","664c9a37d570871d534dd3c2","1","2025-08-06T09:14:04.820Z","","","","MotivationQ","","","","","","","","","","","50","","","","","","","","","","","","","","","","","","","","","","","","","","",""
"","","","","ctl-task-cpt","48","1293857","0.0-7.0-0.7","140","1","2025-08-06 08:53:30","36c45c0696341be0efffe67d72a12abb","154.159.252.40","Mozilla/5.0 (Windows NT 10.0; Win64; x64) AppleWebKit/537.36 (KHTML, like Gecko) Chrome/138.0.0.0 Safari/537.36","WebKit","Chrome","138.0.0.0","Windows","10.0","https://app.prolific.com/","en-US,en;q=0.9","664c9a37d570871d534dd3c2","687a1a965b9f5b85a264363e","689317569e6897122e69a4b8","1","664c9a37d570871d534dd3c2","1","2025-08-06T09:15:06.924Z","","","","","","","","","","","","","","","","win-only","3","g1:SW,g2:NE","0.3","8","0","1236665.2","4353.9","9363.8","59091.7","1","4","8","6","1","-1","-2","2","4","0.015151515151515152","1800","3000","-2055","[""down"",""left""]","{""num_key_presses"":10,""num_perfect"":3,""num_errors"":1,""num_randdir"":6,""num_randdir_good_moves"":2,""num_whilered"":0,""num_whileblue"":1,""num_blue"":6,""num_good_moves"":6}","[298.22232142857143,296.12857142857143,0.3,298.22232142857143,296.12857142857143,111.6,298.22232142857143,296.12857142857143,212.9,298.22232142857143,296.12857142857143,328.2,298.22232142857143,296.12857142857143,435.1,298.22232142857143,296.12857142857143,541.9,298.22232142857143,296.12857142857143,643.5,295.22232142857143,297.12857142857143,752.2,295.22232142857143,297.12857142857143,852.2,295.22232142857143,297.12857142857143,956.3,234.22232142857143,353.12857142857143,1058.2,137.22232142857143,468.12857142857143,1163.6,92.22232142857143,521.1285714285714,1271.4,69.22232142857143,551.1285714285714,1372.7,57.222321428571426,559.1285714285714,1482.2,57.222321428571426,559.1285714285714,1592.3,57.222321428571426,559.1285714285714,1703.2,57.222321428571426,559.1285714285714,1803.4,57.222321428571426,559.1285714285714,1920.3,57.222321428571426,559.1285714285714,2023.8,57.222321428571426,559.1285714285714,2134.4,57.222321428571426,559.1285714285714,2235.2,57.222321428571426,559.1285714285714,2337.4,57.222321428571426,559.1285714285714,2444.3,57.222321428571426,559.1285714285714,2556.6,57.222321428571426,559.1285714285714,2663.6,57.222321428571426,559.1285714285714,2766.8,57.222321428571426,559.1285714285714,2874.2,57.222321428571426,559.1285714285714,2976.9,57.222321428571426,559.1285714285714,3087.4,57.222321428571426,559.1285714285714,3194.2,57.222321428571426,559.1285714285714,3298.7,57.222321428571426,559.1285714285714,3414.1,57.222321428571426,559.1285714285714,3518.7,57.222321428571426,559.1285714285714,3619.2,57.222321428571426,559.1285714285714,3730.3,57.222321428571426,559.1285714285714,3833.6,57.222321428571426,559.1285714285714,3939.3,57.222321428571426,559.1285714285714,4043.3,57.222321428571426,559.1285714285714,4152.5,57.222321428571426,559.1285714285714,4258.8,57.222321428571426,559.1285714285714,4371,57.222321428571426,559.1285714285714,4480.3,57.222321428571426,559.1285714285714,4582.2,57.222321428571426,559.1285714285714,4685.1,57.222321428571426,559.1285714285714,4788.3,57.222321428571426,559.1285714285714,4895.5,57.222321428571426,559.1285714285714,4998.2]","[1442.5,1442.5,1000,0,442.5,""smooth"",""down"",""down"",""good_move"",7480,6036.7,2152.4,4849,478.6,""oops"",""down"",""right"",""bad_move"",11467.8,3987.2,2975.9,7480.6,1011.3,""oops"",""down"",""up"",""bad_move"",14140.1,2671.1,2209.9,11469,461.2,""oops"",""down"",""up"",""bad_move"",18131.4,3991,3552.4,14140.5,438.6,""while_blue"",""down"",""left"",""good_move"",20747.9,2615.1,2130.1,18132.8,485,""oops"",""down"",""down"",""good_move"",30969.6,10220.7,2041.3,28423.3,505,""oops"",""down"",""down"",""good_move"",41185.1,10215.3,2749.7,38014.1,421.4,""smooth"",""down"",""down"",""good_move"",44128.4,2943,2473.9,41185.4,469.1,""oops"",""left"",""up"",""bad_move"",46709.8,2580.7,2121,44129.2,459.6,""smooth"",""left"",""left"",""good_move""]"
"3544","","<div style=""width:500px;"">
  <p>What determined the result of this run?</p>
  </div>","91","html-slider-response","49","1297403","0.0-7.0-1.7","140","1","2025-08-06 08:53:30","36c45c0696341be0efffe67d72a12abb","154.159.252.40","Mozilla/5.0 (Windows NT 10.0; Win64; x64) AppleWebKit/537.36 (KHTML, like Gecko) Chrome/138.0.0.0 Safari/537.36","WebKit","Chrome","138.0.0.0","Windows","10.0","https://app.prolific.com/","en-US,en;q=0.9","664c9a37d570871d534dd3c2","687a1a965b9f5b85a264363e","689317569e6897122e69a4b8","1","664c9a37d570871d534dd3c2","1","2025-08-06T09:15:10.470Z","","","","AttribQ","","","","","","","","","","","50","","","","","","","","","","","","","","","","","","","","","","","","","","",""
"4678","","<div style=""width:500px;"">
  <p>How much control did you have over the ball?</p>
  </div>","91","html-slider-response","50","1302084","0.0-7.0-2.7","140","1","2025-08-06 08:53:30","36c45c0696341be0efffe67d72a12abb","154.159.252.40","Mozilla/5.0 (Windows NT 10.0; Win64; x64) AppleWebKit/537.36 (KHTML, like Gecko) Chrome/138.0.0.0 Safari/537.36","WebKit","Chrome","138.0.0.0","Windows","10.0","https://app.prolific.com/","en-US,en;q=0.9","664c9a37d570871d534dd3c2","687a1a965b9f5b85a264363e","689317569e6897122e69a4b8","1","664c9a37d570871d534dd3c2","1","2025-08-06T09:15:15.152Z","","","","ControlQ","","","","","","","","","","","50","","","","","","","","","","","","","","","","","","","","","","","","","","",""
"3685","","<div style=""width:500px;"">
  <p>How would you describe your current emotional state?</p>
  </div>","4","html-slider-response","51","1305772","0.0-7.0-3.7","140","1","2025-08-06 08:53:30","36c45c0696341be0efffe67d72a12abb","154.159.252.40","Mozilla/5.0 (Windows NT 10.0; Win64; x64) AppleWebKit/537.36 (KHTML, like Gecko) Chrome/138.0.0.0 Safari/537.36","WebKit","Chrome","138.0.0.0","Windows","10.0","https://app.prolific.com/","en-US,en;q=0.9","664c9a37d570871d534dd3c2","687a1a965b9f5b85a264363e","689317569e6897122e69a4b8","1","664c9a37d570871d534dd3c2","1","2025-08-06T09:15:18.839Z","","","","StressQ","","","","","","","","","","","50","","","","","","","","","","","","","","","","","","","","","","","","","","",""
"4061","","<div style=""width:500px;"">
  <p>What best describes how you currently feel?</p>
  </div>","50","html-slider-response","52","1309836","0.0-7.0-4.7","140","1","2025-08-06 08:53:30","36c45c0696341be0efffe67d72a12abb","154.159.252.40","Mozilla/5.0 (Windows NT 10.0; Win64; x64) AppleWebKit/537.36 (KHTML, like Gecko) Chrome/138.0.0.0 Safari/537.36","WebKit","Chrome","138.0.0.0","Windows","10.0","https://app.prolific.com/","en-US,en;q=0.9","664c9a37d570871d534dd3c2","687a1a965b9f5b85a264363e","689317569e6897122e69a4b8","1","664c9a37d570871d534dd3c2","1","2025-08-06T09:15:22.903Z","","","","MotivationQ","","","","","","","","","","","50","","","","","","","","","","","","","","","","","","","","","","","","","","",""
"","","","","ctl-task-cpt","53","1340825","0.0-7.0-0.8","140","1","2025-08-06 08:53:30","36c45c0696341be0efffe67d72a12abb","154.159.252.40","Mozilla/5.0 (Windows NT 10.0; Win64; x64) AppleWebKit/537.36 (KHTML, like Gecko) Chrome/138.0.0.0 Safari/537.36","WebKit","Chrome","138.0.0.0","Windows","10.0","https://app.prolific.com/","en-US,en;q=0.9","664c9a37d570871d534dd3c2","687a1a965b9f5b85a264363e","689317569e6897122e69a4b8","1","664c9a37d570871d534dd3c2","1","2025-08-06T09:15:53.892Z","","","","","","","","","","","","","","","","win-only","1","g1:NE,g2:SW","0.4","9","0","1314747.7","1485.8","6496.9","27960.2","1","4","4","6","2","4","4","6","2","0.045454545454545456","1707.8","3000","630","[""down"",""left""]","{""num_key_presses"":8,""num_perfect"":4,""num_errors"":0,""num_randdir"":4,""num_randdir_good_moves"":3,""num_whilered"":0,""num_whileblue"":0,""num_blue"":0,""num_good_moves"":7}","[295.22232142857143,297.12857142857143,0.3,295.22232142857143,297.12857142857143,105.9,295.22232142857143,297.12857142857143,208.5,295.22232142857143,297.12857142857143,321.9,295.22232142857143,297.12857142857143,425.8,295.22232142857143,297.12857142857143,540.3,295.22232142857143,297.12857142857143,641,300.22232142857143,294.12857142857143,742.3,308.22232142857143,293.12857142857143,846.2,269.22232142857143,322.12857142857143,949.1,135.22232142857143,463.12857142857143,1051.5,83.22232142857143,543.1285714285714,1155.1,73.22232142857143,554.1285714285714,1256.6,56.222321428571426,571.1285714285714,1357.8,48.222321428571426,574.1285714285714,1465.4,48.222321428571426,574.1285714285714,1571.4,48.222321428571426,574.1285714285714,1673.7,48.222321428571426,574.1285714285714,1775.7,48.222321428571426,574.1285714285714,1887.4,48.222321428571426,574.1285714285714,2007.1,48.222321428571426,574.1285714285714,2113.3,48.222321428571426,574.1285714285714,2214.7,48.222321428571426,574.1285714285714,2318.3,48.222321428571426,574.1285714285714,2421,48.222321428571426,574.1285714285714,2524.4,48.222321428571426,574.1285714285714,2626.8,48.222321428571426,574.1285714285714,2731.7,48.222321428571426,574.1285714285714,2836,48.222321428571426,574.1285714285714,2943.8,48.222321428571426,574.1285714285714,3045.8,48.222321428571426,574.1285714285714,3152,48.222321428571426,574.1285714285714,3254,48.222321428571426,574.1285714285714,3356.9,48.222321428571426,574.1285714285714,3457.1,48.222321428571426,574.1285714285714,3566.2,48.222321428571426,574.1285714285714,3666.8,48.222321428571426,574.1285714285714,3772.4,48.222321428571426,574.1285714285714,3878.1,48.222321428571426,574.1285714285714,3985,48.222321428571426,574.1285714285714,4088.1,48.222321428571426,574.1285714285714,4191.6,48.222321428571426,574.1285714285714,4296.7,48.222321428571426,574.1285714285714,4401.5,48.222321428571426,574.1285714285714,4504.6,48.222321428571426,574.1285714285714,4607.6,48.222321428571426,574.1285714285714,4713.4,48.222321428571426,574.1285714285714,4823.5,48.222321428571426,574.1285714285714,4926.6]","[1535.6,1535.6,1000,0,535.6,""smooth"",""left"",""left"",""good_move"",4346.3,2809.4,2342.4,1536.9,467,""oops"",""left"",""up"",""bad_move"",7553.3,3205.8,2668.3,4347.5,537.5,""oops"",""left"",""down"",""good_move"",10303.8,2749.6,2267.9,7554.2,481.7,""smooth"",""left"",""left"",""good_move"",12419.2,2115.1,1663.9,10304.1,451.2,""oops"",""left"",""left"",""good_move"",15537.4,3117.2,2761.2,12420.2,356,""smooth"",""down"",""down"",""good_move"",18611.9,3074,2686.2,15537.9,387.8,""smooth"",""down"",""down"",""good_move"",21294.8,2682.3,2220.5,18612.5,461.8,""oops"",""down"",""down"",""good_move""]"
"3767","","<div style=""width:500px;"">
  <p>What determined the result of this run?</p>
  </div>","99","html-slider-response","54","1344594","0.0-7.0-1.8","140","1","2025-08-06 08:53:30","36c45c0696341be0efffe67d72a12abb","154.159.252.40","Mozilla/5.0 (Windows NT 10.0; Win64; x64) AppleWebKit/537.36 (KHTML, like Gecko) Chrome/138.0.0.0 Safari/537.36","WebKit","Chrome","138.0.0.0","Windows","10.0","https://app.prolific.com/","en-US,en;q=0.9","664c9a37d570871d534dd3c2","687a1a965b9f5b85a264363e","689317569e6897122e69a4b8","1","664c9a37d570871d534dd3c2","1","2025-08-06T09:15:57.661Z","","","","AttribQ","","","","","","","","","","","50","","","","","","","","","","","","","","","","","","","","","","","","","","",""
"3185","","<div style=""width:500px;"">
  <p>How much control did you have over the ball?</p>
  </div>","99","html-slider-response","55","1347782","0.0-7.0-2.8","140","1","2025-08-06 08:53:30","36c45c0696341be0efffe67d72a12abb","154.159.252.40","Mozilla/5.0 (Windows NT 10.0; Win64; x64) AppleWebKit/537.36 (KHTML, like Gecko) Chrome/138.0.0.0 Safari/537.36","WebKit","Chrome","138.0.0.0","Windows","10.0","https://app.prolific.com/","en-US,en;q=0.9","664c9a37d570871d534dd3c2","687a1a965b9f5b85a264363e","689317569e6897122e69a4b8","1","664c9a37d570871d534dd3c2","1","2025-08-06T09:16:00.849Z","","","","ControlQ","","","","","","","","","","","50","","","","","","","","","","","","","","","","","","","","","","","","","","",""
"5875","","<div style=""width:500px;"">
  <p>How would you describe your current emotional state?</p>
  </div>","3","html-slider-response","56","1353660","0.0-7.0-3.8","140","1","2025-08-06 08:53:30","36c45c0696341be0efffe67d72a12abb","154.159.252.40","Mozilla/5.0 (Windows NT 10.0; Win64; x64) AppleWebKit/537.36 (KHTML, like Gecko) Chrome/138.0.0.0 Safari/537.36","WebKit","Chrome","138.0.0.0","Windows","10.0","https://app.prolific.com/","en-US,en;q=0.9","664c9a37d570871d534dd3c2","687a1a965b9f5b85a264363e","689317569e6897122e69a4b8","1","664c9a37d570871d534dd3c2","1","2025-08-06T09:16:06.727Z","","","","StressQ","","","","","","","","","","","50","","","","","","","","","","","","","","","","","","","","","","","","","","",""
"3998","","<div style=""width:500px;"">
  <p>What best describes how you currently feel?</p>
  </div>","99","html-slider-response","57","1357662","0.0-7.0-4.8","140","1","2025-08-06 08:53:30","36c45c0696341be0efffe67d72a12abb","154.159.252.40","Mozilla/5.0 (Windows NT 10.0; Win64; x64) AppleWebKit/537.36 (KHTML, like Gecko) Chrome/138.0.0.0 Safari/537.36","WebKit","Chrome","138.0.0.0","Windows","10.0","https://app.prolific.com/","en-US,en;q=0.9","664c9a37d570871d534dd3c2","687a1a965b9f5b85a264363e","689317569e6897122e69a4b8","1","664c9a37d570871d534dd3c2","1","2025-08-06T09:16:10.729Z","","","","MotivationQ","","","","","","","","","","","50","","","","","","","","","","","","","","","","","","","","","","","","","","",""
"","","","","ctl-task-cpt","58","1415344","0.0-7.0-0.9","140","1","2025-08-06 08:53:30","36c45c0696341be0efffe67d72a12abb","154.159.252.40","Mozilla/5.0 (Windows NT 10.0; Win64; x64) AppleWebKit/537.36 (KHTML, like Gecko) Chrome/138.0.0.0 Safari/537.36","WebKit","Chrome","138.0.0.0","Windows","10.0","https://app.prolific.com/","en-US,en;q=0.9","664c9a37d570871d534dd3c2","687a1a965b9f5b85a264363e","689317569e6897122e69a4b8","1","664c9a37d570871d534dd3c2","1","2025-08-06T09:17:08.411Z","","","","","","","","","","","","","","","","win-only","2","g1:SE,g2:NW","0.5","10","0","1362573.6","1272.8","6281.3","54652.3","1","4","8","6","2","8","8","14","6","0.10606060606060606","2205.2","3000","20","[""left"",""up""]","{""num_key_presses"":12,""num_perfect"":6,""num_errors"":0,""num_randdir"":6,""num_randdir_good_moves"":3,""num_whilered"":0,""num_whileblue"":0,""num_blue"":4,""num_good_moves"":9}","[301.22232142857143,292.12857142857143,0.2,301.22232142857143,292.12857142857143,119.7,301.22232142857143,292.12857142857143,233.8,301.22232142857143,292.12857142857143,342.1,301.22232142857143,292.12857142857143,449.5,301.22232142857143,292.12857142857143,555.1,301.22232142857143,292.12857142857143,658,301.22232142857143,292.12857142857143,762.7,301.22232142857143,292.12857142857143,874.3,235.22232142857143,234.12857142857143,974.8,182.22232142857143,182.12857142857143,1077.8,182.22232142857143,182.12857142857143,1179.7,182.22232142857143,182.12857142857143,1283.7,182.22232142857143,182.12857142857143,1385.2,130.22232142857143,150.12857142857143,1490.1,103.22232142857143,138.12857142857143,1595.1,84.22232142857143,126.12857142857143,1701.5,72.22232142857143,88.12857142857143,1803.4,58.222321428571426,67.12857142857143,1912.2,58.222321428571426,67.12857142857143,2015.6,58.222321428571426,67.12857142857143,2116.7,58.222321428571426,67.12857142857143,2228.7,58.222321428571426,67.12857142857143,2337,58.222321428571426,67.12857142857143,2442.6,58.222321428571426,67.12857142857143,2546.6,58.222321428571426,67.12857142857143,2652.5,58.222321428571426,67.12857142857143,2765.2,58.222321428571426,67.12857142857143,2865.7,58.222321428571426,67.12857142857143,2972.9,58.222321428571426,67.12857142857143,3074.5,58.222321428571426,67.12857142857143,3179,58.222321428571426,67.12857142857143,3286.5,58.222321428571426,67.12857142857143,3396.3,58.222321428571426,67.12857142857143,3497.1,58.222321428571426,67.12857142857143,3600.4,58.222321428571426,67.12857142857143,3707.1,58.222321428571426,67.12857142857143,3811,58.222321428571426,67.12857142857143,3914.6,58.222321428571426,67.12857142857143,4026.9,58.222321428571426,67.12857142857143,4128.8,58.222321428571426,67.12857142857143,4242,58.222321428571426,67.12857142857143,4348.6,58.222321428571426,67.12857142857143,4450.1,58.222321428571426,67.12857142857143,4559.9,58.222321428571426,67.12857142857143,4664.2,58.222321428571426,67.12857142857143,4765.9,58.222321428571426,67.12857142857143,4868,58.222321428571426,67.12857142857143,4970]","[1445.2,1445.2,1000,0,445.2,""oops"",""up"",""up"",""good_move"",4894,3448,3021,1446.1,427,""smooth"",""up"",""up"",""good_move"",7940.8,3046.3,2561.7,4894.5,484.6,""smooth"",""up"",""up"",""good_move"",10311,2369.3,1963.1,7941.7,406.2,""smooth"",""left"",""left"",""good_move"",13087.1,2775.4,2316.6,10311.7,458.8,""oops"",""left"",""right"",""bad_move"",16109.2,3021.5,2550.2,13087.7,471.3,""smooth"",""left"",""left"",""good_move"",18685,2575.3,2207,16109.7,368.3,""oops"",""left"",""right"",""bad_move"",22080.1,3394.7,3007.7,18685.5,387,""smooth"",""left"",""left"",""good_move"",29367.4,7286.5,3463.4,25469.7,434.3,""oops"",""left"",""down"",""bad_move"",35724.3,6356.3,2153.2,33129.2,441.9,""oops"",""left"",""left"",""good_move"",41836.2,6111.6,2426.1,38977,433.1,""oops"",""left"",""up"",""good_move"",48224.8,6387.8,3019.3,44790.3,415.2,""smooth"",""left"",""left"",""good_move""]"
"4873","","<div style=""width:500px;"">
  <p>What determined the result of this run?</p>
  </div>","99","html-slider-response","59","1420221","0.0-7.0-1.9","140","1","2025-08-06 08:53:30","36c45c0696341be0efffe67d72a12abb","154.159.252.40","Mozilla/5.0 (Windows NT 10.0; Win64; x64) AppleWebKit/537.36 (KHTML, like Gecko) Chrome/138.0.0.0 Safari/537.36","WebKit","Chrome","138.0.0.0","Windows","10.0","https://app.prolific.com/","en-US,en;q=0.9","664c9a37d570871d534dd3c2","687a1a965b9f5b85a264363e","689317569e6897122e69a4b8","1","664c9a37d570871d534dd3c2","1","2025-08-06T09:17:13.288Z","","","","AttribQ","","","","","","","","","","","50","","","","","","","","","","","","","","","","","","","","","","","","","","",""
"6475","","<div style=""width:500px;"">
  <p>How much control did you have over the ball?</p>
  </div>","100","html-slider-response","60","1426699","0.0-7.0-2.9","140","1","2025-08-06 08:53:30","36c45c0696341be0efffe67d72a12abb","154.159.252.40","Mozilla/5.0 (Windows NT 10.0; Win64; x64) AppleWebKit/537.36 (KHTML, like Gecko) Chrome/138.0.0.0 Safari/537.36","WebKit","Chrome","138.0.0.0","Windows","10.0","https://app.prolific.com/","en-US,en;q=0.9","664c9a37d570871d534dd3c2","687a1a965b9f5b85a264363e","689317569e6897122e69a4b8","1","664c9a37d570871d534dd3c2","1","2025-08-06T09:17:19.766Z","","","","ControlQ","","","","","","","","","","","50","","","","","","","","","","","","","","","","","","","","","","","","","","",""
"3379","","<div style=""width:500px;"">
  <p>How would you describe your current emotional state?</p>
  </div>","4","html-slider-response","61","1430083","0.0-7.0-3.9","140","1","2025-08-06 08:53:30","36c45c0696341be0efffe67d72a12abb","154.159.252.40","Mozilla/5.0 (Windows NT 10.0; Win64; x64) AppleWebKit/537.36 (KHTML, like Gecko) Chrome/138.0.0.0 Safari/537.36","WebKit","Chrome","138.0.0.0","Windows","10.0","https://app.prolific.com/","en-US,en;q=0.9","664c9a37d570871d534dd3c2","687a1a965b9f5b85a264363e","689317569e6897122e69a4b8","1","664c9a37d570871d534dd3c2","1","2025-08-06T09:17:23.150Z","","","","StressQ","","","","","","","","","","","50","","","","","","","","","","","","","","","","","","","","","","","","","","",""
"4090","","<div style=""width:500px;"">
  <p>What best describes how you currently feel?</p>
  </div>","100","html-slider-response","62","1434177","0.0-7.0-4.9","140","1","2025-08-06 08:53:30","36c45c0696341be0efffe67d72a12abb","154.159.252.40","Mozilla/5.0 (Windows NT 10.0; Win64; x64) AppleWebKit/537.36 (KHTML, like Gecko) Chrome/138.0.0.0 Safari/537.36","WebKit","Chrome","138.0.0.0","Windows","10.0","https://app.prolific.com/","en-US,en;q=0.9","664c9a37d570871d534dd3c2","687a1a965b9f5b85a264363e","689317569e6897122e69a4b8","1","664c9a37d570871d534dd3c2","1","2025-08-06T09:17:27.244Z","","","","MotivationQ","","","","","","","","","","","50","","","","","","","","","","","","","","","","","","","","","","","","","","",""
"","","","","ctl-task-cpt","63","1459156","0.0-7.0-0.10","140","1","2025-08-06 08:53:30","36c45c0696341be0efffe67d72a12abb","154.159.252.40","Mozilla/5.0 (Windows NT 10.0; Win64; x64) AppleWebKit/537.36 (KHTML, like Gecko) Chrome/138.0.0.0 Safari/537.36","WebKit","Chrome","138.0.0.0","Windows","10.0","https://app.prolific.com/","en-US,en;q=0.9","664c9a37d570871d534dd3c2","687a1a965b9f5b85a264363e","689317569e6897122e69a4b8","1","664c9a37d570871d534dd3c2","1","2025-08-06T09:17:52.223Z","","","","","","","","","","","","","","","","win-only","2","g1:SE,g2:NW","0.6","11","0","1439089.2","1642.8","6644.1","21944.5","1","4","8","6","2","8","8","22","14","0.16666666666666666","1639.6","3000","1605","[""left"",""up""]","{""num_key_presses"":6,""num_perfect"":4,""num_errors"":0,""num_randdir"":2,""num_randdir_good_moves"":2,""num_whilered"":0,""num_whileblue"":0,""num_blue"":0,""num_good_moves"":6}","[289.22232142857143,300.12857142857143,0.7,289.22232142857143,300.12857142857143,104.2,289.22232142857143,300.12857142857143,209.8,289.22232142857143,300.12857142857143,314.7,289.22232142857143,300.12857142857143,432.1,289.22232142857143,300.12857142857143,537.6,141.22232142857143,188.12857142857143,638.8,49.222321428571426,123.12857142857143,740.6,32.222321428571426,110.12857142857143,850,32.222321428571426,110.12857142857143,954,32.222321428571426,110.12857142857143,1066.5,32.222321428571426,110.12857142857143,1167.7,32.222321428571426,110.12857142857143,1270.4,35.222321428571426,96.12857142857143,1372.3,36.222321428571426,90.12857142857143,1475.9,36.222321428571426,90.12857142857143,1584,36.222321428571426,90.12857142857143,1689,36.222321428571426,90.12857142857143,1791.9,36.222321428571426,90.12857142857143,1892,36.222321428571426,90.12857142857143,2001.2,36.222321428571426,90.12857142857143,2120.5,36.222321428571426,90.12857142857143,2225.4,36.222321428571426,90.12857142857143,2335.3,36.222321428571426,90.12857142857143,2441.7,36.222321428571426,90.12857142857143,2542.1,36.222321428571426,90.12857142857143,2649.3,36.222321428571426,90.12857142857143,2767.6,36.222321428571426,90.12857142857143,2869.8,36.222321428571426,90.12857142857143,2979.2,36.222321428571426,90.12857142857143,3086.4,36.222321428571426,90.12857142857143,3193.5,36.222321428571426,90.12857142857143,3296.1,36.222321428571426,90.12857142857143,3399.8,36.222321428571426,90.12857142857143,3500.8,36.222321428571426,90.12857142857143,3603.7,36.222321428571426,90.12857142857143,3710,36.222321428571426,90.12857142857143,3813.7,36.222321428571426,90.12857142857143,3922.1,36.222321428571426,90.12857142857143,4035.9,36.222321428571426,90.12857142857143,4146.1,36.222321428571426,90.12857142857143,4251.9,36.222321428571426,90.12857142857143,4356.6,36.222321428571426,90.12857142857143,4461.2,36.222321428571426,90.12857142857143,4561.9,36.222321428571426,90.12857142857143,4663.4,36.222321428571426,90.12857142857143,4765.8,36.222321428571426,90.12857142857143,4871.2,36.222321428571426,90.12857142857143,4977.5]","[1656.8,1656.8,1000,0,656.8,""oops"",""up"",""left"",""good_move"",4274.1,2616.2,2108.6,1657.9,507.6,""smooth"",""left"",""left"",""good_move"",6873.5,2592.6,2148.5,4281,444,""oops"",""up"",""up"",""good_move"",9762.6,2888.6,2508.4,6874,380.2,""smooth"",""up"",""up"",""good_move"",12406.8,2643.8,2255.6,9763,388.2,""smooth"",""up"",""up"",""good_move"",15132.7,2724.4,2334.5,12408.3,389.9,""smooth"",""left"",""left"",""good_move""]"
"6403","","<div style=""width:500px;"">
  <p>What determined the result of this run?</p>
  </div>","100","html-slider-response","64","1465561","0.0-7.0-1.10","140","1","2025-08-06 08:53:30","36c45c0696341be0efffe67d72a12abb","154.159.252.40","Mozilla/5.0 (Windows NT 10.0; Win64; x64) AppleWebKit/537.36 (KHTML, like Gecko) Chrome/138.0.0.0 Safari/537.36","WebKit","Chrome","138.0.0.0","Windows","10.0","https://app.prolific.com/","en-US,en;q=0.9","664c9a37d570871d534dd3c2","687a1a965b9f5b85a264363e","689317569e6897122e69a4b8","1","664c9a37d570871d534dd3c2","1","2025-08-06T09:17:58.628Z","","","","AttribQ","","","","","","","","","","","50","","","","","","","","","","","","","","","","","","","","","","","","","","",""
"3089","","<div style=""width:500px;"">
  <p>How much control did you have over the ball?</p>
  </div>","98","html-slider-response","65","1468651","0.0-7.0-2.10","140","1","2025-08-06 08:53:30","36c45c0696341be0efffe67d72a12abb","154.159.252.40","Mozilla/5.0 (Windows NT 10.0; Win64; x64) AppleWebKit/537.36 (KHTML, like Gecko) Chrome/138.0.0.0 Safari/537.36","WebKit","Chrome","138.0.0.0","Windows","10.0","https://app.prolific.com/","en-US,en;q=0.9","664c9a37d570871d534dd3c2","687a1a965b9f5b85a264363e","689317569e6897122e69a4b8","1","664c9a37d570871d534dd3c2","1","2025-08-06T09:18:01.719Z","","","","ControlQ","","","","","","","","","","","50","","","","","","","","","","","","","","","","","","","","","","","","","","",""
"3442","","<div style=""width:500px;"">
  <p>How would you describe your current emotional state?</p>
  </div>","1","html-slider-response","66","1472096","0.0-7.0-3.10","140","1","2025-08-06 08:53:30","36c45c0696341be0efffe67d72a12abb","154.159.252.40","Mozilla/5.0 (Windows NT 10.0; Win64; x64) AppleWebKit/537.36 (KHTML, like Gecko) Chrome/138.0.0.0 Safari/537.36","WebKit","Chrome","138.0.0.0","Windows","10.0","https://app.prolific.com/","en-US,en;q=0.9","664c9a37d570871d534dd3c2","687a1a965b9f5b85a264363e","689317569e6897122e69a4b8","1","664c9a37d570871d534dd3c2","1","2025-08-06T09:18:05.163Z","","","","StressQ","","","","","","","","","","","50","","","","","","","","","","","","","","","","","","","","","","","","","","",""
"3894","","<div style=""width:500px;"">
  <p>What best describes how you currently feel?</p>
  </div>","98","html-slider-response","67","1475992","0.0-7.0-4.10","140","1","2025-08-06 08:53:30","36c45c0696341be0efffe67d72a12abb","154.159.252.40","Mozilla/5.0 (Windows NT 10.0; Win64; x64) AppleWebKit/537.36 (KHTML, like Gecko) Chrome/138.0.0.0 Safari/537.36","WebKit","Chrome","138.0.0.0","Windows","10.0","https://app.prolific.com/","en-US,en;q=0.9","664c9a37d570871d534dd3c2","687a1a965b9f5b85a264363e","689317569e6897122e69a4b8","1","664c9a37d570871d534dd3c2","1","2025-08-06T09:18:09.059Z","","","","MotivationQ","","","","","","","","","","","50","","","","","","","","","","","","","","","","","","","","","","","","","","",""
"","","","","ctl-task-cpt","68","1526127","0.0-7.0-0.11","140","1","2025-08-06 08:53:30","36c45c0696341be0efffe67d72a12abb","154.159.252.40","Mozilla/5.0 (Windows NT 10.0; Win64; x64) AppleWebKit/537.36 (KHTML, like Gecko) Chrome/138.0.0.0 Safari/537.36","WebKit","Chrome","138.0.0.0","Windows","10.0","https://app.prolific.com/","en-US,en;q=0.9","664c9a37d570871d534dd3c2","687a1a965b9f5b85a264363e","689317569e6897122e69a4b8","1","664c9a37d570871d534dd3c2","1","2025-08-06T09:18:59.195Z","","","","","","","","","","","","","","","","win-only","1","g1:NE,g2:SW","0.7","12","0","1480901.8","2055.7","7064.2","47108.9","1","4","4","6","2","4","4","26","22","0.19696969696969696","1361.2","3000","1095","[""down"",""left""]","{""num_key_presses"":8,""num_perfect"":6,""num_errors"":0,""num_randdir"":2,""num_randdir_good_moves"":1,""num_whilered"":0,""num_whileblue"":0,""num_blue"":5,""num_good_moves"":7}","[299.22232142857143,294.12857142857143,0.3,299.22232142857143,294.12857142857143,104.1,299.22232142857143,294.12857142857143,208.4,299.22232142857143,294.12857142857143,313.4,299.22232142857143,294.12857142857143,421.4,299.22232142857143,294.12857142857143,522.5,293.22232142857143,298.12857142857143,631.3,165.22232142857143,407.12857142857143,738.3,108.22232142857143,455.12857142857143,846.4,68.22232142857143,486.12857142857143,948.2,40.222321428571426,508.12857142857143,1050.3,36.222321428571426,509.12857142857143,1162.4,36.222321428571426,509.12857142857143,1267.9,36.222321428571426,509.12857142857143,1373.5,36.222321428571426,509.12857142857143,1474.3,36.222321428571426,509.12857142857143,1590.2,36.222321428571426,509.12857142857143,1699.6,36.222321428571426,509.12857142857143,1803.3,36.222321428571426,509.12857142857143,1915.6,36.222321428571426,509.12857142857143,2017,36.222321428571426,509.12857142857143,2123.4,36.222321428571426,509.12857142857143,2233,36.222321428571426,509.12857142857143,2333.1,36.222321428571426,509.12857142857143,2437.1,36.222321428571426,509.12857142857143,2540.9,36.222321428571426,509.12857142857143,2641.1,36.222321428571426,509.12857142857143,2746.5,36.222321428571426,509.12857142857143,2847.7,36.222321428571426,509.12857142857143,2949.2,36.222321428571426,509.12857142857143,3049.9,36.222321428571426,509.12857142857143,3158.1,36.222321428571426,509.12857142857143,3260.4,36.222321428571426,509.12857142857143,3370.2,36.222321428571426,509.12857142857143,3477.5,36.222321428571426,509.12857142857143,3581.8,36.222321428571426,509.12857142857143,3686.2,36.222321428571426,509.12857142857143,3790.8,36.222321428571426,509.12857142857143,3893.8,36.222321428571426,509.12857142857143,3997.3,36.222321428571426,509.12857142857143,4104.7,36.222321428571426,509.12857142857143,4209.8,36.222321428571426,509.12857142857143,4311.2,36.222321428571426,509.12857142857143,4415.4,36.222321428571426,509.12857142857143,4516.9,36.222321428571426,509.12857142857143,4617.5,36.222321428571426,509.12857142857143,4718.8,36.222321428571426,509.12857142857143,4824.8,36.222321428571426,509.12857142857143,4929.5]","[5117.3,5117.3,2663.4,2005.2,448.7,""oops"",""down"",""down"",""good_move"",7922.2,2804.2,2399.4,5118,404.8,""smooth"",""down"",""down"",""good_move"",11175.4,3252.9,2828.5,7922.5,424.4,""smooth"",""down"",""down"",""good_move"",16970,5794.4,2240.4,14246.4,483.2,""oops"",""left"",""right"",""bad_move"",23792.6,6821.7,2723.8,20572.2,496.6,""smooth"",""left"",""left"",""good_move"",27068.3,3275,2789.7,23793.3,485.3,""smooth"",""left"",""left"",""good_move"",30095.3,3026.8,2579.7,27068.6,447.1,""smooth"",""left"",""left"",""good_move"",39873.3,9776.6,2188.4,37161.6,523.4,""smooth"",""left"",""left"",""good_move""]"
"3699","","<div style=""width:500px;"">
  <p>What determined the result of this run?</p>
  </div>","100","html-slider-response","69","1529829","0.0-7.0-1.11","140","1","2025-08-06 08:53:30","36c45c0696341be0efffe67d72a12abb","154.159.252.40","Mozilla/5.0 (Windows NT 10.0; Win64; x64) AppleWebKit/537.36 (KHTML, like Gecko) Chrome/138.0.0.0 Safari/537.36","WebKit","Chrome","138.0.0.0","Windows","10.0","https://app.prolific.com/","en-US,en;q=0.9","664c9a37d570871d534dd3c2","687a1a965b9f5b85a264363e","689317569e6897122e69a4b8","1","664c9a37d570871d534dd3c2","1","2025-08-06T09:19:02.896Z","","","","AttribQ","","","","","","","","","","","50","","","","","","","","","","","","","","","","","","","","","","","","","","",""
"3615","","<div style=""width:500px;"">
  <p>How much control did you have over the ball?</p>
  </div>","100","html-slider-response","70","1533448","0.0-7.0-2.11","140","1","2025-08-06 08:53:30","36c45c0696341be0efffe67d72a12abb","154.159.252.40","Mozilla/5.0 (Windows NT 10.0; Win64; x64) AppleWebKit/537.36 (KHTML, like Gecko) Chrome/138.0.0.0 Safari/537.36","WebKit","Chrome","138.0.0.0","Windows","10.0","https://app.prolific.com/","en-US,en;q=0.9","664c9a37d570871d534dd3c2","687a1a965b9f5b85a264363e","689317569e6897122e69a4b8","1","664c9a37d570871d534dd3c2","1","2025-08-06T09:19:06.516Z","","","","ControlQ","","","","","","","","","","","50","","","","","","","","","","","","","","","","","","","","","","","","","","",""
"3769","","<div style=""width:500px;"">
  <p>How would you describe your current emotional state?</p>
  </div>","0","html-slider-response","71","1537220","0.0-7.0-3.11","140","1","2025-08-06 08:53:30","36c45c0696341be0efffe67d72a12abb","154.159.252.40","Mozilla/5.0 (Windows NT 10.0; Win64; x64) AppleWebKit/537.36 (KHTML, like Gecko) Chrome/138.0.0.0 Safari/537.36","WebKit","Chrome","138.0.0.0","Windows","10.0","https://app.prolific.com/","en-US,en;q=0.9","664c9a37d570871d534dd3c2","687a1a965b9f5b85a264363e","689317569e6897122e69a4b8","1","664c9a37d570871d534dd3c2","1","2025-08-06T09:19:10.287Z","","","","StressQ","","","","","","","","","","","50","","","","","","","","","","","","","","","","","","","","","","","","","","",""
"3926","","<div style=""width:500px;"">
  <p>What best describes how you currently feel?</p>
  </div>","99","html-slider-response","72","1541147","0.0-7.0-4.11","140","1","2025-08-06 08:53:30","36c45c0696341be0efffe67d72a12abb","154.159.252.40","Mozilla/5.0 (Windows NT 10.0; Win64; x64) AppleWebKit/537.36 (KHTML, like Gecko) Chrome/138.0.0.0 Safari/537.36","WebKit","Chrome","138.0.0.0","Windows","10.0","https://app.prolific.com/","en-US,en;q=0.9","664c9a37d570871d534dd3c2","687a1a965b9f5b85a264363e","689317569e6897122e69a4b8","1","664c9a37d570871d534dd3c2","1","2025-08-06T09:19:14.214Z","","","","MotivationQ","","","","","","","","","","","50","","","","","","","","","","","","","","","","","","","","","","","","","","",""
"","","","","ctl-task-cpt","73","1581342","0.0-7.0-0.12","140","1","2025-08-06 08:53:30","36c45c0696341be0efffe67d72a12abb","154.159.252.40","Mozilla/5.0 (Windows NT 10.0; Win64; x64) AppleWebKit/537.36 (KHTML, like Gecko) Chrome/138.0.0.0 Safari/537.36","WebKit","Chrome","138.0.0.0","Windows","10.0","https://app.prolific.com/","en-US,en;q=0.9","664c9a37d570871d534dd3c2","687a1a965b9f5b85a264363e","689317569e6897122e69a4b8","1","664c9a37d570871d534dd3c2","1","2025-08-06T09:19:54.410Z","","","","","","","","","","","","","","","","win-only","3","g1:SW,g2:NE","0.8","13","0","1546057.8","1416","6430.3","37166.1","1","4","4","6","2","4","4","30","26","0.22727272727272727","1953.3","3000","1675","[""up"",""right""]","{""num_key_presses"":6,""num_perfect"":6,""num_errors"":0,""num_randdir"":0,""num_randdir_good_moves"":0,""num_whilered"":0,""num_whileblue"":0,""num_blue"":4,""num_good_moves"":6}","[302.22232142857143,297.12857142857143,1.1,302.22232142857143,297.12857142857143,106.4,302.22232142857143,297.12857142857143,216,302.22232142857143,297.12857142857143,316.7,302.22232142857143,297.12857142857143,427.2,302.22232142857143,297.12857142857143,534.2,302.22232142857143,297.12857142857143,644.2,302.22232142857143,297.12857142857143,748.6,302.22232142857143,297.12857142857143,857.4,302.22232142857143,297.12857142857143,966.1,304.22232142857143,292.12857142857143,1074.1,356.22232142857143,219.12857142857143,1181.9,405.22232142857143,177.12857142857143,1295.9,471.22232142857143,110.12857142857143,1401.4,500.22232142857143,83.12857142857143,1526.1,532.2223214285714,77.12857142857143,1626.8,532.2223214285714,77.12857142857143,1734.5,532.2223214285714,77.12857142857143,1838.5,532.2223214285714,77.12857142857143,1938.6,532.2223214285714,77.12857142857143,2043.2,532.2223214285714,77.12857142857143,2150.3,532.2223214285714,77.12857142857143,2265.7,532.2223214285714,77.12857142857143,2369.8,532.2223214285714,77.12857142857143,2470,532.2223214285714,77.12857142857143,2575.7,532.2223214285714,77.12857142857143,2684.7,532.2223214285714,77.12857142857143,2789.3,532.2223214285714,77.12857142857143,2893.6,532.2223214285714,77.12857142857143,3001.1,532.2223214285714,77.12857142857143,3102.3,532.2223214285714,77.12857142857143,3203.2,532.2223214285714,77.12857142857143,3303.8,532.2223214285714,77.12857142857143,3416.1,532.2223214285714,77.12857142857143,3520.2,532.2223214285714,77.12857142857143,3621.7,532.2223214285714,77.12857142857143,3723.6,532.2223214285714,77.12857142857143,3824,532.2223214285714,77.12857142857143,3930.7,532.2223214285714,77.12857142857143,4032.9,532.2223214285714,77.12857142857143,4139.7,532.2223214285714,77.12857142857143,4245.9,532.2223214285714,77.12857142857143,4349.9,532.2223214285714,77.12857142857143,4454,532.2223214285714,77.12857142857143,4558.7,532.2223214285714,77.12857142857143,4664,532.2223214285714,77.12857142857143,4772.3,532.2223214285714,77.12857142857143,4877.7,532.2223214285714,77.12857142857143,4981.3]","[1417.2,1417.3,1000,0,417.3,""smooth"",""up"",""up"",""good_move"",11898.9,10480,2099.3,9271.5,528.1,""smooth"",""up"",""up"",""good_move"",14842.6,2943,2434.4,11899.6,508.6,""smooth"",""up"",""up"",""good_move"",18390.5,3547.1,3116.3,14843.4,430.8,""smooth"",""right"",""right"",""good_move"",21403.3,3012.3,2634.9,18391,377.4,""smooth"",""right"",""right"",""good_move"",30549.3,9145,2777.6,27315.7,456,""smooth"",""right"",""right"",""good_move""]"
"4307","","<div style=""width:500px;"">
  <p>What determined the result of this run?</p>
  </div>","100","html-slider-response","74","1585651","0.0-7.0-1.12","140","1","2025-08-06 08:53:30","36c45c0696341be0efffe67d72a12abb","154.159.252.40","Mozilla/5.0 (Windows NT 10.0; Win64; x64) AppleWebKit/537.36 (KHTML, like Gecko) Chrome/138.0.0.0 Safari/537.36","WebKit","Chrome","138.0.0.0","Windows","10.0","https://app.prolific.com/","en-US,en;q=0.9","664c9a37d570871d534dd3c2","687a1a965b9f5b85a264363e","689317569e6897122e69a4b8","1","664c9a37d570871d534dd3c2","1","2025-08-06T09:19:58.718Z","","","","AttribQ","","","","","","","","","","","50","","","","","","","","","","","","","","","","","","","","","","","","","","",""
"3807","","<div style=""width:500px;"">
  <p>How much control did you have over the ball?</p>
  </div>","100","html-slider-response","75","1589461","0.0-7.0-2.12","140","1","2025-08-06 08:53:30","36c45c0696341be0efffe67d72a12abb","154.159.252.40","Mozilla/5.0 (Windows NT 10.0; Win64; x64) AppleWebKit/537.36 (KHTML, like Gecko) Chrome/138.0.0.0 Safari/537.36","WebKit","Chrome","138.0.0.0","Windows","10.0","https://app.prolific.com/","en-US,en;q=0.9","664c9a37d570871d534dd3c2","687a1a965b9f5b85a264363e","689317569e6897122e69a4b8","1","664c9a37d570871d534dd3c2","1","2025-08-06T09:20:02.528Z","","","","ControlQ","","","","","","","","","","","50","","","","","","","","","","","","","","","","","","","","","","","","","","",""
"5196","","<div style=""width:500px;"">
  <p>How would you describe your current emotional state?</p>
  </div>","1","html-slider-response","76","1594660","0.0-7.0-3.12","140","1","2025-08-06 08:53:30","36c45c0696341be0efffe67d72a12abb","154.159.252.40","Mozilla/5.0 (Windows NT 10.0; Win64; x64) AppleWebKit/537.36 (KHTML, like Gecko) Chrome/138.0.0.0 Safari/537.36","WebKit","Chrome","138.0.0.0","Windows","10.0","https://app.prolific.com/","en-US,en;q=0.9","664c9a37d570871d534dd3c2","687a1a965b9f5b85a264363e","689317569e6897122e69a4b8","1","664c9a37d570871d534dd3c2","1","2025-08-06T09:20:07.727Z","","","","StressQ","","","","","","","","","","","50","","","","","","","","","","","","","","","","","","","","","","","","","","",""
"4269","","<div style=""width:500px;"">
  <p>What best describes how you currently feel?</p>
  </div>","99","html-slider-response","77","1598933","0.0-7.0-4.12","140","1","2025-08-06 08:53:30","36c45c0696341be0efffe67d72a12abb","154.159.252.40","Mozilla/5.0 (Windows NT 10.0; Win64; x64) AppleWebKit/537.36 (KHTML, like Gecko) Chrome/138.0.0.0 Safari/537.36","WebKit","Chrome","138.0.0.0","Windows","10.0","https://app.prolific.com/","en-US,en;q=0.9","664c9a37d570871d534dd3c2","687a1a965b9f5b85a264363e","689317569e6897122e69a4b8","1","664c9a37d570871d534dd3c2","1","2025-08-06T09:20:12.000Z","","","","MotivationQ","","","","","","","","","","","50","","","","","","","","","","","","","","","","","","","","","","","","","","",""
