"rt","response_timestamp","stimulus","response","trial_type","trial_index","time_elapsed","internal_node_id","run_id","condition","recorded_at","source_code_version","ip","user_agent","device","browser","browser_version","platform","platform_version","referer","accept_language","PROLIFIC_PID","STUDY_ID","SESSION_ID","BATCH","prolific_id","batch","realtime","success","question_order","question_id","eventType","responses","item_order","radio_event_ids","radio_event_times","key_event_times","mouse_event_times","straightlining","zigzagging","honeypot","view_history","slider_start","which_type","canvas_config","goals_layout","control_level","trial_number","tutorial_trial_number","trial_start_time","phase1_start_time","phase2_start_time","phase3_start_time","goal_1_value","goal_1_distance","goal_2_value","goal_2_distance","goal_selected","outcome","outcome_total","participant_final_score","participant_initial_score","participant_final_score_prop","goal_choice_rt","allocated_time","allocated_time_remaining","goal_direction","counts","mouse_movements","key_presses"
"2572","1753864697952","<p style='font-size:40px;line-height:1.25'><strong>Welcome to the experiment!</strong></p><p style='font-size:1.1em;line-height:1.25'>Thank you for participanting in our experiment again! You will be asked to play the Dysfunctional Ball Game again. We will briefly recap the rules before we start.</p><p style='font-size:1.1em;line-height:1.25'>Press <strong>Next</strong> to continue.</p>","0","custom-html-button-response","0","2577","0.0-0.0","9","1","2025-07-30 08:38:14","36c45c0696341be0efffe67d72a12abb","45.80.193.156","Mozilla/5.0 (Windows NT 10.0; Win64; x64) AppleWebKit/537.36 (KHTML, like Gecko) Chrome/138.0.0.0 Safari/537.36","WebKit","Chrome","138.0.0.0","Windows","10.0","https://app.prolific.com/","en-US,en;q=0.9,de;q=0.8","66565f702a8c21be63eb93ce","687a19d2168e237449fb8af4","6889d9f19c7fc6a8fabec33d","0","66565f702a8c21be63eb93ce","0","2025-07-30T08:38:17.956Z","","","","","","","","","","","","","","","","","","","","","","","","","","","","","","","","","","","","","","","","","",""
"14612","","","","fullscreen","1","18200","0.0-1.0","9","1","2025-07-30 08:38:14","36c45c0696341be0efffe67d72a12abb","45.80.193.156","Mozilla/5.0 (Windows NT 10.0; Win64; x64) AppleWebKit/537.36 (KHTML, like Gecko) Chrome/138.0.0.0 Safari/537.36","WebKit","Chrome","138.0.0.0","Windows","10.0","https://app.prolific.com/","en-US,en;q=0.9,de;q=0.8","66565f702a8c21be63eb93ce","687a19d2168e237449fb8af4","6889d9f19c7fc6a8fabec33d","0","66565f702a8c21be63eb93ce","0","","true","","","","","","","","","","","","","","","","","","","","","","","","","","","","","","","","","","","","","","","","",""
"11862","1753864725443"," <p style='font-size:1.1em;line-height:1.25'>Thank you for closing all other tabs.</p><p style='font-size:1.1em;line-height:1.25'>We will now invite you to fill in some questionnaires, before starting the game.<br>This will take about 5 minutes.<br></p><p style='font-size:1.1em;line-height:1.25'>Press the <strong>Next</strong> button to continue.</p>","0","custom-html-button-response","2","30066","0.0-2.0","9","1","2025-07-30 08:38:14","36c45c0696341be0efffe67d72a12abb","45.80.193.156","Mozilla/5.0 (Windows NT 10.0; Win64; x64) AppleWebKit/537.36 (KHTML, like Gecko) Chrome/138.0.0.0 Safari/537.36","WebKit","Chrome","138.0.0.0","Windows","10.0","https://app.prolific.com/","en-US,en;q=0.9,de;q=0.8","66565f702a8c21be63eb93ce","687a19d2168e237449fb8af4","6889d9f19c7fc6a8fabec33d","0","66565f702a8c21be63eb93ce","0","2025-07-30T08:38:45.444Z","","","","","","","","","","","","","","","","","","","","","","","","","","","","","","","","","","","","","","","","","",""
"3206","","","{""assigned_sex"":""male""}","survey-multi-choice","3","33276","0.0-3.0-0.0","9","1","2025-07-30 08:38:14","36c45c0696341be0efffe67d72a12abb","45.80.193.156","Mozilla/5.0 (Windows NT 10.0; Win64; x64) AppleWebKit/537.36 (KHTML, like Gecko) Chrome/138.0.0.0 Safari/537.36","WebKit","Chrome","138.0.0.0","Windows","10.0","https://app.prolific.com/","en-US,en;q=0.9,de;q=0.8","66565f702a8c21be63eb93ce","687a19d2168e237449fb8af4","6889d9f19c7fc6a8fabec33d","0","66565f702a8c21be63eb93ce","0","","","[0]","0","demographics","","","","","","","","","","","","","","","","","","","","","","","","","","","","","","","","","","","","","",""
"7877","1753864736532","<p style='font-size:1.1em;line-height:1.25'>In the following, we will perform a baseline assessment. This means that we will ask you a few questions relating to your experiences over the past month.<br></p><p style='font-size:1.1em;line-height:1.25'>Press the <strong>Next</strong> button to continue.</p>","0","custom-html-button-response","4","41155","0.0-4.0-0.0","9","1","2025-07-30 08:38:14","36c45c0696341be0efffe67d72a12abb","45.80.193.156","Mozilla/5.0 (Windows NT 10.0; Win64; x64) AppleWebKit/537.36 (KHTML, like Gecko) Chrome/138.0.0.0 Safari/537.36","WebKit","Chrome","138.0.0.0","Windows","10.0","https://app.prolific.com/","en-US,en;q=0.9,de;q=0.8","66565f702a8c21be63eb93ce","687a19d2168e237449fb8af4","6889d9f19c7fc6a8fabec33d","0","66565f702a8c21be63eb93ce","0","2025-07-30T08:38:56.533Z","","","","","","","","","","","","","","","","","","","","","","","","","","","","","","","","","","","","","","","","","",""
"209397","","","","survey-template","5","250557","0.0-4.0-1.0","9","1","2025-07-30 08:38:14","36c45c0696341be0efffe67d72a12abb","45.80.193.156","Mozilla/5.0 (Windows NT 10.0; Win64; x64) AppleWebKit/537.36 (KHTML, like Gecko) Chrome/138.0.0.0 Safari/537.36","WebKit","Chrome","138.0.0.0","Windows","10.0","https://app.prolific.com/","en-US,en;q=0.9,de;q=0.8","66565f702a8c21be63eb93ce","687a19d2168e237449fb8af4","6889d9f19c7fc6a8fabec33d","0","66565f702a8c21be63eb93ce","0","2025-07-30T08:42:25.936Z","","","","pss","{""Q01"":""2"",""Q02"":""2"",""Q03"":""2"",""Q04"":""1"",""Q05"":""2"",""Q06"":""2"",""Q07"":""1"",""Q08"":""1"",""Q09"":""2"",""Q10"":""2""}","[0,1,2,3,4,5,6,7,8,9]","[""Q01"",""Q02"",""Q03"",""Q04"",""Q05"",""Q06"",""Q07"",""Q08"",""Q09"",""Q09"",""Q09"",""Q09"",""Q10""]","[34547,39655,47053,52596,60367,140739,146026,186701,194548,195870,197590,198665,207748]","[]","[1,34547,39655,47053,52596,60367,140739,146026,152260,186701,194548,195870,197590,198665,207748,209393]","0.7","0.4444444444444444","0","","","","","","","","","","","","","","","","","","","","","","","","","","","","",""
"39519","1753864985458","<p style='font-size:1.1em;line-height:1.25'>Thank you for your answers! Now we will ask you a few more questions relating to your feelings in the last 24 hours.<br></p><p style='font-size:1.1em;line-height:1.25'>Press the <strong>Next</strong> button to continue.</p>","0","custom-html-button-response","6","290081","0.0-4.0-2.0","9","1","2025-07-30 08:38:14","36c45c0696341be0efffe67d72a12abb","45.80.193.156","Mozilla/5.0 (Windows NT 10.0; Win64; x64) AppleWebKit/537.36 (KHTML, like Gecko) Chrome/138.0.0.0 Safari/537.36","WebKit","Chrome","138.0.0.0","Windows","10.0","https://app.prolific.com/","en-US,en;q=0.9,de;q=0.8","66565f702a8c21be63eb93ce","687a19d2168e237449fb8af4","6889d9f19c7fc6a8fabec33d","0","66565f702a8c21be63eb93ce","0","2025-07-30T08:43:05.460Z","","","","","","","","","","","","","","","","","","","","","","","","","","","","","","","","","","","","","","","","","",""
"78276","","","","survey-template","7","368375","0.0-4.0-3.0","9","1","2025-07-30 08:38:14","36c45c0696341be0efffe67d72a12abb","45.80.193.156","Mozilla/5.0 (Windows NT 10.0; Win64; x64) AppleWebKit/537.36 (KHTML, like Gecko) Chrome/138.0.0.0 Safari/537.36","WebKit","Chrome","138.0.0.0","Windows","10.0","https://app.prolific.com/","en-US,en;q=0.9,de;q=0.8","66565f702a8c21be63eb93ce","687a19d2168e237449fb8af4","6889d9f19c7fc6a8fabec33d","0","66565f702a8c21be63eb93ce","0","2025-07-30T08:44:23.754Z","","","","drsp","{""Q01"":""1"",""Q02"":""0"",""Q03"":""0"",""Q04"":""1"",""Q05"":""1"",""Q06"":""2"",""Q07"":""1"",""Q08"":""1"",""Q09"":""0"",""Q10"":""1"",""Q11"":""1"",""Q12"":""1"",""Q13"":""5"",""Q14"":""2"",""Q15"":""1"",""Q16"":""2"",""Q17"":""1"",""Q18"":""1"",""Q19"":""0"",""Q20"":""1"",""Q21"":""1"",""Q22"":""1""}","[0,1,2,3,4,5,6,7,8,9,10,11,12,13,14,15,16,17,18,19,20,21]","[""Q01"",""Q02"",""Q03"",""Q04"",""Q05"",""Q06"",""Q07"",""Q08"",""Q09"",""Q10"",""Q11"",""Q12"",""Q13"",""Q14"",""Q15"",""Q16"",""Q17"",""Q18"",""Q19"",""Q20"",""Q21"",""Q22""]","[5823,8006,10319,12033,13534,17415,19610,22276,27180,31178,34497,37320,40503,42921,46519,49324,51750,53792,61572,69729,74758,76981]","[]","[1,5823,8006,10319,12033,13534,17415,19610,22276,27180,31178,34497,37320,40503,42921,46519,49324,51750,53792,61572,69729,74758,76981,78272]","0.6363636363636364","0.5238095238095238","0","","","","","","","","","","","","","","","","","","","","","","","","","","","","",""
"12485","","","","survey-template","8","380869","0.0-4.0-4.0","9","1","2025-07-30 08:38:14","36c45c0696341be0efffe67d72a12abb","45.80.193.156","Mozilla/5.0 (Windows NT 10.0; Win64; x64) AppleWebKit/537.36 (KHTML, like Gecko) Chrome/138.0.0.0 Safari/537.36","WebKit","Chrome","138.0.0.0","Windows","10.0","https://app.prolific.com/","en-US,en;q=0.9,de;q=0.8","66565f702a8c21be63eb93ce","687a19d2168e237449fb8af4","6889d9f19c7fc6a8fabec33d","0","66565f702a8c21be63eb93ce","0","2025-07-30T08:44:36.247Z","","","","stress","{""Q01"":""1"",""Q02"":""4"",""Q03"":""1""}","[0,1,2]","[""Q01"",""Q02"",""Q03""]","[4318,7381,11406]","[]","[4318,7381,11406,12483]","1","0","0","","","","","","","","","","","","","","","","","","","","","","","","","","","","",""
"78381","","","","instructions","9","459253","0.0-5.0-0.0","9","1","2025-07-30 08:38:14","36c45c0696341be0efffe67d72a12abb","45.80.193.156","Mozilla/5.0 (Windows NT 10.0; Win64; x64) AppleWebKit/537.36 (KHTML, like Gecko) Chrome/138.0.0.0 Safari/537.36","WebKit","Chrome","138.0.0.0","Windows","10.0","https://app.prolific.com/","en-US,en;q=0.9,de;q=0.8","66565f702a8c21be63eb93ce","687a19d2168e237449fb8af4","6889d9f19c7fc6a8fabec33d","0","66565f702a8c21be63eb93ce","0","","","","","","","","","","","","","","","[{""page_index"":0,""viewing_time"":78381}]","","","","","","","","","","","","","","","","","","","","","","","","","","","",""
"16154","","<p>Before you start with this game please answer the following three questions yourself. </p>
  <p>Through this game, we measure several aspects of your cognitive performance, such as reaction times, multi-tasking capabilities </p>
  <p>and the ability to assess the situation you are in.</p>
  <p></p>
  <p><b>How good do you usually are in such tasks?</b></p>","81","html-slider-response","10","475412","0.0-6.0-0.0","9","1","2025-07-30 08:38:14","36c45c0696341be0efffe67d72a12abb","45.80.193.156","Mozilla/5.0 (Windows NT 10.0; Win64; x64) AppleWebKit/537.36 (KHTML, like Gecko) Chrome/138.0.0.0 Safari/537.36","WebKit","Chrome","138.0.0.0","Windows","10.0","https://app.prolific.com/","en-US,en;q=0.9,de;q=0.8","66565f702a8c21be63eb93ce","687a19d2168e237449fb8af4","6889d9f19c7fc6a8fabec33d","0","66565f702a8c21be63eb93ce","0","2025-07-30T08:46:10.790Z","","","","PreSkillQ","","","","","","","","","","","50","","","","","","","","","","","","","","","","","","","","","","","","","","",""
"5612","","<div style=""width:500px;"">
  <p>How well do you think you will perform in this task compared to other participants?</p>
  </div>","78","html-slider-response","11","481026","0.0-6.0-1.0","9","1","2025-07-30 08:38:14","36c45c0696341be0efffe67d72a12abb","45.80.193.156","Mozilla/5.0 (Windows NT 10.0; Win64; x64) AppleWebKit/537.36 (KHTML, like Gecko) Chrome/138.0.0.0 Safari/537.36","WebKit","Chrome","138.0.0.0","Windows","10.0","https://app.prolific.com/","en-US,en;q=0.9,de;q=0.8","66565f702a8c21be63eb93ce","687a19d2168e237449fb8af4","6889d9f19c7fc6a8fabec33d","0","66565f702a8c21be63eb93ce","0","2025-07-30T08:46:16.404Z","","","","PrePerfQ","","","","","","","","","","","50","","","","","","","","","","","","","","","","","","","","","","","","","","",""
"28026","","<div style=""width:500px;"">
  <p>What best describes how you currently feel?</p>
  </div>","80","html-slider-response","12","509054","0.0-6.0-2.0","9","1","2025-07-30 08:38:14","36c45c0696341be0efffe67d72a12abb","45.80.193.156","Mozilla/5.0 (Windows NT 10.0; Win64; x64) AppleWebKit/537.36 (KHTML, like Gecko) Chrome/138.0.0.0 Safari/537.36","WebKit","Chrome","138.0.0.0","Windows","10.0","https://app.prolific.com/","en-US,en;q=0.9,de;q=0.8","66565f702a8c21be63eb93ce","687a19d2168e237449fb8af4","6889d9f19c7fc6a8fabec33d","0","66565f702a8c21be63eb93ce","0","2025-07-30T08:46:44.432Z","","","","PreMotivationQ","","","","","","","","","","","50","","","","","","","","","","","","","","","","","","","","","","","","","","",""
"","","","","ctl-task-cpt","13","541943","0.0-7.0-0.0","9","1","2025-07-30 08:38:14","36c45c0696341be0efffe67d72a12abb","45.80.193.156","Mozilla/5.0 (Windows NT 10.0; Win64; x64) AppleWebKit/537.36 (KHTML, like Gecko) Chrome/138.0.0.0 Safari/537.36","WebKit","Chrome","138.0.0.0","Windows","10.0","https://app.prolific.com/","en-US,en;q=0.9,de;q=0.8","66565f702a8c21be63eb93ce","687a19d2168e237449fb8af4","6889d9f19c7fc6a8fabec33d","0","66565f702a8c21be63eb93ce","0","2025-07-30T08:47:17.322Z","","","","","","","","","","","","","","","","win-only","2","g1:SE,g2:NW","1","1","0","510316","7838","12842","29880","1","4","4","6","1","-1","-1","0","0","0","5004","3000","-2995","[""down"",""right""]","{""num_key_presses"":4,""num_perfect"":4,""num_errors"":0,""num_randdir"":0,""num_randdir_good_moves"":0,""num_whilered"":0,""num_whileblue"":0,""num_blue"":1,""num_good_moves"":3}","[415.3214133126395,405.32142761775424,1,415.3214133126395,405.32142761775424,102,415.3214133126395,405.32142761775424,202,415.3214133126395,405.32142761775424,303,415.3214133126395,405.32142761775424,408,415.3214133126395,405.32142761775424,513,415.3214133126395,405.32142761775424,617,415.3214133126395,405.32142761775424,718,415.3214133126395,405.32142761775424,822,415.3214133126395,405.32142761775424,922,415.3214133126395,405.32142761775424,1022,415.3214133126395,405.32142761775424,1123,415.3214133126395,405.32142761775424,1223,415.3214133126395,405.32142761775424,1328,415.3214133126395,405.32142761775424,1433,415.3214133126395,405.32142761775424,1537,415.3214133126395,405.32142761775424,1638,415.3214133126395,405.32142761775424,1738,415.3214133126395,405.32142761775424,1843,415.3214133126395,405.32142761775424,1948,415.3214133126395,405.32142761775424,2053,415.3214133126395,405.32142761775424,2158,415.3214133126395,405.32142761775424,2258,415.3214133126395,405.32142761775424,2362,415.3214133126395,405.32142761775424,2463,415.3214133126395,405.32142761775424,2563,415.3214133126395,405.32142761775424,2663,415.3214133126395,405.32142761775424,2763,415.3214133126395,405.32142761775424,2869,415.3214133126395,405.32142761775424,2972,415.3214133126395,405.32142761775424,3072,415.3214133126395,405.32142761775424,3172,415.3214133126395,405.32142761775424,3273,415.3214133126395,405.32142761775424,3373,415.3214133126395,405.32142761775424,3473,415.3214133126395,405.32142761775424,3573,415.3214133126395,405.32142761775424,3673,415.3214133126395,405.32142761775424,3773,415.3214133126395,405.32142761775424,3873,415.3214133126395,405.32142761775424,3977,415.3214133126395,405.32142761775424,4078,415.3214133126395,405.32142761775424,4182,415.3214133126395,405.32142761775424,4283,415.3214133126395,405.32142761775424,4383,415.3214133126395,405.32142761775424,4483,415.3214133126395,405.32142761775424,4587,415.3214133126395,405.32142761775424,4687,415.3214133126395,405.32142761775424,4787,415.3214133126395,405.32142761775424,4887,415.3214133126395,405.32142761775424,4987]","[1609,1609,1000,0,609,""smooth"",""up"",""up"",""bad_move"",8031,6421,1864,5468,699,""smooth"",""down"",""down"",""good_move"",11731,3699,2859.1,8032,839.9,""smooth"",""down"",""down"",""good_move"",15064,3332,2572.4,11732,759.6,""smooth"",""down"",""down"",""good_move""]"
"6527","","<div style=""width:500px;"">
  <p>What determined the result of this run?</p>
  </div>","26","html-slider-response","14","548474","0.0-7.0-1.0","9","1","2025-07-30 08:38:14","36c45c0696341be0efffe67d72a12abb","45.80.193.156","Mozilla/5.0 (Windows NT 10.0; Win64; x64) AppleWebKit/537.36 (KHTML, like Gecko) Chrome/138.0.0.0 Safari/537.36","WebKit","Chrome","138.0.0.0","Windows","10.0","https://app.prolific.com/","en-US,en;q=0.9,de;q=0.8","66565f702a8c21be63eb93ce","687a19d2168e237449fb8af4","6889d9f19c7fc6a8fabec33d","0","66565f702a8c21be63eb93ce","0","2025-07-30T08:47:23.853Z","","","","AttribQ","","","","","","","","","","","50","","","","","","","","","","","","","","","","","","","","","","","","","","",""
"3512","","<div style=""width:500px;"">
  <p>How much control did you have over the ball?</p>
  </div>","72","html-slider-response","15","551990","0.0-7.0-2.0","9","1","2025-07-30 08:38:14","36c45c0696341be0efffe67d72a12abb","45.80.193.156","Mozilla/5.0 (Windows NT 10.0; Win64; x64) AppleWebKit/537.36 (KHTML, like Gecko) Chrome/138.0.0.0 Safari/537.36","WebKit","Chrome","138.0.0.0","Windows","10.0","https://app.prolific.com/","en-US,en;q=0.9,de;q=0.8","66565f702a8c21be63eb93ce","687a19d2168e237449fb8af4","6889d9f19c7fc6a8fabec33d","0","66565f702a8c21be63eb93ce","0","2025-07-30T08:47:27.368Z","","","","ControlQ","","","","","","","","","","","50","","","","","","","","","","","","","","","","","","","","","","","","","","",""
"4092","","<div style=""width:500px;"">
  <p>How would you describe your current emotional state?</p>
  </div>","24","html-slider-response","16","556085","0.0-7.0-3.0","9","1","2025-07-30 08:38:14","36c45c0696341be0efffe67d72a12abb","45.80.193.156","Mozilla/5.0 (Windows NT 10.0; Win64; x64) AppleWebKit/537.36 (KHTML, like Gecko) Chrome/138.0.0.0 Safari/537.36","WebKit","Chrome","138.0.0.0","Windows","10.0","https://app.prolific.com/","en-US,en;q=0.9,de;q=0.8","66565f702a8c21be63eb93ce","687a19d2168e237449fb8af4","6889d9f19c7fc6a8fabec33d","0","66565f702a8c21be63eb93ce","0","2025-07-30T08:47:31.463Z","","","","StressQ","","","","","","","","","","","50","","","","","","","","","","","","","","","","","","","","","","","","","","",""
"3058","","<div style=""width:500px;"">
  <p>What best describes how you currently feel?</p>
  </div>","84","html-slider-response","17","559145","0.0-7.0-4.0","9","1","2025-07-30 08:38:14","36c45c0696341be0efffe67d72a12abb","45.80.193.156","Mozilla/5.0 (Windows NT 10.0; Win64; x64) AppleWebKit/537.36 (KHTML, like Gecko) Chrome/138.0.0.0 Safari/537.36","WebKit","Chrome","138.0.0.0","Windows","10.0","https://app.prolific.com/","en-US,en;q=0.9,de;q=0.8","66565f702a8c21be63eb93ce","687a19d2168e237449fb8af4","6889d9f19c7fc6a8fabec33d","0","66565f702a8c21be63eb93ce","0","2025-07-30T08:47:34.523Z","","","","MotivationQ","","","","","","","","","","","50","","","","","","","","","","","","","","","","","","","","","","","","","","",""
"","","","","ctl-task-cpt","18","588224","0.0-7.0-0.1","9","1","2025-07-30 08:38:14","36c45c0696341be0efffe67d72a12abb","45.80.193.156","Mozilla/5.0 (Windows NT 10.0; Win64; x64) AppleWebKit/537.36 (KHTML, like Gecko) Chrome/138.0.0.0 Safari/537.36","WebKit","Chrome","138.0.0.0","Windows","10.0","https://app.prolific.com/","en-US,en;q=0.9,de;q=0.8","66565f702a8c21be63eb93ce","687a19d2168e237449fb8af4","6889d9f19c7fc6a8fabec33d","0","66565f702a8c21be63eb93ce","0","2025-07-30T08:48:03.602Z","","","","","","","","","","","","","","","","win-only","1","g1:NE,g2:SW","0.9","2","0","560403","2111","7116","26060","1","4","8","6","2","-8","-9","0","0","0","1547","3000","-3005","[""down"",""left""]","{""num_key_presses"":5,""num_perfect"":3,""num_errors"":1,""num_randdir"":1,""num_randdir_good_moves"":0,""num_whilered"":0,""num_whileblue"":1,""num_blue"":1,""num_good_moves"":4}","[411.5714133126395,426.57142761775424,1,411.5714133126395,426.57142761775424,105,411.5714133126395,426.57142761775424,205,411.5714133126395,426.57142761775424,308,411.5714133126395,426.57142761775424,411,411.5714133126395,426.57142761775424,515,411.5714133126395,426.57142761775424,615,411.5714133126395,426.57142761775424,715,411.5714133126395,426.57142761775424,820,411.5714133126395,426.57142761775424,924,411.5714133126395,426.57142761775424,1024,411.5714133126395,426.57142761775424,1125,411.5714133126395,426.57142761775424,1225,411.5714133126395,426.57142761775424,1325,411.5714133126395,426.57142761775424,1485,61.57141331263951,756.5714276177542,1588,61.57141331263951,756.5714276177542,1690,61.57141331263951,756.5714276177542,1794,61.57141331263951,756.5714276177542,1895,61.57141331263951,756.5714276177542,1996,61.57141331263951,756.5714276177542,2099,61.57141331263951,756.5714276177542,2200,61.57141331263951,756.5714276177542,2305,61.57141331263951,756.5714276177542,2405,61.57141331263951,756.5714276177542,2509,61.57141331263951,756.5714276177542,2610,61.57141331263951,756.5714276177542,2715,61.57141331263951,756.5714276177542,2819,61.57141331263951,756.5714276177542,2920,61.57141331263951,756.5714276177542,3027,61.57141331263951,756.5714276177542,3129,61.57141331263951,756.5714276177542,3229,61.57141331263951,756.5714276177542,3331,61.57141331263951,756.5714276177542,3434,61.57141331263951,756.5714276177542,3535,61.57141331263951,756.5714276177542,3636,61.57141331263951,756.5714276177542,3739,61.57141331263951,756.5714276177542,3840,61.57141331263951,756.5714276177542,3940,61.57141331263951,756.5714276177542,4040,61.57141331263951,756.5714276177542,4145,61.57141331263951,756.5714276177542,4245,61.57141331263951,756.5714276177542,4345,61.57141331263951,756.5714276177542,4450,61.57141331263951,756.5714276177542,4550,61.57141331263951,756.5714276177542,4650,61.57141331263951,756.5714276177542,4754,61.57141331263951,756.5714276177542,4854,61.57141331263951,756.5714276177542,4954]","[1686,1686,1000,0,686,""smooth"",""down"",""down"",""good_move"",5299,3612,3080.7,1687,531.3,""smooth"",""down"",""down"",""good_move"",8950,3651,2981,5299,670,""while_blue"",""down"",""down"",""good_move"",12207,3256,2582,8951,674,""smooth"",""left"",""left"",""good_move"",15724,3516,2930.8,12208,585.2,""oops"",""left"",""right"",""bad_move""]"
"4101","","<div style=""width:500px;"">
  <p>What determined the result of this run?</p>
  </div>","20","html-slider-response","19","592329","0.0-7.0-1.1","9","1","2025-07-30 08:38:14","36c45c0696341be0efffe67d72a12abb","45.80.193.156","Mozilla/5.0 (Windows NT 10.0; Win64; x64) AppleWebKit/537.36 (KHTML, like Gecko) Chrome/138.0.0.0 Safari/537.36","WebKit","Chrome","138.0.0.0","Windows","10.0","https://app.prolific.com/","en-US,en;q=0.9,de;q=0.8","66565f702a8c21be63eb93ce","687a19d2168e237449fb8af4","6889d9f19c7fc6a8fabec33d","0","66565f702a8c21be63eb93ce","0","2025-07-30T08:48:07.707Z","","","","AttribQ","","","","","","","","","","","50","","","","","","","","","","","","","","","","","","","","","","","","","","",""
"2876","","<div style=""width:500px;"">
  <p>How much control did you have over the ball?</p>
  </div>","81","html-slider-response","20","595207","0.0-7.0-2.1","9","1","2025-07-30 08:38:14","36c45c0696341be0efffe67d72a12abb","45.80.193.156","Mozilla/5.0 (Windows NT 10.0; Win64; x64) AppleWebKit/537.36 (KHTML, like Gecko) Chrome/138.0.0.0 Safari/537.36","WebKit","Chrome","138.0.0.0","Windows","10.0","https://app.prolific.com/","en-US,en;q=0.9,de;q=0.8","66565f702a8c21be63eb93ce","687a19d2168e237449fb8af4","6889d9f19c7fc6a8fabec33d","0","66565f702a8c21be63eb93ce","0","2025-07-30T08:48:10.585Z","","","","ControlQ","","","","","","","","","","","50","","","","","","","","","","","","","","","","","","","","","","","","","","",""
"3456","","<div style=""width:500px;"">
  <p>How would you describe your current emotional state?</p>
  </div>","26","html-slider-response","21","598664","0.0-7.0-3.1","9","1","2025-07-30 08:38:14","36c45c0696341be0efffe67d72a12abb","45.80.193.156","Mozilla/5.0 (Windows NT 10.0; Win64; x64) AppleWebKit/537.36 (KHTML, like Gecko) Chrome/138.0.0.0 Safari/537.36","WebKit","Chrome","138.0.0.0","Windows","10.0","https://app.prolific.com/","en-US,en;q=0.9,de;q=0.8","66565f702a8c21be63eb93ce","687a19d2168e237449fb8af4","6889d9f19c7fc6a8fabec33d","0","66565f702a8c21be63eb93ce","0","2025-07-30T08:48:14.042Z","","","","StressQ","","","","","","","","","","","50","","","","","","","","","","","","","","","","","","","","","","","","","","",""
"3334","","<div style=""width:500px;"">
  <p>What best describes how you currently feel?</p>
  </div>","82","html-slider-response","22","602000","0.0-7.0-4.1","9","1","2025-07-30 08:38:14","36c45c0696341be0efffe67d72a12abb","45.80.193.156","Mozilla/5.0 (Windows NT 10.0; Win64; x64) AppleWebKit/537.36 (KHTML, like Gecko) Chrome/138.0.0.0 Safari/537.36","WebKit","Chrome","138.0.0.0","Windows","10.0","https://app.prolific.com/","en-US,en;q=0.9,de;q=0.8","66565f702a8c21be63eb93ce","687a19d2168e237449fb8af4","6889d9f19c7fc6a8fabec33d","0","66565f702a8c21be63eb93ce","0","2025-07-30T08:48:17.379Z","","","","MotivationQ","","","","","","","","","","","50","","","","","","","","","","","","","","","","","","","","","","","","","","",""
"","","","","ctl-task-cpt","23","647861","0.0-7.0-0.2","9","1","2025-07-30 08:38:14","36c45c0696341be0efffe67d72a12abb","45.80.193.156","Mozilla/5.0 (Windows NT 10.0; Win64; x64) AppleWebKit/537.36 (KHTML, like Gecko) Chrome/138.0.0.0 Safari/537.36","WebKit","Chrome","138.0.0.0","Windows","10.0","https://app.prolific.com/","en-US,en;q=0.9,de;q=0.8","66565f702a8c21be63eb93ce","687a19d2168e237449fb8af4","6889d9f19c7fc6a8fabec33d","0","66565f702a8c21be63eb93ce","0","2025-07-30T08:49:03.239Z","","","","","","","","","","","","","","","","win-only","0","g1:NW,g2:SE","0.8","3","0","603260","5663","10666","42839","1","4","8","6","2","-8","-12","0","0","0","1374","3000","-2905","[""down"",""right""]","{""num_key_presses"":9,""num_perfect"":3,""num_errors"":4,""num_randdir"":2,""num_randdir_good_moves"":1,""num_whilered"":0,""num_whileblue"":3,""num_blue"":4,""num_good_moves"":5}","[416.5714133126395,415.32142761775424,1,416.5714133126395,415.32142761775424,103,416.5714133126395,415.32142761775424,203,416.5714133126395,415.32142761775424,305,416.5714133126395,415.32142761775424,409,416.5714133126395,415.32142761775424,511,416.5714133126395,415.32142761775424,611,416.5714133126395,415.32142761775424,714,416.5714133126395,415.32142761775424,814,416.5714133126395,415.32142761775424,915,416.5714133126395,415.32142761775424,1019,416.5714133126395,415.32142761775424,1122,416.5714133126395,415.32142761775424,1225,416.5714133126395,415.32142761775424,1325,766.5714133126395,734.0714276177542,1432,766.5714133126395,734.0714276177542,1536,766.5714133126395,734.0714276177542,1636,766.5714133126395,734.0714276177542,1738,766.5714133126395,734.0714276177542,1839,766.5714133126395,734.0714276177542,1940,766.5714133126395,734.0714276177542,2043,766.5714133126395,734.0714276177542,2145,766.5714133126395,734.0714276177542,2247,766.5714133126395,734.0714276177542,2352,766.5714133126395,734.0714276177542,2452,766.5714133126395,734.0714276177542,2553,766.5714133126395,734.0714276177542,2654,766.5714133126395,734.0714276177542,2755,766.5714133126395,734.0714276177542,2855,766.5714133126395,734.0714276177542,2958,766.5714133126395,734.0714276177542,3064,766.5714133126395,734.0714276177542,3170,766.5714133126395,734.0714276177542,3274,766.5714133126395,734.0714276177542,3375,766.5714133126395,734.0714276177542,3475,766.5714133126395,734.0714276177542,3580,766.5714133126395,734.0714276177542,3683,766.5714133126395,734.0714276177542,3786,766.5714133126395,734.0714276177542,3886,766.5714133126395,734.0714276177542,3991,766.5714133126395,734.0714276177542,4091,766.5714133126395,734.0714276177542,4193,766.5714133126395,734.0714276177542,4293,766.5714133126395,734.0714276177542,4395,766.5714133126395,734.0714276177542,4495,766.5714133126395,734.0714276177542,4595,766.5714133126395,734.0714276177542,4701,766.5714133126395,734.0714276177542,4803,766.5714133126395,734.0714276177542,4905]","[1557,1557,1000,0,557,""smooth"",""down"",""down"",""good_move"",4844,3286,2555.8,1558,730.2,""oops"",""down"",""left"",""bad_move"",8661,3815,3253.4,4846,561.6,""oops"",""right"",""down"",""good_move"",11554,2893,2279.5,8661,613.5,""smooth"",""right"",""right"",""good_move"",14457,2903,2707,11554,196,""while_blue"",""right"",""right"",""good_move"",18447,3988,3360.2,14459,627.8,""smooth"",""right"",""right"",""good_move"",21704,3256,2704,18448,552,""while_blue"",""down"",""left"",""bad_move"",25356,3651,2285.3,25255,-2184.3,""error"",""-"",""-"",""no_move"",29537,4181,2445,26360,732,""while_blue"",""down"",""up"",""bad_move""]"
"2609","","<div style=""width:500px;"">
  <p>What determined the result of this run?</p>
  </div>","71","html-slider-response","24","650473","0.0-7.0-1.2","9","1","2025-07-30 08:38:14","36c45c0696341be0efffe67d72a12abb","45.80.193.156","Mozilla/5.0 (Windows NT 10.0; Win64; x64) AppleWebKit/537.36 (KHTML, like Gecko) Chrome/138.0.0.0 Safari/537.36","WebKit","Chrome","138.0.0.0","Windows","10.0","https://app.prolific.com/","en-US,en;q=0.9,de;q=0.8","66565f702a8c21be63eb93ce","687a19d2168e237449fb8af4","6889d9f19c7fc6a8fabec33d","0","66565f702a8c21be63eb93ce","0","2025-07-30T08:49:05.851Z","","","","AttribQ","","","","","","","","","","","50","","","","","","","","","","","","","","","","","","","","","","","","","","",""
"3907","","<div style=""width:500px;"">
  <p>How much control did you have over the ball?</p>
  </div>","35","html-slider-response","25","654381","0.0-7.0-2.2","9","1","2025-07-30 08:38:14","36c45c0696341be0efffe67d72a12abb","45.80.193.156","Mozilla/5.0 (Windows NT 10.0; Win64; x64) AppleWebKit/537.36 (KHTML, like Gecko) Chrome/138.0.0.0 Safari/537.36","WebKit","Chrome","138.0.0.0","Windows","10.0","https://app.prolific.com/","en-US,en;q=0.9,de;q=0.8","66565f702a8c21be63eb93ce","687a19d2168e237449fb8af4","6889d9f19c7fc6a8fabec33d","0","66565f702a8c21be63eb93ce","0","2025-07-30T08:49:09.760Z","","","","ControlQ","","","","","","","","","","","50","","","","","","","","","","","","","","","","","","","","","","","","","","",""
"2859","","<div style=""width:500px;"">
  <p>How would you describe your current emotional state?</p>
  </div>","39","html-slider-response","26","657242","0.0-7.0-3.2","9","1","2025-07-30 08:38:14","36c45c0696341be0efffe67d72a12abb","45.80.193.156","Mozilla/5.0 (Windows NT 10.0; Win64; x64) AppleWebKit/537.36 (KHTML, like Gecko) Chrome/138.0.0.0 Safari/537.36","WebKit","Chrome","138.0.0.0","Windows","10.0","https://app.prolific.com/","en-US,en;q=0.9,de;q=0.8","66565f702a8c21be63eb93ce","687a19d2168e237449fb8af4","6889d9f19c7fc6a8fabec33d","0","66565f702a8c21be63eb93ce","0","2025-07-30T08:49:12.621Z","","","","StressQ","","","","","","","","","","","50","","","","","","","","","","","","","","","","","","","","","","","","","","",""
"3660","","<div style=""width:500px;"">
  <p>What best describes how you currently feel?</p>
  </div>","36","html-slider-response","27","660904","0.0-7.0-4.2","9","1","2025-07-30 08:38:14","36c45c0696341be0efffe67d72a12abb","45.80.193.156","Mozilla/5.0 (Windows NT 10.0; Win64; x64) AppleWebKit/537.36 (KHTML, like Gecko) Chrome/138.0.0.0 Safari/537.36","WebKit","Chrome","138.0.0.0","Windows","10.0","https://app.prolific.com/","en-US,en;q=0.9,de;q=0.8","66565f702a8c21be63eb93ce","687a19d2168e237449fb8af4","6889d9f19c7fc6a8fabec33d","0","66565f702a8c21be63eb93ce","0","2025-07-30T08:49:16.283Z","","","","MotivationQ","","","","","","","","","","","50","","","","","","","","","","","","","","","","","","","","","","","","","","",""
"","","","","ctl-task-cpt","28","688535","0.0-7.0-0.3","9","1","2025-07-30 08:38:14","36c45c0696341be0efffe67d72a12abb","45.80.193.156","Mozilla/5.0 (Windows NT 10.0; Win64; x64) AppleWebKit/537.36 (KHTML, like Gecko) Chrome/138.0.0.0 Safari/537.36","WebKit","Chrome","138.0.0.0","Windows","10.0","https://app.prolific.com/","en-US,en;q=0.9,de;q=0.8","66565f702a8c21be63eb93ce","687a19d2168e237449fb8af4","6889d9f19c7fc6a8fabec33d","0","66565f702a8c21be63eb93ce","0","2025-07-30T08:49:43.913Z","","","","","","","","","","","","","","","","win-only","1","g1:NE,g2:SW","0.7","4","0","662163","1752","6756","24616","1","4","4","6","1","-1","-2","0","0","0","1460","3000","-2260","[""up"",""right""]","{""num_key_presses"":5,""num_perfect"":4,""num_errors"":1,""num_randdir"":0,""num_randdir_good_moves"":0,""num_whilered"":0,""num_whileblue"":1,""num_blue"":1,""num_good_moves"":4}","[421.5714133126395,414.07142761775424,0,421.5714133126395,414.07142761775424,106,421.5714133126395,414.07142761775424,209,421.5714133126395,414.07142761775424,309,421.5714133126395,414.07142761775424,409,421.5714133126395,414.07142761775424,512,421.5714133126395,414.07142761775424,613,421.5714133126395,414.07142761775424,717,421.5714133126395,414.07142761775424,818,421.5714133126395,414.07142761775424,925,421.5714133126395,414.07142761775424,1031,421.5714133126395,414.07142761775424,1135,421.5714133126395,414.07142761775424,1236,421.5714133126395,414.07142761775424,1339,421.5714133126395,414.07142761775424,1449,777.8214133126395,89.07142761775425,1556,777.8214133126395,89.07142761775425,1656,777.8214133126395,89.07142761775425,1759,777.8214133126395,89.07142761775425,1860,777.8214133126395,89.07142761775425,1965,777.8214133126395,89.07142761775425,2069,777.8214133126395,89.07142761775425,2170,777.8214133126395,89.07142761775425,2275,777.8214133126395,89.07142761775425,2379,777.8214133126395,89.07142761775425,2483,777.8214133126395,89.07142761775425,2588,777.8214133126395,89.07142761775425,2689,777.8214133126395,89.07142761775425,2795,777.8214133126395,89.07142761775425,2898,777.8214133126395,89.07142761775425,2999,777.8214133126395,89.07142761775425,3099,777.8214133126395,89.07142761775425,3199,777.8214133126395,89.07142761775425,3302,777.8214133126395,89.07142761775425,3414,777.8214133126395,89.07142761775425,3518,777.8214133126395,89.07142761775425,3620,777.8214133126395,89.07142761775425,3723,777.8214133126395,89.07142761775425,3825,777.8214133126395,89.07142761775425,3929,777.8214133126395,89.07142761775425,4034,777.8214133126395,89.07142761775425,4140,777.8214133126395,89.07142761775425,4240,777.8214133126395,89.07142761775425,4343,777.8214133126395,89.07142761775425,4445,777.8214133126395,89.07142761775425,4552,777.8214133126395,89.07142761775425,4652,777.8214133126395,89.07142761775425,4756,777.8214133126395,89.07142761775425,4856,777.8214133126395,89.07142761775425,4960]","[1616,1616,1000,0,616,""smooth"",""up"",""up"",""good_move"",4735,3118,2520.9,1617,597.1,""smooth"",""up"",""up"",""good_move"",8307,3571,2728.1,4736,842.9,""smooth"",""right"",""right"",""good_move"",11111,2802,2125,8309,677,""while_blue"",""right"",""down"",""bad_move"",13987,2875,2193.3,11112,681.7,""smooth"",""right"",""right"",""good_move""]"
"3706","","<div style=""width:500px;"">
  <p>What determined the result of this run?</p>
  </div>","8","html-slider-response","29","692244","0.0-7.0-1.3","9","1","2025-07-30 08:38:14","36c45c0696341be0efffe67d72a12abb","45.80.193.156","Mozilla/5.0 (Windows NT 10.0; Win64; x64) AppleWebKit/537.36 (KHTML, like Gecko) Chrome/138.0.0.0 Safari/537.36","WebKit","Chrome","138.0.0.0","Windows","10.0","https://app.prolific.com/","en-US,en;q=0.9,de;q=0.8","66565f702a8c21be63eb93ce","687a19d2168e237449fb8af4","6889d9f19c7fc6a8fabec33d","0","66565f702a8c21be63eb93ce","0","2025-07-30T08:49:47.622Z","","","","AttribQ","","","","","","","","","","","50","","","","","","","","","","","","","","","","","","","","","","","","","","",""
"5536","","<div style=""width:500px;"">
  <p>How much control did you have over the ball?</p>
  </div>","77","html-slider-response","30","697783","0.0-7.0-2.3","9","1","2025-07-30 08:38:14","36c45c0696341be0efffe67d72a12abb","45.80.193.156","Mozilla/5.0 (Windows NT 10.0; Win64; x64) AppleWebKit/537.36 (KHTML, like Gecko) Chrome/138.0.0.0 Safari/537.36","WebKit","Chrome","138.0.0.0","Windows","10.0","https://app.prolific.com/","en-US,en;q=0.9,de;q=0.8","66565f702a8c21be63eb93ce","687a19d2168e237449fb8af4","6889d9f19c7fc6a8fabec33d","0","66565f702a8c21be63eb93ce","0","2025-07-30T08:49:53.162Z","","","","ControlQ","","","","","","","","","","","50","","","","","","","","","","","","","","","","","","","","","","","","","","",""
"3454","","<div style=""width:500px;"">
  <p>How would you describe your current emotional state?</p>
  </div>","31","html-slider-response","31","701238","0.0-7.0-3.3","9","1","2025-07-30 08:38:14","36c45c0696341be0efffe67d72a12abb","45.80.193.156","Mozilla/5.0 (Windows NT 10.0; Win64; x64) AppleWebKit/537.36 (KHTML, like Gecko) Chrome/138.0.0.0 Safari/537.36","WebKit","Chrome","138.0.0.0","Windows","10.0","https://app.prolific.com/","en-US,en;q=0.9,de;q=0.8","66565f702a8c21be63eb93ce","687a19d2168e237449fb8af4","6889d9f19c7fc6a8fabec33d","0","66565f702a8c21be63eb93ce","0","2025-07-30T08:49:56.617Z","","","","StressQ","","","","","","","","","","","50","","","","","","","","","","","","","","","","","","","","","","","","","","",""
"7246","","<div style=""width:500px;"">
  <p>What best describes how you currently feel?</p>
  </div>","85","html-slider-response","32","708486","0.0-7.0-4.3","9","1","2025-07-30 08:38:14","36c45c0696341be0efffe67d72a12abb","45.80.193.156","Mozilla/5.0 (Windows NT 10.0; Win64; x64) AppleWebKit/537.36 (KHTML, like Gecko) Chrome/138.0.0.0 Safari/537.36","WebKit","Chrome","138.0.0.0","Windows","10.0","https://app.prolific.com/","en-US,en;q=0.9,de;q=0.8","66565f702a8c21be63eb93ce","687a19d2168e237449fb8af4","6889d9f19c7fc6a8fabec33d","0","66565f702a8c21be63eb93ce","0","2025-07-30T08:50:03.865Z","","","","MotivationQ","","","","","","","","","","","50","","","","","","","","","","","","","","","","","","","","","","","","","","",""
"","","","","ctl-task-cpt","33","753229","0.0-7.0-0.4","9","1","2025-07-30 08:38:14","36c45c0696341be0efffe67d72a12abb","45.80.193.156","Mozilla/5.0 (Windows NT 10.0; Win64; x64) AppleWebKit/537.36 (KHTML, like Gecko) Chrome/138.0.0.0 Safari/537.36","WebKit","Chrome","138.0.0.0","Windows","10.0","https://app.prolific.com/","en-US,en;q=0.9,de;q=0.8","66565f702a8c21be63eb93ce","687a19d2168e237449fb8af4","6889d9f19c7fc6a8fabec33d","0","66565f702a8c21be63eb93ce","0","2025-07-30T08:50:48.607Z","","","","","","","","","","","","","","","","win-only","2","g1:SE,g2:NW","0.6","5","0","709747","1675","6678","41714","1","4","8","6","1","-1","-2","0","0","0","1612","3000","-1655","[""down"",""right""]","{""num_key_presses"":9,""num_perfect"":5,""num_errors"":1,""num_randdir"":3,""num_randdir_good_moves"":0,""num_whilered"":0,""num_whileblue"":1,""num_blue"":3,""num_good_moves"":5}","[419.0714133126395,416.57142761775424,1,419.0714133126395,416.57142761775424,105,419.0714133126395,416.57142761775424,209,419.0714133126395,416.57142761775424,314,419.0714133126395,416.57142761775424,415,419.0714133126395,416.57142761775424,523,419.0714133126395,416.57142761775424,628,419.0714133126395,416.57142761775424,731,419.0714133126395,416.57142761775424,836,419.0714133126395,416.57142761775424,939,419.0714133126395,416.57142761775424,1046,419.0714133126395,416.57142761775424,1147,419.0714133126395,416.57142761775424,1254,419.0714133126395,416.57142761775424,1357,419.0714133126395,416.57142761775424,1458,419.0714133126395,416.57142761775424,1566,761.5714133126395,771.5714276177542,1666,761.5714133126395,771.5714276177542,1773,761.5714133126395,771.5714276177542,1874,761.5714133126395,771.5714276177542,1974,761.5714133126395,771.5714276177542,2077,761.5714133126395,771.5714276177542,2183,761.5714133126395,771.5714276177542,2285,761.5714133126395,771.5714276177542,2386,761.5714133126395,771.5714276177542,2493,761.5714133126395,771.5714276177542,2595,761.5714133126395,771.5714276177542,2699,761.5714133126395,771.5714276177542,2801,761.5714133126395,771.5714276177542,2901,761.5714133126395,771.5714276177542,3001,761.5714133126395,771.5714276177542,3102,761.5714133126395,771.5714276177542,3205,761.5714133126395,771.5714276177542,3310,761.5714133126395,771.5714276177542,3414,761.5714133126395,771.5714276177542,3523,761.5714133126395,771.5714276177542,3623,761.5714133126395,771.5714276177542,3728,761.5714133126395,771.5714276177542,3834,761.5714133126395,771.5714276177542,3937,761.5714133126395,771.5714276177542,4045,761.5714133126395,771.5714276177542,4153,761.5714133126395,771.5714276177542,4256,761.5714133126395,771.5714276177542,4360,761.5714133126395,771.5714276177542,4466,761.5714133126395,771.5714276177542,4570,761.5714133126395,771.5714276177542,4675,761.5714133126395,771.5714276177542,4781,761.5714133126395,771.5714276177542,4886,761.5714133126395,771.5714276177542,4988]","[1629,1629,1000,0,629,""oops"",""down"",""left"",""bad_move"",9332,7702,2561.6,6182,588.4,""oops"",""right"",""left"",""bad_move"",12465,3132,2325.3,9333,806.7,""smooth"",""down"",""down"",""good_move"",15248,2782,2104.7,12466,677.3,""smooth"",""down"",""down"",""good_move"",18386,3137,2414,15249,723,""smooth"",""right"",""right"",""good_move"",21690,3303,2542.7,18387,760.3,""smooth"",""right"",""right"",""good_move"",27684,5992,2332.6,24688,663.4,""oops"",""right"",""left"",""bad_move"",30504,2816,2175.2,27688,640.8,""smooth"",""right"",""right"",""good_move"",33068,2562,2011,30506,551,""while_blue"",""right"",""up"",""bad_move""]"
"23853","","<div style=""width:500px;"">
  <p>What determined the result of this run?</p>
  </div>","74","html-slider-response","34","777085","0.0-7.0-1.4","9","1","2025-07-30 08:38:14","36c45c0696341be0efffe67d72a12abb","45.80.193.156","Mozilla/5.0 (Windows NT 10.0; Win64; x64) AppleWebKit/537.36 (KHTML, like Gecko) Chrome/138.0.0.0 Safari/537.36","WebKit","Chrome","138.0.0.0","Windows","10.0","https://app.prolific.com/","en-US,en;q=0.9,de;q=0.8","66565f702a8c21be63eb93ce","687a19d2168e237449fb8af4","6889d9f19c7fc6a8fabec33d","0","66565f702a8c21be63eb93ce","0","2025-07-30T08:51:12.463Z","","","","AttribQ","","","","","","","","","","","50","","","","","","","","","","","","","","","","","","","","","","","","","","",""
"2869","","<div style=""width:500px;"">
  <p>How much control did you have over the ball?</p>
  </div>","65","html-slider-response","35","779958","0.0-7.0-2.4","9","1","2025-07-30 08:38:14","36c45c0696341be0efffe67d72a12abb","45.80.193.156","Mozilla/5.0 (Windows NT 10.0; Win64; x64) AppleWebKit/537.36 (KHTML, like Gecko) Chrome/138.0.0.0 Safari/537.36","WebKit","Chrome","138.0.0.0","Windows","10.0","https://app.prolific.com/","en-US,en;q=0.9,de;q=0.8","66565f702a8c21be63eb93ce","687a19d2168e237449fb8af4","6889d9f19c7fc6a8fabec33d","0","66565f702a8c21be63eb93ce","0","2025-07-30T08:51:15.336Z","","","","ControlQ","","","","","","","","","","","50","","","","","","","","","","","","","","","","","","","","","","","","","","",""
"2745","","<div style=""width:500px;"">
  <p>How would you describe your current emotional state?</p>
  </div>","34","html-slider-response","36","782705","0.0-7.0-3.4","9","1","2025-07-30 08:38:14","36c45c0696341be0efffe67d72a12abb","45.80.193.156","Mozilla/5.0 (Windows NT 10.0; Win64; x64) AppleWebKit/537.36 (KHTML, like Gecko) Chrome/138.0.0.0 Safari/537.36","WebKit","Chrome","138.0.0.0","Windows","10.0","https://app.prolific.com/","en-US,en;q=0.9,de;q=0.8","66565f702a8c21be63eb93ce","687a19d2168e237449fb8af4","6889d9f19c7fc6a8fabec33d","0","66565f702a8c21be63eb93ce","0","2025-07-30T08:51:18.083Z","","","","StressQ","","","","","","","","","","","50","","","","","","","","","","","","","","","","","","","","","","","","","","",""
"2149","","<div style=""width:500px;"">
  <p>What best describes how you currently feel?</p>
  </div>","76","html-slider-response","37","784855","0.0-7.0-4.4","9","1","2025-07-30 08:38:14","36c45c0696341be0efffe67d72a12abb","45.80.193.156","Mozilla/5.0 (Windows NT 10.0; Win64; x64) AppleWebKit/537.36 (KHTML, like Gecko) Chrome/138.0.0.0 Safari/537.36","WebKit","Chrome","138.0.0.0","Windows","10.0","https://app.prolific.com/","en-US,en;q=0.9,de;q=0.8","66565f702a8c21be63eb93ce","687a19d2168e237449fb8af4","6889d9f19c7fc6a8fabec33d","0","66565f702a8c21be63eb93ce","0","2025-07-30T08:51:20.233Z","","","","MotivationQ","","","","","","","","","","","50","","","","","","","","","","","","","","","","","","","","","","","","","","",""
"","","","","ctl-task-cpt","38","806882","0.0-7.0-0.5","9","1","2025-07-30 08:38:14","36c45c0696341be0efffe67d72a12abb","45.80.193.156","Mozilla/5.0 (Windows NT 10.0; Win64; x64) AppleWebKit/537.36 (KHTML, like Gecko) Chrome/138.0.0.0 Safari/537.36","WebKit","Chrome","138.0.0.0","Windows","10.0","https://app.prolific.com/","en-US,en;q=0.9,de;q=0.8","66565f702a8c21be63eb93ce","687a19d2168e237449fb8af4","6889d9f19c7fc6a8fabec33d","0","66565f702a8c21be63eb93ce","0","2025-07-30T08:51:42.260Z","","","","","","","","","","","","","","","","win-only","0","g1:NW,g2:SE","0.5","6","0","786115","2024","7028","19010","1","4","4","6","1","1","1","1","0","0.007575757575757576","1815","3000","1855","[""left"",""up""]","{""num_key_presses"":4,""num_perfect"":3,""num_errors"":0,""num_randdir"":1,""num_randdir_good_moves"":1,""num_whilered"":0,""num_whileblue"":0,""num_blue"":0,""num_good_moves"":4}","[414.0714133126395,419.07142761775424,0,414.0714133126395,419.07142761775424,106,414.0714133126395,419.07142761775424,213,414.0714133126395,419.07142761775424,317,414.0714133126395,419.07142761775424,422,414.0714133126395,419.07142761775424,527,414.0714133126395,419.07142761775424,630,414.0714133126395,419.07142761775424,741,414.0714133126395,419.07142761775424,848,414.0714133126395,419.07142761775424,956,414.0714133126395,419.07142761775424,1058,414.0714133126395,419.07142761775424,1166,414.0714133126395,419.07142761775424,1274,414.0714133126395,419.07142761775424,1378,414.0714133126395,419.07142761775424,1485,414.0714133126395,419.07142761775424,1589,414.0714133126395,419.07142761775424,1699,86.5714133126395,56.57142761775425,1818,86.5714133126395,56.57142761775425,1918,86.5714133126395,56.57142761775425,2027,86.5714133126395,56.57142761775425,2131,86.5714133126395,56.57142761775425,2232,86.5714133126395,56.57142761775425,2332,86.5714133126395,56.57142761775425,2447,86.5714133126395,56.57142761775425,2556,86.5714133126395,56.57142761775425,2666,86.5714133126395,56.57142761775425,2767,86.5714133126395,56.57142761775425,2867,86.5714133126395,56.57142761775425,2971,86.5714133126395,56.57142761775425,3073,86.5714133126395,56.57142761775425,3173,86.5714133126395,56.57142761775425,3280,86.5714133126395,56.57142761775425,3386,86.5714133126395,56.57142761775425,3495,86.5714133126395,56.57142761775425,3598,86.5714133126395,56.57142761775425,3705,86.5714133126395,56.57142761775425,3811,86.5714133126395,56.57142761775425,3915,86.5714133126395,56.57142761775425,4022,86.5714133126395,56.57142761775425,4128,86.5714133126395,56.57142761775425,4232,86.5714133126395,56.57142761775425,4332,86.5714133126395,56.57142761775425,4436,86.5714133126395,56.57142761775425,4543,86.5714133126395,56.57142761775425,4647,86.5714133126395,56.57142761775425,4748,86.5714133126395,56.57142761775425,4851,86.5714133126395,56.57142761775425,4963]","[1579,1579,1000,0,579,""smooth"",""up"",""up"",""good_move"",5171,3591,2885.1,1580,705.9,""oops"",""left"",""up"",""good_move"",8212,3040,2441.5,5172,598.5,""smooth"",""left"",""left"",""good_move"",11736,3523,2476.8,8213,1046.2,""smooth"",""left"",""left"",""good_move""]"
"3281","","<div style=""width:500px;"">
  <p>What determined the result of this run?</p>
  </div>","90","html-slider-response","39","810164","0.0-7.0-1.5","9","1","2025-07-30 08:38:14","36c45c0696341be0efffe67d72a12abb","45.80.193.156","Mozilla/5.0 (Windows NT 10.0; Win64; x64) AppleWebKit/537.36 (KHTML, like Gecko) Chrome/138.0.0.0 Safari/537.36","WebKit","Chrome","138.0.0.0","Windows","10.0","https://app.prolific.com/","en-US,en;q=0.9,de;q=0.8","66565f702a8c21be63eb93ce","687a19d2168e237449fb8af4","6889d9f19c7fc6a8fabec33d","0","66565f702a8c21be63eb93ce","0","2025-07-30T08:51:45.543Z","","","","AttribQ","","","","","","","","","","","50","","","","","","","","","","","","","","","","","","","","","","","","","","",""
"2170","","<div style=""width:500px;"">
  <p>How much control did you have over the ball?</p>
  </div>","84","html-slider-response","40","812337","0.0-7.0-2.5","9","1","2025-07-30 08:38:14","36c45c0696341be0efffe67d72a12abb","45.80.193.156","Mozilla/5.0 (Windows NT 10.0; Win64; x64) AppleWebKit/537.36 (KHTML, like Gecko) Chrome/138.0.0.0 Safari/537.36","WebKit","Chrome","138.0.0.0","Windows","10.0","https://app.prolific.com/","en-US,en;q=0.9,de;q=0.8","66565f702a8c21be63eb93ce","687a19d2168e237449fb8af4","6889d9f19c7fc6a8fabec33d","0","66565f702a8c21be63eb93ce","0","2025-07-30T08:51:47.715Z","","","","ControlQ","","","","","","","","","","","50","","","","","","","","","","","","","","","","","","","","","","","","","","",""
"2448","","<div style=""width:500px;"">
  <p>How would you describe your current emotional state?</p>
  </div>","16","html-slider-response","41","814788","0.0-7.0-3.5","9","1","2025-07-30 08:38:14","36c45c0696341be0efffe67d72a12abb","45.80.193.156","Mozilla/5.0 (Windows NT 10.0; Win64; x64) AppleWebKit/537.36 (KHTML, like Gecko) Chrome/138.0.0.0 Safari/537.36","WebKit","Chrome","138.0.0.0","Windows","10.0","https://app.prolific.com/","en-US,en;q=0.9,de;q=0.8","66565f702a8c21be63eb93ce","687a19d2168e237449fb8af4","6889d9f19c7fc6a8fabec33d","0","66565f702a8c21be63eb93ce","0","2025-07-30T08:51:50.166Z","","","","StressQ","","","","","","","","","","","50","","","","","","","","","","","","","","","","","","","","","","","","","","",""
"2818","","<div style=""width:500px;"">
  <p>What best describes how you currently feel?</p>
  </div>","87","html-slider-response","42","817609","0.0-7.0-4.5","9","1","2025-07-30 08:38:14","36c45c0696341be0efffe67d72a12abb","45.80.193.156","Mozilla/5.0 (Windows NT 10.0; Win64; x64) AppleWebKit/537.36 (KHTML, like Gecko) Chrome/138.0.0.0 Safari/537.36","WebKit","Chrome","138.0.0.0","Windows","10.0","https://app.prolific.com/","en-US,en;q=0.9,de;q=0.8","66565f702a8c21be63eb93ce","687a19d2168e237449fb8af4","6889d9f19c7fc6a8fabec33d","0","66565f702a8c21be63eb93ce","0","2025-07-30T08:51:52.987Z","","","","MotivationQ","","","","","","","","","","","50","","","","","","","","","","","","","","","","","","","","","","","","","","",""
"","","","","ctl-task-cpt","43","827032","0.0-7.0-0.6","9","1","2025-07-30 08:38:14","36c45c0696341be0efffe67d72a12abb","45.80.193.156","Mozilla/5.0 (Windows NT 10.0; Win64; x64) AppleWebKit/537.36 (KHTML, like Gecko) Chrome/138.0.0.0 Safari/537.36","WebKit","Chrome","138.0.0.0","Windows","10.0","https://app.prolific.com/","en-US,en;q=0.9,de;q=0.8","66565f702a8c21be63eb93ce","687a19d2168e237449fb8af4","6889d9f19c7fc6a8fabec33d","0","66565f702a8c21be63eb93ce","0","2025-07-30T08:52:02.410Z","","","","","","","","","","","","","","","","win-only","3","g1:SW,g2:NE","0.4","7","0","818872","1389","-9999","6400","1","4","8","6","2","-4","-4","0","1","0","5785","3000","3000","[""up"",""right""]","{""num_key_presses"":0,""num_perfect"":0,""num_errors"":0,""num_randdir"":0,""num_randdir_good_moves"":0,""num_whilered"":0,""num_whileblue"":0,""num_blue"":0,""num_good_moves"":0}","[417.8214133126395,407.82142761775424,1,417.8214133126395,407.82142761775424,106,417.8214133126395,407.82142761775424,217,417.8214133126395,407.82142761775424,324,417.8214133126395,407.82142761775424,435,417.8214133126395,407.82142761775424,539,417.8214133126395,407.82142761775424,641,417.8214133126395,407.82142761775424,755,417.8214133126395,407.82142761775424,866,417.8214133126395,407.82142761775424,970,417.8214133126395,407.82142761775424,1077,417.8214133126395,407.82142761775424,1177,417.8214133126395,407.82142761775424,1288,417.8214133126395,407.82142761775424,1394,417.8214133126395,407.82142761775424,1503,417.8214133126395,407.82142761775424,1607,417.8214133126395,407.82142761775424,1719,417.8214133126395,407.82142761775424,1826,417.8214133126395,407.82142761775424,1927,417.8214133126395,407.82142761775424,2032,417.8214133126395,407.82142761775424,2134,417.8214133126395,407.82142761775424,2236,417.8214133126395,407.82142761775424,2337,417.8214133126395,407.82142761775424,2438,417.8214133126395,407.82142761775424,2546,417.8214133126395,407.82142761775424,2651,417.8214133126395,407.82142761775424,2761,417.8214133126395,407.82142761775424,2861,417.8214133126395,407.82142761775424,2962,417.8214133126395,407.82142761775424,3075,417.8214133126395,407.82142761775424,3176,417.8214133126395,407.82142761775424,3290,417.8214133126395,407.82142761775424,3396,417.8214133126395,407.82142761775424,3499,417.8214133126395,407.82142761775424,3610,417.8214133126395,407.82142761775424,3713,417.8214133126395,407.82142761775424,3828,417.8214133126395,407.82142761775424,3934,417.8214133126395,407.82142761775424,4039,417.8214133126395,407.82142761775424,4151,417.8214133126395,407.82142761775424,4263,417.8214133126395,407.82142761775424,4369,417.8214133126395,407.82142761775424,4481,417.8214133126395,407.82142761775424,4582,417.8214133126395,407.82142761775424,4687,417.8214133126395,407.82142761775424,4796,417.8214133126395,407.82142761775424,4899,417.8214133126395,407.82142761775424,5000]","[]"
"3447","","<div style=""width:500px;"">
  <p>What determined the result of this run?</p>
  </div>","13","html-slider-response","44","830483","0.0-7.0-1.6","9","1","2025-07-30 08:38:14","36c45c0696341be0efffe67d72a12abb","45.80.193.156","Mozilla/5.0 (Windows NT 10.0; Win64; x64) AppleWebKit/537.36 (KHTML, like Gecko) Chrome/138.0.0.0 Safari/537.36","WebKit","Chrome","138.0.0.0","Windows","10.0","https://app.prolific.com/","en-US,en;q=0.9,de;q=0.8","66565f702a8c21be63eb93ce","687a19d2168e237449fb8af4","6889d9f19c7fc6a8fabec33d","0","66565f702a8c21be63eb93ce","0","2025-07-30T08:52:05.862Z","","","","AttribQ","","","","","","","","","","","50","","","","","","","","","","","","","","","","","","","","","","","","","","",""
"3442","","<div style=""width:500px;"">
  <p>How much control did you have over the ball?</p>
  </div>","73","html-slider-response","45","833927","0.0-7.0-2.6","9","1","2025-07-30 08:38:14","36c45c0696341be0efffe67d72a12abb","45.80.193.156","Mozilla/5.0 (Windows NT 10.0; Win64; x64) AppleWebKit/537.36 (KHTML, like Gecko) Chrome/138.0.0.0 Safari/537.36","WebKit","Chrome","138.0.0.0","Windows","10.0","https://app.prolific.com/","en-US,en;q=0.9,de;q=0.8","66565f702a8c21be63eb93ce","687a19d2168e237449fb8af4","6889d9f19c7fc6a8fabec33d","0","66565f702a8c21be63eb93ce","0","2025-07-30T08:52:09.306Z","","","","ControlQ","","","","","","","","","","","50","","","","","","","","","","","","","","","","","","","","","","","","","","",""
"2308","","<div style=""width:500px;"">
  <p>How would you describe your current emotional state?</p>
  </div>","51","html-slider-response","46","836237","0.0-7.0-3.6","9","1","2025-07-30 08:38:14","36c45c0696341be0efffe67d72a12abb","45.80.193.156","Mozilla/5.0 (Windows NT 10.0; Win64; x64) AppleWebKit/537.36 (KHTML, like Gecko) Chrome/138.0.0.0 Safari/537.36","WebKit","Chrome","138.0.0.0","Windows","10.0","https://app.prolific.com/","en-US,en;q=0.9,de;q=0.8","66565f702a8c21be63eb93ce","687a19d2168e237449fb8af4","6889d9f19c7fc6a8fabec33d","0","66565f702a8c21be63eb93ce","0","2025-07-30T08:52:11.615Z","","","","StressQ","","","","","","","","","","","50","","","","","","","","","","","","","","","","","","","","","","","","","","",""
"2170","","<div style=""width:500px;"">
  <p>What best describes how you currently feel?</p>
  </div>","74","html-slider-response","47","838409","0.0-7.0-4.6","9","1","2025-07-30 08:38:14","36c45c0696341be0efffe67d72a12abb","45.80.193.156","Mozilla/5.0 (Windows NT 10.0; Win64; x64) AppleWebKit/537.36 (KHTML, like Gecko) Chrome/138.0.0.0 Safari/537.36","WebKit","Chrome","138.0.0.0","Windows","10.0","https://app.prolific.com/","en-US,en;q=0.9,de;q=0.8","66565f702a8c21be63eb93ce","687a19d2168e237449fb8af4","6889d9f19c7fc6a8fabec33d","0","66565f702a8c21be63eb93ce","0","2025-07-30T08:52:13.787Z","","","","MotivationQ","","","","","","","","","","","50","","","","","","","","","","","","","","","","","","","","","","","","","","",""
"","","","","ctl-task-cpt","48","912912","0.0-7.0-0.7","9","1","2025-07-30 08:38:14","36c45c0696341be0efffe67d72a12abb","45.80.193.156","Mozilla/5.0 (Windows NT 10.0; Win64; x64) AppleWebKit/537.36 (KHTML, like Gecko) Chrome/138.0.0.0 Safari/537.36","WebKit","Chrome","138.0.0.0","Windows","10.0","https://app.prolific.com/","en-US,en;q=0.9,de;q=0.8","66565f702a8c21be63eb93ce","687a19d2168e237449fb8af4","6889d9f19c7fc6a8fabec33d","0","66565f702a8c21be63eb93ce","0","2025-07-30T08:53:28.290Z","","","","","","","","","","","","","","","","win-only","0","g1:NW,g2:SE","0.3","8","0","839667","1191","6194","71455","1","4","4","6","1","1","0","0","0","0","2209","3000","1315","[""left"",""up""]","{""num_key_presses"":12,""num_perfect"":3,""num_errors"":1,""num_randdir"":8,""num_randdir_good_moves"":5,""num_whilered"":0,""num_whileblue"":1,""num_blue"":5,""num_good_moves"":8}","[420.3214133126395,422.82142761775424,0,420.3214133126395,422.82142761775424,107,420.3214133126395,422.82142761775424,212,420.3214133126395,422.82142761775424,318,420.3214133126395,422.82142761775424,418,420.3214133126395,422.82142761775424,524,420.3214133126395,422.82142761775424,639,420.3214133126395,422.82142761775424,740,420.3214133126395,422.82142761775424,843,420.3214133126395,422.82142761775424,946,420.3214133126395,422.82142761775424,1054,420.3214133126395,422.82142761775424,1157,420.3214133126395,422.82142761775424,1269,420.3214133126395,422.82142761775424,1369,420.3214133126395,422.82142761775424,1478,420.3214133126395,422.82142761775424,1579,420.3214133126395,422.82142761775424,1693,420.3214133126395,422.82142761775424,1800,420.3214133126395,422.82142761775424,1909,420.3214133126395,422.82142761775424,2015,420.3214133126395,422.82142761775424,2121,117.8214133126395,69.07142761775425,2230,117.8214133126395,69.07142761775425,2341,117.8214133126395,69.07142761775425,2445,117.8214133126395,69.07142761775425,2549,117.8214133126395,69.07142761775425,2661,106.5714133126395,79.07142761775425,2772,106.5714133126395,79.07142761775425,2886,106.5714133126395,79.07142761775425,2997,106.5714133126395,79.07142761775425,3106,106.5714133126395,79.07142761775425,3219,106.5714133126395,79.07142761775425,3331,106.5714133126395,79.07142761775425,3432,106.5714133126395,79.07142761775425,3533,106.5714133126395,79.07142761775425,3636,106.5714133126395,79.07142761775425,3738,106.5714133126395,79.07142761775425,3841,106.5714133126395,79.07142761775425,3957,106.5714133126395,79.07142761775425,4065,106.5714133126395,79.07142761775425,4173,106.5714133126395,79.07142761775425,4283,106.5714133126395,79.07142761775425,4390,106.5714133126395,79.07142761775425,4494,106.5714133126395,79.07142761775425,4598,106.5714133126395,79.07142761775425,4709,106.5714133126395,79.07142761775425,4822,106.5714133126395,79.07142761775425,4931]","[1689,1689,1000,0,689,""oops"",""up"",""left"",""good_move"",5000,3310,2189.9,1690,1120.1,""oops"",""up"",""right"",""bad_move"",19107,14106,2498.7,15546,1062.3,""smooth"",""left"",""left"",""good_move"",23370,4262,2373.5,19108,1888.5,""oops"",""left"",""left"",""good_move"",27954,4583,1900.1,23371,2682.9,""oops"",""up"",""down"",""bad_move"",31229,3273,2441.2,27956,831.8,""oops"",""up"",""up"",""good_move"",35852,4621,2452.1,31231,2168.9,""oops"",""up"",""right"",""bad_move"",42405,6553,2184.6,39482,738.4,""smooth"",""up"",""up"",""good_move"",48497,6091,5448,42406,643,""while_blue"",""up"",""down"",""bad_move"",52226,3728,3012.7,48498,715.3,""oops"",""up"",""left"",""good_move"",58386,6160,2090.9,52226,4069.1,""smooth"",""up"",""up"",""good_move"",64662,6275,1586.1,58387,4688.9,""oops"",""up"",""up"",""good_move""]"
"24591","","<div style=""width:500px;"">
  <p>What determined the result of this run?</p>
  </div>","83","html-slider-response","49","937510","0.0-7.0-1.7","9","1","2025-07-30 08:38:14","36c45c0696341be0efffe67d72a12abb","45.80.193.156","Mozilla/5.0 (Windows NT 10.0; Win64; x64) AppleWebKit/537.36 (KHTML, like Gecko) Chrome/138.0.0.0 Safari/537.36","WebKit","Chrome","138.0.0.0","Windows","10.0","https://app.prolific.com/","en-US,en;q=0.9,de;q=0.8","66565f702a8c21be63eb93ce","687a19d2168e237449fb8af4","6889d9f19c7fc6a8fabec33d","0","66565f702a8c21be63eb93ce","0","2025-07-30T08:53:52.888Z","","","","AttribQ","","","","","","","","","","","50","","","","","","","","","","","","","","","","","","","","","","","","","","",""
"4449","","<div style=""width:500px;"">
  <p>How much control did you have over the ball?</p>
  </div>","84","html-slider-response","50","941960","0.0-7.0-2.7","9","1","2025-07-30 08:38:14","36c45c0696341be0efffe67d72a12abb","45.80.193.156","Mozilla/5.0 (Windows NT 10.0; Win64; x64) AppleWebKit/537.36 (KHTML, like Gecko) Chrome/138.0.0.0 Safari/537.36","WebKit","Chrome","138.0.0.0","Windows","10.0","https://app.prolific.com/","en-US,en;q=0.9,de;q=0.8","66565f702a8c21be63eb93ce","687a19d2168e237449fb8af4","6889d9f19c7fc6a8fabec33d","0","66565f702a8c21be63eb93ce","0","2025-07-30T08:53:57.338Z","","","","ControlQ","","","","","","","","","","","50","","","","","","","","","","","","","","","","","","","","","","","","","","",""
"5198","","<div style=""width:500px;"">
  <p>How would you describe your current emotional state?</p>
  </div>","30","html-slider-response","51","947160","0.0-7.0-3.7","9","1","2025-07-30 08:38:14","36c45c0696341be0efffe67d72a12abb","45.80.193.156","Mozilla/5.0 (Windows NT 10.0; Win64; x64) AppleWebKit/537.36 (KHTML, like Gecko) Chrome/138.0.0.0 Safari/537.36","WebKit","Chrome","138.0.0.0","Windows","10.0","https://app.prolific.com/","en-US,en;q=0.9,de;q=0.8","66565f702a8c21be63eb93ce","687a19d2168e237449fb8af4","6889d9f19c7fc6a8fabec33d","0","66565f702a8c21be63eb93ce","0","2025-07-30T08:54:02.538Z","","","","StressQ","","","","","","","","","","","50","","","","","","","","","","","","","","","","","","","","","","","","","","",""
"4955","","<div style=""width:500px;"">
  <p>What best describes how you currently feel?</p>
  </div>","92","html-slider-response","52","952117","0.0-7.0-4.7","9","1","2025-07-30 08:38:14","36c45c0696341be0efffe67d72a12abb","45.80.193.156","Mozilla/5.0 (Windows NT 10.0; Win64; x64) AppleWebKit/537.36 (KHTML, like Gecko) Chrome/138.0.0.0 Safari/537.36","WebKit","Chrome","138.0.0.0","Windows","10.0","https://app.prolific.com/","en-US,en;q=0.9,de;q=0.8","66565f702a8c21be63eb93ce","687a19d2168e237449fb8af4","6889d9f19c7fc6a8fabec33d","0","66565f702a8c21be63eb93ce","0","2025-07-30T08:54:07.496Z","","","","MotivationQ","","","","","","","","","","","50","","","","","","","","","","","","","","","","","","","","","","","","","","",""
"","","","","ctl-task-cpt","53","1016539","0.0-7.0-0.8","9","1","2025-07-30 08:38:14","36c45c0696341be0efffe67d72a12abb","45.80.193.156","Mozilla/5.0 (Windows NT 10.0; Win64; x64) AppleWebKit/537.36 (KHTML, like Gecko) Chrome/138.0.0.0 Safari/537.36","WebKit","Chrome","138.0.0.0","Windows","10.0","https://app.prolific.com/","en-US,en;q=0.9,de;q=0.8","66565f702a8c21be63eb93ce","687a19d2168e237449fb8af4","6889d9f19c7fc6a8fabec33d","0","66565f702a8c21be63eb93ce","0","2025-07-30T08:55:11.917Z","","","","","","","","","","","","","","","","win-only","2","g1:SE,g2:NW","0.4","9","0","953379","1477","6489","61398","1","4","8","6","2","-8","-8","0","0","0","1451","3000","-1060","[""left"",""up""]","{""num_key_presses"":14,""num_perfect"":6,""num_errors"":0,""num_randdir"":8,""num_randdir_good_moves"":2,""num_whilered"":0,""num_whileblue"":0,""num_blue"":2,""num_good_moves"":8}","[424.0714133126395,416.57142761775424,3,424.0714133126395,416.57142761775424,107,424.0714133126395,416.57142761775424,221,424.0714133126395,416.57142761775424,334,424.0714133126395,416.57142761775424,448,424.0714133126395,416.57142761775424,550,424.0714133126395,416.57142761775424,660,424.0714133126395,416.57142761775424,771,424.0714133126395,416.57142761775424,887,424.0714133126395,416.57142761775424,1001,424.0714133126395,416.57142761775424,1114,424.0714133126395,416.57142761775424,1217,424.0714133126395,416.57142761775424,1323,111.5714133126395,72.82142761775425,1460,111.5714133126395,72.82142761775425,1560,111.5714133126395,72.82142761775425,1671,111.5714133126395,72.82142761775425,1781,111.5714133126395,72.82142761775425,1895,111.5714133126395,72.82142761775425,1995,111.5714133126395,72.82142761775425,2118,111.5714133126395,72.82142761775425,2225,111.5714133126395,72.82142761775425,2336,111.5714133126395,72.82142761775425,2437,111.5714133126395,72.82142761775425,2538,111.5714133126395,72.82142761775425,2645,111.5714133126395,72.82142761775425,2751,111.5714133126395,72.82142761775425,2862,111.5714133126395,72.82142761775425,2977,111.5714133126395,72.82142761775425,3083,111.5714133126395,72.82142761775425,3203,111.5714133126395,72.82142761775425,3308,111.5714133126395,72.82142761775425,3415,111.5714133126395,72.82142761775425,3519,111.5714133126395,72.82142761775425,3637,111.5714133126395,72.82142761775425,3737,111.5714133126395,72.82142761775425,3842,111.5714133126395,72.82142761775425,3944,111.5714133126395,72.82142761775425,4052,111.5714133126395,72.82142761775425,4170,111.5714133126395,72.82142761775425,4273,111.5714133126395,72.82142761775425,4387,111.5714133126395,72.82142761775425,4500,111.5714133126395,72.82142761775425,4610,111.5714133126395,72.82142761775425,4726,111.5714133126395,72.82142761775425,4831,111.5714133126395,72.82142761775425,4941]","[1694,1694,1000,0,694,""oops"",""up"",""down"",""bad_move"",4505,2810,2198.1,1695,611.9,""smooth"",""up"",""up"",""good_move"",8515,4009,1968.7,4506,2040.3,""oops"",""up"",""left"",""good_move"",15126,6610,1998.4,12466,661.6,""oops"",""up"",""up"",""good_move"",18573,3446,2703.4,15127,742.6,""smooth"",""up"",""up"",""good_move"",21880,3306,2253.4,18574,1052.6,""oops"",""up"",""right"",""bad_move"",25086,3205,2518.1,21881,686.9,""smooth"",""up"",""up"",""good_move"",28898,3812,1931,25086,1881,""oops"",""left"",""right"",""bad_move"",35568,6669,2752.3,32126,689.7,""oops"",""left"",""down"",""bad_move"",38684,3115,2379.2,35569,735.8,""smooth"",""left"",""left"",""good_move"",41681,2995,1748.2,38686,1246.8,""oops"",""left"",""down"",""bad_move"",44525,2843,2091.7,41682,751.3,""oops"",""left"",""right"",""bad_move"",48093,3567,2935,44527,631,""smooth"",""up"",""up"",""good_move"",51696,3602,2995.2,48094,606.8,""smooth"",""up"",""up"",""good_move""]"
"3506","","<div style=""width:500px;"">
  <p>What determined the result of this run?</p>
  </div>","8","html-slider-response","54","1020047","0.0-7.0-1.8","9","1","2025-07-30 08:38:14","36c45c0696341be0efffe67d72a12abb","45.80.193.156","Mozilla/5.0 (Windows NT 10.0; Win64; x64) AppleWebKit/537.36 (KHTML, like Gecko) Chrome/138.0.0.0 Safari/537.36","WebKit","Chrome","138.0.0.0","Windows","10.0","https://app.prolific.com/","en-US,en;q=0.9,de;q=0.8","66565f702a8c21be63eb93ce","687a19d2168e237449fb8af4","6889d9f19c7fc6a8fabec33d","0","66565f702a8c21be63eb93ce","0","2025-07-30T08:55:15.425Z","","","","AttribQ","","","","","","","","","","","50","","","","","","","","","","","","","","","","","","","","","","","","","","",""
"2410","","<div style=""width:500px;"">
  <p>How much control did you have over the ball?</p>
  </div>","89","html-slider-response","55","1022458","0.0-7.0-2.8","9","1","2025-07-30 08:38:14","36c45c0696341be0efffe67d72a12abb","45.80.193.156","Mozilla/5.0 (Windows NT 10.0; Win64; x64) AppleWebKit/537.36 (KHTML, like Gecko) Chrome/138.0.0.0 Safari/537.36","WebKit","Chrome","138.0.0.0","Windows","10.0","https://app.prolific.com/","en-US,en;q=0.9,de;q=0.8","66565f702a8c21be63eb93ce","687a19d2168e237449fb8af4","6889d9f19c7fc6a8fabec33d","0","66565f702a8c21be63eb93ce","0","2025-07-30T08:55:17.837Z","","","","ControlQ","","","","","","","","","","","50","","","","","","","","","","","","","","","","","","","","","","","","","","",""
"2936","","<div style=""width:500px;"">
  <p>How would you describe your current emotional state?</p>
  </div>","17","html-slider-response","56","1025397","0.0-7.0-3.8","9","1","2025-07-30 08:38:14","36c45c0696341be0efffe67d72a12abb","45.80.193.156","Mozilla/5.0 (Windows NT 10.0; Win64; x64) AppleWebKit/537.36 (KHTML, like Gecko) Chrome/138.0.0.0 Safari/537.36","WebKit","Chrome","138.0.0.0","Windows","10.0","https://app.prolific.com/","en-US,en;q=0.9,de;q=0.8","66565f702a8c21be63eb93ce","687a19d2168e237449fb8af4","6889d9f19c7fc6a8fabec33d","0","66565f702a8c21be63eb93ce","0","2025-07-30T08:55:20.775Z","","","","StressQ","","","","","","","","","","","50","","","","","","","","","","","","","","","","","","","","","","","","","","",""
"1937","","<div style=""width:500px;"">
  <p>What best describes how you currently feel?</p>
  </div>","84","html-slider-response","57","1027335","0.0-7.0-4.8","9","1","2025-07-30 08:38:14","36c45c0696341be0efffe67d72a12abb","45.80.193.156","Mozilla/5.0 (Windows NT 10.0; Win64; x64) AppleWebKit/537.36 (KHTML, like Gecko) Chrome/138.0.0.0 Safari/537.36","WebKit","Chrome","138.0.0.0","Windows","10.0","https://app.prolific.com/","en-US,en;q=0.9,de;q=0.8","66565f702a8c21be63eb93ce","687a19d2168e237449fb8af4","6889d9f19c7fc6a8fabec33d","0","66565f702a8c21be63eb93ce","0","2025-07-30T08:55:22.714Z","","","","MotivationQ","","","","","","","","","","","50","","","","","","","","","","","","","","","","","","","","","","","","","","",""
"","","","","ctl-task-cpt","58","1092302","0.0-7.0-0.9","9","1","2025-07-30 08:38:14","36c45c0696341be0efffe67d72a12abb","45.80.193.156","Mozilla/5.0 (Windows NT 10.0; Win64; x64) AppleWebKit/537.36 (KHTML, like Gecko) Chrome/138.0.0.0 Safari/537.36","WebKit","Chrome","138.0.0.0","Windows","10.0","https://app.prolific.com/","en-US,en;q=0.9,de;q=0.8","66565f702a8c21be63eb93ce","687a19d2168e237449fb8af4","6889d9f19c7fc6a8fabec33d","0","66565f702a8c21be63eb93ce","0","2025-07-30T08:56:27.681Z","","","","","","","","","","","","","","","","win-only","0","g1:NW,g2:SE","0.5","10","0","1028597","1551","6557","61944","1","4","4","6","2","4","2","2","0","0.015151515151515152","1212","3000","620","[""down"",""right""]","{""num_key_presses"":14,""num_perfect"":7,""num_errors"":2,""num_randdir"":5,""num_randdir_good_moves"":2,""num_whilered"":0,""num_whileblue"":0,""num_blue"":3,""num_good_moves"":9}","[419.0714133126395,414.07142761775424,0,419.0714133126395,414.07142761775424,112,419.0714133126395,414.07142761775424,212,419.0714133126395,414.07142761775424,315,419.0714133126395,414.07142761775424,433,419.0714133126395,414.07142761775424,538,419.0714133126395,414.07142761775424,654,419.0714133126395,414.07142761775424,755,419.0714133126395,414.07142761775424,872,419.0714133126395,414.07142761775424,984,419.0714133126395,414.07142761775424,1090,419.0714133126395,414.07142761775424,1204,785.3214133126395,767.8214276177542,1304,785.3214133126395,767.8214276177542,1413,785.3214133126395,767.8214276177542,1525,785.3214133126395,767.8214276177542,1641,785.3214133126395,767.8214276177542,1747,785.3214133126395,767.8214276177542,1859,785.3214133126395,767.8214276177542,1961,785.3214133126395,767.8214276177542,2075,785.3214133126395,767.8214276177542,2188,785.3214133126395,767.8214276177542,2292,785.3214133126395,767.8214276177542,2407,785.3214133126395,767.8214276177542,2508,785.3214133126395,767.8214276177542,2609,785.3214133126395,767.8214276177542,2710,785.3214133126395,767.8214276177542,2821,785.3214133126395,767.8214276177542,2941,785.3214133126395,767.8214276177542,3043,785.3214133126395,767.8214276177542,3155,785.3214133126395,767.8214276177542,3260,785.3214133126395,767.8214276177542,3374,785.3214133126395,767.8214276177542,3485,785.3214133126395,767.8214276177542,3587,785.3214133126395,767.8214276177542,3694,785.3214133126395,767.8214276177542,3798,785.3214133126395,767.8214276177542,3905,785.3214133126395,767.8214276177542,4031,785.3214133126395,767.8214276177542,4132,785.3214133126395,767.8214276177542,4239,785.3214133126395,767.8214276177542,4343,785.3214133126395,767.8214276177542,4449,785.3214133126395,767.8214276177542,4551,785.3214133126395,767.8214276177542,4660,785.3214133126395,767.8214276177542,4761,785.3214133126395,767.8214276177542,4880,785.3214133126395,767.8214276177542,4982]","[730,730,1000,0,-270,""error"",""-"",""-"",""no_move"",5249,4518,2706.2,1753,789.8,""oops"",""down"",""left"",""bad_move"",8687,3437,2281.8,5250,1155.2,""oops"",""right"",""right"",""good_move"",12293,3605,3010.5,8688,594.5,""oops"",""right"",""up"",""bad_move"",15690,3394,2389.8,12296,1004.2,""oops"",""right"",""down"",""good_move"",18964,3273,2646.7,15691,626.3,""smooth"",""right"",""right"",""good_move"",24976,6011,2049.9,22035,891.1,""smooth"",""right"",""right"",""good_move"",31537,6560,1870.9,28976,690.1,""oops"",""down"",""left"",""bad_move"",35148,3610,2705.8,31538,904.2,""smooth"",""down"",""down"",""good_move"",37024,1875,2591.3,35149,-716.3,""error"",""-"",""-"",""no_move"",45499,8474,2746.5,41976,776.5,""smooth"",""down"",""down"",""good_move"",49157,3656,3026.7,45501,629.3,""smooth"",""down"",""down"",""good_move"",52375,3217,2519.1,49158,697.9,""smooth"",""right"",""right"",""good_move"",55072,2696,1787.1,52376,908.9,""smooth"",""right"",""right"",""good_move""]"
"3733","","<div style=""width:500px;"">
  <p>What determined the result of this run?</p>
  </div>","82","html-slider-response","59","1096038","0.0-7.0-1.9","9","1","2025-07-30 08:38:14","36c45c0696341be0efffe67d72a12abb","45.80.193.156","Mozilla/5.0 (Windows NT 10.0; Win64; x64) AppleWebKit/537.36 (KHTML, like Gecko) Chrome/138.0.0.0 Safari/537.36","WebKit","Chrome","138.0.0.0","Windows","10.0","https://app.prolific.com/","en-US,en;q=0.9,de;q=0.8","66565f702a8c21be63eb93ce","687a19d2168e237449fb8af4","6889d9f19c7fc6a8fabec33d","0","66565f702a8c21be63eb93ce","0","2025-07-30T08:56:31.417Z","","","","AttribQ","","","","","","","","","","","50","","","","","","","","","","","","","","","","","","","","","","","","","","",""
"4412","","<div style=""width:500px;"">
  <p>How much control did you have over the ball?</p>
  </div>","82","html-slider-response","60","1100452","0.0-7.0-2.9","9","1","2025-07-30 08:38:14","36c45c0696341be0efffe67d72a12abb","45.80.193.156","Mozilla/5.0 (Windows NT 10.0; Win64; x64) AppleWebKit/537.36 (KHTML, like Gecko) Chrome/138.0.0.0 Safari/537.36","WebKit","Chrome","138.0.0.0","Windows","10.0","https://app.prolific.com/","en-US,en;q=0.9,de;q=0.8","66565f702a8c21be63eb93ce","687a19d2168e237449fb8af4","6889d9f19c7fc6a8fabec33d","0","66565f702a8c21be63eb93ce","0","2025-07-30T08:56:35.830Z","","","","ControlQ","","","","","","","","","","","50","","","","","","","","","","","","","","","","","","","","","","","","","","",""
"2223","","<div style=""width:500px;"">
  <p>How would you describe your current emotional state?</p>
  </div>","22","html-slider-response","61","1102677","0.0-7.0-3.9","9","1","2025-07-30 08:38:14","36c45c0696341be0efffe67d72a12abb","45.80.193.156","Mozilla/5.0 (Windows NT 10.0; Win64; x64) AppleWebKit/537.36 (KHTML, like Gecko) Chrome/138.0.0.0 Safari/537.36","WebKit","Chrome","138.0.0.0","Windows","10.0","https://app.prolific.com/","en-US,en;q=0.9,de;q=0.8","66565f702a8c21be63eb93ce","687a19d2168e237449fb8af4","6889d9f19c7fc6a8fabec33d","0","66565f702a8c21be63eb93ce","0","2025-07-30T08:56:38.056Z","","","","StressQ","","","","","","","","","","","50","","","","","","","","","","","","","","","","","","","","","","","","","","",""
"1878","","<div style=""width:500px;"">
  <p>What best describes how you currently feel?</p>
  </div>","82","html-slider-response","62","1104557","0.0-7.0-4.9","9","1","2025-07-30 08:38:14","36c45c0696341be0efffe67d72a12abb","45.80.193.156","Mozilla/5.0 (Windows NT 10.0; Win64; x64) AppleWebKit/537.36 (KHTML, like Gecko) Chrome/138.0.0.0 Safari/537.36","WebKit","Chrome","138.0.0.0","Windows","10.0","https://app.prolific.com/","en-US,en;q=0.9,de;q=0.8","66565f702a8c21be63eb93ce","687a19d2168e237449fb8af4","6889d9f19c7fc6a8fabec33d","0","66565f702a8c21be63eb93ce","0","2025-07-30T08:56:39.936Z","","","","MotivationQ","","","","","","","","","","","50","","","","","","","","","","","","","","","","","","","","","","","","","","",""
"","","","","ctl-task-cpt","63","1180030","0.0-7.0-0.10","9","1","2025-07-30 08:38:14","36c45c0696341be0efffe67d72a12abb","45.80.193.156","Mozilla/5.0 (Windows NT 10.0; Win64; x64) AppleWebKit/537.36 (KHTML, like Gecko) Chrome/138.0.0.0 Safari/537.36","WebKit","Chrome","138.0.0.0","Windows","10.0","https://app.prolific.com/","en-US,en;q=0.9,de;q=0.8","66565f702a8c21be63eb93ce","687a19d2168e237449fb8af4","6889d9f19c7fc6a8fabec33d","0","66565f702a8c21be63eb93ce","0","2025-07-30T08:57:55.408Z","","","","","","","","","","","","","","","","win-only","3","g1:SW,g2:NE","0.6","11","0","1105819","14912","19914","72445","1","4","8","6","2","8","8","10","2","0.07575757575757576","1486","3000","640","[""up"",""right""]","{""num_key_presses"":14,""num_perfect"":8,""num_errors"":0,""num_randdir"":6,""num_randdir_good_moves"":2,""num_whilered"":0,""num_whileblue"":0,""num_blue"":1,""num_good_moves"":10}","[419.0714133126395,419.07142761775424,1,419.0714133126395,419.07142761775424,104,419.0714133126395,419.07142761775424,212,419.0714133126395,419.07142761775424,331,419.0714133126395,419.07142761775424,445,419.0714133126395,419.07142761775424,559,419.0714133126395,419.07142761775424,693,419.0714133126395,419.07142761775424,797,419.0714133126395,419.07142761775424,898,419.0714133126395,419.07142761775424,1022,419.0714133126395,419.07142761775424,1185,419.0714133126395,419.07142761775424,1335,419.0714133126395,419.07142761775424,1454,775.3214133126395,92.82142761775425,1569,775.3214133126395,92.82142761775425,1682,767.8214133126395,91.57142761775425,1877,767.8214133126395,91.57142761775425,1986,767.8214133126395,91.57142761775425,2087,767.8214133126395,91.57142761775425,2192,767.8214133126395,91.57142761775425,2295,767.8214133126395,91.57142761775425,2413,767.8214133126395,91.57142761775425,2527,767.8214133126395,91.57142761775425,2633,767.8214133126395,91.57142761775425,2743,767.8214133126395,91.57142761775425,2865,767.8214133126395,91.57142761775425,2973,767.8214133126395,91.57142761775425,3077,767.8214133126395,91.57142761775425,3188,767.8214133126395,91.57142761775425,3299,767.8214133126395,91.57142761775425,3421,767.8214133126395,91.57142761775425,3542,767.8214133126395,91.57142761775425,3649,767.8214133126395,91.57142761775425,3752,767.8214133126395,91.57142761775425,3871,767.8214133126395,91.57142761775425,3993,767.8214133126395,91.57142761775425,4103,767.8214133126395,91.57142761775425,4218,767.8214133126395,91.57142761775425,4323,767.8214133126395,91.57142761775425,4436,767.8214133126395,91.57142761775425,4542,767.8214133126395,91.57142761775425,4658,767.8214133126395,91.57142761775425,4777,767.8214133126395,91.57142761775425,4897]","[1704,1704,1000,0,704,""smooth"",""up"",""up"",""good_move"",5734,4028,2553.1,1706,1474.9,""oops"",""right"",""down"",""bad_move"",8313,2577,1918,5736,659,""oops"",""right"",""right"",""good_move"",11743,3428,2740.5,8315,687.5,""smooth"",""up"",""up"",""good_move"",15565,3821,2767.1,11744,1053.9,""oops"",""right"",""down"",""bad_move"",18170,2604,1971.6,15566,632.4,""oops"",""right"",""left"",""bad_move"",22624,4453,1691.1,18171,2761.9,""smooth"",""up"",""up"",""good_move"",26942,4317,2279.7,22625,2037.3,""smooth"",""right"",""right"",""good_move"",30604,3661,2990.4,26943,670.6,""smooth"",""right"",""right"",""good_move"",32995,2391,1655.3,30605,735.7,""smooth"",""up"",""up"",""good_move"",37060,4064,2574.4,32996,1489.6,""oops"",""up"",""left"",""bad_move"",45237,8176,2763.1,41871,602.9,""oops"",""up"",""right"",""good_move"",48432,3194,2577.7,45238,616.3,""smooth"",""up"",""up"",""good_move"",52221,3787,2724.7,48434,1062.3,""smooth"",""right"",""right"",""good_move""]"
"9958","","<div style=""width:500px;"">
  <p>What determined the result of this run?</p>
  </div>","84","html-slider-response","64","1189991","0.0-7.0-1.10","9","1","2025-07-30 08:38:14","36c45c0696341be0efffe67d72a12abb","45.80.193.156","Mozilla/5.0 (Windows NT 10.0; Win64; x64) AppleWebKit/537.36 (KHTML, like Gecko) Chrome/138.0.0.0 Safari/537.36","WebKit","Chrome","138.0.0.0","Windows","10.0","https://app.prolific.com/","en-US,en;q=0.9,de;q=0.8","66565f702a8c21be63eb93ce","687a19d2168e237449fb8af4","6889d9f19c7fc6a8fabec33d","0","66565f702a8c21be63eb93ce","0","2025-07-30T08:58:05.369Z","","","","AttribQ","","","","","","","","","","","50","","","","","","","","","","","","","","","","","","","","","","","","","","",""
"3179","","<div style=""width:500px;"">
  <p>How much control did you have over the ball?</p>
  </div>","84","html-slider-response","65","1193172","0.0-7.0-2.10","9","1","2025-07-30 08:38:14","36c45c0696341be0efffe67d72a12abb","45.80.193.156","Mozilla/5.0 (Windows NT 10.0; Win64; x64) AppleWebKit/537.36 (KHTML, like Gecko) Chrome/138.0.0.0 Safari/537.36","WebKit","Chrome","138.0.0.0","Windows","10.0","https://app.prolific.com/","en-US,en;q=0.9,de;q=0.8","66565f702a8c21be63eb93ce","687a19d2168e237449fb8af4","6889d9f19c7fc6a8fabec33d","0","66565f702a8c21be63eb93ce","0","2025-07-30T08:58:08.550Z","","","","ControlQ","","","","","","","","","","","50","","","","","","","","","","","","","","","","","","","","","","","","","","",""
"5978","","<div style=""width:500px;"">
  <p>How would you describe your current emotional state?</p>
  </div>","16","html-slider-response","66","1199151","0.0-7.0-3.10","9","1","2025-07-30 08:38:14","36c45c0696341be0efffe67d72a12abb","45.80.193.156","Mozilla/5.0 (Windows NT 10.0; Win64; x64) AppleWebKit/537.36 (KHTML, like Gecko) Chrome/138.0.0.0 Safari/537.36","WebKit","Chrome","138.0.0.0","Windows","10.0","https://app.prolific.com/","en-US,en;q=0.9,de;q=0.8","66565f702a8c21be63eb93ce","687a19d2168e237449fb8af4","6889d9f19c7fc6a8fabec33d","0","66565f702a8c21be63eb93ce","0","2025-07-30T08:58:14.529Z","","","","StressQ","","","","","","","","","","","50","","","","","","","","","","","","","","","","","","","","","","","","","","",""
"2686","","<div style=""width:500px;"">
  <p>What best describes how you currently feel?</p>
  </div>","76","html-slider-response","67","1201840","0.0-7.0-4.10","9","1","2025-07-30 08:38:14","36c45c0696341be0efffe67d72a12abb","45.80.193.156","Mozilla/5.0 (Windows NT 10.0; Win64; x64) AppleWebKit/537.36 (KHTML, like Gecko) Chrome/138.0.0.0 Safari/537.36","WebKit","Chrome","138.0.0.0","Windows","10.0","https://app.prolific.com/","en-US,en;q=0.9,de;q=0.8","66565f702a8c21be63eb93ce","687a19d2168e237449fb8af4","6889d9f19c7fc6a8fabec33d","0","66565f702a8c21be63eb93ce","0","2025-07-30T08:58:17.218Z","","","","MotivationQ","","","","","","","","","","","50","","","","","","","","","","","","","","","","","","","","","","","","","","",""
"","","","","ctl-task-cpt","68","1258855","0.0-7.0-0.11","9","1","2025-07-30 08:38:14","36c45c0696341be0efffe67d72a12abb","45.80.193.156","Mozilla/5.0 (Windows NT 10.0; Win64; x64) AppleWebKit/537.36 (KHTML, like Gecko) Chrome/138.0.0.0 Safari/537.36","WebKit","Chrome","138.0.0.0","Windows","10.0","https://app.prolific.com/","en-US,en;q=0.9,de;q=0.8","66565f702a8c21be63eb93ce","687a19d2168e237449fb8af4","6889d9f19c7fc6a8fabec33d","0","66565f702a8c21be63eb93ce","0","2025-07-30T08:59:14.233Z","","","","","","","","","","","","","","","","win-only","1","g1:NE,g2:SW","0.7","12","0","1203101","1543","6567","53974","1","4","4","6","2","4","4","14","10","0.10606060606060606","1374","3000","1290","[""down"",""left""]","{""num_key_presses"":10,""num_perfect"":7,""num_errors"":0,""num_randdir"":3,""num_randdir_good_moves"":1,""num_whilered"":0,""num_whileblue"":0,""num_blue"":3,""num_good_moves"":8}","[421.5714133126395,416.57142761775424,1,421.5714133126395,416.57142761775424,109,421.5714133126395,416.57142761775424,218,421.5714133126395,416.57142761775424,333,421.5714133126395,416.57142761775424,451,421.5714133126395,416.57142761775424,562,421.5714133126395,416.57142761775424,673,421.5714133126395,416.57142761775424,788,421.5714133126395,416.57142761775424,898,421.5714133126395,416.57142761775424,1011,421.5714133126395,416.57142761775424,1117,421.5714133126395,416.57142761775424,1230,110.3214133126395,774.0714276177542,1377,110.3214133126395,774.0714276177542,1477,110.3214133126395,774.0714276177542,1579,110.3214133126395,774.0714276177542,1688,110.3214133126395,774.0714276177542,1801,110.3214133126395,774.0714276177542,1918,110.3214133126395,774.0714276177542,2023,110.3214133126395,774.0714276177542,2129,110.3214133126395,774.0714276177542,2245,110.3214133126395,774.0714276177542,2354,110.3214133126395,774.0714276177542,2462,110.3214133126395,774.0714276177542,2564,110.3214133126395,774.0714276177542,2665,110.3214133126395,774.0714276177542,2774,110.3214133126395,774.0714276177542,2881,110.3214133126395,774.0714276177542,2995,110.3214133126395,774.0714276177542,3097,110.3214133126395,774.0714276177542,3211,110.3214133126395,774.0714276177542,3324,110.3214133126395,774.0714276177542,3430,110.3214133126395,774.0714276177542,3547,110.3214133126395,774.0714276177542,3661,110.3214133126395,774.0714276177542,3763,110.3214133126395,774.0714276177542,3876,110.3214133126395,774.0714276177542,3986,110.3214133126395,774.0714276177542,4104,110.3214133126395,774.0714276177542,4211,110.3214133126395,774.0714276177542,4324,110.3214133126395,774.0714276177542,4443,110.3214133126395,774.0714276177542,4558,110.3214133126395,774.0714276177542,4673,110.3214133126395,774.0714276177542,4789,110.3214133126395,774.0714276177542,4906]","[1640,1640,1000,0,640,""smooth"",""down"",""down"",""good_move"",4778,3136,2422.6,1642,713.4,""oops"",""down"",""left"",""good_move"",13273,8494,2793.9,9751,728.1,""smooth"",""down"",""down"",""good_move"",16805,3531,2817.8,13274,713.2,""smooth"",""down"",""down"",""good_move"",20341,3535,2309.1,16806,1225.9,""smooth"",""left"",""left"",""good_move"",28331,7989,2716.5,24895,719.5,""oops"",""left"",""right"",""bad_move"",31968,3636,2930.6,28332,705.4,""smooth"",""left"",""left"",""good_move"",36026,4056,2808,31970,1248,""oops"",""left"",""up"",""bad_move"",42711,6683,1495.3,40552,663.7,""smooth"",""left"",""left"",""good_move"",46994,4282,1968.2,42712,2313.8,""smooth"",""down"",""down"",""good_move""]"
"2729","","<div style=""width:500px;"">
  <p>What determined the result of this run?</p>
  </div>","88","html-slider-response","69","1261587","0.0-7.0-1.11","9","1","2025-07-30 08:38:14","36c45c0696341be0efffe67d72a12abb","45.80.193.156","Mozilla/5.0 (Windows NT 10.0; Win64; x64) AppleWebKit/537.36 (KHTML, like Gecko) Chrome/138.0.0.0 Safari/537.36","WebKit","Chrome","138.0.0.0","Windows","10.0","https://app.prolific.com/","en-US,en;q=0.9,de;q=0.8","66565f702a8c21be63eb93ce","687a19d2168e237449fb8af4","6889d9f19c7fc6a8fabec33d","0","66565f702a8c21be63eb93ce","0","2025-07-30T08:59:16.965Z","","","","AttribQ","","","","","","","","","","","50","","","","","","","","","","","","","","","","","","","","","","","","","","",""
"2249","","<div style=""width:500px;"">
  <p>How much control did you have over the ball?</p>
  </div>","89","html-slider-response","70","1263838","0.0-7.0-2.11","9","1","2025-07-30 08:38:14","36c45c0696341be0efffe67d72a12abb","45.80.193.156","Mozilla/5.0 (Windows NT 10.0; Win64; x64) AppleWebKit/537.36 (KHTML, like Gecko) Chrome/138.0.0.0 Safari/537.36","WebKit","Chrome","138.0.0.0","Windows","10.0","https://app.prolific.com/","en-US,en;q=0.9,de;q=0.8","66565f702a8c21be63eb93ce","687a19d2168e237449fb8af4","6889d9f19c7fc6a8fabec33d","0","66565f702a8c21be63eb93ce","0","2025-07-30T08:59:19.216Z","","","","ControlQ","","","","","","","","","","","50","","","","","","","","","","","","","","","","","","","","","","","","","","",""
"2001","","<div style=""width:500px;"">
  <p>How would you describe your current emotional state?</p>
  </div>","16","html-slider-response","71","1265839","0.0-7.0-3.11","9","1","2025-07-30 08:38:14","36c45c0696341be0efffe67d72a12abb","45.80.193.156","Mozilla/5.0 (Windows NT 10.0; Win64; x64) AppleWebKit/537.36 (KHTML, like Gecko) Chrome/138.0.0.0 Safari/537.36","WebKit","Chrome","138.0.0.0","Windows","10.0","https://app.prolific.com/","en-US,en;q=0.9,de;q=0.8","66565f702a8c21be63eb93ce","687a19d2168e237449fb8af4","6889d9f19c7fc6a8fabec33d","0","66565f702a8c21be63eb93ce","0","2025-07-30T08:59:21.217Z","","","","StressQ","","","","","","","","","","","50","","","","","","","","","","","","","","","","","","","","","","","","","","",""
"1988","","<div style=""width:500px;"">
  <p>What best describes how you currently feel?</p>
  </div>","89","html-slider-response","72","1267828","0.0-7.0-4.11","9","1","2025-07-30 08:38:14","36c45c0696341be0efffe67d72a12abb","45.80.193.156","Mozilla/5.0 (Windows NT 10.0; Win64; x64) AppleWebKit/537.36 (KHTML, like Gecko) Chrome/138.0.0.0 Safari/537.36","WebKit","Chrome","138.0.0.0","Windows","10.0","https://app.prolific.com/","en-US,en;q=0.9,de;q=0.8","66565f702a8c21be63eb93ce","687a19d2168e237449fb8af4","6889d9f19c7fc6a8fabec33d","0","66565f702a8c21be63eb93ce","0","2025-07-30T08:59:23.206Z","","","","MotivationQ","","","","","","","","","","","50","","","","","","","","","","","","","","","","","","","","","","","","","","",""
"","","","","ctl-task-cpt","73","1358260","0.0-7.0-0.12","9","1","2025-07-30 08:38:14","36c45c0696341be0efffe67d72a12abb","45.80.193.156","Mozilla/5.0 (Windows NT 10.0; Win64; x64) AppleWebKit/537.36 (KHTML, like Gecko) Chrome/138.0.0.0 Safari/537.36","WebKit","Chrome","138.0.0.0","Windows","10.0","https://app.prolific.com/","en-US,en;q=0.9,de;q=0.8","66565f702a8c21be63eb93ce","687a19d2168e237449fb8af4","6889d9f19c7fc6a8fabec33d","0","66565f702a8c21be63eb93ce","0","2025-07-30T09:00:53.638Z","","","","","","","","","","","","","","","","win-only","0","g1:NW,g2:SE","0.8","13","0","1269092","43978","48997","87405","1","4","8","6","2","8","8","22","14","0.16666666666666666","1693","3000","1435","[""down"",""right""]","{""num_key_presses"":10,""num_perfect"":8,""num_errors"":0,""num_randdir"":2,""num_randdir_good_moves"":0,""num_whilered"":0,""num_whileblue"":0,""num_blue"":1,""num_good_moves"":8}","[426.5714133126395,411.57142761775424,1,426.5714133126395,411.57142761775424,115,426.5714133126395,411.57142761775424,225,426.5714133126395,411.57142761775424,326,426.5714133126395,411.57142761775424,434,426.5714133126395,411.57142761775424,535,426.5714133126395,411.57142761775424,641,426.5714133126395,411.57142761775424,744,426.5714133126395,411.57142761775424,861,426.5714133126395,411.57142761775424,962,426.5714133126395,411.57142761775424,1065,426.5714133126395,411.57142761775424,1178,426.5714133126395,411.57142761775424,1296,426.5714133126395,411.57142761775424,1415,426.5714133126395,411.57142761775424,1516,426.5714133126395,411.57142761775424,1617,762.8214133126395,749.0714276177542,1741,762.8214133126395,749.0714276177542,1858,762.8214133126395,749.0714276177542,1961,762.8214133126395,749.0714276177542,2067,762.8214133126395,749.0714276177542,2186,762.8214133126395,749.0714276177542,2300,762.8214133126395,749.0714276177542,2414,762.8214133126395,749.0714276177542,2538,762.8214133126395,749.0714276177542,2655,762.8214133126395,749.0714276177542,2763,762.8214133126395,749.0714276177542,2881,762.8214133126395,749.0714276177542,2992,762.8214133126395,749.0714276177542,3104,762.8214133126395,749.0714276177542,3205,762.8214133126395,749.0714276177542,3318,762.8214133126395,749.0714276177542,3437,762.8214133126395,749.0714276177542,3549,762.8214133126395,749.0714276177542,3653,762.8214133126395,749.0714276177542,3764,762.8214133126395,749.0714276177542,3873,762.8214133126395,749.0714276177542,3981,762.8214133126395,749.0714276177542,4087,762.8214133126395,749.0714276177542,4205,762.8214133126395,749.0714276177542,4328,762.8214133126395,749.0714276177542,4428,762.8214133126395,749.0714276177542,4548,762.8214133126395,749.0714276177542,4665,762.8214133126395,749.0714276177542,4783,762.8214133126395,749.0714276177542,4883,762.8214133126395,749.0714276177542,4988]","[1833,1833,1000,0,833,""smooth"",""right"",""right"",""good_move"",9090,7255,2863.3,5564,662.7,""smooth"",""right"",""right"",""good_move"",11396,2305,1623.2,9091,681.8,""smooth"",""down"",""down"",""good_move"",14996,3599,2850.8,11397,748.2,""smooth"",""down"",""down"",""good_move"",17770,2774,2096.9,14996,677.1,""oops"",""down"",""left"",""bad_move"",22965,5194,2304.6,17771,2889.4,""oops"",""down"",""up"",""bad_move"",28124,5158,2960.6,22966,2197.4,""smooth"",""right"",""right"",""good_move"",31879,3754,2806.9,28125,947.1,""smooth"",""right"",""right"",""good_move"",34679,2799,2185.2,31880,613.8,""smooth"",""down"",""down"",""good_move"",37982,3303,2652.2,34679,650.8,""smooth"",""down"",""down"",""good_move""]"
"3085","","<div style=""width:500px;"">
  <p>What determined the result of this run?</p>
  </div>","97","html-slider-response","74","1361347","0.0-7.0-1.12","9","1","2025-07-30 08:38:14","36c45c0696341be0efffe67d72a12abb","45.80.193.156","Mozilla/5.0 (Windows NT 10.0; Win64; x64) AppleWebKit/537.36 (KHTML, like Gecko) Chrome/138.0.0.0 Safari/537.36","WebKit","Chrome","138.0.0.0","Windows","10.0","https://app.prolific.com/","en-US,en;q=0.9,de;q=0.8","66565f702a8c21be63eb93ce","687a19d2168e237449fb8af4","6889d9f19c7fc6a8fabec33d","0","66565f702a8c21be63eb93ce","0","2025-07-30T09:00:56.725Z","","","","AttribQ","","","","","","","","","","","50","","","","","","","","","","","","","","","","","","","","","","","","","","",""
"1771","","<div style=""width:500px;"">
  <p>How much control did you have over the ball?</p>
  </div>","91","html-slider-response","75","1363121","0.0-7.0-2.12","9","1","2025-07-30 08:38:14","36c45c0696341be0efffe67d72a12abb","45.80.193.156","Mozilla/5.0 (Windows NT 10.0; Win64; x64) AppleWebKit/537.36 (KHTML, like Gecko) Chrome/138.0.0.0 Safari/537.36","WebKit","Chrome","138.0.0.0","Windows","10.0","https://app.prolific.com/","en-US,en;q=0.9,de;q=0.8","66565f702a8c21be63eb93ce","687a19d2168e237449fb8af4","6889d9f19c7fc6a8fabec33d","0","66565f702a8c21be63eb93ce","0","2025-07-30T09:00:58.499Z","","","","ControlQ","","","","","","","","","","","50","","","","","","","","","","","","","","","","","","","","","","","","","","",""
"4322","","<div style=""width:500px;"">
  <p>How would you describe your current emotional state?</p>
  </div>","6","html-slider-response","76","1367445","0.0-7.0-3.12","9","1","2025-07-30 08:38:14","36c45c0696341be0efffe67d72a12abb","45.80.193.156","Mozilla/5.0 (Windows NT 10.0; Win64; x64) AppleWebKit/537.36 (KHTML, like Gecko) Chrome/138.0.0.0 Safari/537.36","WebKit","Chrome","138.0.0.0","Windows","10.0","https://app.prolific.com/","en-US,en;q=0.9,de;q=0.8","66565f702a8c21be63eb93ce","687a19d2168e237449fb8af4","6889d9f19c7fc6a8fabec33d","0","66565f702a8c21be63eb93ce","0","2025-07-30T09:01:02.823Z","","","","StressQ","","","","","","","","","","","50","","","","","","","","","","","","","","","","","","","","","","","","","","",""
"2809","","<div style=""width:500px;"">
  <p>What best describes how you currently feel?</p>
  </div>","84","html-slider-response","77","1370255","0.0-7.0-4.12","9","1","2025-07-30 08:38:14","36c45c0696341be0efffe67d72a12abb","45.80.193.156","Mozilla/5.0 (Windows NT 10.0; Win64; x64) AppleWebKit/537.36 (KHTML, like Gecko) Chrome/138.0.0.0 Safari/537.36","WebKit","Chrome","138.0.0.0","Windows","10.0","https://app.prolific.com/","en-US,en;q=0.9,de;q=0.8","66565f702a8c21be63eb93ce","687a19d2168e237449fb8af4","6889d9f19c7fc6a8fabec33d","0","66565f702a8c21be63eb93ce","0","2025-07-30T09:01:05.634Z","","","","MotivationQ","","","","","","","","","","","50","","","","","","","","","","","","","","","","","","","","","","","","","","",""
"","","","","ctl-task-cpt","78","1415668","0.0-7.0-0.13","9","1","2025-07-30 08:38:14","36c45c0696341be0efffe67d72a12abb","45.80.193.156","Mozilla/5.0 (Windows NT 10.0; Win64; x64) AppleWebKit/537.36 (KHTML, like Gecko) Chrome/138.0.0.0 Safari/537.36","WebKit","Chrome","138.0.0.0","Windows","10.0","https://app.prolific.com/","en-US,en;q=0.9,de;q=0.8","66565f702a8c21be63eb93ce","687a19d2168e237449fb8af4","6889d9f19c7fc6a8fabec33d","0","66565f702a8c21be63eb93ce","0","2025-07-30T09:01:51.046Z","","","","","","","","","","","","","","","","win-only","2","g1:SE,g2:NW","0.9","14","0","1371519","3100","8118","42379","1","4","4","6","2","4","4","26","22","0.19696969696969696","1466","3000","2175","[""left"",""up""]","{""num_key_presses"":6,""num_perfect"":5,""num_errors"":0,""num_randdir"":1,""num_randdir_good_moves"":1,""num_whilered"":0,""num_whileblue"":0,""num_blue"":2,""num_good_moves"":6}","[405.3214133126395,414.07142761775424,2,405.3214133126395,414.07142761775424,114,405.3214133126395,414.07142761775424,219,405.3214133126395,414.07142761775424,325,405.3214133126395,414.07142761775424,459,405.3214133126395,414.07142761775424,568,405.3214133126395,414.07142761775424,698,405.3214133126395,414.07142761775424,820,405.3214133126395,414.07142761775424,943,405.3214133126395,414.07142761775424,1068,405.3214133126395,414.07142761775424,1181,405.3214133126395,414.07142761775424,1282,77.8214133126395,67.82142761775425,1468,77.8214133126395,67.82142761775425,1575,77.8214133126395,67.82142761775425,1680,77.8214133126395,67.82142761775425,1787,77.8214133126395,67.82142761775425,1901,77.8214133126395,67.82142761775425,2011,77.8214133126395,67.82142761775425,2116,77.8214133126395,67.82142761775425,2216,77.8214133126395,67.82142761775425,2330,77.8214133126395,67.82142761775425,2455,77.8214133126395,67.82142761775425,2565,77.8214133126395,67.82142761775425,2678,77.8214133126395,67.82142761775425,2794,77.8214133126395,67.82142761775425,2915,77.8214133126395,67.82142761775425,3018,77.8214133126395,67.82142761775425,3133,77.8214133126395,67.82142761775425,3239,77.8214133126395,67.82142761775425,3367,77.8214133126395,67.82142761775425,3468,77.8214133126395,67.82142761775425,3586,77.8214133126395,67.82142761775425,3686,77.8214133126395,67.82142761775425,3792,77.8214133126395,67.82142761775425,3899,77.8214133126395,67.82142761775425,4007,77.8214133126395,67.82142761775425,4109,77.8214133126395,67.82142761775425,4228,77.8214133126395,67.82142761775425,4353,77.8214133126395,67.82142761775425,4457,77.8214133126395,67.82142761775425,4567,77.8214133126395,67.82142761775425,4668,77.8214133126395,67.82142761775425,4781,77.8214133126395,67.82142761775425,4887,77.8214133126395,67.82142761775425,4999]","[1653,1653,1000,0,653,""oops"",""up"",""up"",""good_move"",9982,8328,2424.7,6891,666.3,""smooth"",""up"",""up"",""good_move"",14441,4457,2873.8,9984,1583.2,""smooth"",""left"",""left"",""good_move"",19200,4758,3060.5,14442,1697.5,""smooth"",""left"",""left"",""good_move"",24570,5368,2897.5,19202,2470.5,""smooth"",""up"",""up"",""good_move"",33802,9230,2923.1,30150,728.9,""smooth"",""left"",""left"",""good_move""]"
"3147","","<div style=""width:500px;"">
  <p>What determined the result of this run?</p>
  </div>","96","html-slider-response","79","1418817","0.0-7.0-1.13","9","1","2025-07-30 08:38:14","36c45c0696341be0efffe67d72a12abb","45.80.193.156","Mozilla/5.0 (Windows NT 10.0; Win64; x64) AppleWebKit/537.36 (KHTML, like Gecko) Chrome/138.0.0.0 Safari/537.36","WebKit","Chrome","138.0.0.0","Windows","10.0","https://app.prolific.com/","en-US,en;q=0.9,de;q=0.8","66565f702a8c21be63eb93ce","687a19d2168e237449fb8af4","6889d9f19c7fc6a8fabec33d","0","66565f702a8c21be63eb93ce","0","2025-07-30T09:01:54.196Z","","","","AttribQ","","","","","","","","","","","50","","","","","","","","","","","","","","","","","","","","","","","","","","",""
"4149","","<div style=""width:500px;"">
  <p>How much control did you have over the ball?</p>
