"rt","response_timestamp","stimulus","response","trial_type","trial_index","time_elapsed","internal_node_id","run_id","condition","recorded_at","source_code_version","ip","user_agent","device","browser","browser_version","platform","platform_version","referer","accept_language","PROLIFIC_PID","STUDY_ID","SESSION_ID","BATCH","prolific_id","batch","realtime","success","question_order","question_id","eventType","responses","item_order","radio_event_ids","radio_event_times","key_event_times","mouse_event_times","straightlining","zigzagging","honeypot","view_history","slider_start","which_type","canvas_config","goals_layout","control_level","trial_number","tutorial_trial_number","trial_start_time","phase1_start_time","phase2_start_time","phase3_start_time","goal_1_value","goal_1_distance","goal_2_value","goal_2_distance","goal_selected","outcome","outcome_total","participant_final_score","participant_initial_score","participant_final_score_prop","goal_choice_rt","allocated_time","allocated_time_remaining","goal_direction","counts","mouse_movements","key_presses"
"2945","1753868653190","<p style='font-size:40px;line-height:1.25'><strong>Welcome to the experiment!</strong></p><p style='font-size:1.1em;line-height:1.25'>Thank you for participanting in our experiment again! You will be asked to play the Dysfunctional Ball Game again. We will briefly recap the rules before we start.</p><p style='font-size:1.1em;line-height:1.25'>Press <strong>Next</strong> to continue.</p>","0","custom-html-button-response","0","2948","0.0-0.0","85","1","2025-07-30 09:44:08","36c45c0696341be0efffe67d72a12abb","84.67.34.58","Mozilla/5.0 (Macintosh; Intel Mac OS X 10_15_7) AppleWebKit/537.36 (KHTML, like Gecko) Chrome/138.0.0.0 Safari/537.36","Macintosh","Chrome","138.0.0.0","OS X","10_15_7","https://app.prolific.com/","en-GB,en-US;q=0.9,en;q=0.8","6658ba167affbe300577b93d","683dba9a53627eb9ab41b36a","6889e95ddc9ec44f699e8433","0","6658ba167affbe300577b93d","0","2025-07-30T09:44:13.191Z","","","","","","","","","","","","","","","","","","","","","","","","","","","","","","","","","","","","","","","","","",""
"26134","","","","fullscreen","1","30085","0.0-1.0","85","1","2025-07-30 09:44:08","36c45c0696341be0efffe67d72a12abb","84.67.34.58","Mozilla/5.0 (Macintosh; Intel Mac OS X 10_15_7) AppleWebKit/537.36 (KHTML, like Gecko) Chrome/138.0.0.0 Safari/537.36","Macintosh","Chrome","138.0.0.0","OS X","10_15_7","https://app.prolific.com/","en-GB,en-US;q=0.9,en;q=0.8","6658ba167affbe300577b93d","683dba9a53627eb9ab41b36a","6889e95ddc9ec44f699e8433","0","6658ba167affbe300577b93d","0","","true","","","","","","","","","","","","","","","","","","","","","","","","","","","","","","","","","","","","","","","","",""
"3191","1753868683519"," <p style='font-size:1.1em;line-height:1.25'>Thank you for closing all other tabs.</p><p style='font-size:1.1em;line-height:1.25'>We will now invite you to fill in some questionnaires, before starting the game.<br>This will take about 5 minutes.<br></p><p style='font-size:1.1em;line-height:1.25'>Press the <strong>Next</strong> button to continue.</p>","0","custom-html-button-response","2","33277","0.0-2.0","85","1","2025-07-30 09:44:08","36c45c0696341be0efffe67d72a12abb","84.67.34.58","Mozilla/5.0 (Macintosh; Intel Mac OS X 10_15_7) AppleWebKit/537.36 (KHTML, like Gecko) Chrome/138.0.0.0 Safari/537.36","Macintosh","Chrome","138.0.0.0","OS X","10_15_7","https://app.prolific.com/","en-GB,en-US;q=0.9,en;q=0.8","6658ba167affbe300577b93d","683dba9a53627eb9ab41b36a","6889e95ddc9ec44f699e8433","0","6658ba167affbe300577b93d","0","2025-07-30T09:44:43.520Z","","","","","","","","","","","","","","","","","","","","","","","","","","","","","","","","","","","","","","","","","",""
"2517","","","{""assigned_sex"":""female""}","survey-multi-choice","3","35797","0.0-3.0-0.0","85","1","2025-07-30 09:44:08","36c45c0696341be0efffe67d72a12abb","84.67.34.58","Mozilla/5.0 (Macintosh; Intel Mac OS X 10_15_7) AppleWebKit/537.36 (KHTML, like Gecko) Chrome/138.0.0.0 Safari/537.36","Macintosh","Chrome","138.0.0.0","OS X","10_15_7","https://app.prolific.com/","en-GB,en-US;q=0.9,en;q=0.8","6658ba167affbe300577b93d","683dba9a53627eb9ab41b36a","6889e95ddc9ec44f699e8433","0","6658ba167affbe300577b93d","0","","","[0]","0","demographics","","","","","","","","","","","","","","","","","","","","","","","","","","","","","","","","","","","","","",""
"2720","1753868688761","<p style='font-size:1.1em;line-height:1.25'>In the following, we will perform a baseline assessment. This means that we will ask you a few questions relating to your experiences over the past month.<br></p><p style='font-size:1.1em;line-height:1.25'>Press the <strong>Next</strong> button to continue.</p>","0","custom-html-button-response","4","38518","0.0-4.0-0.0","85","1","2025-07-30 09:44:08","36c45c0696341be0efffe67d72a12abb","84.67.34.58","Mozilla/5.0 (Macintosh; Intel Mac OS X 10_15_7) AppleWebKit/537.36 (KHTML, like Gecko) Chrome/138.0.0.0 Safari/537.36","Macintosh","Chrome","138.0.0.0","OS X","10_15_7","https://app.prolific.com/","en-GB,en-US;q=0.9,en;q=0.8","6658ba167affbe300577b93d","683dba9a53627eb9ab41b36a","6889e95ddc9ec44f699e8433","0","6658ba167affbe300577b93d","0","2025-07-30T09:44:48.761Z","","","","","","","","","","","","","","","","","","","","","","","","","","","","","","","","","","","","","","","","","",""
"36464.60000000149","","","","survey-template","5","74986","0.0-4.0-1.0","85","1","2025-07-30 09:44:08","36c45c0696341be0efffe67d72a12abb","84.67.34.58","Mozilla/5.0 (Macintosh; Intel Mac OS X 10_15_7) AppleWebKit/537.36 (KHTML, like Gecko) Chrome/138.0.0.0 Safari/537.36","Macintosh","Chrome","138.0.0.0","OS X","10_15_7","https://app.prolific.com/","en-GB,en-US;q=0.9,en;q=0.8","6658ba167affbe300577b93d","683dba9a53627eb9ab41b36a","6889e95ddc9ec44f699e8433","0","6658ba167affbe300577b93d","0","2025-07-30T09:45:25.229Z","","","","pss","{""Q01"":""2"",""Q02"":""1"",""Q03"":""2"",""Q04"":""2"",""Q05"":""2"",""Q06"":""2"",""Q07"":""2"",""Q08"":""2"",""Q09"":""1"",""Q10"":""2""}","[0,1,2,3,4,5,6,7,8,9]","[""Q01"",""Q02"",""Q03"",""Q04"",""Q05"",""Q06"",""Q07"",""Q08"",""Q09"",""Q10"",""Q10"",""Q06"",""Q04""]","[3183.2000000029802,6816.20000000298,8436,11451.89999999851,12485.29999999702,14488.20000000298,18414.60000000149,23263,26885.60000000149,29225.29999999702,29809.60000000149,32128.89999999851,35514.29999999702]","[]","[0.10000000149011612,3183.2000000029802,6816.20000000298,8436,11451.89999999851,12485.29999999702,14488.20000000298,18414.60000000149,23263,26885.60000000149,29225.29999999702,29809.60000000149,32128.89999999851,35514.29999999702,36460]","0.8","0.4444444444444444","0","","","","","","","","","","","","","","","","","","","","","","","","","","","","",""
"2051","1753868727282","<p style='font-size:1.1em;line-height:1.25'>Thank you for your answers! Now we will ask you a few more questions relating to your feelings in the last 24 hours.<br></p><p style='font-size:1.1em;line-height:1.25'>Press the <strong>Next</strong> button to continue.</p>","0","custom-html-button-response","6","77039","0.0-4.0-2.0","85","1","2025-07-30 09:44:08","36c45c0696341be0efffe67d72a12abb","84.67.34.58","Mozilla/5.0 (Macintosh; Intel Mac OS X 10_15_7) AppleWebKit/537.36 (KHTML, like Gecko) Chrome/138.0.0.0 Safari/537.36","Macintosh","Chrome","138.0.0.0","OS X","10_15_7","https://app.prolific.com/","en-GB,en-US;q=0.9,en;q=0.8","6658ba167affbe300577b93d","683dba9a53627eb9ab41b36a","6889e95ddc9ec44f699e8433","0","6658ba167affbe300577b93d","0","2025-07-30T09:45:27.282Z","","","","","","","","","","","","","","","","","","","","","","","","","","","","","","","","","","","","","","","","","",""
"45125.09999999404","","","","survey-template","7","122169","0.0-4.0-3.0","85","1","2025-07-30 09:44:08","36c45c0696341be0efffe67d72a12abb","84.67.34.58","Mozilla/5.0 (Macintosh; Intel Mac OS X 10_15_7) AppleWebKit/537.36 (KHTML, like Gecko) Chrome/138.0.0.0 Safari/537.36","Macintosh","Chrome","138.0.0.0","OS X","10_15_7","https://app.prolific.com/","en-GB,en-US;q=0.9,en;q=0.8","6658ba167affbe300577b93d","683dba9a53627eb9ab41b36a","6889e95ddc9ec44f699e8433","0","6658ba167affbe300577b93d","0","2025-07-30T09:46:12.412Z","","","","drsp","{""Q01"":""1"",""Q02"":""0"",""Q03"":""0"",""Q04"":""2"",""Q05"":""0"",""Q06"":""0"",""Q07"":""1"",""Q08"":""0"",""Q09"":""0"",""Q10"":""0"",""Q11"":""2"",""Q12"":""0"",""Q13"":""5"",""Q14"":""0"",""Q15"":""2"",""Q16"":""1"",""Q17"":""2"",""Q18"":""0"",""Q19"":""0"",""Q20"":""0"",""Q21"":""0"",""Q22"":""0""}","[0,1,2,3,4,5,6,7,8,9,10,11,12,13,14,15,16,17,18,19,20,21]","[""Q01"",""Q02"",""Q02"",""Q03"",""Q04"",""Q05"",""Q06"",""Q07"",""Q08"",""Q09"",""Q10"",""Q11"",""Q12"",""Q13"",""Q14"",""Q15"",""Q16"",""Q17"",""Q18"",""Q20"",""Q21"",""Q22"",""Q19""]","[3573.5999999940395,4394.5999999940395,5643.69999999553,7060.79999999702,8242.69999999553,9659.29999999702,11775.19999999553,13821.5,14923.39999999851,16173.69999999553,17231.19999999553,19570.89999999851,21798.59999999404,23304.59999999404,25859.79999999702,28852.09999999404,30157.09999999404,32350.19999999553,34655.5,38110.89999999851,39493.19999999553,40955.29999999702,44154.39999999851]","[]","[0,3573.5999999940395,4394.5999999940395,5643.69999999553,7060.79999999702,8242.69999999553,9659.29999999702,11775.19999999553,13821.5,14923.39999999851,16173.69999999553,17231.19999999553,19570.89999999851,20673.19999999553,21798.59999999404,23304.59999999404,25859.79999999702,28852.09999999404,30157.09999999404,32350.19999999553,34655.5,36939.89999999851,38110.89999999851,39493.19999999553,40955.29999999702,41687.59999999404,44154.39999999851,45119.09999999404]","0.6363636363636364","0.3333333333333333","0","","","","","","","","","","","","","","","","","","","","","","","","","","","","",""
"5787.19999999553","","","","survey-template","8","127958","0.0-4.0-4.0","85","1","2025-07-30 09:44:08","36c45c0696341be0efffe67d72a12abb","84.67.34.58","Mozilla/5.0 (Macintosh; Intel Mac OS X 10_15_7) AppleWebKit/537.36 (KHTML, like Gecko) Chrome/138.0.0.0 Safari/537.36","Macintosh","Chrome","138.0.0.0","OS X","10_15_7","https://app.prolific.com/","en-GB,en-US;q=0.9,en;q=0.8","6658ba167affbe300577b93d","683dba9a53627eb9ab41b36a","6889e95ddc9ec44f699e8433","0","6658ba167affbe300577b93d","0","2025-07-30T09:46:18.202Z","","","","stress","{""Q01"":""2"",""Q02"":""3"",""Q03"":""1""}","[0,1,2]","[""Q01"",""Q02"",""Q03""]","[1623.0999999940395,3816.39999999851,5076.39999999851]","[]","[1623.0999999940395,3816.39999999851,5076.39999999851,5785.5]","0.6666666666666666","0.5","0","","","","","","","","","","","","","","","","","","","","","","","","","","","","",""
"1549","","","","instructions","9","129509","0.0-5.0-0.0","85","1","2025-07-30 09:44:08","36c45c0696341be0efffe67d72a12abb","84.67.34.58","Mozilla/5.0 (Macintosh; Intel Mac OS X 10_15_7) AppleWebKit/537.36 (KHTML, like Gecko) Chrome/138.0.0.0 Safari/537.36","Macintosh","Chrome","138.0.0.0","OS X","10_15_7","https://app.prolific.com/","en-GB,en-US;q=0.9,en;q=0.8","6658ba167affbe300577b93d","683dba9a53627eb9ab41b36a","6889e95ddc9ec44f699e8433","0","6658ba167affbe300577b93d","0","","","","","","","","","","","","","","","[{""page_index"":0,""viewing_time"":1549}]","","","","","","","","","","","","","","","","","","","","","","","","","","","",""
"2293","","<p>Before you start with this game please answer the following three questions yourself. </p>
  <p>Through this game, we measure several aspects of your cognitive performance, such as reaction times, multi-tasking capabilities </p>
  <p>and the ability to assess the situation you are in.</p>
  <p></p>
  <p><b>How good do you usually are in such tasks?</b></p>","61","html-slider-response","10","131804","0.0-6.0-0.0","85","1","2025-07-30 09:44:08","36c45c0696341be0efffe67d72a12abb","84.67.34.58","Mozilla/5.0 (Macintosh; Intel Mac OS X 10_15_7) AppleWebKit/537.36 (KHTML, like Gecko) Chrome/138.0.0.0 Safari/537.36","Macintosh","Chrome","138.0.0.0","OS X","10_15_7","https://app.prolific.com/","en-GB,en-US;q=0.9,en;q=0.8","6658ba167affbe300577b93d","683dba9a53627eb9ab41b36a","6889e95ddc9ec44f699e8433","0","6658ba167affbe300577b93d","0","2025-07-30T09:46:22.047Z","","","","PreSkillQ","","","","","","","","","","","50","","","","","","","","","","","","","","","","","","","","","","","","","","",""
"2183","","<div style=""width:500px;"">
  <p>How well do you think you will perform in this task compared to other participants?</p>
  </div>","69","html-slider-response","11","133988","0.0-6.0-1.0","85","1","2025-07-30 09:44:08","36c45c0696341be0efffe67d72a12abb","84.67.34.58","Mozilla/5.0 (Macintosh; Intel Mac OS X 10_15_7) AppleWebKit/537.36 (KHTML, like Gecko) Chrome/138.0.0.0 Safari/537.36","Macintosh","Chrome","138.0.0.0","OS X","10_15_7","https://app.prolific.com/","en-GB,en-US;q=0.9,en;q=0.8","6658ba167affbe300577b93d","683dba9a53627eb9ab41b36a","6889e95ddc9ec44f699e8433","0","6658ba167affbe300577b93d","0","2025-07-30T09:46:24.231Z","","","","PrePerfQ","","","","","","","","","","","50","","","","","","","","","","","","","","","","","","","","","","","","","","",""
"2820","","<div style=""width:500px;"">
  <p>What best describes how you currently feel?</p>
  </div>","72","html-slider-response","12","136810","0.0-6.0-2.0","85","1","2025-07-30 09:44:08","36c45c0696341be0efffe67d72a12abb","84.67.34.58","Mozilla/5.0 (Macintosh; Intel Mac OS X 10_15_7) AppleWebKit/537.36 (KHTML, like Gecko) Chrome/138.0.0.0 Safari/537.36","Macintosh","Chrome","138.0.0.0","OS X","10_15_7","https://app.prolific.com/","en-GB,en-US;q=0.9,en;q=0.8","6658ba167affbe300577b93d","683dba9a53627eb9ab41b36a","6889e95ddc9ec44f699e8433","0","6658ba167affbe300577b93d","0","2025-07-30T09:46:27.053Z","","","","PreMotivationQ","","","","","","","","","","","50","","","","","","","","","","","","","","","","","","","","","","","","","","",""
"","","","","ctl-task-cpt","13","174010","0.0-7.0-0.0","85","1","2025-07-30 09:44:08","36c45c0696341be0efffe67d72a12abb","84.67.34.58","Mozilla/5.0 (Macintosh; Intel Mac OS X 10_15_7) AppleWebKit/537.36 (KHTML, like Gecko) Chrome/138.0.0.0 Safari/537.36","Macintosh","Chrome","138.0.0.0","OS X","10_15_7","https://app.prolific.com/","en-GB,en-US;q=0.9,en;q=0.8","6658ba167affbe300577b93d","683dba9a53627eb9ab41b36a","6889e95ddc9ec44f699e8433","0","6658ba167affbe300577b93d","0","2025-07-30T09:47:04.253Z","","","","","","","","","","","","","","","","win-only","0","g1:NW,g2:SE","1","1","0","138874.6","2596.9","7597.7","34181.6","1","4","8","6","2","8","8","8","0","0.06060606060606061","1700.9","3000","500","[""down"",""right""]","{""num_key_presses"":6,""num_perfect"":6,""num_errors"":0,""num_randdir"":0,""num_randdir_good_moves"":0,""num_whilered"":0,""num_whileblue"":0,""num_blue"":3,""num_good_moves"":6}","[690.2857142857143,700.0825892857143,0.3,690.2857142857143,702.0825892857143,101.4,692.2857142857143,702.0825892857143,204.3,692.2857142857143,702.0825892857143,309.2,692.2857142857143,702.0825892857143,409.6,692.2857142857143,702.0825892857143,509.7,692.2857142857143,702.0825892857143,616.9,692.2857142857143,702.0825892857143,719.2,692.2857142857143,702.0825892857143,824.7,692.2857142857143,702.0825892857143,932.6,692.2857142857143,702.0825892857143,1033.6,1240.2857142857142,1392.0825892857142,1134.3,1252.2857142857142,1408.0825892857142,1235.1,1206.2857142857142,1292.0825892857142,1335.6,1208.2857142857142,1260.0825892857142,1439.9,1208.2857142857142,1260.0825892857142,1550.7,1208.2857142857142,1260.0825892857142,1655.2,1208.2857142857142,1260.0825892857142,1760.2,1208.2857142857142,1260.0825892857142,1866.9,1208.2857142857142,1260.0825892857142,1969.7,1208.2857142857142,1260.0825892857142,2075.1,1208.2857142857142,1260.0825892857142,2175.1,1208.2857142857142,1260.0825892857142,2279.2,1208.2857142857142,1260.0825892857142,2381.4,1208.2857142857142,1260.0825892857142,2481.4,1208.2857142857142,1260.0825892857142,2585.4,1208.2857142857142,1260.0825892857142,2689.3,1208.2857142857142,1260.0825892857142,2789.8,1208.2857142857142,1260.0825892857142,2894.7,1208.2857142857142,1260.0825892857142,2998.8,1208.2857142857142,1260.0825892857142,3101.9,1208.2857142857142,1260.0825892857142,3204.2,1208.2857142857142,1260.0825892857142,3304.8,1208.2857142857142,1260.0825892857142,3409.4,1208.2857142857142,1260.0825892857142,3510,1208.2857142857142,1260.0825892857142,3610.1,1208.2857142857142,1260.0825892857142,3717.1,1208.2857142857142,1260.0825892857142,3817.6,1208.2857142857142,1260.0825892857142,3919.5,1208.2857142857142,1260.0825892857142,4019.8,1208.2857142857142,1260.0825892857142,4125.3,1208.2857142857142,1260.0825892857142,4233.8,1208.2857142857142,1260.0825892857142,4340.1,1208.2857142857142,1260.0825892857142,4444.1,1208.2857142857142,1260.0825892857142,4545.2,1208.2857142857142,1260.0825892857142,4650.5,1208.2857142857142,1260.0825892857142,4755,1208.2857142857142,1260.0825892857142,4859.8,1208.2857142857142,1260.0825892857142,4967.1]","[4950.2,4950.2,2479,2003.5,467.7,""smooth"",""down"",""down"",""good_move"",7219.7,2268.9,1640.4,4950.8,628.5,""smooth"",""down"",""down"",""good_move"",10457.3,3237.2,2833,7220.1,404.2,""smooth"",""right"",""right"",""good_move"",13698.1,3240.3,2783.6,10457.8,456.7,""smooth"",""right"",""right"",""good_move"",16266.2,2567.8,2164.9,13698.4,402.9,""smooth"",""right"",""right"",""good_move"",26484.2,10217.8,2495.9,23547.8,440.5,""smooth"",""down"",""down"",""good_move""]"
"2646","","<div style=""width:500px;"">
  <p>What determined the result of this run?</p>
  </div>","100","html-slider-response","14","176658","0.0-7.0-1.0","85","1","2025-07-30 09:44:08","36c45c0696341be0efffe67d72a12abb","84.67.34.58","Mozilla/5.0 (Macintosh; Intel Mac OS X 10_15_7) AppleWebKit/537.36 (KHTML, like Gecko) Chrome/138.0.0.0 Safari/537.36","Macintosh","Chrome","138.0.0.0","OS X","10_15_7","https://app.prolific.com/","en-GB,en-US;q=0.9,en;q=0.8","6658ba167affbe300577b93d","683dba9a53627eb9ab41b36a","6889e95ddc9ec44f699e8433","0","6658ba167affbe300577b93d","0","2025-07-30T09:47:06.901Z","","","","AttribQ","","","","","","","","","","","50","","","","","","","","","","","","","","","","","","","","","","","","","","",""
"2857","","<div style=""width:500px;"">
  <p>How much control did you have over the ball?</p>
  </div>","100","html-slider-response","15","179516","0.0-7.0-2.0","85","1","2025-07-30 09:44:08","36c45c0696341be0efffe67d72a12abb","84.67.34.58","Mozilla/5.0 (Macintosh; Intel Mac OS X 10_15_7) AppleWebKit/537.36 (KHTML, like Gecko) Chrome/138.0.0.0 Safari/537.36","Macintosh","Chrome","138.0.0.0","OS X","10_15_7","https://app.prolific.com/","en-GB,en-US;q=0.9,en;q=0.8","6658ba167affbe300577b93d","683dba9a53627eb9ab41b36a","6889e95ddc9ec44f699e8433","0","6658ba167affbe300577b93d","0","2025-07-30T09:47:09.759Z","","","","ControlQ","","","","","","","","","","","50","","","","","","","","","","","","","","","","","","","","","","","","","","",""
"2417","","<div style=""width:500px;"">
  <p>How would you describe your current emotional state?</p>
  </div>","38","html-slider-response","16","181934","0.0-7.0-3.0","85","1","2025-07-30 09:44:08","36c45c0696341be0efffe67d72a12abb","84.67.34.58","Mozilla/5.0 (Macintosh; Intel Mac OS X 10_15_7) AppleWebKit/537.36 (KHTML, like Gecko) Chrome/138.0.0.0 Safari/537.36","Macintosh","Chrome","138.0.0.0","OS X","10_15_7","https://app.prolific.com/","en-GB,en-US;q=0.9,en;q=0.8","6658ba167affbe300577b93d","683dba9a53627eb9ab41b36a","6889e95ddc9ec44f699e8433","0","6658ba167affbe300577b93d","0","2025-07-30T09:47:12.178Z","","","","StressQ","","","","","","","","","","","50","","","","","","","","","","","","","","","","","","","","","","","","","","",""
"1718","","<div style=""width:500px;"">
  <p>What best describes how you currently feel?</p>
  </div>","73","html-slider-response","17","183654","0.0-7.0-4.0","85","1","2025-07-30 09:44:08","36c45c0696341be0efffe67d72a12abb","84.67.34.58","Mozilla/5.0 (Macintosh; Intel Mac OS X 10_15_7) AppleWebKit/537.36 (KHTML, like Gecko) Chrome/138.0.0.0 Safari/537.36","Macintosh","Chrome","138.0.0.0","OS X","10_15_7","https://app.prolific.com/","en-GB,en-US;q=0.9,en;q=0.8","6658ba167affbe300577b93d","683dba9a53627eb9ab41b36a","6889e95ddc9ec44f699e8433","0","6658ba167affbe300577b93d","0","2025-07-30T09:47:13.897Z","","","","MotivationQ","","","","","","","","","","","50","","","","","","","","","","","","","","","","","","","","","","","","","","",""
"","","","","ctl-task-cpt","18","224642","0.0-7.0-0.1","85","1","2025-07-30 09:44:08","36c45c0696341be0efffe67d72a12abb","84.67.34.58","Mozilla/5.0 (Macintosh; Intel Mac OS X 10_15_7) AppleWebKit/537.36 (KHTML, like Gecko) Chrome/138.0.0.0 Safari/537.36","Macintosh","Chrome","138.0.0.0","OS X","10_15_7","https://app.prolific.com/","en-GB,en-US;q=0.9,en;q=0.8","6658ba167affbe300577b93d","683dba9a53627eb9ab41b36a","6889e95ddc9ec44f699e8433","0","6658ba167affbe300577b93d","0","2025-07-30T09:47:54.885Z","","","","","","","","","","","","","","","","win-only","0","g1:NW,g2:SE","0.9","2","0","185717.2","610.1","5611.4","37972.3","1","4","4","6","2","4","3","11","8","0.08333333333333333","992.4","3000","85","[""down"",""right""]","{""num_key_presses"":9,""num_perfect"":7,""num_errors"":1,""num_randdir"":1,""num_randdir_good_moves"":0,""num_whilered"":0,""num_whileblue"":0,""num_blue"":3,""num_good_moves"":7}","[702.2857142857143,700.0825892857143,0.9,702.2857142857143,700.0825892857143,101.5,702.2857142857143,700.0825892857143,206.5,702.2857142857143,700.0825892857143,313.9,780.2857142857143,850.0825892857143,417,1334.2857142857142,1278.0825892857142,520.5,1354.2857142857142,1290.0825892857142,621.9,1352.2857142857142,1290.0825892857142,731.8,1252.2857142857142,1260.0825892857142,832.5,1252.2857142857142,1260.0825892857142,936.4,1252.2857142857142,1260.0825892857142,1047.8,1252.2857142857142,1260.0825892857142,1151.6,1468.2857142857142,1330.0825892857142,1263.5,1926.2857142857142,1374.0825892857142,1366.4,1918.2857142857142,1370.0825892857142,1466.5,1918.2857142857142,1370.0825892857142,1571.7,1918.2857142857142,1370.0825892857142,1677.6,1918.2857142857142,1370.0825892857142,1779.6,1918.2857142857142,1370.0825892857142,1880.6,1918.2857142857142,1370.0825892857142,1980.7,1918.2857142857142,1370.0825892857142,2080.9,1918.2857142857142,1370.0825892857142,2181.6,1918.2857142857142,1370.0825892857142,2286,1918.2857142857142,1370.0825892857142,2386.1,1918.2857142857142,1370.0825892857142,2486.2,1918.2857142857142,1370.0825892857142,2586.2,1918.2857142857142,1370.0825892857142,2695.5,1918.2857142857142,1370.0825892857142,2796.4,1918.2857142857142,1370.0825892857142,2896.5,1918.2857142857142,1370.0825892857142,3000.7,1918.2857142857142,1370.0825892857142,3101.2,1918.2857142857142,1370.0825892857142,3205.9,1918.2857142857142,1370.0825892857142,3310.7,1918.2857142857142,1370.0825892857142,3417.4,1918.2857142857142,1370.0825892857142,3520.8,1918.2857142857142,1370.0825892857142,3620.9,1918.2857142857142,1370.0825892857142,3726.3,1918.2857142857142,1370.0825892857142,3829.5,1918.2857142857142,1370.0825892857142,3931.1,1918.2857142857142,1370.0825892857142,4031.5,1918.2857142857142,1370.0825892857142,4136.3,1918.2857142857142,1370.0825892857142,4240.4,1918.2857142857142,1370.0825892857142,4340.7,1918.2857142857142,1370.0825892857142,4444.4,1918.2857142857142,1370.0825892857142,4546.7,1918.2857142857142,1370.0825892857142,4650.7,1918.2857142857142,1370.0825892857142,4751.2,1918.2857142857142,1370.0825892857142,4855.9,1918.2857142857142,1370.0825892857142,4956.3]","[8003.2,8003.2,2038.6,5560.9,403.7,""oops"",""down"",""up"",""bad_move"",10385.3,2381.7,1979,8003.6,402.7,""smooth"",""right"",""right"",""good_move"",13298.9,2913.3,2515.3,10385.6,398,""smooth"",""right"",""right"",""good_move"",15567,2266.3,1814.9,13300.7,451.4,""smooth"",""down"",""down"",""good_move"",15648.4,81.2,1718.6,15567.3,-1637.5,""error"",""-"",""-"",""no_move"",19375.9,3727.3,2318.3,16649.5,408.1,""smooth"",""down"",""down"",""good_move"",22316.1,2939.6,2595.6,19376.5,344,""smooth"",""down"",""down"",""good_move"",29526.2,7209.6,2528.6,26565,432.6,""smooth"",""down"",""down"",""good_move"",32259.1,2732.6,2347.8,29526.5,384.8,""smooth"",""right"",""right"",""good_move""]"
"3470","","<div style=""width:500px;"">
  <p>What determined the result of this run?</p>
  </div>","99","html-slider-response","19","228113","0.0-7.0-1.1","85","1","2025-07-30 09:44:08","36c45c0696341be0efffe67d72a12abb","84.67.34.58","Mozilla/5.0 (Macintosh; Intel Mac OS X 10_15_7) AppleWebKit/537.36 (KHTML, like Gecko) Chrome/138.0.0.0 Safari/537.36","Macintosh","Chrome","138.0.0.0","OS X","10_15_7","https://app.prolific.com/","en-GB,en-US;q=0.9,en;q=0.8","6658ba167affbe300577b93d","683dba9a53627eb9ab41b36a","6889e95ddc9ec44f699e8433","0","6658ba167affbe300577b93d","0","2025-07-30T09:47:58.357Z","","","","AttribQ","","","","","","","","","","","50","","","","","","","","","","","","","","","","","","","","","","","","","","",""
"1686","","<div style=""width:500px;"">
  <p>How much control did you have over the ball?</p>
  </div>","94","html-slider-response","20","229801","0.0-7.0-2.1","85","1","2025-07-30 09:44:08","36c45c0696341be0efffe67d72a12abb","84.67.34.58","Mozilla/5.0 (Macintosh; Intel Mac OS X 10_15_7) AppleWebKit/537.36 (KHTML, like Gecko) Chrome/138.0.0.0 Safari/537.36","Macintosh","Chrome","138.0.0.0","OS X","10_15_7","https://app.prolific.com/","en-GB,en-US;q=0.9,en;q=0.8","6658ba167affbe300577b93d","683dba9a53627eb9ab41b36a","6889e95ddc9ec44f699e8433","0","6658ba167affbe300577b93d","0","2025-07-30T09:48:00.044Z","","","","ControlQ","","","","","","","","","","","50","","","","","","","","","","","","","","","","","","","","","","","","","","",""
"1514","","<div style=""width:500px;"">
  <p>How would you describe your current emotional state?</p>
  </div>","60","html-slider-response","21","231316","0.0-7.0-3.1","85","1","2025-07-30 09:44:08","36c45c0696341be0efffe67d72a12abb","84.67.34.58","Mozilla/5.0 (Macintosh; Intel Mac OS X 10_15_7) AppleWebKit/537.36 (KHTML, like Gecko) Chrome/138.0.0.0 Safari/537.36","Macintosh","Chrome","138.0.0.0","OS X","10_15_7","https://app.prolific.com/","en-GB,en-US;q=0.9,en;q=0.8","6658ba167affbe300577b93d","683dba9a53627eb9ab41b36a","6889e95ddc9ec44f699e8433","0","6658ba167affbe300577b93d","0","2025-07-30T09:48:01.559Z","","","","StressQ","","","","","","","","","","","50","","","","","","","","","","","","","","","","","","","","","","","","","","",""
"1616","","<div style=""width:500px;"">
  <p>What best describes how you currently feel?</p>
  </div>","68","html-slider-response","22","232933","0.0-7.0-4.1","85","1","2025-07-30 09:44:08","36c45c0696341be0efffe67d72a12abb","84.67.34.58","Mozilla/5.0 (Macintosh; Intel Mac OS X 10_15_7) AppleWebKit/537.36 (KHTML, like Gecko) Chrome/138.0.0.0 Safari/537.36","Macintosh","Chrome","138.0.0.0","OS X","10_15_7","https://app.prolific.com/","en-GB,en-US;q=0.9,en;q=0.8","6658ba167affbe300577b93d","683dba9a53627eb9ab41b36a","6889e95ddc9ec44f699e8433","0","6658ba167affbe300577b93d","0","2025-07-30T09:48:03.176Z","","","","MotivationQ","","","","","","","","","","","50","","","","","","","","","","","","","","","","","","","","","","","","","","",""
"","","","","ctl-task-cpt","23","272812","0.0-7.0-0.2","85","1","2025-07-30 09:44:08","36c45c0696341be0efffe67d72a12abb","84.67.34.58","Mozilla/5.0 (Macintosh; Intel Mac OS X 10_15_7) AppleWebKit/537.36 (KHTML, like Gecko) Chrome/138.0.0.0 Safari/537.36","Macintosh","Chrome","138.0.0.0","OS X","10_15_7","https://app.prolific.com/","en-GB,en-US;q=0.9,en;q=0.8","6658ba167affbe300577b93d","683dba9a53627eb9ab41b36a","6889e95ddc9ec44f699e8433","0","6658ba167affbe300577b93d","0","2025-07-30T09:48:43.055Z","","","","","","","","","","","","","","","","win-only","0","g1:NW,g2:SE","0.8","3","0","235000.1","724","5728.2","36862.7","1","4","4","6","2","4","4","15","11","0.11363636363636363","920.2","3000","405","[""down"",""right""]","{""num_key_presses"":8,""num_perfect"":6,""num_errors"":0,""num_randdir"":2,""num_randdir_good_moves"":1,""num_whilered"":0,""num_whileblue"":0,""num_blue"":3,""num_good_moves"":7}","[702.2857142857143,704.0825892857143,0.3,702.2857142857143,704.0825892857143,102.4,702.2857142857143,704.0825892857143,203.2,702.2857142857143,704.0825892857143,305.3,954.2857142857143,1000.0825892857143,421.1,1104.2857142857142,1136.0825892857142,521.8,1230.2857142857142,1216.0825892857142,622.7,1258.2857142857142,1226.0825892857142,723.9,1290.2857142857142,1248.0825892857142,823.9,1290.2857142857142,1248.0825892857142,935.5,1290.2857142857142,1246.0825892857142,1038.2,1292.2857142857142,1246.0825892857142,1138.7,1294.2857142857142,1244.0825892857142,1241.3,1302.2857142857142,1242.0825892857142,1350.1,1302.2857142857142,1242.0825892857142,1451.9,1302.2857142857142,1242.0825892857142,1553.1,1302.2857142857142,1242.0825892857142,1654.2,1302.2857142857142,1242.0825892857142,1754.6,1302.2857142857142,1242.0825892857142,1858.3,1302.2857142857142,1242.0825892857142,1962.6,1302.2857142857142,1242.0825892857142,2068.7,1302.2857142857142,1242.0825892857142,2172.3,1302.2857142857142,1242.0825892857142,2272.9,1302.2857142857142,1242.0825892857142,2373.9,1302.2857142857142,1242.0825892857142,2483.5,1302.2857142857142,1242.0825892857142,2584.3,1302.2857142857142,1242.0825892857142,2686.8,1302.2857142857142,1242.0825892857142,2788.5,1302.2857142857142,1242.0825892857142,2892.2,1302.2857142857142,1242.0825892857142,2993.7,1302.2857142857142,1242.0825892857142,3097.7,1302.2857142857142,1242.0825892857142,3202.8,1302.2857142857142,1242.0825892857142,3303.5,1302.2857142857142,1242.0825892857142,3403.6,1302.2857142857142,1242.0825892857142,3503.7,1302.2857142857142,1242.0825892857142,3607.8,1302.2857142857142,1242.0825892857142,3708,1302.2857142857142,1242.0825892857142,3815.4,1302.2857142857142,1242.0825892857142,3915.6,1302.2857142857142,1242.0825892857142,4017.7,1302.2857142857142,1242.0825892857142,4122.8,1302.2857142857142,1242.0825892857142,4223.8,1302.2857142857142,1242.0825892857142,4331.2,1302.2857142857142,1242.0825892857142,4432.6,1302.2857142857142,1242.0825892857142,4532.7,1302.2857142857142,1242.0825892857142,4637.7,1302.2857142857142,1242.0825892857142,4737.7,1302.2857142857142,1242.0825892857142,4838.1,1302.2857142857142,1242.0825892857142,4946.4]","[4444.1,4444.1,2017.6,2009.5,417,""smooth"",""right"",""right"",""good_move"",6785.6,2340.8,1927.3,4444.8,413.5,""smooth"",""down"",""down"",""good_move"",9361,2574.8,2246.6,6786.2,328.2,""smooth"",""right"",""right"",""good_move"",12751.6,3390.5,2894.4,9361.2,496.1,""oops"",""right"",""up"",""bad_move"",15264.6,2510.9,2131.6,12755.8,377.2,""oops"",""down"",""down"",""good_move"",20850.9,5586.1,2250.8,18183.9,416.2,""smooth"",""down"",""down"",""good_move"",24017.9,3166.6,2763.9,20851.3,402.7,""smooth"",""right"",""right"",""good_move"",31020.4,7002.4,2863.9,27694.3,462.2,""smooth"",""down"",""down"",""good_move""]"
"1866","","<div style=""width:500px;"">
  <p>What determined the result of this run?</p>
  </div>","92","html-slider-response","24","274680","0.0-7.0-1.2","85","1","2025-07-30 09:44:08","36c45c0696341be0efffe67d72a12abb","84.67.34.58","Mozilla/5.0 (Macintosh; Intel Mac OS X 10_15_7) AppleWebKit/537.36 (KHTML, like Gecko) Chrome/138.0.0.0 Safari/537.36","Macintosh","Chrome","138.0.0.0","OS X","10_15_7","https://app.prolific.com/","en-GB,en-US;q=0.9,en;q=0.8","6658ba167affbe300577b93d","683dba9a53627eb9ab41b36a","6889e95ddc9ec44f699e8433","0","6658ba167affbe300577b93d","0","2025-07-30T09:48:44.923Z","","","","AttribQ","","","","","","","","","","","50","","","","","","","","","","","","","","","","","","","","","","","","","","",""
"1335","","<div style=""width:500px;"">
  <p>How much control did you have over the ball?</p>
  </div>","88","html-slider-response","25","276016","0.0-7.0-2.2","85","1","2025-07-30 09:44:08","36c45c0696341be0efffe67d72a12abb","84.67.34.58","Mozilla/5.0 (Macintosh; Intel Mac OS X 10_15_7) AppleWebKit/537.36 (KHTML, like Gecko) Chrome/138.0.0.0 Safari/537.36","Macintosh","Chrome","138.0.0.0","OS X","10_15_7","https://app.prolific.com/","en-GB,en-US;q=0.9,en;q=0.8","6658ba167affbe300577b93d","683dba9a53627eb9ab41b36a","6889e95ddc9ec44f699e8433","0","6658ba167affbe300577b93d","0","2025-07-30T09:48:46.259Z","","","","ControlQ","","","","","","","","","","","50","","","","","","","","","","","","","","","","","","","","","","","","","","",""
"1520","","<div style=""width:500px;"">
  <p>How would you describe your current emotional state?</p>
  </div>","67","html-slider-response","26","277537","0.0-7.0-3.2","85","1","2025-07-30 09:44:08","36c45c0696341be0efffe67d72a12abb","84.67.34.58","Mozilla/5.0 (Macintosh; Intel Mac OS X 10_15_7) AppleWebKit/537.36 (KHTML, like Gecko) Chrome/138.0.0.0 Safari/537.36","Macintosh","Chrome","138.0.0.0","OS X","10_15_7","https://app.prolific.com/","en-GB,en-US;q=0.9,en;q=0.8","6658ba167affbe300577b93d","683dba9a53627eb9ab41b36a","6889e95ddc9ec44f699e8433","0","6658ba167affbe300577b93d","0","2025-07-30T09:48:47.780Z","","","","StressQ","","","","","","","","","","","50","","","","","","","","","","","","","","","","","","","","","","","","","","",""
"1158","","<div style=""width:500px;"">
  <p>What best describes how you currently feel?</p>
  </div>","86","html-slider-response","27","278696","0.0-7.0-4.2","85","1","2025-07-30 09:44:08","36c45c0696341be0efffe67d72a12abb","84.67.34.58","Mozilla/5.0 (Macintosh; Intel Mac OS X 10_15_7) AppleWebKit/537.36 (KHTML, like Gecko) Chrome/138.0.0.0 Safari/537.36","Macintosh","Chrome","138.0.0.0","OS X","10_15_7","https://app.prolific.com/","en-GB,en-US;q=0.9,en;q=0.8","6658ba167affbe300577b93d","683dba9a53627eb9ab41b36a","6889e95ddc9ec44f699e8433","0","6658ba167affbe300577b93d","0","2025-07-30T09:48:48.939Z","","","","MotivationQ","","","","","","","","","","","50","","","","","","","","","","","","","","","","","","","","","","","","","","",""
"","","","","ctl-task-cpt","28","305967","0.0-7.0-0.3","85","1","2025-07-30 09:44:08","36c45c0696341be0efffe67d72a12abb","84.67.34.58","Mozilla/5.0 (Macintosh; Intel Mac OS X 10_15_7) AppleWebKit/537.36 (KHTML, like Gecko) Chrome/138.0.0.0 Safari/537.36","Macintosh","Chrome","138.0.0.0","OS X","10_15_7","https://app.prolific.com/","en-GB,en-US;q=0.9,en;q=0.8","6658ba167affbe300577b93d","683dba9a53627eb9ab41b36a","6889e95ddc9ec44f699e8433","0","6658ba167affbe300577b93d","0","2025-07-30T09:49:16.210Z","","","","","","","","","","","","","","","","win-only","0","g1:NW,g2:SE","0.7","4","0","280760.9","818.2","5831","24253","1","4","8","6","2","8","8","23","15","0.17424242424242425","834.7","3000","1500","[""down"",""right""]","{""num_key_presses"":6,""num_perfect"":5,""num_errors"":0,""num_randdir"":1,""num_randdir_good_moves"":1,""num_whilered"":0,""num_whileblue"":0,""num_blue"":1,""num_good_moves"":6}","[698.2857142857143,704.0825892857143,0.2,698.2857142857143,704.0825892857143,102,698.2857142857143,704.0825892857143,203.8,698.2857142857143,704.0825892857143,318.5,744.2857142857143,732.0825892857143,422.8,1232.2857142857142,1112.0825892857142,530.7,1278.2857142857142,1204.0825892857142,635.4,1298.2857142857142,1236.0825892857142,747.6,1298.2857142857142,1236.0825892857142,861.2,1298.2857142857142,1236.0825892857142,963.3,1298.2857142857142,1236.0825892857142,1070.6,1298.2857142857142,1236.0825892857142,1174.1,1298.2857142857142,1236.0825892857142,1279.8,1298.2857142857142,1236.0825892857142,1380.5,1298.2857142857142,1236.0825892857142,1481.9,1298.2857142857142,1236.0825892857142,1583.4,1298.2857142857142,1236.0825892857142,1688.1,1298.2857142857142,1236.0825892857142,1797,1298.2857142857142,1236.0825892857142,1901.3,1298.2857142857142,1236.0825892857142,2006,1298.2857142857142,1236.0825892857142,2110.2,1298.2857142857142,1236.0825892857142,2211.1,1298.2857142857142,1236.0825892857142,2317.5,1298.2857142857142,1236.0825892857142,2418.1,1298.2857142857142,1236.0825892857142,2519.7,1298.2857142857142,1236.0825892857142,2635.3,1298.2857142857142,1236.0825892857142,2744.1,1298.2857142857142,1236.0825892857142,2847.2,1298.2857142857142,1236.0825892857142,2949.5,1298.2857142857142,1236.0825892857142,3051.3,1298.2857142857142,1236.0825892857142,3156,1298.2857142857142,1236.0825892857142,3268.9,1298.2857142857142,1236.0825892857142,3379.6,1298.2857142857142,1236.0825892857142,3481,1298.2857142857142,1236.0825892857142,3584.1,1298.2857142857142,1236.0825892857142,3698.1,1298.2857142857142,1236.0825892857142,3800.7,1298.2857142857142,1236.0825892857142,3901.7,1298.2857142857142,1236.0825892857142,4002.6,1298.2857142857142,1236.0825892857142,4102.8,1298.2857142857142,1236.0825892857142,4211.2,1298.2857142857142,1236.0825892857142,4317.1,1298.2857142857142,1236.0825892857142,4418.5,1298.2857142857142,1236.0825892857142,4528.9,1298.2857142857142,1236.0825892857142,4641.4,1298.2857142857142,1236.0825892857142,4744.4,1298.2857142857142,1236.0825892857142,4844.7,1298.2857142857142,1236.0825892857142,4953.5]","[5203.8,5203.8,2795.2,2007.7,400.9,""smooth"",""down"",""down"",""good_move"",8156.3,2951.8,2603.6,5204.5,348.2,""smooth"",""down"",""down"",""good_move"",10651,2492.3,2105.5,8158.8,386.8,""smooth"",""down"",""down"",""good_move"",13205.5,2554.2,2191.8,10651.3,362.4,""smooth"",""right"",""right"",""good_move"",15883.3,2677.5,2309.2,13205.8,368.3,""oops"",""right"",""right"",""good_move"",18287.2,2403.6,2042.6,15883.6,361,""smooth"",""right"",""right"",""good_move""]"
"2403","","<div style=""width:500px;"">
  <p>What determined the result of this run?</p>
  </div>","100","html-slider-response","29","308373","0.0-7.0-1.3","85","1","2025-07-30 09:44:08","36c45c0696341be0efffe67d72a12abb","84.67.34.58","Mozilla/5.0 (Macintosh; Intel Mac OS X 10_15_7) AppleWebKit/537.36 (KHTML, like Gecko) Chrome/138.0.0.0 Safari/537.36","Macintosh","Chrome","138.0.0.0","OS X","10_15_7","https://app.prolific.com/","en-GB,en-US;q=0.9,en;q=0.8","6658ba167affbe300577b93d","683dba9a53627eb9ab41b36a","6889e95ddc9ec44f699e8433","0","6658ba167affbe300577b93d","0","2025-07-30T09:49:18.616Z","","","","AttribQ","","","","","","","","","","","50","","","","","","","","","","","","","","","","","","","","","","","","","","",""
"2013","","<div style=""width:500px;"">
  <p>How much control did you have over the ball?</p>
  </div>","100","html-slider-response","30","310388","0.0-7.0-2.3","85","1","2025-07-30 09:44:08","36c45c0696341be0efffe67d72a12abb","84.67.34.58","Mozilla/5.0 (Macintosh; Intel Mac OS X 10_15_7) AppleWebKit/537.36 (KHTML, like Gecko) Chrome/138.0.0.0 Safari/537.36","Macintosh","Chrome","138.0.0.0","OS X","10_15_7","https://app.prolific.com/","en-GB,en-US;q=0.9,en;q=0.8","6658ba167affbe300577b93d","683dba9a53627eb9ab41b36a","6889e95ddc9ec44f699e8433","0","6658ba167affbe300577b93d","0","2025-07-30T09:49:20.631Z","","","","ControlQ","","","","","","","","","","","50","","","","","","","","","","","","","","","","","","","","","","","","","","",""
"1369","","<div style=""width:500px;"">
  <p>How would you describe your current emotional state?</p>
  </div>","36","html-slider-response","31","311759","0.0-7.0-3.3","85","1","2025-07-30 09:44:08","36c45c0696341be0efffe67d72a12abb","84.67.34.58","Mozilla/5.0 (Macintosh; Intel Mac OS X 10_15_7) AppleWebKit/537.36 (KHTML, like Gecko) Chrome/138.0.0.0 Safari/537.36","Macintosh","Chrome","138.0.0.0","OS X","10_15_7","https://app.prolific.com/","en-GB,en-US;q=0.9,en;q=0.8","6658ba167affbe300577b93d","683dba9a53627eb9ab41b36a","6889e95ddc9ec44f699e8433","0","6658ba167affbe300577b93d","0","2025-07-30T09:49:22.002Z","","","","StressQ","","","","","","","","","","","50","","","","","","","","","","","","","","","","","","","","","","","","","","",""
"1111","","<div style=""width:500px;"">
  <p>What best describes how you currently feel?</p>
  </div>","82","html-slider-response","32","312870","0.0-7.0-4.3","85","1","2025-07-30 09:44:08","36c45c0696341be0efffe67d72a12abb","84.67.34.58","Mozilla/5.0 (Macintosh; Intel Mac OS X 10_15_7) AppleWebKit/537.36 (KHTML, like Gecko) Chrome/138.0.0.0 Safari/537.36","Macintosh","Chrome","138.0.0.0","OS X","10_15_7","https://app.prolific.com/","en-GB,en-US;q=0.9,en;q=0.8","6658ba167affbe300577b93d","683dba9a53627eb9ab41b36a","6889e95ddc9ec44f699e8433","0","6658ba167affbe300577b93d","0","2025-07-30T09:49:23.114Z","","","","MotivationQ","","","","","","","","","","","50","","","","","","","","","","","","","","","","","","","","","","","","","","",""
"","","","","ctl-task-cpt","33","362245","0.0-7.0-0.4","85","1","2025-07-30 09:44:08","36c45c0696341be0efffe67d72a12abb","84.67.34.58","Mozilla/5.0 (Macintosh; Intel Mac OS X 10_15_7) AppleWebKit/537.36 (KHTML, like Gecko) Chrome/138.0.0.0 Safari/537.36","Macintosh","Chrome","138.0.0.0","OS X","10_15_7","https://app.prolific.com/","en-GB,en-US;q=0.9,en;q=0.8","6658ba167affbe300577b93d","683dba9a53627eb9ab41b36a","6889e95ddc9ec44f699e8433","0","6658ba167affbe300577b93d","0","2025-07-30T09:50:12.488Z","","","","","","","","","","","","","","","","win-only","0","g1:NW,g2:SE","0.6","5","0","314934.6","3520.8","8528.5","46357.6","1","4","4","6","2","-4","-4","19","23","0.14393939393939395","1034.5","3000","-1775","[""down"",""right""]","{""num_key_presses"":11,""num_perfect"":7,""num_errors"":0,""num_randdir"":4,""num_randdir_good_moves"":1,""num_whilered"":0,""num_whileblue"":0,""num_blue"":2,""num_good_moves"":8}","[696.2857142857143,696.0825892857143,0.1,696.2857142857143,696.0825892857143,103.2,696.2857142857143,696.0825892857143,219.2,694.2857142857143,698.0825892857143,324.9,694.2857142857143,698.0825892857143,429.5,852.2857142857143,850.0825892857143,533.1,1122.2857142857142,1116.0825892857142,643.7,1184.2857142857142,1210.0825892857142,747.3,1258.2857142857142,1256.0825892857142,854.9,1272.2857142857142,1258.0825892857142,957,1272.2857142857142,1258.0825892857142,1057,1272.2857142857142,1258.0825892857142,1162,1272.2857142857142,1258.0825892857142,1269.2,1272.2857142857142,1258.0825892857142,1372.3,1272.2857142857142,1258.0825892857142,1475.4,1272.2857142857142,1258.0825892857142,1576.4,1272.2857142857142,1258.0825892857142,1679.3,1272.2857142857142,1258.0825892857142,1783,1272.2857142857142,1258.0825892857142,1888.4,1272.2857142857142,1258.0825892857142,1990.6,1272.2857142857142,1258.0825892857142,2092.4,1272.2857142857142,1258.0825892857142,2197.6,1272.2857142857142,1258.0825892857142,2300.4,1272.2857142857142,1258.0825892857142,2414.1,1272.2857142857142,1258.0825892857142,2527.3,1272.2857142857142,1258.0825892857142,2640.9,1272.2857142857142,1258.0825892857142,2743.8,1272.2857142857142,1258.0825892857142,2845.3,1272.2857142857142,1258.0825892857142,2945.3,1272.2857142857142,1258.0825892857142,3046.2,1272.2857142857142,1258.0825892857142,3146.6,1272.2857142857142,1258.0825892857142,3248.6,1272.2857142857142,1258.0825892857142,3352.1,1272.2857142857142,1258.0825892857142,3458,1272.2857142857142,1258.0825892857142,3560.4,1272.2857142857142,1258.0825892857142,3673.5,1272.2857142857142,1258.0825892857142,3778.6,1272.2857142857142,1258.0825892857142,3892.6,1272.2857142857142,1258.0825892857142,3997.5,1272.2857142857142,1258.0825892857142,4103.6,1272.2857142857142,1258.0825892857142,4206.8,1272.2857142857142,1258.0825892857142,4310,1272.2857142857142,1258.0825892857142,4410.6,1272.2857142857142,1258.0825892857142,4526.8,1272.2857142857142,1258.0825892857142,4632.3,1272.2857142857142,1258.0825892857142,4745.4,1272.2857142857142,1258.0825892857142,4846.3,1272.2857142857142,1258.0825892857142,4948.4]","[1451.5,1451.5,1000,0,451.5,""smooth"",""down"",""down"",""good_move"",7877.4,6423.1,3003,4450.6,423.9,""oops"",""down"",""up"",""bad_move"",14935.4,7057.3,2464.7,12067.7,403,""oops"",""down"",""left"",""bad_move"",17808.2,2869.4,2079.8,14938.8,789.6,""oops"",""down"",""down"",""good_move"",20561.3,2752.2,2360.5,17809.1,391.7,""oops"",""down"",""up"",""bad_move"",22865.9,2304.2,1913.6,20561.7,390.6,""smooth"",""right"",""right"",""good_move"",25262.2,2395.8,2035,22866.4,360.8,""smooth"",""right"",""right"",""good_move"",27210.4,1945.4,1568.7,25265.2,376.5,""smooth"",""right"",""right"",""good_move"",29287.8,2071.9,1674.6,27216,397.2,""smooth"",""right"",""right"",""good_move"",32250.3,2962.3,2616,29288,346.3,""smooth"",""down"",""down"",""good_move"",34598.2,2342,2013.5,32256.2,328.5,""smooth"",""down"",""down"",""good_move""]"
"1731","","<div style=""width:500px;"">
  <p>What determined the result of this run?</p>
  </div>","89","html-slider-response","34","363977","0.0-7.0-1.4","85","1","2025-07-30 09:44:08","36c45c0696341be0efffe67d72a12abb","84.67.34.58","Mozilla/5.0 (Macintosh; Intel Mac OS X 10_15_7) AppleWebKit/537.36 (KHTML, like Gecko) Chrome/138.0.0.0 Safari/537.36","Macintosh","Chrome","138.0.0.0","OS X","10_15_7","https://app.prolific.com/","en-GB,en-US;q=0.9,en;q=0.8","6658ba167affbe300577b93d","683dba9a53627eb9ab41b36a","6889e95ddc9ec44f699e8433","0","6658ba167affbe300577b93d","0","2025-07-30T09:50:14.220Z","","","","AttribQ","","","","","","","","","","","50","","","","","","","","","","","","","","","","","","","","","","","","","","",""
"1577","","<div style=""width:500px;"">
  <p>How much control did you have over the ball?</p>
  </div>","75","html-slider-response","35","365555","0.0-7.0-2.4","85","1","2025-07-30 09:44:08","36c45c0696341be0efffe67d72a12abb","84.67.34.58","Mozilla/5.0 (Macintosh; Intel Mac OS X 10_15_7) AppleWebKit/537.36 (KHTML, like Gecko) Chrome/138.0.0.0 Safari/537.36","Macintosh","Chrome","138.0.0.0","OS X","10_15_7","https://app.prolific.com/","en-GB,en-US;q=0.9,en;q=0.8","6658ba167affbe300577b93d","683dba9a53627eb9ab41b36a","6889e95ddc9ec44f699e8433","0","6658ba167affbe300577b93d","0","2025-07-30T09:50:15.798Z","","","","ControlQ","","","","","","","","","","","50","","","","","","","","","","","","","","","","","","","","","","","","","","",""
"1833","","<div style=""width:500px;"">
  <p>How would you describe your current emotional state?</p>
  </div>","88","html-slider-response","36","367390","0.0-7.0-3.4","85","1","2025-07-30 09:44:08","36c45c0696341be0efffe67d72a12abb","84.67.34.58","Mozilla/5.0 (Macintosh; Intel Mac OS X 10_15_7) AppleWebKit/537.36 (KHTML, like Gecko) Chrome/138.0.0.0 Safari/537.36","Macintosh","Chrome","138.0.0.0","OS X","10_15_7","https://app.prolific.com/","en-GB,en-US;q=0.9,en;q=0.8","6658ba167affbe300577b93d","683dba9a53627eb9ab41b36a","6889e95ddc9ec44f699e8433","0","6658ba167affbe300577b93d","0","2025-07-30T09:50:17.633Z","","","","StressQ","","","","","","","","","","","50","","","","","","","","","","","","","","","","","","","","","","","","","","",""
"1224","","<div style=""width:500px;"">
  <p>What best describes how you currently feel?</p>
  </div>","69","html-slider-response","37","368617","0.0-7.0-4.4","85","1","2025-07-30 09:44:08","36c45c0696341be0efffe67d72a12abb","84.67.34.58","Mozilla/5.0 (Macintosh; Intel Mac OS X 10_15_7) AppleWebKit/537.36 (KHTML, like Gecko) Chrome/138.0.0.0 Safari/537.36","Macintosh","Chrome","138.0.0.0","OS X","10_15_7","https://app.prolific.com/","en-GB,en-US;q=0.9,en;q=0.8","6658ba167affbe300577b93d","683dba9a53627eb9ab41b36a","6889e95ddc9ec44f699e8433","0","6658ba167affbe300577b93d","0","2025-07-30T09:50:18.860Z","","","","MotivationQ","","","","","","","","","","","50","","","","","","","","","","","","","","","","","","","","","","","","","","",""
"","","","","ctl-task-cpt","38","404322","0.0-7.0-0.5","85","1","2025-07-30 09:44:08","36c45c0696341be0efffe67d72a12abb","84.67.34.58","Mozilla/5.0 (Macintosh; Intel Mac OS X 10_15_7) AppleWebKit/537.36 (KHTML, like Gecko) Chrome/138.0.0.0 Safari/537.36","Macintosh","Chrome","138.0.0.0","OS X","10_15_7","https://app.prolific.com/","en-GB,en-US;q=0.9,en;q=0.8","6658ba167affbe300577b93d","683dba9a53627eb9ab41b36a","6889e95ddc9ec44f699e8433","0","6658ba167affbe300577b93d","0","2025-07-30T09:50:54.565Z","","","","","","","","","","","","","","","","win-only","0","g1:NW,g2:SE","0.5","6","0","370683.7","1894.8","6902.9","32678.9","1","4","8","6","2","8","8","27","19","0.20454545454545456","956.3","3000","1520","[""down"",""right""]","{""num_key_presses"":8,""num_perfect"":5,""num_errors"":0,""num_randdir"":3,""num_randdir_good_moves"":2,""num_whilered"":0,""num_whileblue"":0,""num_blue"":1,""num_good_moves"":7}","[702.2857142857143,694.0825892857143,7.7,702.2857142857143,694.0825892857143,102.9,702.2857142857143,694.0825892857143,203.4,702.2857142857143,694.0825892857143,306.3,702.2857142857143,694.0825892857143,408.6,776.2857142857143,792.0825892857143,512.4,966.2857142857143,972.0825892857143,618.6,1154.2857142857142,1168.0825892857142,730.6,1302.2857142857142,1294.0825892857142,838.3,1318.2857142857142,1298.0825892857142,947.8,1318.2857142857142,1298.0825892857142,1062,1318.2857142857142,1298.0825892857142,1172.1,1318.2857142857142,1298.0825892857142,1273.7,1318.2857142857142,1298.0825892857142,1383.1,1318.2857142857142,1298.0825892857142,1492.7,1318.2857142857142,1298.0825892857142,1599.7,1318.2857142857142,1298.0825892857142,1716.2,1318.2857142857142,1298.0825892857142,1823.9,1318.2857142857142,1298.0825892857142,1932.7,1318.2857142857142,1298.0825892857142,2035.1,1318.2857142857142,1298.0825892857142,2139.2,1318.2857142857142,1298.0825892857142,2243.3,1318.2857142857142,1298.0825892857142,2347.1,1318.2857142857142,1298.0825892857142,2449.8,1318.2857142857142,1298.0825892857142,2554.7,1318.2857142857142,1298.0825892857142,2660.6,1318.2857142857142,1298.0825892857142,2769.9,1318.2857142857142,1298.0825892857142,2870.4,1318.2857142857142,1298.0825892857142,2970.7,1318.2857142857142,1298.0825892857142,3082.4,1318.2857142857142,1298.0825892857142,3187.7,1318.2857142857142,1298.0825892857142,3289.9,1318.2857142857142,1298.0825892857142,3394.2,1318.2857142857142,1298.0825892857142,3500.5,1318.2857142857142,1298.0825892857142,3609.1,1318.2857142857142,1298.0825892857142,3713.6,1318.2857142857142,1298.0825892857142,3821.7,1318.2857142857142,1298.0825892857142,3927,1318.2857142857142,1298.0825892857142,4030.1,1318.2857142857142,1298.0825892857142,4130.7,1318.2857142857142,1298.0825892857142,4240.6,1318.2857142857142,1298.0825892857142,4349.1,1318.2857142857142,1298.0825892857142,4453.6,1318.2857142857142,1298.0825892857142,4559.7,1318.2857142857142,1298.0825892857142,4660.3,1318.2857142857142,1298.0825892857142,4767.5,1318.2857142857142,1298.0825892857142,4872.5,1318.2857142857142,1298.0825892857142,4975.3]","[1437.2,1437.2,1000,0,437.2,""smooth"",""down"",""down"",""good_move"",4317.7,2880.1,2514.6,1437.6,365.5,""smooth"",""down"",""down"",""good_move"",7598,3280.1,2953.5,4317.9,326.6,""oops"",""right"",""up"",""bad_move"",13862.6,6264.2,2468.4,10978.3,415.9,""smooth"",""down"",""down"",""good_move"",17183.8,3321,2994.4,13862.9,326.5,""oops"",""down"",""down"",""good_move"",19952.9,2768.7,2376.6,17184.3,392.1,""oops"",""right"",""right"",""good_move"",23087.8,3134.7,2764.8,19953.2,369.9,""smooth"",""right"",""right"",""good_move"",25532,2443.8,2102.4,23088.2,341.4,""smooth"",""right"",""right"",""good_move""]"
"2070","","<div style=""width:500px;"">
  <p>What determined the result of this run?</p>
  </div>","83","html-slider-response","39","406394","0.0-7.0-1.5","85","1","2025-07-30 09:44:08","36c45c0696341be0efffe67d72a12abb","84.67.34.58","Mozilla/5.0 (Macintosh; Intel Mac OS X 10_15_7) AppleWebKit/537.36 (KHTML, like Gecko) Chrome/138.0.0.0 Safari/537.36","Macintosh","Chrome","138.0.0.0","OS X","10_15_7","https://app.prolific.com/","en-GB,en-US;q=0.9,en;q=0.8","6658ba167affbe300577b93d","683dba9a53627eb9ab41b36a","6889e95ddc9ec44f699e8433","0","6658ba167affbe300577b93d","0","2025-07-30T09:50:56.637Z","","","","AttribQ","","","","","","","","","","","50","","","","","","","","","","","","","","","","","","","","","","","","","","",""
"1606","","<div style=""width:500px;"">
  <p>How much control did you have over the ball?</p>
  </div>","83","html-slider-response","40","408002","0.0-7.0-2.5","85","1","2025-07-30 09:44:08","36c45c0696341be0efffe67d72a12abb","84.67.34.58","Mozilla/5.0 (Macintosh; Intel Mac OS X 10_15_7) AppleWebKit/537.36 (KHTML, like Gecko) Chrome/138.0.0.0 Safari/537.36","Macintosh","Chrome","138.0.0.0","OS X","10_15_7","https://app.prolific.com/","en-GB,en-US;q=0.9,en;q=0.8","6658ba167affbe300577b93d","683dba9a53627eb9ab41b36a","6889e95ddc9ec44f699e8433","0","6658ba167affbe300577b93d","0","2025-07-30T09:50:58.245Z","","","","ControlQ","","","","","","","","","","","50","","","","","","","","","","","","","","","","","","","","","","","","","","",""
"2103","","<div style=""width:500px;"">
  <p>How would you describe your current emotional state?</p>
  </div>","39","html-slider-response","41","410107","0.0-7.0-3.5","85","1","2025-07-30 09:44:08","36c45c0696341be0efffe67d72a12abb","84.67.34.58","Mozilla/5.0 (Macintosh; Intel Mac OS X 10_15_7) AppleWebKit/537.36 (KHTML, like Gecko) Chrome/138.0.0.0 Safari/537.36","Macintosh","Chrome","138.0.0.0","OS X","10_15_7","https://app.prolific.com/","en-GB,en-US;q=0.9,en;q=0.8","6658ba167affbe300577b93d","683dba9a53627eb9ab41b36a","6889e95ddc9ec44f699e8433","0","6658ba167affbe300577b93d","0","2025-07-30T09:51:00.350Z","","","","StressQ","","","","","","","","","","","50","","","","","","","","","","","","","","","","","","","","","","","","","","",""
"1471","","<div style=""width:500px;"">
  <p>What best describes how you currently feel?</p>
  </div>","81","html-slider-response","42","411581","0.0-7.0-4.5","85","1","2025-07-30 09:44:08","36c45c0696341be0efffe67d72a12abb","84.67.34.58","Mozilla/5.0 (Macintosh; Intel Mac OS X 10_15_7) AppleWebKit/537.36 (KHTML, like Gecko) Chrome/138.0.0.0 Safari/537.36","Macintosh","Chrome","138.0.0.0","OS X","10_15_7","https://app.prolific.com/","en-GB,en-US;q=0.9,en;q=0.8","6658ba167affbe300577b93d","683dba9a53627eb9ab41b36a","6889e95ddc9ec44f699e8433","0","6658ba167affbe300577b93d","0","2025-07-30T09:51:01.824Z","","","","MotivationQ","","","","","","","","","","","50","","","","","","","","","","","","","","","","","","","","","","","","","","",""
"","","","","ctl-task-cpt","43","450726","0.0-7.0-0.6","85","1","2025-07-30 09:44:08","36c45c0696341be0efffe67d72a12abb","84.67.34.58","Mozilla/5.0 (Macintosh; Intel Mac OS X 10_15_7) AppleWebKit/537.36 (KHTML, like Gecko) Chrome/138.0.0.0 Safari/537.36","Macintosh","Chrome","138.0.0.0","OS X","10_15_7","https://app.prolific.com/","en-GB,en-US;q=0.9,en;q=0.8","6658ba167affbe300577b93d","683dba9a53627eb9ab41b36a","6889e95ddc9ec44f699e8433","0","6658ba167affbe300577b93d","0","2025-07-30T09:51:40.969Z","","","","","","","","","","","","","","","","win-only","2","g1:SE,g2:NW","0.4","7","0","413645.5","693.3","5701.6","36125.4","1","4","4","6","2","4","4","31","27","0.23484848484848486","1531.1","3000","1500","[""left"",""up""]","{""num_key_presses"":10,""num_perfect"":4,""num_errors"":0,""num_randdir"":6,""num_randdir_good_moves"":4,""num_whilered"":0,""num_whileblue"":0,""num_blue"":1,""num_good_moves"":8}","[686.2857142857143,700.0825892857143,1.1,686.2857142857143,700.0825892857143,111.4,686.2857142857143,700.0825892857143,222.3,686.2857142857143,700.0825892857143,323.2,686.2857142857143,700.0825892857143,428.7,750.2857142857143,724.0825892857143,539.4,1044.2857142857142,986.0825892857143,650.1,1152.2857142857142,1102.0825892857142,754.8,1268.2857142857142,1192.0825892857142,860.6,1340.2857142857142,1226.0825892857142,969.6,432.2857142857143,558.0825892857143,1076.7,222.28571428571428,264.0825892857143,1184.8,218.28571428571428,214.08258928571428,1286.4,172.28571428571428,112.08258928571429,1397.8,170.28571428571428,104.08258928571429,1506.2,170.28571428571428,104.08258928571429,1612.2,170.28571428571428,104.08258928571429,1714.6,170.28571428571428,104.08258928571429,1823.4,170.28571428571428,104.08258928571429,1923.4,170.28571428571428,104.08258928571429,2037.9,170.28571428571428,104.08258928571429,2144.7,170.28571428571428,104.08258928571429,2249.7,170.28571428571428,104.08258928571429,2362.6,170.28571428571428,104.08258928571429,2470.3,170.28571428571428,104.08258928571429,2575.2,170.28571428571428,104.08258928571429,2680.7,170.28571428571428,104.08258928571429,2783.2,170.28571428571428,104.08258928571429,2899.3,170.28571428571428,104.08258928571429,3010.2,170.28571428571428,104.08258928571429,3123.4,170.28571428571428,104.08258928571429,3233.1,170.28571428571428,104.08258928571429,3335,170.28571428571428,104.08258928571429,3438.9,170.28571428571428,104.08258928571429,3545.5,170.28571428571428,104.08258928571429,3648.4,170.28571428571428,104.08258928571429,3753.7,170.28571428571428,104.08258928571429,3855.7,170.28571428571428,104.08258928571429,3968.6,170.28571428571428,104.08258928571429,4074.6,170.28571428571428,104.08258928571429,4181.9,170.28571428571428,104.08258928571429,4284.7,170.28571428571428,104.08258928571429,4397.6,170.28571428571428,104.08258928571429,4514.9,170.28571428571428,104.08258928571429,4617.3,170.28571428571428,104.08258928571429,4731.3,170.28571428571428,104.08258928571429,4848.2,170.28571428571428,104.08258928571429,4949.4]","[1521.8,1521.8,1000,0,521.8,""oops"",""up"",""up"",""good_move"",4059.9,2535.7,2156.9,1524.2,378.8,""oops"",""up"",""left"",""good_move"",6882.7,2819.8,2478,4062.9,341.8,""smooth"",""up"",""up"",""good_move"",10106.4,3223.2,2872,6883.2,351.2,""oops"",""up"",""right"",""bad_move"",16401,6294.1,2474.9,13535.9,390.2,""smooth"",""left"",""left"",""good_move"",19685.1,3283.5,2936.6,16401.6,346.9,""oops"",""left"",""up"",""good_move"",22405.8,2720.6,2394.8,19685.2,325.8,""smooth"",""left"",""left"",""good_move"",25604.8,3198.8,2857.8,22406,341,""oops"",""left"",""down"",""bad_move"",27657,2050.7,1640.1,25606.3,410.7,""smooth"",""left"",""left"",""good_move"",30192.3,2533.9,2195.8,27658.4,338.1,""oops"",""up"",""up"",""good_move""]"
"2064","","<div style=""width:500px;"">
  <p>What determined the result of this run?</p>
  </div>","89","html-slider-response","44","452791","0.0-7.0-1.6","85","1","2025-07-30 09:44:08","36c45c0696341be0efffe67d72a12abb","84.67.34.58","Mozilla/5.0 (Macintosh; Intel Mac OS X 10_15_7) AppleWebKit/537.36 (KHTML, like Gecko) Chrome/138.0.0.0 Safari/537.36","Macintosh","Chrome","138.0.0.0","OS X","10_15_7","https://app.prolific.com/","en-GB,en-US;q=0.9,en;q=0.8","6658ba167affbe300577b93d","683dba9a53627eb9ab41b36a","6889e95ddc9ec44f699e8433","0","6658ba167affbe300577b93d","0","2025-07-30T09:51:43.034Z","","","","AttribQ","","","","","","","","","","","50","","","","","","","","","","","","","","","","","","","","","","","","","","",""
"1812","","<div style=""width:500px;"">
  <p>How much control did you have over the ball?</p>
  </div>","87","html-slider-response","45","454605","0.0-7.0-2.6","85","1","2025-07-30 09:44:08","36c45c0696341be0efffe67d72a12abb","84.67.34.58","Mozilla/5.0 (Macintosh; Intel Mac OS X 10_15_7) AppleWebKit/537.36 (KHTML, like Gecko) Chrome/138.0.0.0 Safari/537.36","Macintosh","Chrome","138.0.0.0","OS X","10_15_7","https://app.prolific.com/","en-GB,en-US;q=0.9,en;q=0.8","6658ba167affbe300577b93d","683dba9a53627eb9ab41b36a","6889e95ddc9ec44f699e8433","0","6658ba167affbe300577b93d","0","2025-07-30T09:51:44.848Z","","","","ControlQ","","","","","","","","","","","50","","","","","","","","","","","","","","","","","","","","","","","","","","",""
"1680","","<div style=""width:500px;"">
  <p>How would you describe your current emotional state?</p>
  </div>","58","html-slider-response","46","456287","0.0-7.0-3.6","85","1","2025-07-30 09:44:08","36c45c0696341be0efffe67d72a12abb","84.67.34.58","Mozilla/5.0 (Macintosh; Intel Mac OS X 10_15_7) AppleWebKit/537.36 (KHTML, like Gecko) Chrome/138.0.0.0 Safari/537.36","Macintosh","Chrome","138.0.0.0","OS X","10_15_7","https://app.prolific.com/","en-GB,en-US;q=0.9,en;q=0.8","6658ba167affbe300577b93d","683dba9a53627eb9ab41b36a","6889e95ddc9ec44f699e8433","0","6658ba167affbe300577b93d","0","2025-07-30T09:51:46.530Z","","","","StressQ","","","","","","","","","","","50","","","","","","","","","","","","","","","","","","","","","","","","","","",""
"1303","","<div style=""width:500px;"">
  <p>What best describes how you currently feel?</p>
  </div>","86","html-slider-response","47","457593","0.0-7.0-4.6","85","1","2025-07-30 09:44:08","36c45c0696341be0efffe67d72a12abb","84.67.34.58","Mozilla/5.0 (Macintosh; Intel Mac OS X 10_15_7) AppleWebKit/537.36 (KHTML, like Gecko) Chrome/138.0.0.0 Safari/537.36","Macintosh","Chrome","138.0.0.0","OS X","10_15_7","https://app.prolific.com/","en-GB,en-US;q=0.9,en;q=0.8","6658ba167affbe300577b93d","683dba9a53627eb9ab41b36a","6889e95ddc9ec44f699e8433","0","6658ba167affbe300577b93d","0","2025-07-30T09:51:47.836Z","","","","MotivationQ","","","","","","","","","","","50","","","","","","","","","","","","","","","","","","","","","","","","","","",""
"","","","","ctl-task-cpt","48","540609","0.0-7.0-0.7","85","1","2025-07-30 09:44:08","36c45c0696341be0efffe67d72a12abb","84.67.34.58","Mozilla/5.0 (Macintosh; Intel Mac OS X 10_15_7) AppleWebKit/537.36 (KHTML, like Gecko) Chrome/138.0.0.0 Safari/537.36","Macintosh","Chrome","138.0.0.0","OS X","10_15_7","https://app.prolific.com/","en-GB,en-US;q=0.9,en;q=0.8","6658ba167affbe300577b93d","683dba9a53627eb9ab41b36a","6889e95ddc9ec44f699e8433","0","6658ba167affbe300577b93d","0","2025-07-30T09:53:10.852Z","","","","","","","","","","","","","","","","win-only","2","g1:SE,g2:NW","0.3","8","0","459658.3","641.8","5649.3","79992.6","1","4","8","6","2","-8","-9","22","31","0.16666666666666666","817.9","3000","-1095","[""left"",""up""]","{""num_key_presses"":21,""num_perfect"":6,""num_errors"":1,""num_randdir"":14,""num_randdir_good_moves"":5,""num_whilered"":0,""num_whileblue"":1,""num_blue"":4,""num_good_moves"":12}","[682.2857142857143,680.0825892857143,1.4,682.2857142857143,680.0825892857143,106.3,682.2857142857143,680.0825892857143,214.2,682.2857142857143,680.0825892857143,316.8,682.2857142857143,680.0825892857143,422.7,620.2857142857143,604.0825892857143,539.7,148.28571428571428,168.08258928571428,648.3,136.28571428571428,148.08258928571428,759.6,118.28571428571429,120.08258928571429,861.5,118.28571428571429,120.08258928571429,962.9,118.28571428571429,120.08258928571429,1066.4,118.28571428571429,120.08258928571429,1175.8,118.28571428571429,120.08258928571429,1278.4,118.28571428571429,120.08258928571429,1387.9,118.28571428571429,120.08258928571429,1492,118.28571428571429,120.08258928571429,1604.6,118.28571428571429,120.08258928571429,1714.6,118.28571428571429,120.08258928571429,1819.9,118.28571428571429,120.08258928571429,1924.9,118.28571428571429,120.08258928571429,2032,118.28571428571429,120.08258928571429,2132.7,118.28571428571429,120.08258928571429,2238.9,118.28571428571429,120.08258928571429,2341.4,118.28571428571429,120.08258928571429,2445.8,118.28571428571429,120.08258928571429,2548.7,118.28571428571429,120.08258928571429,2660,118.28571428571429,120.08258928571429,2761.5,118.28571428571429,120.08258928571429,2861.8,118.28571428571429,120.08258928571429,2966.1,118.28571428571429,120.08258928571429,3069.3,118.28571428571429,120.08258928571429,3175.7,118.28571428571429,120.08258928571429,3289.3,118.28571428571429,120.08258928571429,3397.3,118.28571428571429,120.08258928571429,3507.7,118.28571428571429,120.08258928571429,3609.3,118.28571428571429,120.08258928571429,3715.6,118.28571428571429,120.08258928571429,3817,118.28571428571429,120.08258928571429,3921.4,118.28571428571429,120.08258928571429,4028.3,118.28571428571429,120.08258928571429,4138.1,118.28571428571429,120.08258928571429,4238.4,118.28571428571429,120.08258928571429,4344,118.28571428571429,120.08258928571429,4446.5,118.28571428571429,120.08258928571429,4547.5,118.28571428571429,120.08258928571429,4652.9,118.28571428571429,120.08258928571429,4756.1,118.28571428571429,120.08258928571429,4860.3,118.28571428571429,120.08258928571429,4962.4]","[1484.9,1485,1000,0,485,""oops"",""up"",""right"",""bad_move"",4188.5,2700.9,2353.4,1487.6,347.5,""oops"",""left"",""right"",""bad_move"",6814,2619.6,2276.5,4194.4,343.1,""smooth"",""up"",""up"",""good_move"",13663.9,6849.5,3035.4,10260.8,367.7,""oops"",""up"",""up"",""good_move"",16537.7,2873.6,2478.2,13664.1,395.4,""smooth"",""left"",""left"",""good_move"",20141,3599.5,3228.6,16541.6,370.9,""oops"",""up"",""up"",""good_move"",23153.1,3010.2,2651.6,20142.9,358.6,""oops"",""left"",""right"",""bad_move"",26279.5,3126.2,2780.7,23153.3,345.5,""oops"",""left"",""left"",""good_move"",29210.4,2930.6,2558.2,26279.9,372.3,""smooth"",""left"",""left"",""good_move"",36551.8,7341,2782.8,33370.4,398.6,""oops"",""left"",""right"",""bad_move"",38891.8,2338.3,1929.3,36553.5,409,""smooth"",""left"",""left"",""good_move"",41553.2,2657.6,2044,38895.6,613.6,""smooth"",""left"",""left"",""good_move"",44635.3,3081.9,2742,41553.4,339.9,""smooth"",""left"",""left"",""good_move"",47413.3,2776.6,1949.3,44636.7,827.3,""oops"",""left"",""right"",""bad_move"",50584.1,3167.2,2871.1,47416.9,296.1,""while_blue"",""left"",""left"",""good_move"",53244.8,2660.4,1854.2,50584.4,806.2,""oops"",""left"",""right"",""bad_move"",56579.3,3332.5,2727.2,53246.8,605.3,""oops"",""left"",""right"",""bad_move"",59266.8,2686,2189.5,56580.9,496.5,""oops"",""left"",""down"",""bad_move"",65798.3,6530.8,2516.8,62868.8,412.7,""oops"",""left"",""down"",""bad_move"",68442.2,2639.3,1880.8,65802.9,758.5,""oops"",""up"",""left"",""good_move"",71361.7,2919.3,2126.9,68442.4,792.4,""oops"",""up"",""up"",""good_move""]"
"2404","","<div style=""width:500px;"">
  <p>What determined the result of this run?</p>
  </div>","35","html-slider-response","49","543015","0.0-7.0-1.7","85","1","2025-07-30 09:44:08","36c45c0696341be0efffe67d72a12abb","84.67.34.58","Mozilla/5.0 (Macintosh; Intel Mac OS X 10_15_7) AppleWebKit/537.36 (KHTML, like Gecko) Chrome/138.0.0.0 Safari/537.36","Macintosh","Chrome","138.0.0.0","OS X","10_15_7","https://app.prolific.com/","en-GB,en-US;q=0.9,en;q=0.8","6658ba167affbe300577b93d","683dba9a53627eb9ab41b36a","6889e95ddc9ec44f699e8433","0","6658ba167affbe300577b93d","0","2025-07-30T09:53:13.258Z","","","","AttribQ","","","","","","","","","","","50","","","","","","","","","","","","","","","","","","","","","","","","","","",""
"2084","","<div style=""width:500px;"">
  <p>How much control did you have over the ball?</p>
  </div>","25","html-slider-response","50","545103","0.0-7.0-2.7","85","1","2025-07-30 09:44:08","36c45c0696341be0efffe67d72a12abb","84.67.34.58","Mozilla/5.0 (Macintosh; Intel Mac OS X 10_15_7) AppleWebKit/537.36 (KHTML, like Gecko) Chrome/138.0.0.0 Safari/537.36","Macintosh","Chrome","138.0.0.0","OS X","10_15_7","https://app.prolific.com/","en-GB,en-US;q=0.9,en;q=0.8","6658ba167affbe300577b93d","683dba9a53627eb9ab41b36a","6889e95ddc9ec44f699e8433","0","6658ba167affbe300577b93d","0","2025-07-30T09:53:15.346Z","","","","ControlQ","","","","","","","","","","","50","","","","","","","","","","","","","","","","","","","","","","","","","","",""
"1900","","<div style=""width:500px;"">
  <p>How would you describe your current emotional state?</p>
  </div>","68","html-slider-response","51","547005","0.0-7.0-3.7","85","1","2025-07-30 09:44:08","36c45c0696341be0efffe67d72a12abb","84.67.34.58","Mozilla/5.0 (Macintosh; Intel Mac OS X 10_15_7) AppleWebKit/537.36 (KHTML, like Gecko) Chrome/138.0.0.0 Safari/537.36","Macintosh","Chrome","138.0.0.0","OS X","10_15_7","https://app.prolific.com/","en-GB,en-US;q=0.9,en;q=0.8","6658ba167affbe300577b93d","683dba9a53627eb9ab41b36a","6889e95ddc9ec44f699e8433","0","6658ba167affbe300577b93d","0","2025-07-30T09:53:17.248Z","","","","StressQ","","","","","","","","","","","50","","","","","","","","","","","","","","","","","","","","","","","","","","",""
"1260","","<div style=""width:500px;"">
  <p>What best describes how you currently feel?</p>
  </div>","70","html-slider-response","52","548266","0.0-7.0-4.7","85","1","2025-07-30 09:44:08","36c45c0696341be0efffe67d72a12abb","84.67.34.58","Mozilla/5.0 (Macintosh; Intel Mac OS X 10_15_7) AppleWebKit/537.36 (KHTML, like Gecko) Chrome/138.0.0.0 Safari/537.36","Macintosh","Chrome","138.0.0.0","OS X","10_15_7","https://app.prolific.com/","en-GB,en-US;q=0.9,en;q=0.8","6658ba167affbe300577b93d","683dba9a53627eb9ab41b36a","6889e95ddc9ec44f699e8433","0","6658ba167affbe300577b93d","0","2025-07-30T09:53:18.509Z","","","","MotivationQ","","","","","","","","","","","50","","","","","","","","","","","","","","","","","","","","","","","","","","",""
"","","","","ctl-task-cpt","53","591478","0.0-7.0-0.8","85","1","2025-07-30 09:44:08","36c45c0696341be0efffe67d72a12abb","84.67.34.58","Mozilla/5.0 (Macintosh; Intel Mac OS X 10_15_7) AppleWebKit/537.36 (KHTML, like Gecko) Chrome/138.0.0.0 Safari/537.36","Macintosh","Chrome","138.0.0.0","OS X","10_15_7","https://app.prolific.com/","en-GB,en-US;q=0.9,en;q=0.8","6658ba167affbe300577b93d","683dba9a53627eb9ab41b36a","6889e95ddc9ec44f699e8433","0","6658ba167affbe300577b93d","0","2025-07-30T09:54:01.721Z","","","","","","","","","","","","","","","","win-only","0","g1:NW,g2:SE","0.4","9","0","550332.8","1227.7","6234.2","40190.5","1","4","8","6","2","8","8","30","22","0.22727272727272727","1053.5","3000","2040","[""down"",""right""]","{""num_key_presses"":6,""num_perfect"":4,""num_errors"":0,""num_randdir"":2,""num_randdir_good_moves"":2,""num_whilered"":0,""num_whileblue"":0,""num_blue"":5,""num_good_moves"":6}","[692.2857142857143,696.0825892857143,0.2,692.2857142857143,696.0825892857143,102.1,692.2857142857143,696.0825892857143,205.3,692.2857142857143,696.0825892857143,318.3,692.2857142857143,696.0825892857143,425.8,704.2857142857143,696.0825892857143,533.2,954.2857142857143,988.0825892857143,648.1,1094.2857142857142,1128.0825892857142,750.5,1222.2857142857142,1186.0825892857142,882.3,1300.2857142857142,1278.0825892857142,991.9,1300.2857142857142,1278.0825892857142,1097.2,1300.2857142857142,1278.0825892857142,1197.3,1300.2857142857142,1278.0825892857142,1307.4,1300.2857142857142,1278.0825892857142,1412,1300.2857142857142,1278.0825892857142,1514.9,1300.2857142857142,1278.0825892857142,1615.5,1300.2857142857142,1278.0825892857142,1717.6,1300.2857142857142,1278.0825892857142,1818.4,1300.2857142857142,1278.0825892857142,1928.6,1300.2857142857142,1278.0825892857142,2029.7,1300.2857142857142,1278.0825892857142,2142.3,1300.2857142857142,1278.0825892857142,2246.2,1300.2857142857142,1278.0825892857142,2366.8,1300.2857142857142,1278.0825892857142,2467.8,1300.2857142857142,1278.0825892857142,2568.7,1300.2857142857142,1278.0825892857142,2676.6,1300.2857142857142,1278.0825892857142,2779.6,1300.2857142857142,1278.0825892857142,2887,1300.2857142857142,1278.0825892857142,2993.9,1300.2857142857142,1278.0825892857142,3100,1300.2857142857142,1278.0825892857142,3210.9,1300.2857142857142,1278.0825892857142,3312.7,1300.2857142857142,1278.0825892857142,3417.2,1300.2857142857142,1278.0825892857142,3532.9,1300.2857142857142,1278.0825892857142,3638,1300.2857142857142,1278.0825892857142,3753.4,1300.2857142857142,1278.0825892857142,3861.2,1300.2857142857142,1278.0825892857142,3963,1300.2857142857142,1278.0825892857142,4067.8,1300.2857142857142,1278.0825892857142,4170.3,1300.2857142857142,1278.0825892857142,4293,1300.2857142857142,1278.0825892857142,4405.4,1300.2857142857142,1278.0825892857142,4527.6,1300.2857142857142,1278.0825892857142,4631.8,1300.2857142857142,1278.0825892857142,4746.1,1300.2857142857142,1278.0825892857142,4849,1300.2857142857142,1278.0825892857142,4955.2]","[1505.5,1505.5,1000,0,505.5,""smooth"",""right"",""right"",""good_move"",4328,2818.9,2190.6,1509.1,628.3,""smooth"",""right"",""right"",""good_move"",10055.8,5725.6,2243,7319.3,493.5,""oops"",""right"",""down"",""good_move"",20371,10314.9,2983.3,17019.8,367.9,""smooth"",""right"",""right"",""good_move"",23775.1,3394.9,2983.3,20380.4,411.4,""oops"",""down"",""down"",""good_move"",33692.7,9916.1,2831.3,30360.7,500.7,""smooth"",""down"",""down"",""good_move""]"
"2617","","<div style=""width:500px;"">
  <p>What determined the result of this run?</p>
  </div>","85","html-slider-response","54","594097","0.0-7.0-1.8","85","1","2025-07-30 09:44:08","36c45c0696341be0efffe67d72a12abb","84.67.34.58","Mozilla/5.0 (Macintosh; Intel Mac OS X 10_15_7) AppleWebKit/537.36 (KHTML, like Gecko) Chrome/138.0.0.0 Safari/537.36","Macintosh","Chrome","138.0.0.0","OS X","10_15_7","https://app.prolific.com/","en-GB,en-US;q=0.9,en;q=0.8","6658ba167affbe300577b93d","683dba9a53627eb9ab41b36a","6889e95ddc9ec44f699e8433","0","6658ba167affbe300577b93d","0","2025-07-30T09:54:04.340Z","","","","AttribQ","","","","","","","","","","","50","","","","","","","","","","","","","","","","","","","","","","","","","","",""
"1202","","<div style=""width:500px;"">
  <p>How much control did you have over the ball?</p>
  </div>","82","html-slider-response","55","595300","0.0-7.0-2.8","85","1","2025-07-30 09:44:08","36c45c0696341be0efffe67d72a12abb","84.67.34.58","Mozilla/5.0 (Macintosh; Intel Mac OS X 10_15_7) AppleWebKit/537.36 (KHTML, like Gecko) Chrome/138.0.0.0 Safari/537.36","Macintosh","Chrome","138.0.0.0","OS X","10_15_7","https://app.prolific.com/","en-GB,en-US;q=0.9,en;q=0.8","6658ba167affbe300577b93d","683dba9a53627eb9ab41b36a","6889e95ddc9ec44f699e8433","0","6658ba167affbe300577b93d","0","2025-07-30T09:54:05.543Z","","","","ControlQ","","","","","","","","","","","50","","","","","","","","","","","","","","","","","","","","","","","","","","",""
"6659","","<div style=""width:500px;"">
  <p>How would you describe your current emotional state?</p>
  </div>","64","html-slider-response","56","601960","0.0-7.0-3.8","85","1","2025-07-30 09:44:08","36c45c0696341be0efffe67d72a12abb","84.67.34.58","Mozilla/5.0 (Macintosh; Intel Mac OS X 10_15_7) AppleWebKit/537.36 (KHTML, like Gecko) Chrome/138.0.0.0 Safari/537.36","Macintosh","Chrome","138.0.0.0","OS X","10_15_7","https://app.prolific.com/","en-GB,en-US;q=0.9,en;q=0.8","6658ba167affbe300577b93d","683dba9a53627eb9ab41b36a","6889e95ddc9ec44f699e8433","0","6658ba167affbe300577b93d","0","2025-07-30T09:54:12.203Z","","","","StressQ","","","","","","","","","","","50","","","","","","","","","","","","","","","","","","","","","","","","","","",""
"2091","","<div style=""width:500px;"">
  <p>What best describes how you currently feel?</p>
  </div>","70","html-slider-response","57","604052","0.0-7.0-4.8","85","1","2025-07-30 09:44:08","36c45c0696341be0efffe67d72a12abb","84.67.34.58","Mozilla/5.0 (Macintosh; Intel Mac OS X 10_15_7) AppleWebKit/537.36 (KHTML, like Gecko) Chrome/138.0.0.0 Safari/537.36","Macintosh","Chrome","138.0.0.0","OS X","10_15_7","https://app.prolific.com/","en-GB,en-US;q=0.9,en;q=0.8","6658ba167affbe300577b93d","683dba9a53627eb9ab41b36a","6889e95ddc9ec44f699e8433","0","6658ba167affbe300577b93d","0","2025-07-30T09:54:14.296Z","","","","MotivationQ","","","","","","","","","","","50","","","","","","","","","","","","","","","","","","","","","","","","","","",""
"","","","","ctl-task-cpt","58","656177","0.0-7.0-0.9","85","1","2025-07-30 09:44:08","36c45c0696341be0efffe67d72a12abb","84.67.34.58","Mozilla/5.0 (Macintosh; Intel Mac OS X 10_15_7) AppleWebKit/537.36 (KHTML, like Gecko) Chrome/138.0.0.0 Safari/537.36","Macintosh","Chrome","138.0.0.0","OS X","10_15_7","https://app.prolific.com/","en-GB,en-US;q=0.9,en;q=0.8","6658ba167affbe300577b93d","683dba9a53627eb9ab41b36a","6889e95ddc9ec44f699e8433","0","6658ba167affbe300577b93d","0","2025-07-30T09:55:06.420Z","","","","","","","","","","","","","","","","win-only","1","g1:NE,g2:SW","0.5","10","0","606116.1","805.9","5814.3","49102.6","1","4","4","6","2","4","4","34","30","0.25757575757575757","912.7","3000","1410","[""down"",""left""]","{""num_key_presses"":12,""num_perfect"":6,""num_errors"":0,""num_randdir"":6,""num_randdir_good_moves"":3,""num_whilered"":0,""num_whileblue"":0,""num_blue"":2,""num_good_moves"":9}","[702.2857142857143,676.0825892857143,0.3,702.2857142857143,676.0825892857143,101.2,702.2857142857143,676.0825892857143,210.3,702.2857142857143,676.0825892857143,324.9,702.2857142857143,676.0825892857143,430.2,496.2857142857143,844.0825892857143,536.7,206.28571428571428,1058.0825892857142,638.1,186.28571428571428,1116.0825892857142,757.2,156.28571428571428,1216.0825892857142,861,154.28571428571428,1220.0825892857142,971.1,154.28571428571428,1220.0825892857142,1074.7,154.28571428571428,1220.0825892857142,1182.1,154.28571428571428,1220.0825892857142,1291.8,154.28571428571428,1220.0825892857142,1397.1,154.28571428571428,1220.0825892857142,1514.5,154.28571428571428,1220.0825892857142,1620.4,154.28571428571428,1220.0825892857142,1727.7,154.28571428571428,1220.0825892857142,1829.6,154.28571428571428,1220.0825892857142,1940.1,154.28571428571428,1220.0825892857142,2052.3,154.28571428571428,1220.0825892857142,2166.4,154.28571428571428,1220.0825892857142,2275.3,154.28571428571428,1220.0825892857142,2392.3,154.28571428571428,1220.0825892857142,2507.8,154.28571428571428,1220.0825892857142,2608,154.28571428571428,1220.0825892857142,2718.6,154.28571428571428,1220.0825892857142,2818.9,154.28571428571428,1220.0825892857142,2925.7,154.28571428571428,1220.0825892857142,3033.1,154.28571428571428,1220.0825892857142,3145.4,154.28571428571428,1220.0825892857142,3248.6,154.28571428571428,1220.0825892857142,3351.2,154.28571428571428,1220.0825892857142,3459.6,154.28571428571428,1220.0825892857142,3567.6,154.28571428571428,1220.0825892857142,3676.9,154.28571428571428,1220.0825892857142,3778,154.28571428571428,1220.0825892857142,3882.5,154.28571428571428,1220.0825892857142,3994.4,154.28571428571428,1220.0825892857142,4096.3,154.28571428571428,1220.0825892857142,4216.7,154.28571428571428,1220.0825892857142,4326.4,154.28571428571428,1220.0825892857142,4441.2,154.28571428571428,1220.0825892857142,4542.4,154.28571428571428,1220.0825892857142,4654,154.28571428571428,1220.0825892857142,4761.5,154.28571428571428,1220.0825892857142,4863.2,154.28571428571428,1220.0825892857142,4982.2]","[1572.9,1573,1000,0,573,""oops"",""down"",""up"",""bad_move"",5151.4,3577.8,3053.3,1573.6,524.5,""smooth"",""left"",""left"",""good_move"",14751.7,9600,2525.5,11819.9,406.3,""smooth"",""down"",""down"",""good_move"",17935.4,3181.1,2640.7,14754.4,540.4,""oops"",""down"",""down"",""good_move"",20225.4,2287.4,1566.6,17938,720.8,""oops"",""down"",""up"",""bad_move"",23460.8,3235.3,2724.3,20225.6,510.9,""smooth"",""down"",""down"",""good_move"",26613.1,3151,2743.8,23462.1,407.2,""smooth"",""left"",""left"",""good_move"",29796.4,3181.4,2273.8,26615,907.7,""smooth"",""left"",""left"",""good_move"",32861.7,3064.1,1722.4,29797.6,1341.7,""oops"",""down"",""down"",""good_move"",35349,2487.1,2047.8,32862,439.3,""oops"",""down"",""right"",""bad_move"",39302.5,3952.8,3617.1,35349.7,335.7,""oops"",""down"",""down"",""good_move"",42989.2,3684.8,3313.3,39304.4,371.5,""smooth"",""left"",""left"",""good_move""]"
"1887","","<div style=""width:500px;"">
  <p>What determined the result of this run?</p>
  </div>","79","html-slider-response","59","658068","0.0-7.0-1.9","85","1","2025-07-30 09:44:08","36c45c0696341be0efffe67d72a12abb","84.67.34.58","Mozilla/5.0 (Macintosh; Intel Mac OS X 10_15_7) AppleWebKit/537.36 (KHTML, like Gecko) Chrome/138.0.0.0 Safari/537.36","Macintosh","Chrome","138.0.0.0","OS X","10_15_7","https://app.prolific.com/","en-GB,en-US;q=0.9,en;q=0.8","6658ba167affbe300577b93d","683dba9a53627eb9ab41b36a","6889e95ddc9ec44f699e8433","0","6658ba167affbe300577b93d","0","2025-07-30T09:55:08.311Z","","","","AttribQ","","","","","","","","","","","50","","","","","","","","","","","","","","","","","","","","","","","","","","",""
"1499","","<div style=""width:500px;"">
  <p>How much control did you have over the ball?</p>
  </div>","76","html-slider-response","60","659570","0.0-7.0-2.9","85","1","2025-07-30 09:44:08","36c45c0696341be0efffe67d72a12abb","84.67.34.58","Mozilla/5.0 (Macintosh; Intel Mac OS X 10_15_7) AppleWebKit/537.36 (KHTML, like Gecko) Chrome/138.0.0.0 Safari/537.36","Macintosh","Chrome","138.0.0.0","OS X","10_15_7","https://app.prolific.com/","en-GB,en-US;q=0.9,en;q=0.8","6658ba167affbe300577b93d","683dba9a53627eb9ab41b36a","6889e95ddc9ec44f699e8433","0","6658ba167affbe300577b93d","0","2025-07-30T09:55:09.813Z","","","","ControlQ","","","","","","","","","","","50","","","","","","","","","","","","","","","","","","","","","","","","","","",""
"1893","","<div style=""width:500px;"">
  <p>How would you describe your current emotional state?</p>
  </div>","50","html-slider-response","61","661464","0.0-7.0-3.9","85","1","2025-07-30 09:44:08","36c45c0696341be0efffe67d72a12abb","84.67.34.58","Mozilla/5.0 (Macintosh; Intel Mac OS X 10_15_7) AppleWebKit/537.36 (KHTML, like Gecko) Chrome/138.0.0.0 Safari/537.36","Macintosh","Chrome","138.0.0.0","OS X","10_15_7","https://app.prolific.com/","en-GB,en-US;q=0.9,en;q=0.8","6658ba167affbe300577b93d","683dba9a53627eb9ab41b36a","6889e95ddc9ec44f699e8433","0","6658ba167affbe300577b93d","0","2025-07-30T09:55:11.707Z","","","","StressQ","","","","","","","","","","","50","","","","","","","","","","","","","","","","","","","","","","","","","","",""
"1223","","<div style=""width:500px;"">
  <p>What best describes how you currently feel?</p>
  </div>","77","html-slider-response","62","662688","0.0-7.0-4.9","85","1","2025-07-30 09:44:08","36c45c0696341be0efffe67d72a12abb","84.67.34.58","Mozilla/5.0 (Macintosh; Intel Mac OS X 10_15_7) AppleWebKit/537.36 (KHTML, like Gecko) Chrome/138.0.0.0 Safari/537.36","Macintosh","Chrome","138.0.0.0","OS X","10_15_7","https://app.prolific.com/","en-GB,en-US;q=0.9,en;q=0.8","6658ba167affbe300577b93d","683dba9a53627eb9ab41b36a","6889e95ddc9ec44f699e8433","0","6658ba167affbe300577b93d","0","2025-07-30T09:55:12.931Z","","","","MotivationQ","","","","","","","","","","","50","","","","","","","","","","","","","","","","","","","","","","","","","","",""
"","","","","ctl-task-cpt","63","741220","0.0-7.0-0.10","85","1","2025-07-30 09:44:08","36c45c0696341be0efffe67d72a12abb","84.67.34.58","Mozilla/5.0 (Macintosh; Intel Mac OS X 10_15_7) AppleWebKit/537.36 (KHTML, like Gecko) Chrome/138.0.0.0 Safari/537.36","Macintosh","Chrome","138.0.0.0","OS X","10_15_7","https://app.prolific.com/","en-GB,en-US;q=0.9,en;q=0.8","6658ba167affbe300577b93d","683dba9a53627eb9ab41b36a","6889e95ddc9ec44f699e8433","0","6658ba167affbe300577b93d","0","2025-07-30T09:56:31.463Z","","","","","","","","","","","","","","","","win-only","2","g1:SE,g2:NW","0.6","11","0","664752","1076.3","6100.4","75490.6","1","4","4","6","2","4","4","38","34","0.2878787878787879","1061","3000","1210","[""left"",""up""]","{""num_key_presses"":16,""num_perfect"":9,""num_errors"":0,""num_randdir"":7,""num_randdir_good_moves"":2,""num_whilered"":0,""num_whileblue"":0,""num_blue"":5,""num_good_moves"":11}","[692.2857142857143,698.0825892857143,0.1,690.2857142857143,698.0825892857143,118.5,690.2857142857143,690.0825892857143,232.9,700.2857142857143,706.0825892857143,342.7,1072.2857142857142,1018.0825892857143,453,454.2857142857143,318.0825892857143,569.8,418.2857142857143,234.08258928571428,689.1,310.2857142857143,214.08258928571428,795,204.28571428571428,104.08258928571429,901.6,202.28571428571428,100.08258928571429,1012.6,202.28571428571428,100.08258928571429,1114.5,202.28571428571428,100.08258928571429,1218.4,202.28571428571428,100.08258928571429,1330.3,202.28571428571428,100.08258928571429,1438,202.28571428571428,100.08258928571429,1542.7,202.28571428571428,100.08258928571429,1644.4,202.28571428571428,100.08258928571429,1754.8,202.28571428571428,100.08258928571429,1863.5,202.28571428571428,100.08258928571429,1977.8,202.28571428571428,100.08258928571429,2078.3,202.28571428571428,100.08258928571429,2212.5,202.28571428571428,100.08258928571429,2322.7,202.28571428571428,100.08258928571429,2429.1,202.28571428571428,100.08258928571429,2530,202.28571428571428,100.08258928571429,2633,202.28571428571428,100.08258928571429,2748.8,202.28571428571428,100.08258928571429,2862.7,202.28571428571428,100.08258928571429,2966.1,202.28571428571428,100.08258928571429,3067.2,202.28571428571428,100.08258928571429,3175.8,202.28571428571428,100.08258928571429,3276.7,202.28571428571428,100.08258928571429,3384.8,202.28571428571428,100.08258928571429,3487.4,202.28571428571428,100.08258928571429,3593.4,202.28571428571428,100.08258928571429,3694.8,202.28571428571428,100.08258928571429,3808.4,202.28571428571428,100.08258928571429,3920.3,202.28571428571428,100.08258928571429,4020.7,202.28571428571428,100.08258928571429,4121.6,202.28571428571428,100.08258928571429,4225.8,202.28571428571428,100.08258928571429,4334.5,202.28571428571428,100.08258928571429,4444.3,202.28571428571428,100.08258928571429,4553.3,202.28571428571428,100.08258928571429,4664.3,202.28571428571428,100.08258928571429,4774.3,202.28571428571428,100.08258928571429,4881.1,202.28571428571428,100.08258928571429,4989.9]","[1504.6,1504.6,1000,0,504.6,""oops"",""up"",""down"",""bad_move"",4936.9,3431.7,3015.7,1505.2,416,""smooth"",""left"",""left"",""good_move"",12387.8,7450.5,2875.5,9131,381.3,""smooth"",""left"",""left"",""good_move"",18820.3,6431.3,1957.1,16399.4,463.8,""smooth"",""left"",""left"",""good_move"",22387.9,3567.4,2314.2,18820.5,1253.2,""smooth"",""up"",""up"",""good_move"",25805.2,3416.9,2963.5,22388.3,453.4,""smooth"",""up"",""up"",""good_move"",33077,7271.6,2974.6,29741.3,361.1,""oops"",""up"",""down"",""bad_move"",39104.2,6025.2,2195.5,36548.9,359.8,""smooth"",""up"",""up"",""good_move"",42830.5,3723.4,3364.9,39107.2,358.4,""oops"",""up"",""right"",""bad_move"",45922.7,3091.8,2710.3,42830.9,381.5,""oops"",""up"",""up"",""good_move"",49598.8,3675.8,1909.1,45923.2,1766.6,""oops"",""left"",""down"",""bad_move"",52203,2602.9,2123.1,49600.1,479.8,""oops"",""up"",""up"",""good_move"",55538.8,3334.5,1663.1,52204.3,1671.4,""smooth"",""up"",""up"",""good_move"",59290.8,3750.3,3207.1,55540.5,543.2,""oops"",""left"",""right"",""bad_move"",65677.2,6386.2,2405.3,62835.7,436.2,""smooth"",""left"",""left"",""good_move"",69043.7,3363,1551.1,65680.7,1811.9,""smooth"",""left"",""left"",""good_move""]"
"4166","","<div style=""width:500px;"">
  <p>What determined the result of this run?</p>
  </div>","73","html-slider-response","64","745388","0.0-7.0-1.10","85","1","2025-07-30 09:44:08","36c45c0696341be0efffe67d72a12abb","84.67.34.58","Mozilla/5.0 (Macintosh; Intel Mac OS X 10_15_7) AppleWebKit/537.36 (KHTML, like Gecko) Chrome/138.0.0.0 Safari/537.36","Macintosh","Chrome","138.0.0.0","OS X","10_15_7","https://app.prolific.com/","en-GB,en-US;q=0.9,en;q=0.8","6658ba167affbe300577b93d","683dba9a53627eb9ab41b36a","6889e95ddc9ec44f699e8433","0","6658ba167affbe300577b93d","0","2025-07-30T09:56:35.631Z","","","","AttribQ","","","","","","","","","","","50","","","","","","","","","","","","","","","","","","","","","","","","","","",""
"1196","","<div style=""width:500px;"">
  <p>How much control did you have over the ball?</p>
  </div>","75","html-slider-response","65","746586","0.0-7.0-2.10","85","1","2025-07-30 09:44:08","36c45c0696341be0efffe67d72a12abb","84.67.34.58","Mozilla/5.0 (Macintosh; Intel Mac OS X 10_15_7) AppleWebKit/537.36 (KHTML, like Gecko) Chrome/138.0.0.0 Safari/537.36","Macintosh","Chrome","138.0.0.0","OS X","10_15_7","https://app.prolific.com/","en-GB,en-US;q=0.9,en;q=0.8","6658ba167affbe300577b93d","683dba9a53627eb9ab41b36a","6889e95ddc9ec44f699e8433","0","6658ba167affbe300577b93d","0","2025-07-30T09:56:36.829Z","","","","ControlQ","","","","","","","","","","","50","","","","","","","","","","","","","","","","","","","","","","","","","","",""
"1543","","<div style=""width:500px;"">
  <p>How would you describe your current emotional state?</p>
  </div>","67","html-slider-response","66","748132","0.0-7.0-3.10","85","1","2025-07-30 09:44:08","36c45c0696341be0efffe67d72a12abb","84.67.34.58","Mozilla/5.0 (Macintosh; Intel Mac OS X 10_15_7) AppleWebKit/537.36 (KHTML, like Gecko) Chrome/138.0.0.0 Safari/537.36","Macintosh","Chrome","138.0.0.0","OS X","10_15_7","https://app.prolific.com/","en-GB,en-US;q=0.9,en;q=0.8","6658ba167affbe300577b93d","683dba9a53627eb9ab41b36a","6889e95ddc9ec44f699e8433","0","6658ba167affbe300577b93d","0","2025-07-30T09:56:38.375Z","","","","StressQ","","","","","","","","","","","50","","","","","","","","","","","","","","","","","","","","","","","","","","",""
"1079","","<div style=""width:500px;"">
  <p>What best describes how you currently feel?</p>
  </div>","72","html-slider-response","67","749212","0.0-7.0-4.10","85","1","2025-07-30 09:44:08","36c45c0696341be0efffe67d72a12abb","84.67.34.58","Mozilla/5.0 (Macintosh; Intel Mac OS X 10_15_7) AppleWebKit/537.36 (KHTML, like Gecko) Chrome/138.0.0.0 Safari/537.36","Macintosh","Chrome","138.0.0.0","OS X","10_15_7","https://app.prolific.com/","en-GB,en-US;q=0.9,en;q=0.8","6658ba167affbe300577b93d","683dba9a53627eb9ab41b36a","6889e95ddc9ec44f699e8433","0","6658ba167affbe300577b93d","0","2025-07-30T09:56:39.455Z","","","","MotivationQ","","","","","","","","","","","50","","","","","","","","","","","","","","","","","","","","","","","","","","",""
"","","","","ctl-task-cpt","68","776561","0.0-7.0-0.11","85","1","2025-07-30 09:44:08","36c45c0696341be0efffe67d72a12abb","84.67.34.58","Mozilla/5.0 (Macintosh; Intel Mac OS X 10_15_7) AppleWebKit/537.36 (KHTML, like Gecko) Chrome/138.0.0.0 Safari/537.36","Macintosh","Chrome","138.0.0.0","OS X","10_15_7","https://app.prolific.com/","en-GB,en-US;q=0.9,en;q=0.8","6658ba167affbe300577b93d","683dba9a53627eb9ab41b36a","6889e95ddc9ec44f699e8433","0","6658ba167affbe300577b93d","0","2025-07-30T09:57:06.804Z","","","","","","","","","","","","","","","","win-only","1","g1:NE,g2:SW","0.7","12","0","751278.7","1267.7","6293.7","24319.7","1","4","8","6","2","8","8","46","38","0.3484848484848485","933.3","3000","2335","[""down"",""left""]","{""num_key_presses"":6,""num_perfect"":4,""num_errors"":0,""num_randdir"":2,""num_randdir_good_moves"":2,""num_whilered"":0,""num_whileblue"":0,""num_blue"":0,""num_good_moves"":6}","[700.2857142857143,688.0825892857143,5.1,698.2857142857143,688.0825892857143,119.4,698.2857142857143,686.0825892857143,225,746.2857142857143,722.0825892857143,337.9,768.2857142857143,734.0825892857143,440.1,530.2857142857143,826.0825892857143,552.4,316.2857142857143,1136.0825892857142,653.1,150.28571428571428,1244.0825892857142,768.9,148.28571428571428,1246.0825892857142,880.7,148.28571428571428,1246.0825892857142,982.9,148.28571428571428,1246.0825892857142,1087.6,148.28571428571428,1246.0825892857142,1189.2,148.28571428571428,1246.0825892857142,1295.5,148.28571428571428,1246.0825892857142,1413.6,148.28571428571428,1246.0825892857142,1518,148.28571428571428,1246.0825892857142,1626.6,148.28571428571428,1246.0825892857142,1730.9,148.28571428571428,1246.0825892857142,1837.7,148.28571428571428,1246.0825892857142,1945.2,148.28571428571428,1246.0825892857142,2045.6,148.28571428571428,1246.0825892857142,2162.2,148.28571428571428,1246.0825892857142,2276.5,148.28571428571428,1246.0825892857142,2378.2,148.28571428571428,1246.0825892857142,2482.4,148.28571428571428,1246.0825892857142,2593.8,148.28571428571428,1246.0825892857142,2704.3,148.28571428571428,1246.0825892857142,2815.4,148.28571428571428,1246.0825892857142,2920.9,148.28571428571428,1246.0825892857142,3028,148.28571428571428,1246.0825892857142,3130.5,148.28571428571428,1246.0825892857142,3240.4,148.28571428571428,1246.0825892857142,3348.3,148.28571428571428,1246.0825892857142,3462.8,148.28571428571428,1246.0825892857142,3582.4,148.28571428571428,1246.0825892857142,3686.2,148.28571428571428,1246.0825892857142,3797.2,148.28571428571428,1246.0825892857142,3915.1,148.28571428571428,1246.0825892857142,4027.6,148.28571428571428,1246.0825892857142,4138.5,148.28571428571428,1246.0825892857142,4246.9,148.28571428571428,1246.0825892857142,4349.3,148.28571428571428,1246.0825892857142,4471.9,148.28571428571428,1246.0825892857142,4580.4,148.28571428571428,1246.0825892857142,4685,148.28571428571428,1246.0825892857142,4805.2,148.28571428571428,1246.0825892857142,4908.2]","[1649.4,1649.4,1000,0,649.4,""smooth"",""down"",""down"",""good_move"",4431.9,2782.2,2341.1,1649.8,441.1,""smooth"",""down"",""down"",""good_move"",7373.7,2941.6,2479.1,4432.1,462.5,""oops"",""down"",""down"",""good_move"",10286.7,2910.5,2427.2,7376.2,483.3,""oops"",""left"",""left"",""good_move"",13797.6,3508.7,2453.5,10288.9,1055.2,""smooth"",""left"",""left"",""good_move"",17637.4,3835.3,2442.1,13802.5,1392.8,""smooth"",""left"",""left"",""good_move""]"
"1966","","<div style=""width:500px;"">
  <p>What determined the result of this run?</p>
  </div>","100","html-slider-response","69","778528","0.0-7.0-1.11","85","1","2025-07-30 09:44:08","36c45c0696341be0efffe67d72a12abb","84.67.34.58","Mozilla/5.0 (Macintosh; Intel Mac OS X 10_15_7) AppleWebKit/537.36 (KHTML, like Gecko) Chrome/138.0.0.0 Safari/537.36","Macintosh","Chrome","138.0.0.0","OS X","10_15_7","https://app.prolific.com/","en-GB,en-US;q=0.9,en;q=0.8","6658ba167affbe300577b93d","683dba9a53627eb9ab41b36a","6889e95ddc9ec44f699e8433","0","6658ba167affbe300577b93d","0","2025-07-30T09:57:08.771Z","","","","AttribQ","","","","","","","","","","","50","","","","","","","","","","","","","","","","","","","","","","","","","","",""
"1734","","<div style=""width:500px;"">
  <p>How much control did you have over the ball?</p>
  </div>","100","html-slider-response","70","780264","0.0-7.0-2.11","85","1","2025-07-30 09:44:08","36c45c0696341be0efffe67d72a12abb","84.67.34.58","Mozilla/5.0 (Macintosh; Intel Mac OS X 10_15_7) AppleWebKit/537.36 (KHTML, like Gecko) Chrome/138.0.0.0 Safari/537.36","Macintosh","Chrome","138.0.0.0","OS X","10_15_7","https://app.prolific.com/","en-GB,en-US;q=0.9,en;q=0.8","6658ba167affbe300577b93d","683dba9a53627eb9ab41b36a","6889e95ddc9ec44f699e8433","0","6658ba167affbe300577b93d","0","2025-07-30T09:57:10.507Z","","","","ControlQ","","","","","","","","","","","50","","","","","","","","","","","","","","","","","","","","","","","","","","",""
"1808","","<div style=""width:500px;"">
  <p>How would you describe your current emotional state?</p>
  </div>","48","html-slider-response","71","782074","0.0-7.0-3.11","85","1","2025-07-30 09:44:08","36c45c0696341be0efffe67d72a12abb","84.67.34.58","Mozilla/5.0 (Macintosh; Intel Mac OS X 10_15_7) AppleWebKit/537.36 (KHTML, like Gecko) Chrome/138.0.0.0 Safari/537.36","Macintosh","Chrome","138.0.0.0","OS X","10_15_7","https://app.prolific.com/","en-GB,en-US;q=0.9,en;q=0.8","6658ba167affbe300577b93d","683dba9a53627eb9ab41b36a","6889e95ddc9ec44f699e8433","0","6658ba167affbe300577b93d","0","2025-07-30T09:57:12.318Z","","","","StressQ","","","","","","","","","","","50","","","","","","","","","","","","","","","","","","","","","","","","","","",""
"1347","","<div style=""width:500px;"">
  <p>What best describes how you currently feel?</p>
  </div>","73","html-slider-response","72","783423","0.0-7.0-4.11","85","1","2025-07-30 09:44:08","36c45c0696341be0efffe67d72a12abb","84.67.34.58","Mozilla/5.0 (Macintosh; Intel Mac OS X 10_15_7) AppleWebKit/537.36 (KHTML, like Gecko) Chrome/138.0.0.0 Safari/537.36","Macintosh","Chrome","138.0.0.0","OS X","10_15_7","https://app.prolific.com/","en-GB,en-US;q=0.9,en;q=0.8","6658ba167affbe300577b93d","683dba9a53627eb9ab41b36a","6889e95ddc9ec44f699e8433","0","6658ba167affbe300577b93d","0","2025-07-30T09:57:13.666Z","","","","MotivationQ","","","","","","","","","","","50","","","","","","","","","","","","","","","","","","","","","","","","","","",""
"","","","","ctl-task-cpt","73","832063","0.0-7.0-0.12","85","1","2025-07-30 09:44:08","36c45c0696341be0efffe67d72a12abb","84.67.34.58","Mozilla/5.0 (Macintosh; Intel Mac OS X 10_15_7) AppleWebKit/537.36 (KHTML, like Gecko) Chrome/138.0.0.0 Safari/537.36","Macintosh","Chrome","138.0.0.0","OS X","10_15_7","https://app.prolific.com/","en-GB,en-US;q=0.9,en;q=0.8","6658ba167affbe300577b93d","683dba9a53627eb9ab41b36a","6889e95ddc9ec44f699e8433","0","6658ba167affbe300577b93d","0","2025-07-30T09:58:02.306Z","","","","","","","","","","","","","","","","win-only","2","g1:SE,g2:NW","0.8","13","0","785490","886.9","5901.1","45604.7","1","4","4","6","2","4","4","50","46","0.3787878787878788","1113.5","3000","2125","[""left"",""up""]","{""num_key_presses"":8,""num_perfect"":6,""num_errors"":0,""num_randdir"":2,""num_randdir_good_moves"":1,""num_whilered"":0,""num_whileblue"":0,""num_blue"":3,""num_good_moves"":7}","[694.2857142857143,690.0825892857143,5.7,694.2857142857143,690.0825892857143,106,692.2857142857143,690.0825892857143,214.9,692.2857142857143,690.0825892857143,325.9,692.2857142857143,690.0825892857143,451.6,942.2857142857143,988.0825892857143,574.5,638.2857142857143,680.0825892857143,682.9,202.28571428571428,210.08258928571428,802.6,208.28571428571428,200.08258928571428,904.4,192.28571428571428,140.08258928571428,1005.7,186.28571428571428,134.08258928571428,1132.4,186.28571428571428,134.08258928571428,1246.5,186.28571428571428,134.08258928571428,1356.1,186.28571428571428,134.08258928571428,1457.9,186.28571428571428,134.08258928571428,1558.1,186.28571428571428,134.08258928571428,1666.5,186.28571428571428,134.08258928571428,1779.3,186.28571428571428,134.08258928571428,1887.9,186.28571428571428,134.08258928571428,1993.6,186.28571428571428,134.08258928571428,2114.3,186.28571428571428,134.08258928571428,2221,186.28571428571428,134.08258928571428,2324.8,186.28571428571428,134.08258928571428,2443.2,186.28571428571428,134.08258928571428,2550,186.28571428571428,134.08258928571428,2687.7,186.28571428571428,134.08258928571428,2795.7,186.28571428571428,134.08258928571428,2896,186.28571428571428,134.08258928571428,3003.4,186.28571428571428,134.08258928571428,3112.9,186.28571428571428,134.08258928571428,3226.2,186.28571428571428,134.08258928571428,3340.5,186.28571428571428,134.08258928571428,3441,186.28571428571428,134.08258928571428,3569.2,186.28571428571428,134.08258928571428,3676.6,186.28571428571428,134.08258928571428,3788.5,186.28571428571428,134.08258928571428,3903.3,186.28571428571428,134.08258928571428,4006,186.28571428571428,134.08258928571428,4107.7,186.28571428571428,134.08258928571428,4211.1,186.28571428571428,134.08258928571428,4331.8,186.28571428571428,134.08258928571428,4438,186.28571428571428,134.08258928571428,4548.5,186.28571428571428,134.08258928571428,4657.4,186.28571428571428,134.08258928571428,4778.8,186.28571428571428,134.08258928571428,4897.1]","[1472.2,1472.2,1000,0,472.2,""smooth"",""up"",""up"",""good_move"",9228.6,7754.6,2546.6,6237.2,444.8,""smooth"",""up"",""up"",""good_move"",17362,8133.2,3069.7,13870.6,421.7,""smooth"",""up"",""up"",""good_move"",21122.5,3759.4,3027.3,17363.1,732.1,""oops"",""left"",""left"",""good_move"",24893.7,3766.7,2792.9,21127,973.8,""oops"",""left"",""right"",""bad_move"",27897.6,3000.2,2303.8,24897.4,696.4,""smooth"",""left"",""left"",""good_move"",32110.4,4210.1,2613.2,27900.3,1596.9,""smooth"",""left"",""left"",""good_move"",39349.4,7237.6,2461.8,36405,482.6,""smooth"",""left"",""left"",""good_move""]"
"1823","","<div style=""width:500px;"">
  <p>What determined the result of this run?</p>
  </div>","91","html-slider-response","74","833889","0.0-7.0-1.12","85","1","2025-07-30 09:44:08","36c45c0696341be0efffe67d72a12abb","84.67.34.58","Mozilla/5.0 (Macintosh; Intel Mac OS X 10_15_7) AppleWebKit/537.36 (KHTML, like Gecko) Chrome/138.0.0.0 Safari/537.36","Macintosh","Chrome","138.0.0.0","OS X","10_15_7","https://app.prolific.com/","en-GB,en-US;q=0.9,en;q=0.8","6658ba167affbe300577b93d","683dba9a53627eb9ab41b36a","6889e95ddc9ec44f699e8433","0","6658ba167affbe300577b93d","0","2025-07-30T09:58:04.132Z","","","","AttribQ","","","","","","","","","","","50","","","","","","","","","","","","","","","","","","","","","","","","","","",""
"1327","","<div style=""width:500px;"">
  <p>How much control did you have over the ball?</p>
