"rt","response_timestamp","stimulus","response","trial_type","trial_index","time_elapsed","internal_node_id","run_id","condition","recorded_at","source_code_version","ip","user_agent","device","browser","browser_version","platform","platform_version","referer","accept_language","PROLIFIC_PID","STUDY_ID","SESSION_ID","BATCH","prolific_id","batch","realtime","success","question_order","question_id","eventType","responses","item_order","radio_event_ids","radio_event_times","key_event_times","mouse_event_times","straightlining","zigzagging","honeypot","view_history","slider_start","which_type","canvas_config","goals_layout","control_level","trial_number","tutorial_trial_number","trial_start_time","phase1_start_time","phase2_start_time","phase3_start_time","goal_1_value","goal_1_distance","goal_2_value","goal_2_distance","goal_selected","outcome","outcome_total","participant_final_score","participant_initial_score","participant_final_score_prop","goal_choice_rt","allocated_time","allocated_time_remaining","goal_direction","counts","mouse_movements","key_presses"
"3016","1753866754839","<p style='font-size:40px;line-height:1.25'><strong>Welcome to the experiment!</strong></p><p style='font-size:1.1em;line-height:1.25'>Thank you for participanting in our experiment again! You will be asked to play the Dysfunctional Ball Game again. We will briefly recap the rules before we start.</p><p style='font-size:1.1em;line-height:1.25'>Press <strong>Next</strong> to continue.</p>","0","custom-html-button-response","0","3022","0.0-0.0","78","1","2025-07-30 09:12:28","36c45c0696341be0efffe67d72a12abb","41.114.159.88","Mozilla/5.0 (Windows NT 10.0; Win64; x64) AppleWebKit/537.36 (KHTML, like Gecko) Chrome/138.0.0.0 Safari/537.36","WebKit","Chrome","138.0.0.0","Windows","10.0","https://app.prolific.com/","en-US,en;q=0.9","665f10dc49cd980fdf304c19","683dba9a53627eb9ab41b36a","6889e1be55c49e88fa4d5137","0","665f10dc49cd980fdf304c19","0","2025-07-30T09:12:34.846Z","","","","","","","","","","","","","","","","","","","","","","","","","","","","","","","","","","","","","","","","","",""
"5170","","","","fullscreen","1","9213","0.0-1.0","78","1","2025-07-30 09:12:28","36c45c0696341be0efffe67d72a12abb","41.114.159.88","Mozilla/5.0 (Windows NT 10.0; Win64; x64) AppleWebKit/537.36 (KHTML, like Gecko) Chrome/138.0.0.0 Safari/537.36","WebKit","Chrome","138.0.0.0","Windows","10.0","https://app.prolific.com/","en-US,en;q=0.9","665f10dc49cd980fdf304c19","683dba9a53627eb9ab41b36a","6889e1be55c49e88fa4d5137","0","665f10dc49cd980fdf304c19","0","","true","","","","","","","","","","","","","","","","","","","","","","","","","","","","","","","","","","","","","","","","",""
"3700","1753866764738"," <p style='font-size:1.1em;line-height:1.25'>Thank you for closing all other tabs.</p><p style='font-size:1.1em;line-height:1.25'>We will now invite you to fill in some questionnaires, before starting the game.<br>This will take about 5 minutes.<br></p><p style='font-size:1.1em;line-height:1.25'>Press the <strong>Next</strong> button to continue.</p>","0","custom-html-button-response","2","12917","0.0-2.0","78","1","2025-07-30 09:12:28","36c45c0696341be0efffe67d72a12abb","41.114.159.88","Mozilla/5.0 (Windows NT 10.0; Win64; x64) AppleWebKit/537.36 (KHTML, like Gecko) Chrome/138.0.0.0 Safari/537.36","WebKit","Chrome","138.0.0.0","Windows","10.0","https://app.prolific.com/","en-US,en;q=0.9","665f10dc49cd980fdf304c19","683dba9a53627eb9ab41b36a","6889e1be55c49e88fa4d5137","0","665f10dc49cd980fdf304c19","0","2025-07-30T09:12:44.740Z","","","","","","","","","","","","","","","","","","","","","","","","","","","","","","","","","","","","","","","","","",""
"4368","","","{""assigned_sex"":""female""}","survey-multi-choice","3","17297","0.0-3.0-0.0","78","1","2025-07-30 09:12:28","36c45c0696341be0efffe67d72a12abb","41.114.159.88","Mozilla/5.0 (Windows NT 10.0; Win64; x64) AppleWebKit/537.36 (KHTML, like Gecko) Chrome/138.0.0.0 Safari/537.36","WebKit","Chrome","138.0.0.0","Windows","10.0","https://app.prolific.com/","en-US,en;q=0.9","665f10dc49cd980fdf304c19","683dba9a53627eb9ab41b36a","6889e1be55c49e88fa4d5137","0","665f10dc49cd980fdf304c19","0","","","[0]","0","demographics","","","","","","","","","","","","","","","","","","","","","","","","","","","","","","","","","","","","","",""
"1852","1753866770975","<p style='font-size:1.1em;line-height:1.25'>In the following, we will perform a baseline assessment. This means that we will ask you a few questions relating to your experiences over the past month.<br></p><p style='font-size:1.1em;line-height:1.25'>Press the <strong>Next</strong> button to continue.</p>","0","custom-html-button-response","4","19154","0.0-4.0-0.0","78","1","2025-07-30 09:12:28","36c45c0696341be0efffe67d72a12abb","41.114.159.88","Mozilla/5.0 (Windows NT 10.0; Win64; x64) AppleWebKit/537.36 (KHTML, like Gecko) Chrome/138.0.0.0 Safari/537.36","WebKit","Chrome","138.0.0.0","Windows","10.0","https://app.prolific.com/","en-US,en;q=0.9","665f10dc49cd980fdf304c19","683dba9a53627eb9ab41b36a","6889e1be55c49e88fa4d5137","0","665f10dc49cd980fdf304c19","0","2025-07-30T09:12:50.977Z","","","","","","","","","","","","","","","","","","","","","","","","","","","","","","","","","","","","","","","","","",""
"80971.09999999404","","","","survey-template","5","100140","0.0-4.0-1.0","78","1","2025-07-30 09:12:28","36c45c0696341be0efffe67d72a12abb","41.114.159.88","Mozilla/5.0 (Windows NT 10.0; Win64; x64) AppleWebKit/537.36 (KHTML, like Gecko) Chrome/138.0.0.0 Safari/537.36","WebKit","Chrome","138.0.0.0","Windows","10.0","https://app.prolific.com/","en-US,en;q=0.9","665f10dc49cd980fdf304c19","683dba9a53627eb9ab41b36a","6889e1be55c49e88fa4d5137","0","665f10dc49cd980fdf304c19","0","2025-07-30T09:14:11.963Z","","","","pss","{""Q01"":""2"",""Q02"":""3"",""Q03"":""3"",""Q04"":""2"",""Q05"":""3"",""Q06"":""3"",""Q07"":""2"",""Q08"":""1"",""Q09"":""2"",""Q10"":""2""}","[0,1,2,3,4,5,6,7,8,9]","[""Q01"",""Q02"",""Q03"",""Q04"",""Q05"",""Q06"",""Q07"",""Q08"",""Q09"",""Q10""]","[10890.699999988079,14338.699999988079,30979.19999998808,37543.59999999404,48925.90000000596,69341,71789.09999999404,75038,77657.30000001192,79602.30000001192]","[]","[0.4000000059604645,10890.699999988079,14338.699999988079,30979.19999998808,37543.59999999404,46929.5,48925.90000000596,67840.40000000596,69341,71789.09999999404,75038,77657.30000001192,79602.30000001192,80952.09999999404]","0.5","0.6666666666666666","0","","","","","","","","","","","","","","","","","","","","","","","","","","","","",""
"2504","1753866854472","<p style='font-size:1.1em;line-height:1.25'>Thank you for your answers! Now we will ask you a few more questions relating to your feelings in the last 24 hours.<br></p><p style='font-size:1.1em;line-height:1.25'>Press the <strong>Next</strong> button to continue.</p>","0","custom-html-button-response","6","102652","0.0-4.0-2.0","78","1","2025-07-30 09:12:28","36c45c0696341be0efffe67d72a12abb","41.114.159.88","Mozilla/5.0 (Windows NT 10.0; Win64; x64) AppleWebKit/537.36 (KHTML, like Gecko) Chrome/138.0.0.0 Safari/537.36","WebKit","Chrome","138.0.0.0","Windows","10.0","https://app.prolific.com/","en-US,en;q=0.9","665f10dc49cd980fdf304c19","683dba9a53627eb9ab41b36a","6889e1be55c49e88fa4d5137","0","665f10dc49cd980fdf304c19","0","2025-07-30T09:14:14.474Z","","","","","","","","","","","","","","","","","","","","","","","","","","","","","","","","","","","","","","","","","",""
"72029.90000000596","","","","survey-template","7","174697","0.0-4.0-3.0","78","1","2025-07-30 09:12:28","36c45c0696341be0efffe67d72a12abb","41.114.159.88","Mozilla/5.0 (Windows NT 10.0; Win64; x64) AppleWebKit/537.36 (KHTML, like Gecko) Chrome/138.0.0.0 Safari/537.36","WebKit","Chrome","138.0.0.0","Windows","10.0","https://app.prolific.com/","en-US,en;q=0.9","665f10dc49cd980fdf304c19","683dba9a53627eb9ab41b36a","6889e1be55c49e88fa4d5137","0","665f10dc49cd980fdf304c19","0","2025-07-30T09:15:26.519Z","","","","drsp","{""Q01"":""3"",""Q02"":""3"",""Q03"":""3"",""Q04"":""3"",""Q05"":""2"",""Q06"":""3"",""Q07"":""3"",""Q08"":""3"",""Q09"":""2"",""Q10"":""2"",""Q11"":""3"",""Q12"":""3"",""Q13"":""5"",""Q14"":""1"",""Q15"":""2"",""Q16"":""3"",""Q17"":""2"",""Q18"":""2"",""Q19"":""1"",""Q20"":""1"",""Q21"":""2"",""Q22"":""1""}","[0,1,2,3,4,5,6,7,8,9,10,11,12,13,14,15,16,17,18,19,20,21]","[""Q01"",""Q02"",""Q03"",""Q04"",""Q05"",""Q06"",""Q07"",""Q08"",""Q09"",""Q10"",""Q11"",""Q12"",""Q13"",""Q14"",""Q15"",""Q16"",""Q17"",""Q18"",""Q19"",""Q20"",""Q21"",""Q22""]","[3775.800000011921,5613.5,7014.199999988079,9370.699999988079,11831.09999999404,13756.300000011921,15486.699999988079,24666.59999999404,26324.90000000596,28581.80000001192,30431.09999999404,32705.19999998808,34278.30000001192,46883,48973.90000000596,50925.59999999404,54425.90000000596,56072.80000001192,62067.90000000596,65209.30000001192,67994.90000000596,70680.19999998808]","[]","[0,3775.800000011921,5613.5,7014.199999988079,9370.699999988079,10686.59999999404,11831.09999999404,13756.300000011921,15486.699999988079,22016.59999999404,23542.30000001192,24666.59999999404,26324.90000000596,28581.80000001192,30431.09999999404,32705.19999998808,34278.30000001192,38924.19999998808,46883,48973.90000000596,50925.59999999404,52619.69999998808,54425.90000000596,56072.80000001192,62067.90000000596,63627.80000001192,65209.30000001192,67994.90000000596,69268.69999998808,70680.19999998808,72007.90000000596]","0.45454545454545453","0.47619047619047616","0","","","","","","","","","","","","","","","","","","","","","","","","","","","","",""
"14899","","","","survey-template","8","189600","0.0-4.0-4.0","78","1","2025-07-30 09:12:28","36c45c0696341be0efffe67d72a12abb","41.114.159.88","Mozilla/5.0 (Windows NT 10.0; Win64; x64) AppleWebKit/537.36 (KHTML, like Gecko) Chrome/138.0.0.0 Safari/537.36","WebKit","Chrome","138.0.0.0","Windows","10.0","https://app.prolific.com/","en-US,en;q=0.9","665f10dc49cd980fdf304c19","683dba9a53627eb9ab41b36a","6889e1be55c49e88fa4d5137","0","665f10dc49cd980fdf304c19","0","2025-07-30T09:15:41.423Z","","","","stress","{""Q01"":""4"",""Q02"":""3"",""Q03"":""3""}","[0,1,2]","[""Q01"",""Q02"",""Q03""]","[3930.5,11594.59999999404,13817.90000000596]","[]","[3930.5,11594.59999999404,13817.90000000596,14893.199999988079]","0.3333333333333333","0.5","0","","","","","","","","","","","","","","","","","","","","","","","","","","","","",""
"4717","","","","instructions","9","194324","0.0-5.0-0.0","78","1","2025-07-30 09:12:28","36c45c0696341be0efffe67d72a12abb","41.114.159.88","Mozilla/5.0 (Windows NT 10.0; Win64; x64) AppleWebKit/537.36 (KHTML, like Gecko) Chrome/138.0.0.0 Safari/537.36","WebKit","Chrome","138.0.0.0","Windows","10.0","https://app.prolific.com/","en-US,en;q=0.9","665f10dc49cd980fdf304c19","683dba9a53627eb9ab41b36a","6889e1be55c49e88fa4d5137","0","665f10dc49cd980fdf304c19","0","","","","","","","","","","","","","","","[{""page_index"":0,""viewing_time"":4716}]","","","","","","","","","","","","","","","","","","","","","","","","","","","",""
"4061","","<p>Before you start with this game please answer the following three questions yourself. </p>
  <p>Through this game, we measure several aspects of your cognitive performance, such as reaction times, multi-tasking capabilities </p>
  <p>and the ability to assess the situation you are in.</p>
  <p></p>
  <p><b>How good do you usually are in such tasks?</b></p>","55","html-slider-response","10","198396","0.0-6.0-0.0","78","1","2025-07-30 09:12:28","36c45c0696341be0efffe67d72a12abb","41.114.159.88","Mozilla/5.0 (Windows NT 10.0; Win64; x64) AppleWebKit/537.36 (KHTML, like Gecko) Chrome/138.0.0.0 Safari/537.36","WebKit","Chrome","138.0.0.0","Windows","10.0","https://app.prolific.com/","en-US,en;q=0.9","665f10dc49cd980fdf304c19","683dba9a53627eb9ab41b36a","6889e1be55c49e88fa4d5137","0","665f10dc49cd980fdf304c19","0","2025-07-30T09:15:50.219Z","","","","PreSkillQ","","","","","","","","","","","50","","","","","","","","","","","","","","","","","","","","","","","","","","",""
"5133","","<div style=""width:500px;"">
  <p>How well do you think you will perform in this task compared to other participants?</p>
  </div>","55","html-slider-response","11","203535","0.0-6.0-1.0","78","1","2025-07-30 09:12:28","36c45c0696341be0efffe67d72a12abb","41.114.159.88","Mozilla/5.0 (Windows NT 10.0; Win64; x64) AppleWebKit/537.36 (KHTML, like Gecko) Chrome/138.0.0.0 Safari/537.36","WebKit","Chrome","138.0.0.0","Windows","10.0","https://app.prolific.com/","en-US,en;q=0.9","665f10dc49cd980fdf304c19","683dba9a53627eb9ab41b36a","6889e1be55c49e88fa4d5137","0","665f10dc49cd980fdf304c19","0","2025-07-30T09:15:55.357Z","","","","PrePerfQ","","","","","","","","","","","50","","","","","","","","","","","","","","","","","","","","","","","","","","",""
"6830","","<div style=""width:500px;"">
  <p>What best describes how you currently feel?</p>
  </div>","63","html-slider-response","12","210370","0.0-6.0-2.0","78","1","2025-07-30 09:12:28","36c45c0696341be0efffe67d72a12abb","41.114.159.88","Mozilla/5.0 (Windows NT 10.0; Win64; x64) AppleWebKit/537.36 (KHTML, like Gecko) Chrome/138.0.0.0 Safari/537.36","WebKit","Chrome","138.0.0.0","Windows","10.0","https://app.prolific.com/","en-US,en;q=0.9","665f10dc49cd980fdf304c19","683dba9a53627eb9ab41b36a","6889e1be55c49e88fa4d5137","0","665f10dc49cd980fdf304c19","0","2025-07-30T09:16:02.192Z","","","","PreMotivationQ","","","","","","","","","","","50","","","","","","","","","","","","","","","","","","","","","","","","","","",""
"","","","","ctl-task-cpt","13","245865","0.0-7.0-0.0","78","1","2025-07-30 09:12:28","36c45c0696341be0efffe67d72a12abb","41.114.159.88","Mozilla/5.0 (Windows NT 10.0; Win64; x64) AppleWebKit/537.36 (KHTML, like Gecko) Chrome/138.0.0.0 Safari/537.36","WebKit","Chrome","138.0.0.0","Windows","10.0","https://app.prolific.com/","en-US,en;q=0.9","665f10dc49cd980fdf304c19","683dba9a53627eb9ab41b36a","6889e1be55c49e88fa4d5137","0","665f10dc49cd980fdf304c19","0","2025-07-30T09:16:37.688Z","","","","","","","","","","","","","","","","win-only","3","g1:SW,g2:NE","1","1","0","214114.8","2029","7031.9","32475.2","1","4","8","6","2","8","8","8","0","0.06060606060606061","1726.2","3000","170","[""up"",""right""]","{""num_key_presses"":6,""num_perfect"":6,""num_errors"":0,""num_randdir"":0,""num_randdir_good_moves"":0,""num_whilered"":0,""num_whileblue"":0,""num_blue"":2,""num_good_moves"":6}","[413.57142857142856,417.6808016640799,0.3,413.57142857142856,417.6808016640799,101.3,413.57142857142856,417.6808016640799,202,413.57142857142856,417.6808016640799,309.2,413.57142857142856,417.6808016640799,414.1,413.57142857142856,417.6808016640799,514.8,413.57142857142856,417.6808016640799,618.7,413.57142857142856,417.6808016640799,728.6,413.57142857142856,417.6808016640799,829.4,413.57142857142856,417.6808016640799,932.1,566.5714285714286,285.6808016640799,1037.3,707.5714285714286,171.68080166407992,1145.8,710.5714285714286,168.68080166407992,1245.8,743.5714285714286,92.18080166407994,1347.2,761.5714285714286,62.18080166407994,1453.7,761.5714285714286,62.18080166407994,1561.7,761.5714285714286,62.18080166407994,1662.5,761.5714285714286,62.18080166407994,1766.4,761.5714285714286,62.18080166407994,1876.4,761.5714285714286,62.18080166407994,1976.5,761.5714285714286,62.18080166407994,2076.6,761.5714285714286,62.18080166407994,2181.7,761.5714285714286,62.18080166407994,2282.9,761.5714285714286,62.18080166407994,2384.2,761.5714285714286,62.18080166407994,2490.1,761.5714285714286,62.18080166407994,2595.9,761.5714285714286,62.18080166407994,2696.1,761.5714285714286,62.18080166407994,2801.2,761.5714285714286,62.18080166407994,2903.4,761.5714285714286,62.18080166407994,3006.9,761.5714285714286,62.18080166407994,3111.5,761.5714285714286,62.18080166407994,3211.7,761.5714285714286,62.18080166407994,3312.4,761.5714285714286,62.18080166407994,3414.9,761.5714285714286,62.18080166407994,3517.4,761.5714285714286,62.18080166407994,3622.1,761.5714285714286,62.18080166407994,3728.7,761.5714285714286,62.18080166407994,3837.9,761.5714285714286,62.18080166407994,3938.9,761.5714285714286,62.18080166407994,4044.5,761.5714285714286,62.18080166407994,4147,761.5714285714286,62.18080166407994,4253.6,761.5714285714286,62.18080166407994,4355.6,761.5714285714286,62.18080166407994,4458.3,761.5714285714286,62.18080166407994,4564.8,761.5714285714286,62.18080166407994,4668.7,761.5714285714286,62.18080166407994,4777,761.5714285714286,62.18080166407994,4881.3,761.5714285714286,62.18080166407994,4983.4]","[1522.8,1522.7,1000,0.1,522.7,""smooth"",""up"",""up"",""good_move"",8398.6,6875.1,2136.4,5726.9,535.3,""smooth"",""up"",""up"",""good_move"",12002.5,3603.6,2158.9,8399,1444.6,""smooth"",""up"",""up"",""good_move"",19016.1,7013.1,2688.2,15744,583.9,""smooth"",""right"",""right"",""good_move"",22607.8,3590,2924.3,19017.8,665.7,""smooth"",""right"",""right"",""good_move"",25279.2,2671.1,2126.5,22608.1,544.6,""smooth"",""right"",""right"",""good_move""]"
"6832","","<div style=""width:500px;"">
  <p>What determined the result of this run?</p>
  </div>","86","html-slider-response","14","252701","0.0-7.0-1.0","78","1","2025-07-30 09:12:28","36c45c0696341be0efffe67d72a12abb","41.114.159.88","Mozilla/5.0 (Windows NT 10.0; Win64; x64) AppleWebKit/537.36 (KHTML, like Gecko) Chrome/138.0.0.0 Safari/537.36","WebKit","Chrome","138.0.0.0","Windows","10.0","https://app.prolific.com/","en-US,en;q=0.9","665f10dc49cd980fdf304c19","683dba9a53627eb9ab41b36a","6889e1be55c49e88fa4d5137","0","665f10dc49cd980fdf304c19","0","2025-07-30T09:16:44.523Z","","","","AttribQ","","","","","","","","","","","50","","","","","","","","","","","","","","","","","","","","","","","","","","",""
"4157","","<div style=""width:500px;"">
  <p>How much control did you have over the ball?</p>
  </div>","81","html-slider-response","15","256859","0.0-7.0-2.0","78","1","2025-07-30 09:12:28","36c45c0696341be0efffe67d72a12abb","41.114.159.88","Mozilla/5.0 (Windows NT 10.0; Win64; x64) AppleWebKit/537.36 (KHTML, like Gecko) Chrome/138.0.0.0 Safari/537.36","WebKit","Chrome","138.0.0.0","Windows","10.0","https://app.prolific.com/","en-US,en;q=0.9","665f10dc49cd980fdf304c19","683dba9a53627eb9ab41b36a","6889e1be55c49e88fa4d5137","0","665f10dc49cd980fdf304c19","0","2025-07-30T09:16:48.681Z","","","","ControlQ","","","","","","","","","","","50","","","","","","","","","","","","","","","","","","","","","","","","","","",""
"6787","","<div style=""width:500px;"">
  <p>How would you describe your current emotional state?</p>
  </div>","49","html-slider-response","16","263648","0.0-7.0-3.0","78","1","2025-07-30 09:12:28","36c45c0696341be0efffe67d72a12abb","41.114.159.88","Mozilla/5.0 (Windows NT 10.0; Win64; x64) AppleWebKit/537.36 (KHTML, like Gecko) Chrome/138.0.0.0 Safari/537.36","WebKit","Chrome","138.0.0.0","Windows","10.0","https://app.prolific.com/","en-US,en;q=0.9","665f10dc49cd980fdf304c19","683dba9a53627eb9ab41b36a","6889e1be55c49e88fa4d5137","0","665f10dc49cd980fdf304c19","0","2025-07-30T09:16:55.471Z","","","","StressQ","","","","","","","","","","","50","","","","","","","","","","","","","","","","","","","","","","","","","","",""
"8189","","<div style=""width:500px;"">
  <p>What best describes how you currently feel?</p>
  </div>","81","html-slider-response","17","271838","0.0-7.0-4.0","78","1","2025-07-30 09:12:28","36c45c0696341be0efffe67d72a12abb","41.114.159.88","Mozilla/5.0 (Windows NT 10.0; Win64; x64) AppleWebKit/537.36 (KHTML, like Gecko) Chrome/138.0.0.0 Safari/537.36","WebKit","Chrome","138.0.0.0","Windows","10.0","https://app.prolific.com/","en-US,en;q=0.9","665f10dc49cd980fdf304c19","683dba9a53627eb9ab41b36a","6889e1be55c49e88fa4d5137","0","665f10dc49cd980fdf304c19","0","2025-07-30T09:17:03.661Z","","","","MotivationQ","","","","","","","","","","","50","","","","","","","","","","","","","","","","","","","","","","","","","","",""
"","","","","ctl-task-cpt","18","308764","0.0-7.0-0.1","78","1","2025-07-30 09:12:28","36c45c0696341be0efffe67d72a12abb","41.114.159.88","Mozilla/5.0 (Windows NT 10.0; Win64; x64) AppleWebKit/537.36 (KHTML, like Gecko) Chrome/138.0.0.0 Safari/537.36","WebKit","Chrome","138.0.0.0","Windows","10.0","https://app.prolific.com/","en-US,en;q=0.9","665f10dc49cd980fdf304c19","683dba9a53627eb9ab41b36a","6889e1be55c49e88fa4d5137","0","665f10dc49cd980fdf304c19","0","2025-07-30T09:17:40.586Z","","","","","","","","","","","","","","","","win-only","1","g1:NE,g2:SW","0.9","2","0","275577","5871.3","10877.5","33915.1","1","4","4","6","2","4","4","12","8","0.09090909090909091","2090.7","3000","1140","[""down"",""left""]","{""num_key_presses"":6,""num_perfect"":6,""num_errors"":0,""num_randdir"":0,""num_randdir_good_moves"":0,""num_whilered"":0,""num_whileblue"":0,""num_blue"":2,""num_good_moves"":6}","[410.57142857142856,414.6808016640799,0.3,410.57142857142856,414.6808016640799,104.6,410.57142857142856,414.6808016640799,204.7,410.57142857142856,414.6808016640799,305.7,410.57142857142856,414.6808016640799,406.8,410.57142857142856,414.6808016640799,507.8,410.57142857142856,414.6808016640799,614.7,410.57142857142856,414.6808016640799,715.4,410.57142857142856,414.6808016640799,822.3,410.57142857142856,414.6808016640799,924.9,410.57142857142856,414.6808016640799,1026.4,410.57142857142856,414.6808016640799,1132.2,410.57142857142856,414.6808016640799,1235.6,353.57142857142856,465.6808016640799,1343.7,152.57142857142856,656.1808016640799,1444.6,92.57142857142857,734.1808016640799,1546.2,88.07142857142857,726.6808016640799,1646.5,53.57142857142857,765.6808016640799,1747.2,56.57142857142857,765.6808016640799,1848.6,56.57142857142857,765.6808016640799,1950.4,56.57142857142857,765.6808016640799,2060.2,56.57142857142857,765.6808016640799,2161.8,56.57142857142857,765.6808016640799,2262.1,56.57142857142857,765.6808016640799,2370.3,56.57142857142857,765.6808016640799,2478.1,56.57142857142857,765.6808016640799,2584.5,56.57142857142857,765.6808016640799,2687.5,56.57142857142857,765.6808016640799,2789.5,56.57142857142857,765.6808016640799,2889.8,56.57142857142857,765.6808016640799,3000.1,56.57142857142857,765.6808016640799,3101.6,56.57142857142857,765.6808016640799,3204,56.57142857142857,765.6808016640799,3307.2,56.57142857142857,765.6808016640799,3415.7,56.57142857142857,765.6808016640799,3520.4,56.57142857142857,765.6808016640799,3627.3,56.57142857142857,765.6808016640799,3728.1,56.57142857142857,765.6808016640799,3829.8,56.57142857142857,765.6808016640799,3934,56.57142857142857,765.6808016640799,4038.3,56.57142857142857,765.6808016640799,4140.2,56.57142857142857,765.6808016640799,4240.5,56.57142857142857,765.6808016640799,4344.3,56.57142857142857,765.6808016640799,4449.7,56.57142857142857,765.6808016640799,4553,56.57142857142857,765.6808016640799,4655.8,56.57142857142857,765.6808016640799,4762.1,56.57142857142857,765.6808016640799,4868.8,56.57142857142857,765.6808016640799,4976.7]","[4770.5,4770.6,2416.1,2010,344.5,""smooth"",""left"",""left"",""good_move"",11038.5,6267.1,2631.4,8022.9,384.2,""smooth"",""left"",""left"",""good_move"",14038.9,2999.9,2445.3,11039.1,554.5,""smooth"",""left"",""left"",""good_move"",16642.7,2602.9,2129.4,14040,473.4,""smooth"",""down"",""down"",""good_move"",20119,3475.3,3069.7,16643.7,405.6,""smooth"",""down"",""down"",""good_move"",22927.2,2808,2346.1,20119.2,461.9,""smooth"",""down"",""down"",""good_move""]"
"4297","","<div style=""width:500px;"">
  <p>What determined the result of this run?</p>
  </div>","87","html-slider-response","19","313063","0.0-7.0-1.1","78","1","2025-07-30 09:12:28","36c45c0696341be0efffe67d72a12abb","41.114.159.88","Mozilla/5.0 (Windows NT 10.0; Win64; x64) AppleWebKit/537.36 (KHTML, like Gecko) Chrome/138.0.0.0 Safari/537.36","WebKit","Chrome","138.0.0.0","Windows","10.0","https://app.prolific.com/","en-US,en;q=0.9","665f10dc49cd980fdf304c19","683dba9a53627eb9ab41b36a","6889e1be55c49e88fa4d5137","0","665f10dc49cd980fdf304c19","0","2025-07-30T09:17:44.885Z","","","","AttribQ","","","","","","","","","","","50","","","","","","","","","","","","","","","","","","","","","","","","","","",""
"7441","","<div style=""width:500px;"">
  <p>How much control did you have over the ball?</p>
  </div>","89","html-slider-response","20","320506","0.0-7.0-2.1","78","1","2025-07-30 09:12:28","36c45c0696341be0efffe67d72a12abb","41.114.159.88","Mozilla/5.0 (Windows NT 10.0; Win64; x64) AppleWebKit/537.36 (KHTML, like Gecko) Chrome/138.0.0.0 Safari/537.36","WebKit","Chrome","138.0.0.0","Windows","10.0","https://app.prolific.com/","en-US,en;q=0.9","665f10dc49cd980fdf304c19","683dba9a53627eb9ab41b36a","6889e1be55c49e88fa4d5137","0","665f10dc49cd980fdf304c19","0","2025-07-30T09:17:52.329Z","","","","ControlQ","","","","","","","","","","","50","","","","","","","","","","","","","","","","","","","","","","","","","","",""
"6799","","<div style=""width:500px;"">
  <p>How would you describe your current emotional state?</p>
  </div>","47","html-slider-response","21","327307","0.0-7.0-3.1","78","1","2025-07-30 09:12:28","36c45c0696341be0efffe67d72a12abb","41.114.159.88","Mozilla/5.0 (Windows NT 10.0; Win64; x64) AppleWebKit/537.36 (KHTML, like Gecko) Chrome/138.0.0.0 Safari/537.36","WebKit","Chrome","138.0.0.0","Windows","10.0","https://app.prolific.com/","en-US,en;q=0.9","665f10dc49cd980fdf304c19","683dba9a53627eb9ab41b36a","6889e1be55c49e88fa4d5137","0","665f10dc49cd980fdf304c19","0","2025-07-30T09:17:59.129Z","","","","StressQ","","","","","","","","","","","50","","","","","","","","","","","","","","","","","","","","","","","","","","",""
"8536","","<div style=""width:500px;"">
  <p>What best describes how you currently feel?</p>
  </div>","66","html-slider-response","22","335846","0.0-7.0-4.1","78","1","2025-07-30 09:12:28","36c45c0696341be0efffe67d72a12abb","41.114.159.88","Mozilla/5.0 (Windows NT 10.0; Win64; x64) AppleWebKit/537.36 (KHTML, like Gecko) Chrome/138.0.0.0 Safari/537.36","WebKit","Chrome","138.0.0.0","Windows","10.0","https://app.prolific.com/","en-US,en;q=0.9","665f10dc49cd980fdf304c19","683dba9a53627eb9ab41b36a","6889e1be55c49e88fa4d5137","0","665f10dc49cd980fdf304c19","0","2025-07-30T09:18:07.669Z","","","","MotivationQ","","","","","","","","","","","50","","","","","","","","","","","","","","","","","","","","","","","","","","",""
"","","","","ctl-task-cpt","23","377351","0.0-7.0-0.2","78","1","2025-07-30 09:12:28","36c45c0696341be0efffe67d72a12abb","41.114.159.88","Mozilla/5.0 (Windows NT 10.0; Win64; x64) AppleWebKit/537.36 (KHTML, like Gecko) Chrome/138.0.0.0 Safari/537.36","WebKit","Chrome","138.0.0.0","Windows","10.0","https://app.prolific.com/","en-US,en;q=0.9","665f10dc49cd980fdf304c19","683dba9a53627eb9ab41b36a","6889e1be55c49e88fa4d5137","0","665f10dc49cd980fdf304c19","0","2025-07-30T09:18:49.174Z","","","","","","","","","","","","","","","","win-only","2","g1:SE,g2:NW","0.8","3","0","339596.1","3867.3","8874.9","38479.5","1","4","8","6","2","8","7","19","12","0.14393939393939395","1866.5","3000","860","[""left"",""up""]","{""num_key_presses"":8,""num_perfect"":6,""num_errors"":1,""num_randdir"":1,""num_randdir_good_moves"":1,""num_whilered"":0,""num_whileblue"":1,""num_blue"":3,""num_good_moves"":7}","[418.07142857142856,416.1808016640799,0.3,418.07142857142856,416.1808016640799,107.6,418.07142857142856,416.1808016640799,213.2,418.07142857142856,416.1808016640799,319.9,418.07142857142856,416.1808016640799,427.4,418.07142857142856,416.1808016640799,528.9,418.07142857142856,416.1808016640799,628.9,418.07142857142856,416.1808016640799,729,446.57142857142856,402.6808016640799,839.2,569.5714285714286,458.1808016640799,939.9,343.07142857142856,270.6808016640799,1045.1,124.07142857142857,117.68080166407994,1153.4,116.57142857142857,116.18080166407994,1255.7,116.57142857142857,116.18080166407994,1356.7,89.57142857142857,93.68080166407994,1461.8,86.57142857142857,92.18080166407994,1568.3,86.57142857142857,92.18080166407994,1673.7,86.57142857142857,92.18080166407994,1778.9,86.57142857142857,92.18080166407994,1879.5,86.57142857142857,92.18080166407994,1989,86.57142857142857,92.18080166407994,2103.5,86.57142857142857,92.18080166407994,2205,86.57142857142857,92.18080166407994,2310.8,86.57142857142857,92.18080166407994,2414.4,86.57142857142857,92.18080166407994,2521.6,86.57142857142857,92.18080166407994,2627.4,86.57142857142857,92.18080166407994,2728.8,86.57142857142857,92.18080166407994,2839,86.57142857142857,92.18080166407994,2942.7,86.57142857142857,92.18080166407994,3042.7,86.57142857142857,92.18080166407994,3143.6,86.57142857142857,92.18080166407994,3250.9,86.57142857142857,92.18080166407994,3358.4,86.57142857142857,92.18080166407994,3459.4,86.57142857142857,92.18080166407994,3566.1,86.57142857142857,92.18080166407994,3677.2,86.57142857142857,92.18080166407994,3778.3,86.57142857142857,92.18080166407994,3878.5,86.57142857142857,92.18080166407994,3985.4,86.57142857142857,92.18080166407994,4093.1,86.57142857142857,92.18080166407994,4193.3,86.57142857142857,92.18080166407994,4293.6,86.57142857142857,92.18080166407994,4399.4,86.57142857142857,92.18080166407994,4502.7,86.57142857142857,92.18080166407994,4605.4,86.57142857142857,92.18080166407994,4707.8,86.57142857142857,92.18080166407994,4810,86.57142857142857,92.18080166407994,4910.1]","[1416.3,1416.3,1000,0,416.3,""smooth"",""up"",""up"",""good_move"",4713,3296.1,2929.2,1416.9,366.9,""smooth"",""up"",""up"",""good_move"",7530.1,2816.7,2480.8,4713.4,335.9,""while_blue"",""up"",""right"",""bad_move"",14874.6,7343.6,3226.9,11196.6,451.1,""smooth"",""up"",""up"",""good_move"",17720.8,2845.9,2333.3,14874.9,512.6,""oops"",""left"",""left"",""good_move"",20730.9,3009.6,2539.6,17721.3,470,""smooth"",""left"",""left"",""good_move"",23657.7,2925.7,2540.5,20732,385.3,""smooth"",""left"",""left"",""good_move"",29497.9,5839.3,2572.1,26542.9,382.9,""smooth"",""left"",""left"",""good_move""]"
"7478","","<div style=""width:500px;"">
  <p>What determined the result of this run?</p>
  </div>","85","html-slider-response","24","384834","0.0-7.0-1.2","78","1","2025-07-30 09:12:28","36c45c0696341be0efffe67d72a12abb","41.114.159.88","Mozilla/5.0 (Windows NT 10.0; Win64; x64) AppleWebKit/537.36 (KHTML, like Gecko) Chrome/138.0.0.0 Safari/537.36","WebKit","Chrome","138.0.0.0","Windows","10.0","https://app.prolific.com/","en-US,en;q=0.9","665f10dc49cd980fdf304c19","683dba9a53627eb9ab41b36a","6889e1be55c49e88fa4d5137","0","665f10dc49cd980fdf304c19","0","2025-07-30T09:18:56.656Z","","","","AttribQ","","","","","","","","","","","50","","","","","","","","","","","","","","","","","","","","","","","","","","",""
"5427","","<div style=""width:500px;"">
  <p>How much control did you have over the ball?</p>
  </div>","78","html-slider-response","25","390263","0.0-7.0-2.2","78","1","2025-07-30 09:12:28","36c45c0696341be0efffe67d72a12abb","41.114.159.88","Mozilla/5.0 (Windows NT 10.0; Win64; x64) AppleWebKit/537.36 (KHTML, like Gecko) Chrome/138.0.0.0 Safari/537.36","WebKit","Chrome","138.0.0.0","Windows","10.0","https://app.prolific.com/","en-US,en;q=0.9","665f10dc49cd980fdf304c19","683dba9a53627eb9ab41b36a","6889e1be55c49e88fa4d5137","0","665f10dc49cd980fdf304c19","0","2025-07-30T09:19:02.085Z","","","","ControlQ","","","","","","","","","","","50","","","","","","","","","","","","","","","","","","","","","","","","","","",""
"5119","","<div style=""width:500px;"">
  <p>How would you describe your current emotional state?</p>
  </div>","44","html-slider-response","26","395384","0.0-7.0-3.2","78","1","2025-07-30 09:12:28","36c45c0696341be0efffe67d72a12abb","41.114.159.88","Mozilla/5.0 (Windows NT 10.0; Win64; x64) AppleWebKit/537.36 (KHTML, like Gecko) Chrome/138.0.0.0 Safari/537.36","WebKit","Chrome","138.0.0.0","Windows","10.0","https://app.prolific.com/","en-US,en;q=0.9","665f10dc49cd980fdf304c19","683dba9a53627eb9ab41b36a","6889e1be55c49e88fa4d5137","0","665f10dc49cd980fdf304c19","0","2025-07-30T09:19:07.206Z","","","","StressQ","","","","","","","","","","","50","","","","","","","","","","","","","","","","","","","","","","","","","","",""
"5602","","<div style=""width:500px;"">
  <p>What best describes how you currently feel?</p>
  </div>","70","html-slider-response","27","400987","0.0-7.0-4.2","78","1","2025-07-30 09:12:28","36c45c0696341be0efffe67d72a12abb","41.114.159.88","Mozilla/5.0 (Windows NT 10.0; Win64; x64) AppleWebKit/537.36 (KHTML, like Gecko) Chrome/138.0.0.0 Safari/537.36","WebKit","Chrome","138.0.0.0","Windows","10.0","https://app.prolific.com/","en-US,en;q=0.9","665f10dc49cd980fdf304c19","683dba9a53627eb9ab41b36a","6889e1be55c49e88fa4d5137","0","665f10dc49cd980fdf304c19","0","2025-07-30T09:19:12.809Z","","","","MotivationQ","","","","","","","","","","","50","","","","","","","","","","","","","","","","","","","","","","","","","","",""
"","","","","ctl-task-cpt","28","448632","0.0-7.0-0.3","78","1","2025-07-30 09:12:28","36c45c0696341be0efffe67d72a12abb","41.114.159.88","Mozilla/5.0 (Windows NT 10.0; Win64; x64) AppleWebKit/537.36 (KHTML, like Gecko) Chrome/138.0.0.0 Safari/537.36","WebKit","Chrome","138.0.0.0","Windows","10.0","https://app.prolific.com/","en-US,en;q=0.9","665f10dc49cd980fdf304c19","683dba9a53627eb9ab41b36a","6889e1be55c49e88fa4d5137","0","665f10dc49cd980fdf304c19","0","2025-07-30T09:20:00.454Z","","","","","","","","","","","","","","","","win-only","0","g1:NW,g2:SE","0.7","4","0","404726.9","19327.2","24334.5","44625.2","1","4","4","6","1","-1","-1","18","19","0.13636363636363635","2236.9","3000","-2080","[""left"",""up""]","{""num_key_presses"":6,""num_perfect"":4,""num_errors"":0,""num_randdir"":2,""num_randdir_good_moves"":0,""num_whilered"":0,""num_whileblue"":0,""num_blue"":0,""num_good_moves"":4}","[413.57142857142856,413.1808016640799,1.2,413.57142857142856,413.1808016640799,102.1,413.57142857142856,413.1808016640799,207.4,413.57142857142856,413.1808016640799,312.7,413.57142857142856,413.1808016640799,417.6,413.57142857142856,413.1808016640799,518.3,413.57142857142856,413.1808016640799,629.7,413.57142857142856,413.1808016640799,745.7,413.57142857142856,413.1808016640799,852.7,413.57142857142856,413.1808016640799,956.4,413.57142857142856,413.1808016640799,1073,413.57142857142856,413.1808016640799,1174.7,388.07142857142856,381.6808016640799,1276.5,-114.42857142857143,-42.81919833592006,1382.3,-114.42857142857143,-45.81919833592006,1482.8,-114.42857142857143,-45.81919833592006,1584,-114.42857142857143,-45.81919833592006,1688,26.57142857142857,42.68080166407994,1793.4,40.07142857142857,47.18080166407994,1899.9,43.07142857142857,65.18080166407994,2000.3,43.07142857142857,65.18080166407994,2101.2,43.07142857142857,65.18080166407994,2210.3,43.07142857142857,65.18080166407994,2319.2,43.07142857142857,65.18080166407994,2421.6,43.07142857142857,65.18080166407994,2530.7,43.07142857142857,65.18080166407994,2632.6,43.07142857142857,65.18080166407994,2735.1,43.07142857142857,65.18080166407994,2838.4,43.07142857142857,65.18080166407994,2945,43.07142857142857,65.18080166407994,3049.8,43.07142857142857,65.18080166407994,3151.2,43.07142857142857,65.18080166407994,3254.2,43.07142857142857,65.18080166407994,3355.6,43.07142857142857,65.18080166407994,3462.4,43.07142857142857,65.18080166407994,3570.1,43.07142857142857,65.18080166407994,3670.1,43.07142857142857,65.18080166407994,3774.2,43.07142857142857,65.18080166407994,3877.8,43.07142857142857,65.18080166407994,3981.3,43.07142857142857,65.18080166407994,4092.7,43.07142857142857,65.18080166407994,4194.6,43.07142857142857,65.18080166407994,4295.1,43.07142857142857,65.18080166407994,4400.2,43.07142857142857,65.18080166407994,4503.7,43.07142857142857,65.18080166407994,4608.3,43.07142857142857,65.18080166407994,4712.6,43.07142857142857,65.18080166407994,4816.1,43.07142857142857,65.18080166407994,4919.6]","[2189.3,2189.3,1000,0,1189.4,""smooth"",""up"",""up"",""good_move"",5028.8,2838.9,2126.2,2190,712.7,""smooth"",""up"",""up"",""good_move"",8220.4,3190.8,2757.7,5029.7,433,""smooth"",""left"",""left"",""good_move"",11203,2981.8,2219.1,8221.3,762.6,""oops"",""left"",""right"",""bad_move"",14067.7,2864.1,2399.4,11203.6,464.7,""smooth"",""left"",""left"",""good_move"",17729.7,3661.6,3274,14068.1,387.6,""oops"",""left"",""right"",""bad_move""]"
"4302","","<div style=""width:500px;"">
  <p>What determined the result of this run?</p>
  </div>","41","html-slider-response","29","452936","0.0-7.0-1.3","78","1","2025-07-30 09:12:28","36c45c0696341be0efffe67d72a12abb","41.114.159.88","Mozilla/5.0 (Windows NT 10.0; Win64; x64) AppleWebKit/537.36 (KHTML, like Gecko) Chrome/138.0.0.0 Safari/537.36","WebKit","Chrome","138.0.0.0","Windows","10.0","https://app.prolific.com/","en-US,en;q=0.9","665f10dc49cd980fdf304c19","683dba9a53627eb9ab41b36a","6889e1be55c49e88fa4d5137","0","665f10dc49cd980fdf304c19","0","2025-07-30T09:20:04.758Z","","","","AttribQ","","","","","","","","","","","50","","","","","","","","","","","","","","","","","","","","","","","","","","",""
"2763","","<div style=""width:500px;"">
  <p>How much control did you have over the ball?</p>
  </div>","40","html-slider-response","30","455700","0.0-7.0-2.3","78","1","2025-07-30 09:12:28","36c45c0696341be0efffe67d72a12abb","41.114.159.88","Mozilla/5.0 (Windows NT 10.0; Win64; x64) AppleWebKit/537.36 (KHTML, like Gecko) Chrome/138.0.0.0 Safari/537.36","WebKit","Chrome","138.0.0.0","Windows","10.0","https://app.prolific.com/","en-US,en;q=0.9","665f10dc49cd980fdf304c19","683dba9a53627eb9ab41b36a","6889e1be55c49e88fa4d5137","0","665f10dc49cd980fdf304c19","0","2025-07-30T09:20:07.523Z","","","","ControlQ","","","","","","","","","","","50","","","","","","","","","","","","","","","","","","","","","","","","","","",""
"14482","","<div style=""width:500px;"">
  <p>How would you describe your current emotional state?</p>
  </div>","56","html-slider-response","31","470185","0.0-7.0-3.3","78","1","2025-07-30 09:12:28","36c45c0696341be0efffe67d72a12abb","41.114.159.88","Mozilla/5.0 (Windows NT 10.0; Win64; x64) AppleWebKit/537.36 (KHTML, like Gecko) Chrome/138.0.0.0 Safari/537.36","WebKit","Chrome","138.0.0.0","Windows","10.0","https://app.prolific.com/","en-US,en;q=0.9","665f10dc49cd980fdf304c19","683dba9a53627eb9ab41b36a","6889e1be55c49e88fa4d5137","0","665f10dc49cd980fdf304c19","0","2025-07-30T09:20:22.007Z","","","","StressQ","","","","","","","","","","","50","","","","","","","","","","","","","","","","","","","","","","","","","","",""
"7279","","<div style=""width:500px;"">
  <p>What best describes how you currently feel?</p>
  </div>","81","html-slider-response","32","477465","0.0-7.0-4.3","78","1","2025-07-30 09:12:28","36c45c0696341be0efffe67d72a12abb","41.114.159.88","Mozilla/5.0 (Windows NT 10.0; Win64; x64) AppleWebKit/537.36 (KHTML, like Gecko) Chrome/138.0.0.0 Safari/537.36","WebKit","Chrome","138.0.0.0","Windows","10.0","https://app.prolific.com/","en-US,en;q=0.9","665f10dc49cd980fdf304c19","683dba9a53627eb9ab41b36a","6889e1be55c49e88fa4d5137","0","665f10dc49cd980fdf304c19","0","2025-07-30T09:20:29.288Z","","","","MotivationQ","","","","","","","","","","","50","","","","","","","","","","","","","","","","","","","","","","","","","","",""
"","","","","ctl-task-cpt","33","505451","0.0-7.0-0.4","78","1","2025-07-30 09:12:28","36c45c0696341be0efffe67d72a12abb","41.114.159.88","Mozilla/5.0 (Windows NT 10.0; Win64; x64) AppleWebKit/537.36 (KHTML, like Gecko) Chrome/138.0.0.0 Safari/537.36","WebKit","Chrome","138.0.0.0","Windows","10.0","https://app.prolific.com/","en-US,en;q=0.9","665f10dc49cd980fdf304c19","683dba9a53627eb9ab41b36a","6889e1be55c49e88fa4d5137","0","665f10dc49cd980fdf304c19","0","2025-07-30T09:20:57.273Z","","","","","","","","","","","","","","","","win-only","2","g1:SE,g2:NW","0.6","5","0","481207.5","9752.6","14754.1","24971.8","1","4","4","6","1","1","1","19","18","0.14393939393939395","1718.3","3000","1280","[""down"",""right""]","{""num_key_presses"":4,""num_perfect"":3,""num_errors"":0,""num_randdir"":1,""num_randdir_good_moves"":1,""num_whilered"":0,""num_whileblue"":0,""num_blue"":0,""num_good_moves"":4}","[415.07142857142856,425.1808016640799,0.9,415.07142857142856,425.1808016640799,107.8,415.07142857142856,425.1808016640799,216.3,415.07142857142856,425.1808016640799,321.3,415.07142857142856,425.1808016640799,425,415.07142857142856,425.1808016640799,525.5,415.07142857142856,425.1808016640799,630.8,415.07142857142856,425.1808016640799,735.5,415.07142857142856,425.1808016640799,836.3,443.57142857142856,441.6808016640799,940.3,613.0714285714286,615.6808016640799,1040.5,661.0714285714286,686.1808016640799,1144,661.0714285714286,686.1808016640799,1250.8,661.0714285714286,686.1808016640799,1351.1,731.5714285714286,725.1808016640799,1457.4,778.0714285714286,749.1808016640799,1561.4,778.0714285714286,749.1808016640799,1665.1,778.0714285714286,749.1808016640799,1772.3,778.0714285714286,749.1808016640799,1872.8,778.0714285714286,749.1808016640799,1989.5,778.0714285714286,749.1808016640799,2096.8,778.0714285714286,749.1808016640799,2197.4,778.0714285714286,749.1808016640799,2302.5,778.0714285714286,749.1808016640799,2402.8,778.0714285714286,749.1808016640799,2504.2,778.0714285714286,749.1808016640799,2618.6,778.0714285714286,749.1808016640799,2738.5,778.0714285714286,749.1808016640799,2850.6,778.0714285714286,749.1808016640799,2953.4,778.0714285714286,749.1808016640799,3057.2,778.0714285714286,749.1808016640799,3166.3,778.0714285714286,749.1808016640799,3271.4,778.0714285714286,749.1808016640799,3377,778.0714285714286,749.1808016640799,3479.2,778.0714285714286,749.1808016640799,3587.6,778.0714285714286,749.1808016640799,3692.9,778.0714285714286,749.1808016640799,3793.1,778.0714285714286,749.1808016640799,3894.4,778.0714285714286,749.1808016640799,4000.7,778.0714285714286,749.1808016640799,4102.5,778.0714285714286,749.1808016640799,4203.2,778.0714285714286,749.1808016640799,4303.3,778.0714285714286,749.1808016640799,4403.7,778.0714285714286,749.1808016640799,4510.5,778.0714285714286,749.1808016640799,4621.3,778.0714285714286,749.1808016640799,4721.5,778.0714285714286,749.1808016640799,4821.5,778.0714285714286,749.1808016640799,4925.7]","[2091,2091,1000,0,1091,""smooth"",""right"",""right"",""good_move"",4529.5,2437.6,1912.4,2091.9,525.2,""oops"",""right"",""right"",""good_move"",7032.5,2502.5,2096.9,4530,405.6,""smooth"",""down"",""down"",""good_move"",10085.8,3052.4,2460.9,7033.5,591.4,""smooth"",""down"",""down"",""good_move""]"
"4647","","<div style=""width:500px;"">
  <p>What determined the result of this run?</p>
  </div>","85","html-slider-response","34","510100","0.0-7.0-1.4","78","1","2025-07-30 09:12:28","36c45c0696341be0efffe67d72a12abb","41.114.159.88","Mozilla/5.0 (Windows NT 10.0; Win64; x64) AppleWebKit/537.36 (KHTML, like Gecko) Chrome/138.0.0.0 Safari/537.36","WebKit","Chrome","138.0.0.0","Windows","10.0","https://app.prolific.com/","en-US,en;q=0.9","665f10dc49cd980fdf304c19","683dba9a53627eb9ab41b36a","6889e1be55c49e88fa4d5137","0","665f10dc49cd980fdf304c19","0","2025-07-30T09:21:01.922Z","","","","AttribQ","","","","","","","","","","","50","","","","","","","","","","","","","","","","","","","","","","","","","","",""
"3851","","<div style=""width:500px;"">
  <p>How much control did you have over the ball?</p>
  </div>","67","html-slider-response","35","513953","0.0-7.0-2.4","78","1","2025-07-30 09:12:28","36c45c0696341be0efffe67d72a12abb","41.114.159.88","Mozilla/5.0 (Windows NT 10.0; Win64; x64) AppleWebKit/537.36 (KHTML, like Gecko) Chrome/138.0.0.0 Safari/537.36","WebKit","Chrome","138.0.0.0","Windows","10.0","https://app.prolific.com/","en-US,en;q=0.9","665f10dc49cd980fdf304c19","683dba9a53627eb9ab41b36a","6889e1be55c49e88fa4d5137","0","665f10dc49cd980fdf304c19","0","2025-07-30T09:21:05.775Z","","","","ControlQ","","","","","","","","","","","50","","","","","","","","","","","","","","","","","","","","","","","","","","",""
"5601","","<div style=""width:500px;"">
  <p>How would you describe your current emotional state?</p>
  </div>","57","html-slider-response","36","519556","0.0-7.0-3.4","78","1","2025-07-30 09:12:28","36c45c0696341be0efffe67d72a12abb","41.114.159.88","Mozilla/5.0 (Windows NT 10.0; Win64; x64) AppleWebKit/537.36 (KHTML, like Gecko) Chrome/138.0.0.0 Safari/537.36","WebKit","Chrome","138.0.0.0","Windows","10.0","https://app.prolific.com/","en-US,en;q=0.9","665f10dc49cd980fdf304c19","683dba9a53627eb9ab41b36a","6889e1be55c49e88fa4d5137","0","665f10dc49cd980fdf304c19","0","2025-07-30T09:21:11.378Z","","","","StressQ","","","","","","","","","","","50","","","","","","","","","","","","","","","","","","","","","","","","","","",""
"7948","","<div style=""width:500px;"">
  <p>What best describes how you currently feel?</p>
  </div>","76","html-slider-response","37","527506","0.0-7.0-4.4","78","1","2025-07-30 09:12:28","36c45c0696341be0efffe67d72a12abb","41.114.159.88","Mozilla/5.0 (Windows NT 10.0; Win64; x64) AppleWebKit/537.36 (KHTML, like Gecko) Chrome/138.0.0.0 Safari/537.36","WebKit","Chrome","138.0.0.0","Windows","10.0","https://app.prolific.com/","en-US,en;q=0.9","665f10dc49cd980fdf304c19","683dba9a53627eb9ab41b36a","6889e1be55c49e88fa4d5137","0","665f10dc49cd980fdf304c19","0","2025-07-30T09:21:19.328Z","","","","MotivationQ","","","","","","","","","","","50","","","","","","","","","","","","","","","","","","","","","","","","","","",""
"","","","","ctl-task-cpt","38","571624","0.0-7.0-0.5","78","1","2025-07-30 09:12:28","36c45c0696341be0efffe67d72a12abb","41.114.159.88","Mozilla/5.0 (Windows NT 10.0; Win64; x64) AppleWebKit/537.36 (KHTML, like Gecko) Chrome/138.0.0.0 Safari/537.36","WebKit","Chrome","138.0.0.0","Windows","10.0","https://app.prolific.com/","en-US,en;q=0.9","665f10dc49cd980fdf304c19","683dba9a53627eb9ab41b36a","6889e1be55c49e88fa4d5137","0","665f10dc49cd980fdf304c19","0","2025-07-30T09:22:03.446Z","","","","","","","","","","","","","","","","win-only","3","g1:SW,g2:NE","0.5","6","0","531245.9","5858.4","10858.8","41085.8","1","4","8","6","1","-1","-1","18","19","0.13636363636363635","2267.8","3000","-2105","[""down"",""left""]","{""num_key_presses"":9,""num_perfect"":4,""num_errors"":0,""num_randdir"":5,""num_randdir_good_moves"":1,""num_whilered"":0,""num_whileblue"":0,""num_blue"":1,""num_good_moves"":5}","[406.07142857142856,419.1808016640799,0.5,406.07142857142856,419.1808016640799,102.8,406.07142857142856,419.1808016640799,215.8,406.07142857142856,419.1808016640799,318.8,406.07142857142856,419.1808016640799,422.9,406.07142857142856,419.1808016640799,523.9,406.07142857142856,419.1808016640799,627.1,406.07142857142856,419.1808016640799,733.5,406.07142857142856,419.1808016640799,839.3,406.07142857142856,419.1808016640799,942.7,406.07142857142856,419.1808016640799,1043,406.07142857142856,419.1808016640799,1166.9,377.57142857142856,458.1808016640799,1268.1,299.57142857142856,587.1808016640799,1372.2,121.07142857142857,758.1808016640799,1481,38.57142857142857,773.1808016640799,1583.1,34.07142857142857,777.6808016640799,1697.8,34.07142857142857,776.1808016640799,1798.9,35.57142857142857,774.6808016640799,1899.7,35.57142857142857,774.6808016640799,2000.2,35.57142857142857,774.6808016640799,2112,35.57142857142857,774.6808016640799,2214.6,35.57142857142857,774.6808016640799,2330.1,35.57142857142857,774.6808016640799,2430.2,35.57142857142857,774.6808016640799,2530.9,35.57142857142857,774.6808016640799,2634,35.57142857142857,774.6808016640799,2748,35.57142857142857,774.6808016640799,2849.9,35.57142857142857,774.6808016640799,2963.9,35.57142857142857,774.6808016640799,3070,35.57142857142857,774.6808016640799,3170.2,35.57142857142857,774.6808016640799,3277.5,35.57142857142857,774.6808016640799,3381.6,35.57142857142857,774.6808016640799,3481.9,35.57142857142857,774.6808016640799,3586.6,35.57142857142857,774.6808016640799,3688,35.57142857142857,774.6808016640799,3788.2,35.57142857142857,774.6808016640799,3892.4,35.57142857142857,774.6808016640799,3998.7,35.57142857142857,774.6808016640799,4104.5,35.57142857142857,774.6808016640799,4208.1,35.57142857142857,774.6808016640799,4308.6,35.57142857142857,774.6808016640799,4410.1,35.57142857142857,774.6808016640799,4518.2,35.57142857142857,774.6808016640799,4618.7,35.57142857142857,774.6808016640799,4731.4,35.57142857142857,774.6808016640799,4836.4,35.57142857142857,774.6808016640799,4937.8]","[1397,1397,1000,0,397,""oops"",""down"",""right"",""bad_move"",4442.3,3044.6,2522,1397.7,522.6,""oops"",""down"",""left"",""good_move"",7407.2,2964.4,2434.8,4442.9,529.5,""smooth"",""down"",""down"",""good_move"",10303.3,2895.4,2522.7,7407.9,372.7,""smooth"",""down"",""down"",""good_move"",12534.1,2230.3,1740.1,10303.8,490.2,""oops"",""left"",""right"",""bad_move"",15344.6,2809.8,2341,12534.8,468.8,""smooth"",""left"",""left"",""good_move"",18178.5,2833.3,2752.6,15345.2,80.7,""smooth"",""left"",""left"",""good_move"",20625.8,2447,2034.8,18178.8,412.2,""oops"",""left"",""up"",""bad_move"",24010,3383.8,2365.9,20626.3,1017.9,""oops"",""left"",""up"",""bad_move""]"
"8750","","<div style=""width:500px;"">
  <p>What determined the result of this run?</p>
  </div>","36","html-slider-response","39","580376","0.0-7.0-1.5","78","1","2025-07-30 09:12:28","36c45c0696341be0efffe67d72a12abb","41.114.159.88","Mozilla/5.0 (Windows NT 10.0; Win64; x64) AppleWebKit/537.36 (KHTML, like Gecko) Chrome/138.0.0.0 Safari/537.36","WebKit","Chrome","138.0.0.0","Windows","10.0","https://app.prolific.com/","en-US,en;q=0.9","665f10dc49cd980fdf304c19","683dba9a53627eb9ab41b36a","6889e1be55c49e88fa4d5137","0","665f10dc49cd980fdf304c19","0","2025-07-30T09:22:12.198Z","","","","AttribQ","","","","","","","","","","","50","","","","","","","","","","","","","","","","","","","","","","","","","","",""
"7572","","<div style=""width:500px;"">
  <p>How much control did you have over the ball?</p>
  </div>","35","html-slider-response","40","587949","0.0-7.0-2.5","78","1","2025-07-30 09:12:28","36c45c0696341be0efffe67d72a12abb","41.114.159.88","Mozilla/5.0 (Windows NT 10.0; Win64; x64) AppleWebKit/537.36 (KHTML, like Gecko) Chrome/138.0.0.0 Safari/537.36","WebKit","Chrome","138.0.0.0","Windows","10.0","https://app.prolific.com/","en-US,en;q=0.9","665f10dc49cd980fdf304c19","683dba9a53627eb9ab41b36a","6889e1be55c49e88fa4d5137","0","665f10dc49cd980fdf304c19","0","2025-07-30T09:22:19.772Z","","","","ControlQ","","","","","","","","","","","50","","","","","","","","","","","","","","","","","","","","","","","","","","",""
"6655","","<div style=""width:500px;"">
  <p>How would you describe your current emotional state?</p>
  </div>","64","html-slider-response","41","594606","0.0-7.0-3.5","78","1","2025-07-30 09:12:28","36c45c0696341be0efffe67d72a12abb","41.114.159.88","Mozilla/5.0 (Windows NT 10.0; Win64; x64) AppleWebKit/537.36 (KHTML, like Gecko) Chrome/138.0.0.0 Safari/537.36","WebKit","Chrome","138.0.0.0","Windows","10.0","https://app.prolific.com/","en-US,en;q=0.9","665f10dc49cd980fdf304c19","683dba9a53627eb9ab41b36a","6889e1be55c49e88fa4d5137","0","665f10dc49cd980fdf304c19","0","2025-07-30T09:22:26.428Z","","","","StressQ","","","","","","","","","","","50","","","","","","","","","","","","","","","","","","","","","","","","","","",""
"6150","","<div style=""width:500px;"">
  <p>What best describes how you currently feel?</p>
  </div>","66","html-slider-response","42","600757","0.0-7.0-4.5","78","1","2025-07-30 09:12:28","36c45c0696341be0efffe67d72a12abb","41.114.159.88","Mozilla/5.0 (Windows NT 10.0; Win64; x64) AppleWebKit/537.36 (KHTML, like Gecko) Chrome/138.0.0.0 Safari/537.36","WebKit","Chrome","138.0.0.0","Windows","10.0","https://app.prolific.com/","en-US,en;q=0.9","665f10dc49cd980fdf304c19","683dba9a53627eb9ab41b36a","6889e1be55c49e88fa4d5137","0","665f10dc49cd980fdf304c19","0","2025-07-30T09:22:32.580Z","","","","MotivationQ","","","","","","","","","","","50","","","","","","","","","","","","","","","","","","","","","","","","","","",""
"","","","","ctl-task-cpt","43","653636","0.0-7.0-0.6","78","1","2025-07-30 09:12:28","36c45c0696341be0efffe67d72a12abb","41.114.159.88","Mozilla/5.0 (Windows NT 10.0; Win64; x64) AppleWebKit/537.36 (KHTML, like Gecko) Chrome/138.0.0.0 Safari/537.36","WebKit","Chrome","138.0.0.0","Windows","10.0","https://app.prolific.com/","en-US,en;q=0.9","665f10dc49cd980fdf304c19","683dba9a53627eb9ab41b36a","6889e1be55c49e88fa4d5137","0","665f10dc49cd980fdf304c19","0","2025-07-30T09:23:25.458Z","","","","","","","","","","","","","","","","win-only","3","g1:SW,g2:NE","0.4","7","0","604497.5","7243.7","12244.2","49872.4","1","4","8","6","1","-1","-1","17","18","0.12878787878787878","1849.7","3000","-1950","[""down"",""left""]","{""num_key_presses"":7,""num_perfect"":1,""num_errors"":0,""num_randdir"":6,""num_randdir_good_moves"":2,""num_whilered"":0,""num_whileblue"":0,""num_blue"":4,""num_good_moves"":3}","[419.57142857142856,419.1808016640799,0.9,419.57142857142856,419.1808016640799,111.6,419.57142857142856,419.1808016640799,214.2,419.57142857142856,419.1808016640799,318.1,419.57142857142856,419.1808016640799,419.9,419.57142857142856,419.1808016640799,535.7,419.57142857142856,419.1808016640799,643.3,419.57142857142856,419.1808016640799,744.7,419.57142857142856,419.1808016640799,852.8,419.57142857142856,419.1808016640799,953,335.57142857142856,503.1808016640799,1055.7,133.07142857142856,764.1808016640799,1155.7,133.07142857142856,761.1808016640799,1263.5,133.07142857142856,761.1808016640799,1377.1,133.07142857142856,761.1808016640799,1480.4,112.07142857142857,761.1808016640799,1585.5,112.07142857142857,761.1808016640799,1687.9,112.07142857142857,761.1808016640799,1793,112.07142857142857,761.1808016640799,1899.9,112.07142857142857,761.1808016640799,2008.6,112.07142857142857,761.1808016640799,2115,112.07142857142857,761.1808016640799,2217,112.07142857142857,761.1808016640799,2318.7,112.07142857142857,761.1808016640799,2424.3,112.07142857142857,761.1808016640799,2533.2,112.07142857142857,761.1808016640799,2641.3,112.07142857142857,761.1808016640799,2741.8,112.07142857142857,761.1808016640799,2842.5,112.07142857142857,761.1808016640799,2948.8,112.07142857142857,761.1808016640799,3051.6,112.07142857142857,761.1808016640799,3152.2,112.07142857142857,761.1808016640799,3258.1,112.07142857142857,761.1808016640799,3358.6,112.07142857142857,761.1808016640799,3463.4,112.07142857142857,761.1808016640799,3565.1,112.07142857142857,761.1808016640799,3666.7,112.07142857142857,761.1808016640799,3782.4,112.07142857142857,761.1808016640799,3890.7,112.07142857142857,761.1808016640799,3991.8,112.07142857142857,761.1808016640799,4093.3,112.07142857142857,761.1808016640799,4204.3,112.07142857142857,761.1808016640799,4306.3,112.07142857142857,761.1808016640799,4415.4,112.07142857142857,761.1808016640799,4521.1,112.07142857142857,761.1808016640799,4629.3,112.07142857142857,761.1808016640799,4731.3,112.07142857142857,761.1808016640799,4840.6,112.07142857142857,761.1808016640799,4943.6]","[15052.9,15052.9,2011.8,12540.8,500.3,""smooth"",""left"",""left"",""good_move"",18429.5,3375.9,2579.8,15053.6,796.1,""oops"",""left"",""down"",""good_move"",21067,2636.6,1845.7,18430.5,790.9,""oops"",""left"",""right"",""bad_move"",24541.4,3473.7,2764.1,21067.7,709.6,""oops"",""left"",""right"",""bad_move"",27496.5,2954.8,2346.6,24541.7,608.2,""oops"",""left"",""left"",""good_move"",31401.7,3904.4,3383.7,27497.4,520.7,""oops"",""left"",""up"",""bad_move"",34430.5,3028.1,2300.7,31402.4,727.4,""oops"",""left"",""up"",""bad_move""]"
"7160","","<div style=""width:500px;"">
  <p>What determined the result of this run?</p>
  </div>","20","html-slider-response","44","660797","0.0-7.0-1.6","78","1","2025-07-30 09:12:28","36c45c0696341be0efffe67d72a12abb","41.114.159.88","Mozilla/5.0 (Windows NT 10.0; Win64; x64) AppleWebKit/537.36 (KHTML, like Gecko) Chrome/138.0.0.0 Safari/537.36","WebKit","Chrome","138.0.0.0","Windows","10.0","https://app.prolific.com/","en-US,en;q=0.9","665f10dc49cd980fdf304c19","683dba9a53627eb9ab41b36a","6889e1be55c49e88fa4d5137","0","665f10dc49cd980fdf304c19","0","2025-07-30T09:23:32.619Z","","","","AttribQ","","","","","","","","","","","50","","","","","","","","","","","","","","","","","","","","","","","","","","",""
"3377","","<div style=""width:500px;"">
  <p>How much control did you have over the ball?</p>
  </div>","18","html-slider-response","45","664176","0.0-7.0-2.6","78","1","2025-07-30 09:12:28","36c45c0696341be0efffe67d72a12abb","41.114.159.88","Mozilla/5.0 (Windows NT 10.0; Win64; x64) AppleWebKit/537.36 (KHTML, like Gecko) Chrome/138.0.0.0 Safari/537.36","WebKit","Chrome","138.0.0.0","Windows","10.0","https://app.prolific.com/","en-US,en;q=0.9","665f10dc49cd980fdf304c19","683dba9a53627eb9ab41b36a","6889e1be55c49e88fa4d5137","0","665f10dc49cd980fdf304c19","0","2025-07-30T09:23:35.999Z","","","","ControlQ","","","","","","","","","","","50","","","","","","","","","","","","","","","","","","","","","","","","","","",""
"5771","","<div style=""width:500px;"">
  <p>How would you describe your current emotional state?</p>
  </div>","81","html-slider-response","46","669949","0.0-7.0-3.6","78","1","2025-07-30 09:12:28","36c45c0696341be0efffe67d72a12abb","41.114.159.88","Mozilla/5.0 (Windows NT 10.0; Win64; x64) AppleWebKit/537.36 (KHTML, like Gecko) Chrome/138.0.0.0 Safari/537.36","WebKit","Chrome","138.0.0.0","Windows","10.0","https://app.prolific.com/","en-US,en;q=0.9","665f10dc49cd980fdf304c19","683dba9a53627eb9ab41b36a","6889e1be55c49e88fa4d5137","0","665f10dc49cd980fdf304c19","0","2025-07-30T09:23:41.771Z","","","","StressQ","","","","","","","","","","","50","","","","","","","","","","","","","","","","","","","","","","","","","","",""
"4665","","<div style=""width:500px;"">
  <p>What best describes how you currently feel?</p>
  </div>","75","html-slider-response","47","674616","0.0-7.0-4.6","78","1","2025-07-30 09:12:28","36c45c0696341be0efffe67d72a12abb","41.114.159.88","Mozilla/5.0 (Windows NT 10.0; Win64; x64) AppleWebKit/537.36 (KHTML, like Gecko) Chrome/138.0.0.0 Safari/537.36","WebKit","Chrome","138.0.0.0","Windows","10.0","https://app.prolific.com/","en-US,en;q=0.9","665f10dc49cd980fdf304c19","683dba9a53627eb9ab41b36a","6889e1be55c49e88fa4d5137","0","665f10dc49cd980fdf304c19","0","2025-07-30T09:23:46.438Z","","","","MotivationQ","","","","","","","","","","","50","","","","","","","","","","","","","","","","","","","","","","","","","","",""
"","","","","ctl-task-cpt","48","720641","0.0-7.0-0.7","78","1","2025-07-30 09:12:28","36c45c0696341be0efffe67d72a12abb","41.114.159.88","Mozilla/5.0 (Windows NT 10.0; Win64; x64) AppleWebKit/537.36 (KHTML, like Gecko) Chrome/138.0.0.0 Safari/537.36","WebKit","Chrome","138.0.0.0","Windows","10.0","https://app.prolific.com/","en-US,en;q=0.9","665f10dc49cd980fdf304c19","683dba9a53627eb9ab41b36a","6889e1be55c49e88fa4d5137","0","665f10dc49cd980fdf304c19","0","2025-07-30T09:24:32.463Z","","","","","","","","","","","","","","","","win-only","3","g1:SW,g2:NE","0.3","8","0","678355.7","5025.2","10028.3","43014.6","1","4","4","6","1","1","1","18","17","0.13636363636363635","1929.7","3000","885","[""down"",""left""]","{""num_key_presses"":6,""num_perfect"":2,""num_errors"":0,""num_randdir"":4,""num_randdir_good_moves"":3,""num_whilered"":0,""num_whileblue"":0,""num_blue"":5,""num_good_moves"":5}","[419.57142857142856,416.1808016640799,0.9,419.57142857142856,416.1808016640799,105.4,419.57142857142856,416.1808016640799,211.2,419.57142857142856,416.1808016640799,312.1,419.57142857142856,416.1808016640799,426.4,419.57142857142856,416.1808016640799,536.6,419.57142857142856,416.1808016640799,638,397.07142857142856,425.1808016640799,755.1,311.57142857142856,506.1808016640799,856,263.57142857142856,578.1808016640799,963.9,157.07142857142856,713.1808016640799,1067.7,136.07142857142856,713.1808016640799,1183,136.07142857142856,713.1808016640799,1290.9,136.07142857142856,713.1808016640799,1391.6,136.07142857142856,713.1808016640799,1502.8,119.57142857142857,713.1808016640799,1608.4,113.57142857142857,714.6808016640799,1712.2,113.57142857142857,714.6808016640799,1814,113.57142857142857,714.6808016640799,1915.7,113.57142857142857,714.6808016640799,2017.8,113.57142857142857,714.6808016640799,2118.3,113.57142857142857,714.6808016640799,2230.8,113.57142857142857,714.6808016640799,2340.8,113.57142857142857,714.6808016640799,2443,113.57142857142857,714.6808016640799,2545.6,113.57142857142857,714.6808016640799,2652.7,113.57142857142857,714.6808016640799,2753.9,113.57142857142857,714.6808016640799,2861.7,113.57142857142857,714.6808016640799,2969.4,113.57142857142857,714.6808016640799,3070.8,113.57142857142857,714.6808016640799,3170.8,113.57142857142857,714.6808016640799,3276.3,113.57142857142857,714.6808016640799,3376.5,113.57142857142857,714.6808016640799,3480.4,113.57142857142857,714.6808016640799,3581.8,113.57142857142857,714.6808016640799,3686.7,113.57142857142857,714.6808016640799,3792,113.57142857142857,714.6808016640799,3894.3,113.57142857142857,714.6808016640799,3995.2,113.57142857142857,714.6808016640799,4097.1,113.57142857142857,714.6808016640799,4201.3,113.57142857142857,714.6808016640799,4302.4,113.57142857142857,714.6808016640799,4403.1,113.57142857142857,714.6808016640799,4505.4,113.57142857142857,714.6808016640799,4606.5,113.57142857142857,714.6808016640799,4709.3,113.57142857142857,714.6808016640799,4815.7,113.57142857142857,714.6808016640799,4916.3]","[1667.8,1667.8,1000,0,667.8,""smooth"",""left"",""left"",""good_move"",7576.8,5908,1924.4,5207.3,445.1,""smooth"",""left"",""left"",""good_move"",13839.7,6262.7,2476.3,10922.8,440.6,""oops"",""down"",""up"",""bad_move"",23201,9360.9,2040.2,20682.2,478.7,""oops"",""down"",""down"",""good_move"",26456,3254.4,2607.8,23201.6,646.6,""oops"",""down"",""down"",""good_move"",32866.6,6410.2,2109.8,30210.6,546.2,""oops"",""down"",""down"",""good_move""]"
"8630","","<div style=""width:500px;"">
  <p>What determined the result of this run?</p>
  </div>","56","html-slider-response","49","729274","0.0-7.0-1.7","78","1","2025-07-30 09:12:28","36c45c0696341be0efffe67d72a12abb","41.114.159.88","Mozilla/5.0 (Windows NT 10.0; Win64; x64) AppleWebKit/537.36 (KHTML, like Gecko) Chrome/138.0.0.0 Safari/537.36","WebKit","Chrome","138.0.0.0","Windows","10.0","https://app.prolific.com/","en-US,en;q=0.9","665f10dc49cd980fdf304c19","683dba9a53627eb9ab41b36a","6889e1be55c49e88fa4d5137","0","665f10dc49cd980fdf304c19","0","2025-07-30T09:24:41.096Z","","","","AttribQ","","","","","","","","","","","50","","","","","","","","","","","","","","","","","","","","","","","","","","",""
"4445","","<div style=""width:500px;"">
  <p>How much control did you have over the ball?</p>
  </div>","54","html-slider-response","50","733720","0.0-7.0-2.7","78","1","2025-07-30 09:12:28","36c45c0696341be0efffe67d72a12abb","41.114.159.88","Mozilla/5.0 (Windows NT 10.0; Win64; x64) AppleWebKit/537.36 (KHTML, like Gecko) Chrome/138.0.0.0 Safari/537.36","WebKit","Chrome","138.0.0.0","Windows","10.0","https://app.prolific.com/","en-US,en;q=0.9","665f10dc49cd980fdf304c19","683dba9a53627eb9ab41b36a","6889e1be55c49e88fa4d5137","0","665f10dc49cd980fdf304c19","0","2025-07-30T09:24:45.542Z","","","","ControlQ","","","","","","","","","","","50","","","","","","","","","","","","","","","","","","","","","","","","","","",""
"6180","","<div style=""width:500px;"">
  <p>How would you describe your current emotional state?</p>
  </div>","63","html-slider-response","51","739902","0.0-7.0-3.7","78","1","2025-07-30 09:12:28","36c45c0696341be0efffe67d72a12abb","41.114.159.88","Mozilla/5.0 (Windows NT 10.0; Win64; x64) AppleWebKit/537.36 (KHTML, like Gecko) Chrome/138.0.0.0 Safari/537.36","WebKit","Chrome","138.0.0.0","Windows","10.0","https://app.prolific.com/","en-US,en;q=0.9","665f10dc49cd980fdf304c19","683dba9a53627eb9ab41b36a","6889e1be55c49e88fa4d5137","0","665f10dc49cd980fdf304c19","0","2025-07-30T09:24:51.724Z","","","","StressQ","","","","","","","","","","","50","","","","","","","","","","","","","","","","","","","","","","","","","","",""
"4171","","<div style=""width:500px;"">
  <p>What best describes how you currently feel?</p>
  </div>","62","html-slider-response","52","744075","0.0-7.0-4.7","78","1","2025-07-30 09:12:28","36c45c0696341be0efffe67d72a12abb","41.114.159.88","Mozilla/5.0 (Windows NT 10.0; Win64; x64) AppleWebKit/537.36 (KHTML, like Gecko) Chrome/138.0.0.0 Safari/537.36","WebKit","Chrome","138.0.0.0","Windows","10.0","https://app.prolific.com/","en-US,en;q=0.9","665f10dc49cd980fdf304c19","683dba9a53627eb9ab41b36a","6889e1be55c49e88fa4d5137","0","665f10dc49cd980fdf304c19","0","2025-07-30T09:24:55.897Z","","","","MotivationQ","","","","","","","","","","","50","","","","","","","","","","","","","","","","","","","","","","","","","","",""
"","","","","ctl-task-cpt","53","779885","0.0-7.0-0.8","78","1","2025-07-30 09:12:28","36c45c0696341be0efffe67d72a12abb","41.114.159.88","Mozilla/5.0 (Windows NT 10.0; Win64; x64) AppleWebKit/537.36 (KHTML, like Gecko) Chrome/138.0.0.0 Safari/537.36","WebKit","Chrome","138.0.0.0","Windows","10.0","https://app.prolific.com/","en-US,en;q=0.9","665f10dc49cd980fdf304c19","683dba9a53627eb9ab41b36a","6889e1be55c49e88fa4d5137","0","665f10dc49cd980fdf304c19","0","2025-07-30T09:25:31.708Z","","","","","","","","","","","","","","","","win-only","3","g1:SW,g2:NE","0.4","9","0","747814.4","2729.1","7731","32783.9","1","4","4","6","1","-1","-2","16","18","0.12121212121212122","2208.7","3000","-1985","[""down"",""left""]","{""num_key_presses"":7,""num_perfect"":4,""num_errors"":1,""num_randdir"":2,""num_randdir_good_moves"":0,""num_whilered"":0,""num_whileblue"":1,""num_blue"":1,""num_good_moves"":4}","[419.57142857142856,411.6808016640799,0.7,419.57142857142856,411.6808016640799,102.6,419.57142857142856,411.6808016640799,204.7,419.57142857142856,411.6808016640799,308.6,419.57142857142856,411.6808016640799,418.7,419.57142857142856,411.6808016640799,522.5,419.57142857142856,411.6808016640799,626.9,419.57142857142856,411.6808016640799,736.3,419.57142857142856,411.6808016640799,841.9,419.57142857142856,411.6808016640799,956.4,419.57142857142856,411.6808016640799,1057,419.57142857142856,411.6808016640799,1159.7,313.07142857142856,551.1808016640799,1261.5,257.57142857142856,627.6808016640799,1363.7,257.57142857142856,629.1808016640799,1467.3,257.57142857142856,629.1808016640799,1569.4,160.07142857142856,731.1808016640799,1671.9,127.07142857142857,734.1808016640799,1773.2,110.57142857142857,743.1808016640799,1887,104.57142857142857,744.6808016640799,1990.4,104.57142857142857,744.6808016640799,2094,104.57142857142857,744.6808016640799,2196.9,104.57142857142857,744.6808016640799,2298.2,104.57142857142857,744.6808016640799,2398.6,104.57142857142857,744.6808016640799,2506.6,104.57142857142857,744.6808016640799,2610.6,104.57142857142857,744.6808016640799,2713.2,104.57142857142857,744.6808016640799,2822.7,104.57142857142857,744.6808016640799,2933.9,104.57142857142857,744.6808016640799,3042.6,104.57142857142857,744.6808016640799,3142.9,104.57142857142857,744.6808016640799,3243.1,104.57142857142857,744.6808016640799,3347.9,104.57142857142857,744.6808016640799,3453.3,104.57142857142857,744.6808016640799,3556.4,104.57142857142857,744.6808016640799,3664.1,104.57142857142857,744.6808016640799,3771.9,104.57142857142857,744.6808016640799,3880.3,104.57142857142857,744.6808016640799,3984.3,104.57142857142857,744.6808016640799,4101.5,104.57142857142857,744.6808016640799,4204.2,104.57142857142857,744.6808016640799,4304.7,104.57142857142857,744.6808016640799,4414.7,104.57142857142857,744.6808016640799,4516.3,104.57142857142857,744.6808016640799,4616.9,104.57142857142857,744.6808016640799,4719.4,104.57142857142857,744.6808016640799,4831.5,104.57142857142857,744.6808016640799,4932.4]","[1704.5,1704.5,1000,0,704.5,""oops"",""left"",""up"",""bad_move"",5210.3,3505.2,2951.5,1705.1,553.8,""smooth"",""left"",""left"",""good_move"",9155.3,3944.1,3282.9,5211.2,661.2,""smooth"",""left"",""left"",""good_move"",12238.2,3082.3,2659.7,9156,422.5,""while_blue"",""down"",""up"",""bad_move"",15520.7,3282,2702.6,12238.7,579.4,""smooth"",""down"",""down"",""good_move"",18425.2,2903.6,2087.3,15521.6,816.3,""oops"",""down"",""up"",""bad_move"",21502.9,3077.2,2158.8,18425.7,918.5,""smooth"",""down"",""down"",""good_move""]"
"5445","","<div style=""width:500px;"">
  <p>What determined the result of this run?</p>
  </div>","61","html-slider-response","54","785332","0.0-7.0-1.8","78","1","2025-07-30 09:12:28","36c45c0696341be0efffe67d72a12abb","41.114.159.88","Mozilla/5.0 (Windows NT 10.0; Win64; x64) AppleWebKit/537.36 (KHTML, like Gecko) Chrome/138.0.0.0 Safari/537.36","WebKit","Chrome","138.0.0.0","Windows","10.0","https://app.prolific.com/","en-US,en;q=0.9","665f10dc49cd980fdf304c19","683dba9a53627eb9ab41b36a","6889e1be55c49e88fa4d5137","0","665f10dc49cd980fdf304c19","0","2025-07-30T09:25:37.154Z","","","","AttribQ","","","","","","","","","","","50","","","","","","","","","","","","","","","","","","","","","","","","","","",""
"7802","","<div style=""width:500px;"">
  <p>How much control did you have over the ball?</p>
  </div>","58","html-slider-response","55","793136","0.0-7.0-2.8","78","1","2025-07-30 09:12:28","36c45c0696341be0efffe67d72a12abb","41.114.159.88","Mozilla/5.0 (Windows NT 10.0; Win64; x64) AppleWebKit/537.36 (KHTML, like Gecko) Chrome/138.0.0.0 Safari/537.36","WebKit","Chrome","138.0.0.0","Windows","10.0","https://app.prolific.com/","en-US,en;q=0.9","665f10dc49cd980fdf304c19","683dba9a53627eb9ab41b36a","6889e1be55c49e88fa4d5137","0","665f10dc49cd980fdf304c19","0","2025-07-30T09:25:44.958Z","","","","ControlQ","","","","","","","","","","","50","","","","","","","","","","","","","","","","","","","","","","","","","","",""
"9798","","<div style=""width:500px;"">
  <p>How would you describe your current emotional state?</p>
  </div>","60","html-slider-response","56","802936","0.0-7.0-3.8","78","1","2025-07-30 09:12:28","36c45c0696341be0efffe67d72a12abb","41.114.159.88","Mozilla/5.0 (Windows NT 10.0; Win64; x64) AppleWebKit/537.36 (KHTML, like Gecko) Chrome/138.0.0.0 Safari/537.36","WebKit","Chrome","138.0.0.0","Windows","10.0","https://app.prolific.com/","en-US,en;q=0.9","665f10dc49cd980fdf304c19","683dba9a53627eb9ab41b36a","6889e1be55c49e88fa4d5137","0","665f10dc49cd980fdf304c19","0","2025-07-30T09:25:54.758Z","","","","StressQ","","","","","","","","","","","50","","","","","","","","","","","","","","","","","","","","","","","","","","",""
"6251","","<div style=""width:500px;"">
  <p>What best describes how you currently feel?</p>
  </div>","78","html-slider-response","57","809189","0.0-7.0-4.8","78","1","2025-07-30 09:12:28","36c45c0696341be0efffe67d72a12abb","41.114.159.88","Mozilla/5.0 (Windows NT 10.0; Win64; x64) AppleWebKit/537.36 (KHTML, like Gecko) Chrome/138.0.0.0 Safari/537.36","WebKit","Chrome","138.0.0.0","Windows","10.0","https://app.prolific.com/","en-US,en;q=0.9","665f10dc49cd980fdf304c19","683dba9a53627eb9ab41b36a","6889e1be55c49e88fa4d5137","0","665f10dc49cd980fdf304c19","0","2025-07-30T09:26:01.012Z","","","","MotivationQ","","","","","","","","","","","50","","","","","","","","","","","","","","","","","","","","","","","","","","",""
"","","","","ctl-task-cpt","58","869396","0.0-7.0-0.9","78","1","2025-07-30 09:12:28","36c45c0696341be0efffe67d72a12abb","41.114.159.88","Mozilla/5.0 (Windows NT 10.0; Win64; x64) AppleWebKit/537.36 (KHTML, like Gecko) Chrome/138.0.0.0 Safari/537.36","WebKit","Chrome","138.0.0.0","Windows","10.0","https://app.prolific.com/","en-US,en;q=0.9","665f10dc49cd980fdf304c19","683dba9a53627eb9ab41b36a","6889e1be55c49e88fa4d5137","0","665f10dc49cd980fdf304c19","0","2025-07-30T09:27:01.219Z","","","","","","","","","","","","","","","","win-only","1","g1:NE,g2:SW","0.5","10","0","812929.8","18419.3","23429","57197.3","1","4","8","6","1","-1","-1","15","16","0.11363636363636363","2506.2","3000","-2040","[""up"",""right""]","{""num_key_presses"":9,""num_perfect"":5,""num_errors"":0,""num_randdir"":4,""num_randdir_good_moves"":0,""num_whilered"":0,""num_whileblue"":0,""num_blue"":2,""num_good_moves"":5}","[409.07142857142856,422.1808016640799,0.6,409.07142857142856,422.1808016640799,106.1,409.07142857142856,422.1808016640799,208.1,409.07142857142856,422.1808016640799,311.8,409.07142857142856,422.1808016640799,416.4,409.07142857142856,422.1808016640799,516.5,409.07142857142856,422.1808016640799,632.4,409.07142857142856,422.1808016640799,733.2,409.07142857142856,422.1808016640799,840.4,409.07142857142856,422.1808016640799,943.2,409.07142857142856,422.1808016640799,1046.2,409.07142857142856,422.1808016640799,1149.8,409.07142857142856,422.1808016640799,1255.4,409.07142857142856,422.1808016640799,1364.4,607.0714285714286,138.68080166407992,1468.2,653.5714285714286,110.18080166407994,1571.2,653.5714285714286,110.18080166407994,1675.8,653.5714285714286,110.18080166407994,1776.1,653.5714285714286,110.18080166407994,1878.4,653.5714285714286,110.18080166407994,1979.1,718.0714285714286,86.18080166407994,2083.8,748.0714285714286,80.18080166407994,2190.5,763.0714285714286,62.18080166407994,2293.2,763.0714285714286,62.18080166407994,2393.8,763.0714285714286,62.18080166407994,2500.9,763.0714285714286,62.18080166407994,2614.7,763.0714285714286,62.18080166407994,2717.1,763.0714285714286,62.18080166407994,2821.6,763.0714285714286,62.18080166407994,2935,763.0714285714286,62.18080166407994,3036.6,763.0714285714286,62.18080166407994,3144.7,763.0714285714286,62.18080166407994,3248.4,763.0714285714286,62.18080166407994,3361.3,763.0714285714286,62.18080166407994,3462.1,763.0714285714286,62.18080166407994,3562.7,763.0714285714286,62.18080166407994,3667.5,763.0714285714286,62.18080166407994,3778.3,763.0714285714286,62.18080166407994,3886.3,763.0714285714286,62.18080166407994,3990.1,763.0714285714286,62.18080166407994,4100.3,763.0714285714286,62.18080166407994,4209.3,763.0714285714286,62.18080166407994,4312.8,763.0714285714286,62.18080166407994,4416.4,763.0714285714286,62.18080166407994,4526.5,763.0714285714286,62.18080166407994,4626.6,763.0714285714286,62.18080166407994,4735.6,763.0714285714286,62.18080166407994,4839.3,763.0714285714286,62.18080166407994,4942.2]","[4646.6,4646.6,2115.1,2006.3,525.2,""smooth"",""up"",""up"",""good_move"",10514.8,5867.5,1500.2,8431.8,582.8,""smooth"",""up"",""up"",""good_move"",13330.5,2815.2,2298.1,10515.3,517.1,""oops"",""right"",""left"",""bad_move"",17092.6,3761.3,3194.1,13331.3,567.2,""oops"",""right"",""down"",""bad_move"",20233.2,3140.1,2564.5,17093.1,575.6,""oops"",""right"",""left"",""bad_move"",22728.9,2495.3,1957.6,20233.7,537.7,""smooth"",""right"",""right"",""good_move"",25227.2,2497.3,1884,22730,613.3,""oops"",""right"",""left"",""bad_move"",28442.9,3215.2,2706.5,25227.7,508.7,""smooth"",""right"",""right"",""good_move"",31613.5,3170.3,2683.9,28443.2,486.4,""smooth"",""right"",""right"",""good_move""]"
"8816","","<div style=""width:500px;"">
  <p>What determined the result of this run?</p>
  </div>","26","html-slider-response","59","878215","0.0-7.0-1.9","78","1","2025-07-30 09:12:28","36c45c0696341be0efffe67d72a12abb","41.114.159.88","Mozilla/5.0 (Windows NT 10.0; Win64; x64) AppleWebKit/537.36 (KHTML, like Gecko) Chrome/138.0.0.0 Safari/537.36","WebKit","Chrome","138.0.0.0","Windows","10.0","https://app.prolific.com/","en-US,en;q=0.9","665f10dc49cd980fdf304c19","683dba9a53627eb9ab41b36a","6889e1be55c49e88fa4d5137","0","665f10dc49cd980fdf304c19","0","2025-07-30T09:27:10.037Z","","","","AttribQ","","","","","","","","","","","50","","","","","","","","","","","","","","","","","","","","","","","","","","",""
"6399","","<div style=""width:500px;"">
  <p>How much control did you have over the ball?</p>
  </div>","27","html-slider-response","60","884615","0.0-7.0-2.9","78","1","2025-07-30 09:12:28","36c45c0696341be0efffe67d72a12abb","41.114.159.88","Mozilla/5.0 (Windows NT 10.0; Win64; x64) AppleWebKit/537.36 (KHTML, like Gecko) Chrome/138.0.0.0 Safari/537.36","WebKit","Chrome","138.0.0.0","Windows","10.0","https://app.prolific.com/","en-US,en;q=0.9","665f10dc49cd980fdf304c19","683dba9a53627eb9ab41b36a","6889e1be55c49e88fa4d5137","0","665f10dc49cd980fdf304c19","0","2025-07-30T09:27:16.437Z","","","","ControlQ","","","","","","","","","","","50","","","","","","","","","","","","","","","","","","","","","","","","","","",""
"12351","","<div style=""width:500px;"">
  <p>How would you describe your current emotional state?</p>
  </div>","68","html-slider-response","61","896968","0.0-7.0-3.9","78","1","2025-07-30 09:12:28","36c45c0696341be0efffe67d72a12abb","41.114.159.88","Mozilla/5.0 (Windows NT 10.0; Win64; x64) AppleWebKit/537.36 (KHTML, like Gecko) Chrome/138.0.0.0 Safari/537.36","WebKit","Chrome","138.0.0.0","Windows","10.0","https://app.prolific.com/","en-US,en;q=0.9","665f10dc49cd980fdf304c19","683dba9a53627eb9ab41b36a","6889e1be55c49e88fa4d5137","0","665f10dc49cd980fdf304c19","0","2025-07-30T09:27:28.791Z","","","","StressQ","","","","","","","","","","","50","","","","","","","","","","","","","","","","","","","","","","","","","","",""
"11568","","<div style=""width:500px;"">
  <p>What best describes how you currently feel?</p>
  </div>","72","html-slider-response","62","908540","0.0-7.0-4.9","78","1","2025-07-30 09:12:28","36c45c0696341be0efffe67d72a12abb","41.114.159.88","Mozilla/5.0 (Windows NT 10.0; Win64; x64) AppleWebKit/537.36 (KHTML, like Gecko) Chrome/138.0.0.0 Safari/537.36","WebKit","Chrome","138.0.0.0","Windows","10.0","https://app.prolific.com/","en-US,en;q=0.9","665f10dc49cd980fdf304c19","683dba9a53627eb9ab41b36a","6889e1be55c49e88fa4d5137","0","665f10dc49cd980fdf304c19","0","2025-07-30T09:27:40.362Z","","","","MotivationQ","","","","","","","","","","","50","","","","","","","","","","","","","","","","","","","","","","","","","","",""
"","","","","ctl-task-cpt","63","941092","0.0-7.0-0.10","78","1","2025-07-30 09:12:28","36c45c0696341be0efffe67d72a12abb","41.114.159.88","Mozilla/5.0 (Windows NT 10.0; Win64; x64) AppleWebKit/537.36 (KHTML, like Gecko) Chrome/138.0.0.0 Safari/537.36","WebKit","Chrome","138.0.0.0","Windows","10.0","https://app.prolific.com/","en-US,en;q=0.9","665f10dc49cd980fdf304c19","683dba9a53627eb9ab41b36a","6889e1be55c49e88fa4d5137","0","665f10dc49cd980fdf304c19","0","2025-07-30T09:28:12.914Z","","","","","","","","","","","","","","","","win-only","3","g1:SW,g2:NE","0.6","11","0","912281.1","12607.5","17617.8","29522.8","1","4","4","6","1","1","1","16","15","0.12121212121212122","2205.7","3000","1925","[""down"",""left""]","{""num_key_presses"":4,""num_perfect"":2,""num_errors"":0,""num_randdir"":2,""num_randdir_good_moves"":2,""num_whilered"":0,""num_whileblue"":0,""num_blue"":0,""num_good_moves"":4}","[413.57142857142856,420.6808016640799,0.4,413.57142857142856,420.6808016640799,117.1,413.57142857142856,420.6808016640799,221.4,413.57142857142856,420.6808016640799,323.5,413.57142857142856,420.6808016640799,425.3,413.57142857142856,420.6808016640799,527.1,413.57142857142856,420.6808016640799,628.1,413.57142857142856,420.6808016640799,737.3,413.57142857142856,420.6808016640799,840.4,413.57142857142856,420.6808016640799,947,394.07142857142856,453.6808016640799,1056.9,284.57142857142856,653.1808016640799,1161.8,284.57142857142856,653.1808016640799,1264.4,284.57142857142856,653.1808016640799,1372.2,284.57142857142856,653.1808016640799,1477.6,155.57142857142856,726.6808016640799,1581.4,110.57142857142857,777.6808016640799,1686,106.07142857142857,776.1808016640799,1798.9,104.57142857142857,776.1808016640799,1920.8,104.57142857142857,776.1808016640799,2042.6,104.57142857142857,776.1808016640799,2151.5,104.57142857142857,776.1808016640799,2255,104.57142857142857,776.1808016640799,2361.8,104.57142857142857,776.1808016640799,2462.3,104.57142857142857,776.1808016640799,2572.4,104.57142857142857,776.1808016640799,2678.4,104.57142857142857,776.1808016640799,2781.4,104.57142857142857,776.1808016640799,2881.6,104.57142857142857,776.1808016640799,2987,104.57142857142857,776.1808016640799,3092.2,104.57142857142857,776.1808016640799,3193.6,104.57142857142857,776.1808016640799,3294.5,104.57142857142857,776.1808016640799,3399.6,104.57142857142857,776.1808016640799,3502.9,104.57142857142857,776.1808016640799,3616.9,104.57142857142857,776.1808016640799,3718.1,104.57142857142857,776.1808016640799,3823,104.57142857142857,776.1808016640799,3932.3,104.57142857142857,776.1808016640799,4038.8,104.57142857142857,776.1808016640799,4141.5,104.57142857142857,776.1808016640799,4242.2,104.57142857142857,776.1808016640799,4349.1,104.57142857142857,776.1808016640799,4453.5,104.57142857142857,776.1808016640799,4564.5,104.57142857142857,776.1808016640799,4664.6,104.57142857142857,776.1808016640799,4767.1,104.57142857142857,776.1808016640799,4867.7,104.57142857142857,776.1808016640799,4976.1]","[1521.7,1521.7,1000,0,521.7,""smooth"",""left"",""left"",""good_move"",5213.7,3691.6,3167.3,1522.1,524.3,""smooth"",""left"",""left"",""good_move"",7932.2,2718,2271.3,5214.2,446.7,""oops"",""down"",""down"",""good_move"",11714.1,3781.2,3331.3,7932.9,449.9,""oops"",""down"",""down"",""good_move""]"
"5469","","<div style=""width:500px;"">
  <p>What determined the result of this run?</p>
  </div>","78","html-slider-response","64","946563","0.0-7.0-1.10","78","1","2025-07-30 09:12:28","36c45c0696341be0efffe67d72a12abb","41.114.159.88","Mozilla/5.0 (Windows NT 10.0; Win64; x64) AppleWebKit/537.36 (KHTML, like Gecko) Chrome/138.0.0.0 Safari/537.36","WebKit","Chrome","138.0.0.0","Windows","10.0","https://app.prolific.com/","en-US,en;q=0.9","665f10dc49cd980fdf304c19","683dba9a53627eb9ab41b36a","6889e1be55c49e88fa4d5137","0","665f10dc49cd980fdf304c19","0","2025-07-30T09:28:18.385Z","","","","AttribQ","","","","","","","","","","","50","","","","","","","","","","","","","","","","","","","","","","","","","","",""
"4641","","<div style=""width:500px;"">
  <p>How much control did you have over the ball?</p>
  </div>","67","html-slider-response","65","951205","0.0-7.0-2.10","78","1","2025-07-30 09:12:28","36c45c0696341be0efffe67d72a12abb","41.114.159.88","Mozilla/5.0 (Windows NT 10.0; Win64; x64) AppleWebKit/537.36 (KHTML, like Gecko) Chrome/138.0.0.0 Safari/537.36","WebKit","Chrome","138.0.0.0","Windows","10.0","https://app.prolific.com/","en-US,en;q=0.9","665f10dc49cd980fdf304c19","683dba9a53627eb9ab41b36a","6889e1be55c49e88fa4d5137","0","665f10dc49cd980fdf304c19","0","2025-07-30T09:28:23.027Z","","","","ControlQ","","","","","","","","","","","50","","","","","","","","","","","","","","","","","","","","","","","","","","",""
"4639","","<div style=""width:500px;"">
  <p>How would you describe your current emotional state?</p>
  </div>","42","html-slider-response","66","955846","0.0-7.0-3.10","78","1","2025-07-30 09:12:28","36c45c0696341be0efffe67d72a12abb","41.114.159.88","Mozilla/5.0 (Windows NT 10.0; Win64; x64) AppleWebKit/537.36 (KHTML, like Gecko) Chrome/138.0.0.0 Safari/537.36","WebKit","Chrome","138.0.0.0","Windows","10.0","https://app.prolific.com/","en-US,en;q=0.9","665f10dc49cd980fdf304c19","683dba9a53627eb9ab41b36a","6889e1be55c49e88fa4d5137","0","665f10dc49cd980fdf304c19","0","2025-07-30T09:28:27.668Z","","","","StressQ","","","","","","","","","","","50","","","","","","","","","","","","","","","","","","","","","","","","","","",""
"3352","","<div style=""width:500px;"">
  <p>What best describes how you currently feel?</p>
  </div>","65","html-slider-response","67","959200","0.0-7.0-4.10","78","1","2025-07-30 09:12:28","36c45c0696341be0efffe67d72a12abb","41.114.159.88","Mozilla/5.0 (Windows NT 10.0; Win64; x64) AppleWebKit/537.36 (KHTML, like Gecko) Chrome/138.0.0.0 Safari/537.36","WebKit","Chrome","138.0.0.0","Windows","10.0","https://app.prolific.com/","en-US,en;q=0.9","665f10dc49cd980fdf304c19","683dba9a53627eb9ab41b36a","6889e1be55c49e88fa4d5137","0","665f10dc49cd980fdf304c19","0","2025-07-30T09:28:31.022Z","","","","MotivationQ","","","","","","","","","","","50","","","","","","","","","","","","","","","","","","","","","","","","","","",""
"","","","","ctl-task-cpt","68","1003021","0.0-7.0-0.11","78","1","2025-07-30 09:12:28","36c45c0696341be0efffe67d72a12abb","41.114.159.88","Mozilla/5.0 (Windows NT 10.0; Win64; x64) AppleWebKit/537.36 (KHTML, like Gecko) Chrome/138.0.0.0 Safari/537.36","WebKit","Chrome","138.0.0.0","Windows","10.0","https://app.prolific.com/","en-US,en;q=0.9","665f10dc49cd980fdf304c19","683dba9a53627eb9ab41b36a","6889e1be55c49e88fa4d5137","0","665f10dc49cd980fdf304c19","0","2025-07-30T09:29:14.844Z","","","","","","","","","","","","","","","","win-only","1","g1:NE,g2:SW","0.7","12","0","962940.2","7027.5","12053.6","40809","1","4","8","6","1","1","1","17","16","0.12878787878787878","3203.3","3000","1755","[""up"",""right""]","{""num_key_presses"":8,""num_perfect"":5,""num_errors"":0,""num_randdir"":3,""num_randdir_good_moves"":1,""num_whilered"":0,""num_whileblue"":0,""num_blue"":0,""num_good_moves"":6}","[415.07142857142856,413.1808016640799,0.2,415.07142857142856,413.1808016640799,105.8,415.07142857142856,413.1808016640799,216.5,415.07142857142856,413.1808016640799,338.3,415.07142857142856,413.1808016640799,447.5,415.07142857142856,413.1808016640799,568,415.07142857142856,413.1808016640799,675,415.07142857142856,413.1808016640799,788.5,415.07142857142856,413.1808016640799,902.8,415.07142857142856,413.1808016640799,1013.4,415.07142857142856,413.1808016640799,1122,415.07142857142856,413.1808016640799,1234.8,415.07142857142856,413.1808016640799,1344.1,415.07142857142856,413.1808016640799,1453.3,415.07142857142856,413.1808016640799,1565.6,415.07142857142856,413.1808016640799,1688.3,415.07142857142856,413.1808016640799,1798.9,415.07142857142856,413.1808016640799,1910.8,491.57142857142856,368.1808016640799,2027.4,547.0714285714286,350.1808016640799,2140.3,547.0714285714286,350.1808016640799,2258,547.0714285714286,350.1808016640799,2368.3,779.5714285714286,50.18080166407994,2486.1,857.5714285714286,-36.81919833592006,2591.2,871.0714285714286,-45.81919833592006,2713.8,785.5714285714286,20.180801664079937,2827.5,758.5714285714286,38.18080166407994,2943.8,758.5714285714286,39.68080166407994,3056.6,758.5714285714286,39.68080166407994,3172.3,758.5714285714286,39.68080166407994,3288.8,758.5714285714286,39.68080166407994,3402.6,758.5714285714286,39.68080166407994,3516.2,758.5714285714286,39.68080166407994,3631.1,758.5714285714286,39.68080166407994,3745.8,758.5714285714286,39.68080166407994,3858.8,758.5714285714286,39.68080166407994,3979.1,758.5714285714286,39.68080166407994,4081.4,758.5714285714286,39.68080166407994,4196.8,758.5714285714286,39.68080166407994,4310.2,758.5714285714286,39.68080166407994,4418.1,758.5714285714286,39.68080166407994,4536.7,758.5714285714286,39.68080166407994,4646.1,758.5714285714286,39.68080166407994,4760.2,758.5714285714286,39.68080166407994,4872.4,758.5714285714286,39.68080166407994,4996]","[1834.3,1834.3,1000,0,834.3,""smooth"",""right"",""right"",""good_move"",5442.2,3607.5,2953.7,1834.7,653.8,""oops"",""right"",""right"",""good_move"",8884.7,3442.1,2860.1,5442.6,582,""smooth"",""up"",""up"",""good_move"",15479.9,6594.9,2125.8,8885,4469.1,""oops"",""up"",""down"",""bad_move"",18764.4,3284.2,2636.7,15480.2,647.5,""oops"",""up"",""down"",""bad_move"",22396.6,3631.9,3147.5,18764.8,484.4,""smooth"",""up"",""up"",""good_move"",24863.4,2466.6,1999.6,22396.9,467,""smooth"",""up"",""up"",""good_move"",28611.1,3747.5,3209.8,24863.6,537.8,""smooth"",""up"",""up"",""good_move""]"
"10203","","<div style=""width:500px;"">
  <p>What determined the result of this run?</p>
  </div>","79","html-slider-response","69","1013229","0.0-7.0-1.11","78","1","2025-07-30 09:12:28","36c45c0696341be0efffe67d72a12abb","41.114.159.88","Mozilla/5.0 (Windows NT 10.0; Win64; x64) AppleWebKit/537.36 (KHTML, like Gecko) Chrome/138.0.0.0 Safari/537.36","WebKit","Chrome","138.0.0.0","Windows","10.0","https://app.prolific.com/","en-US,en;q=0.9","665f10dc49cd980fdf304c19","683dba9a53627eb9ab41b36a","6889e1be55c49e88fa4d5137","0","665f10dc49cd980fdf304c19","0","2025-07-30T09:29:25.051Z","","","","AttribQ","","","","","","","","","","","50","","","","","","","","","","","","","","","","","","","","","","","","","","",""
"3018","","<div style=""width:500px;"">
  <p>How much control did you have over the ball?</p>
  </div>","46","html-slider-response","70","1016249","0.0-7.0-2.11","78","1","2025-07-30 09:12:28","36c45c0696341be0efffe67d72a12abb","41.114.159.88","Mozilla/5.0 (Windows NT 10.0; Win64; x64) AppleWebKit/537.36 (KHTML, like Gecko) Chrome/138.0.0.0 Safari/537.36","WebKit","Chrome","138.0.0.0","Windows","10.0","https://app.prolific.com/","en-US,en;q=0.9","665f10dc49cd980fdf304c19","683dba9a53627eb9ab41b36a","6889e1be55c49e88fa4d5137","0","665f10dc49cd980fdf304c19","0","2025-07-30T09:29:28.072Z","","","","ControlQ","","","","","","","","","","","50","","","","","","","","","","","","","","","","","","","","","","","","","","",""
"19145","","<div style=""width:500px;"">
  <p>How would you describe your current emotional state?</p>
  </div>","44","html-slider-response","71","1035396","0.0-7.0-3.11","78","1","2025-07-30 09:12:28","36c45c0696341be0efffe67d72a12abb","41.114.159.88","Mozilla/5.0 (Windows NT 10.0; Win64; x64) AppleWebKit/537.36 (KHTML, like Gecko) Chrome/138.0.0.0 Safari/537.36","WebKit","Chrome","138.0.0.0","Windows","10.0","https://app.prolific.com/","en-US,en;q=0.9","665f10dc49cd980fdf304c19","683dba9a53627eb9ab41b36a","6889e1be55c49e88fa4d5137","0","665f10dc49cd980fdf304c19","0","2025-07-30T09:29:47.219Z","","","","StressQ","","","","","","","","","","","50","","","","","","","","","","","","","","","","","","","","","","","","","","",""
"5370","","<div style=""width:500px;"">
  <p>What best describes how you currently feel?</p>
  </div>","75","html-slider-response","72","1040768","0.0-7.0-4.11","78","1","2025-07-30 09:12:28","36c45c0696341be0efffe67d72a12abb","41.114.159.88","Mozilla/5.0 (Windows NT 10.0; Win64; x64) AppleWebKit/537.36 (KHTML, like Gecko) Chrome/138.0.0.0 Safari/537.36","WebKit","Chrome","138.0.0.0","Windows","10.0","https://app.prolific.com/","en-US,en;q=0.9","665f10dc49cd980fdf304c19","683dba9a53627eb9ab41b36a","6889e1be55c49e88fa4d5137","0","665f10dc49cd980fdf304c19","0","2025-07-30T09:29:52.591Z","","","","MotivationQ","","","","","","","","","","","50","","","","","","","","","","","","","","","","","","","","","","","","","","",""
"","","","","ctl-task-cpt","73","1068061","0.0-7.0-0.12","78","1","2025-07-30 09:12:28","36c45c0696341be0efffe67d72a12abb","41.114.159.88","Mozilla/5.0 (Windows NT 10.0; Win64; x64) AppleWebKit/537.36 (KHTML, like Gecko) Chrome/138.0.0.0 Safari/537.36","WebKit","Chrome","138.0.0.0","Windows","10.0","https://app.prolific.com/","en-US,en;q=0.9","665f10dc49cd980fdf304c19","683dba9a53627eb9ab41b36a","6889e1be55c49e88fa4d5137","0","665f10dc49cd980fdf304c19","0","2025-07-30T09:30:19.883Z","","","","","","","","","","","","","","","","win-only","0","g1:NW,g2:SE","0.8","13","0","1044509.9","6071.7","11075.2","24251.6","1","4","8","6","1","1","1","18","17","0.13636363636363635","2236","3000","2205","[""left"",""up""]","{""num_key_presses"":4,""num_perfect"":4,""num_errors"":0,""num_randdir"":0,""num_randdir_good_moves"":0,""num_whilered"":0,""num_whileblue"":0,""num_blue"":0,""num_good_moves"":4}","[413.57142857142856,425.1808016640799,0.3,413.57142857142856,425.1808016640799,103.5,413.57142857142856,425.1808016640799,215.6,413.57142857142856,425.1808016640799,321.5,413.57142857142856,425.1808016640799,423,413.57142857142856,425.1808016640799,534.7,413.57142857142856,425.1808016640799,643.8,413.57142857142856,425.1808016640799,750,413.57142857142856,425.1808016640799,855.5,413.57142857142856,425.1808016640799,960,413.57142857142856,425.1808016640799,1069.2,413.57142857142856,425.1808016640799,1170.1,221.57142857142856,227.18080166407992,1276.1,131.57142857142856,159.68080166407992,1379.6,131.57142857142856,159.68080166407992,1481.4,131.57142857142856,159.68080166407992,1585.8,-13.92857142857143,63.68080166407994,1694.7,-3.4285714285714306,74.18080166407994,1804.6,19.07142857142857,41.18080166407994,1906.1,44.57142857142857,44.18080166407994,2013.6,44.57142857142857,44.18080166407994,2123.8,44.57142857142857,44.18080166407994,2234,44.57142857142857,44.18080166407994,2337.3,44.57142857142857,44.18080166407994,2439.5,44.57142857142857,44.18080166407994,2540.4,44.57142857142857,44.18080166407994,2641.6,44.57142857142857,44.18080166407994,2744.1,44.57142857142857,44.18080166407994,2853.9,44.57142857142857,44.18080166407994,2960.5,44.57142857142857,44.18080166407994,3065.7,44.57142857142857,44.18080166407994,3175.5,44.57142857142857,44.18080166407994,3284.5,44.57142857142857,44.18080166407994,3399,44.57142857142857,44.18080166407994,3499.6,44.57142857142857,44.18080166407994,3604.3,44.57142857142857,44.18080166407994,3715.5,44.57142857142857,44.18080166407994,3823.4,44.57142857142857,44.18080166407994,3929.6,44.57142857142857,44.18080166407994,4048.8,44.57142857142857,44.18080166407994,4157.7,44.57142857142857,44.18080166407994,4269.6,44.57142857142857,44.18080166407994,4383.6,44.57142857142857,44.18080166407994,4490.6,44.57142857142857,44.18080166407994,4595.4,44.57142857142857,44.18080166407994,4700,44.57142857142857,44.18080166407994,4805.9,44.57142857142857,44.18080166407994,4908.1]","[1635.2,1635.2,1000,0,635.2,""smooth"",""left"",""left"",""good_move"",5272.5,3637,2671.4,1635.5,965.6,""smooth"",""left"",""left"",""good_move"",8564.5,3291.7,1990.3,5272.8,1301.4,""smooth"",""up"",""up"",""good_move"",12805.2,4240.4,2937.2,8564.8,1303.2,""smooth"",""up"",""up"",""good_move""]"
"6381","","<div style=""width:500px;"">
  <p>What determined the result of this run?</p>
  </div>","79","html-slider-response","74","1074445","0.0-7.0-1.12","78","1","2025-07-30 09:12:28","36c45c0696341be0efffe67d72a12abb","41.114.159.88","Mozilla/5.0 (Windows NT 10.0; Win64; x64) AppleWebKit/537.36 (KHTML, like Gecko) Chrome/138.0.0.0 Safari/537.36","WebKit","Chrome","138.0.0.0","Windows","10.0","https://app.prolific.com/","en-US,en;q=0.9","665f10dc49cd980fdf304c19","683dba9a53627eb9ab41b36a","6889e1be55c49e88fa4d5137","0","665f10dc49cd980fdf304c19","0","2025-07-30T09:30:26.267Z","","","","AttribQ","","","","","","","","","","","50","","","","","","","","","","","","","","","","","","","","","","","","","","",""
"3997","","<div style=""width:500px;"">
  <p>How much control did you have over the ball?</p>
  </div>","68","html-slider-response","75","1078444","0.0-7.0-2.12","78","1","2025-07-30 09:12:28","36c45c0696341be0efffe67d72a12abb","41.114.159.88","Mozilla/5.0 (Windows NT 10.0; Win64; x64) AppleWebKit/537.36 (KHTML, like Gecko) Chrome/138.0.0.0 Safari/537.36","WebKit","Chrome","138.0.0.0","Windows","10.0","https://app.prolific.com/","en-US,en;q=0.9","665f10dc49cd980fdf304c19","683dba9a53627eb9ab41b36a","6889e1be55c49e88fa4d5137","0","665f10dc49cd980fdf304c19","0","2025-07-30T09:30:30.266Z","","","","ControlQ","","","","","","","","","","","50","","","","","","","","","","","","","","","","","","","","","","","","","","",""
"4900","","<div style=""width:500px;"">
  <p>How would you describe your current emotional state?</p>
  </div>","44","html-slider-response","76","1083347","0.0-7.0-3.12","78","1","2025-07-30 09:12:28","36c45c0696341be0efffe67d72a12abb","41.114.159.88","Mozilla/5.0 (Windows NT 10.0; Win64; x64) AppleWebKit/537.36 (KHTML, like Gecko) Chrome/138.0.0.0 Safari/537.36","WebKit","Chrome","138.0.0.0","Windows","10.0","https://app.prolific.com/","en-US,en;q=0.9","665f10dc49cd980fdf304c19","683dba9a53627eb9ab41b36a","6889e1be55c49e88fa4d5137","0","665f10dc49cd980fdf304c19","0","2025-07-30T09:30:35.169Z","","","","StressQ","","","","","","","","","","","50","","","","","","","","","","","","","","","","","","","","","","","","","","",""
"5002","","<div style=""width:500px;"">
  <p>What best describes how you currently feel?</p>
  </div>","76","html-slider-response","77","1088350","0.0-7.0-4.12","78","1","2025-07-30 09:12:28","36c45c0696341be0efffe67d72a12abb","41.114.159.88","Mozilla/5.0 (Windows NT 10.0; Win64; x64) AppleWebKit/537.36 (KHTML, like Gecko) Chrome/138.0.0.0 Safari/537.36","WebKit","Chrome","138.0.0.0","Windows","10.0","https://app.prolific.com/","en-US,en;q=0.9","665f10dc49cd980fdf304c19","683dba9a53627eb9ab41b36a","6889e1be55c49e88fa4d5137","0","665f10dc49cd980fdf304c19","0","2025-07-30T09:30:40.172Z","","","","MotivationQ","","","","","","","","","","","50","","","","","","","","","","","","","","","","","","","","","","","","","","",""
"","","","","ctl-task-cpt","78","1136003","0.0-7.0-0.13","78","1","2025-07-30 09:12:28","36c45c0696341be0efffe67d72a12abb","41.114.159.88","Mozilla/5.0 (Windows NT 10.0; Win64; x64) AppleWebKit/537.36 (KHTML, like Gecko) Chrome/138.0.0.0 Safari/537.36","WebKit","Chrome","138.0.0.0","Windows","10.0","https://app.prolific.com/","en-US,en;q=0.9","665f10dc49cd980fdf304c19","683dba9a53627eb9ab41b36a","6889e1be55c49e88fa4d5137","0","665f10dc49cd980fdf304c19","0","2025-07-30T09:31:27.825Z","","","","","","","","","","","","","","","","win-only","1","g1:NE,g2:SW","0.9","14","0","1092089.4","8357.8","13361.3","44630.9","1","4","4","6","1","1","1","19","18","0.14393939393939395","2244.4","3000","1800","[""up"",""right""]","{""num_key_presses"":6,""num_perfect"":5,""num_errors"":0,""num_randdir"":1,""num_randdir_good_moves"":0,""num_whilered"":0,""num_whileblue"":0,""num_blue"":3,""num_good_moves"":5}","[412.07142857142856,410.1808016640799,0.3,412.07142857142856,410.1808016640799,108.8,412.07142857142856,410.1808016640799,211.3,412.07142857142856,410.1808016640799,322.1,412.07142857142856,410.1808016640799,440.5,412.07142857142856,410.1808016640799,548.8,412.07142857142856,410.1808016640799,654.3,412.07142857142856,410.1808016640799,755.5,412.07142857142856,410.1808016640799,859.9,412.07142857142856,410.1808016640799,961.1,412.07142857142856,410.1808016640799,1074,412.07142857142856,410.1808016640799,1198.6,412.07142857142856,410.1808016640799,1310.7,412.07142857142856,410.1808016640799,1417.1,749.5714285714286,68.18080166407994,1518.9,809.5714285714286,-9.819198335920063,1619.9,814.0714285714286,-21.819198335920063,1728.4,800.5714285714286,5.180801664079937,1832.7,794.5714285714286,17.180801664079937,1945.8,788.5714285714286,35.18080166407994,2050.9,788.5714285714286,35.18080166407994,2154.4,788.5714285714286,35.18080166407994,2261.3,788.5714285714286,35.18080166407994,2371.3,788.5714285714286,35.18080166407994,2480.4,788.5714285714286,35.18080166407994,2589.1,788.5714285714286,35.18080166407994,2697,788.5714285714286,35.18080166407994,2809.5,788.5714285714286,35.18080166407994,2916,788.5714285714286,35.18080166407994,3024.8,788.5714285714286,35.18080166407994,3131,788.5714285714286,35.18080166407994,3244,788.5714285714286,35.18080166407994,3359.2,788.5714285714286,35.18080166407994,3461.3,788.5714285714286,35.18080166407994,3574.1,788.5714285714286,35.18080166407994,3680.7,788.5714285714286,35.18080166407994,3784.5,788.5714285714286,35.18080166407994,3899.6,788.5714285714286,35.18080166407994,4003.4,788.5714285714286,35.18080166407994,4114.3,788.5714285714286,35.18080166407994,4224.4,788.5714285714286,35.18080166407994,4327.2,788.5714285714286,35.18080166407994,4432.9,788.5714285714286,35.18080166407994,4539.9,788.5714285714286,35.18080166407994,4649,788.5714285714286,35.18080166407994,4760.3,788.5714285714286,35.18080166407994,4864.8,788.5714285714286,35.18080166407994,4981.2]","[4439.2,4439.2,1909.6,2021,508.6,""oops"",""up"",""down"",""bad_move"",7411.7,2972.1,2216.4,4439.6,755.7,""smooth"",""up"",""up"",""good_move"",12032,4620,3283,7412,1337,""smooth"",""up"",""up"",""good_move"",24080.2,12048,3022.5,20583.9,473.8,""smooth"",""up"",""up"",""good_move"",27799.5,3718.9,3010.3,24080.6,708.6,""smooth"",""right"",""right"",""good_move"",31088.5,3288.3,2784.8,27800.2,503.5,""smooth"",""right"",""right"",""good_move""]"
"6452","","<div style=""width:500px;"">
  <p>What determined the result of this run?</p>
