"rt","response_timestamp","stimulus","response","trial_type","trial_index","time_elapsed","internal_node_id","run_id","condition","recorded_at","source_code_version","ip","user_agent","device","browser","browser_version","platform","platform_version","referer","accept_language","PROLIFIC_PID","STUDY_ID","SESSION_ID","BATCH","prolific_id","batch","realtime","success","question_order","question_id","eventType","responses","item_order","radio_event_ids","radio_event_times","key_event_times","mouse_event_times","straightlining","zigzagging","honeypot","view_history","slider_start","which_type","canvas_config","goals_layout","control_level","trial_number","tutorial_trial_number","trial_start_time","phase1_start_time","phase2_start_time","phase3_start_time","goal_1_value","goal_1_distance","goal_2_value","goal_2_distance","goal_selected","outcome","outcome_total","participant_final_score","participant_initial_score","participant_final_score_prop","goal_choice_rt","allocated_time","allocated_time_remaining","goal_direction","counts","mouse_movements","key_presses"
"9632","1753867389928","<p style='font-size:40px;line-height:1.25'><strong>Welcome to the experiment!</strong></p><p style='font-size:1.1em;line-height:1.25'>Thank you for participanting in our experiment again! You will be asked to play the Dysfunctional Ball Game again. We will briefly recap the rules before we start.</p><p style='font-size:1.1em;line-height:1.25'>Press <strong>Next</strong> to continue.</p>","0","custom-html-button-response","0","9661","0.0-0.0","81","1","2025-07-30 09:22:55","36c45c0696341be0efffe67d72a12abb","41.13.194.124","Mozilla/5.0 (Windows NT 10.0; Win64; x64) AppleWebKit/537.36 (KHTML, like Gecko) Chrome/138.0.0.0 Safari/537.36","WebKit","Chrome","138.0.0.0","Windows","10.0","https://app.prolific.com/","en-US,en;q=0.9,xh;q=0.8","665f239f78bd39782ef04172","683dba9a53627eb9ab41b36a","6889e42b773590322744acfa","0","665f239f78bd39782ef04172","0","2025-07-30T09:23:09.954Z","","","","","","","","","","","","","","","","","","","","","","","","","","","","","","","","","","","","","","","","","",""
"6497","","","","fullscreen","1","17241","0.0-1.0","81","1","2025-07-30 09:22:55","36c45c0696341be0efffe67d72a12abb","41.13.194.124","Mozilla/5.0 (Windows NT 10.0; Win64; x64) AppleWebKit/537.36 (KHTML, like Gecko) Chrome/138.0.0.0 Safari/537.36","WebKit","Chrome","138.0.0.0","Windows","10.0","https://app.prolific.com/","en-US,en;q=0.9,xh;q=0.8","665f239f78bd39782ef04172","683dba9a53627eb9ab41b36a","6889e42b773590322744acfa","0","665f239f78bd39782ef04172","0","","true","","","","","","","","","","","","","","","","","","","","","","","","","","","","","","","","","","","","","","","","",""
"113075","1753867510614"," <p style='font-size:1.1em;line-height:1.25'>Thank you for closing all other tabs.</p><p style='font-size:1.1em;line-height:1.25'>We will now invite you to fill in some questionnaires, before starting the game.<br>This will take about 5 minutes.<br></p><p style='font-size:1.1em;line-height:1.25'>Press the <strong>Next</strong> button to continue.</p>","0","custom-html-button-response","2","130323","0.0-2.0","81","1","2025-07-30 09:22:55","36c45c0696341be0efffe67d72a12abb","41.13.194.124","Mozilla/5.0 (Windows NT 10.0; Win64; x64) AppleWebKit/537.36 (KHTML, like Gecko) Chrome/138.0.0.0 Safari/537.36","WebKit","Chrome","138.0.0.0","Windows","10.0","https://app.prolific.com/","en-US,en;q=0.9,xh;q=0.8","665f239f78bd39782ef04172","683dba9a53627eb9ab41b36a","6889e42b773590322744acfa","0","665f239f78bd39782ef04172","0","2025-07-30T09:25:10.615Z","","","","","","","","","","","","","","","","","","","","","","","","","","","","","","","","","","","","","","","","","",""
"6650","","","{""assigned_sex"":""female""}","survey-multi-choice","3","136983","0.0-3.0-0.0","81","1","2025-07-30 09:22:55","36c45c0696341be0efffe67d72a12abb","41.13.194.124","Mozilla/5.0 (Windows NT 10.0; Win64; x64) AppleWebKit/537.36 (KHTML, like Gecko) Chrome/138.0.0.0 Safari/537.36","WebKit","Chrome","138.0.0.0","Windows","10.0","https://app.prolific.com/","en-US,en;q=0.9,xh;q=0.8","665f239f78bd39782ef04172","683dba9a53627eb9ab41b36a","6889e42b773590322744acfa","0","665f239f78bd39782ef04172","0","","","[0]","0","demographics","","","","","","","","","","","","","","","","","","","","","","","","","","","","","","","","","","","","","",""
"18002","1753867535278","<p style='font-size:1.1em;line-height:1.25'>In the following, we will perform a baseline assessment. This means that we will ask you a few questions relating to your experiences over the past month.<br></p><p style='font-size:1.1em;line-height:1.25'>Press the <strong>Next</strong> button to continue.</p>","0","custom-html-button-response","4","154987","0.0-4.0-0.0","81","1","2025-07-30 09:22:55","36c45c0696341be0efffe67d72a12abb","41.13.194.124","Mozilla/5.0 (Windows NT 10.0; Win64; x64) AppleWebKit/537.36 (KHTML, like Gecko) Chrome/138.0.0.0 Safari/537.36","WebKit","Chrome","138.0.0.0","Windows","10.0","https://app.prolific.com/","en-US,en;q=0.9,xh;q=0.8","665f239f78bd39782ef04172","683dba9a53627eb9ab41b36a","6889e42b773590322744acfa","0","665f239f78bd39782ef04172","0","2025-07-30T09:25:35.279Z","","","","","","","","","","","","","","","","","","","","","","","","","","","","","","","","","","","","","","","","","",""
"84432.09999999998","","","","survey-template","5","239428","0.0-4.0-1.0","81","1","2025-07-30 09:22:55","36c45c0696341be0efffe67d72a12abb","41.13.194.124","Mozilla/5.0 (Windows NT 10.0; Win64; x64) AppleWebKit/537.36 (KHTML, like Gecko) Chrome/138.0.0.0 Safari/537.36","WebKit","Chrome","138.0.0.0","Windows","10.0","https://app.prolific.com/","en-US,en;q=0.9,xh;q=0.8","665f239f78bd39782ef04172","683dba9a53627eb9ab41b36a","6889e42b773590322744acfa","0","665f239f78bd39782ef04172","0","2025-07-30T09:26:59.720Z","","","","pss","{""Q01"":""2"",""Q02"":""2"",""Q03"":""3"",""Q04"":""1"",""Q05"":""2"",""Q06"":""2"",""Q07"":""1"",""Q08"":""2"",""Q09"":""1"",""Q10"":""1""}","[0,1,2,3,4,5,6,7,8,9]","[""Q01"",""Q02"",""Q03"",""Q04"",""Q05"",""Q06"",""Q07"",""Q08"",""Q09"",""Q10""]","[11643.099999999977,18177.79999999999,23118.20000000001,43048,48120.5,56331.09999999998,64030.70000000001,68789.90000000002,79234.20000000001,83178.40000000002]","[]","[2.900000000023283,11643.099999999977,18177.79999999999,22062.400000000023,23118.20000000001,43048,48120.5,56331.09999999998,62196,64030.70000000001,68789.90000000002,76371.29999999999,79234.20000000001,83178.40000000002,84425.70000000001]","0.5","0.5555555555555556","0","","","","","","","","","","","","","","","","","","","","","","","","","","","","",""
"70965","1753867690689","<p style='font-size:1.1em;line-height:1.25'>Thank you for your answers! Now we will ask you a few more questions relating to your feelings in the last 24 hours.<br></p><p style='font-size:1.1em;line-height:1.25'>Press the <strong>Next</strong> button to continue.</p>","0","custom-html-button-response","6","310398","0.0-4.0-2.0","81","1","2025-07-30 09:22:55","36c45c0696341be0efffe67d72a12abb","41.13.194.124","Mozilla/5.0 (Windows NT 10.0; Win64; x64) AppleWebKit/537.36 (KHTML, like Gecko) Chrome/138.0.0.0 Safari/537.36","WebKit","Chrome","138.0.0.0","Windows","10.0","https://app.prolific.com/","en-US,en;q=0.9,xh;q=0.8","665f239f78bd39782ef04172","683dba9a53627eb9ab41b36a","6889e42b773590322744acfa","0","665f239f78bd39782ef04172","0","2025-07-30T09:28:10.691Z","","","","","","","","","","","","","","","","","","","","","","","","","","","","","","","","","","","","","","","","","",""
"85158.80000000005","","","","survey-template","7","395566","0.0-4.0-3.0","81","1","2025-07-30 09:22:55","36c45c0696341be0efffe67d72a12abb","41.13.194.124","Mozilla/5.0 (Windows NT 10.0; Win64; x64) AppleWebKit/537.36 (KHTML, like Gecko) Chrome/138.0.0.0 Safari/537.36","WebKit","Chrome","138.0.0.0","Windows","10.0","https://app.prolific.com/","en-US,en;q=0.9,xh;q=0.8","665f239f78bd39782ef04172","683dba9a53627eb9ab41b36a","6889e42b773590322744acfa","0","665f239f78bd39782ef04172","0","2025-07-30T09:29:35.858Z","","","","drsp","{""Q01"":""1"",""Q02"":""1"",""Q03"":""1"",""Q04"":""1"",""Q05"":""2"",""Q06"":""1"",""Q07"":""1"",""Q08"":""0"",""Q09"":""1"",""Q10"":""2"",""Q11"":""1"",""Q12"":""2"",""Q13"":""5"",""Q14"":""3"",""Q15"":""4"",""Q16"":""4"",""Q17"":""1"",""Q18"":""0"",""Q19"":""1"",""Q20"":""1"",""Q21"":""1"",""Q22"":""1""}","[0,1,2,3,4,5,6,7,8,9,10,11,12,13,14,15,16,17,18,19,20,21]","[""Q01"",""Q02"",""Q04"",""Q03"",""Q05"",""Q06"",""Q07"",""Q08"",""Q09"",""Q10"",""Q11"",""Q12"",""Q13"",""Q14"",""Q15"",""Q16"",""Q16"",""Q16"",""Q17"",""Q18"",""Q19"",""Q19"",""Q20"",""Q21"",""Q22""]","[3845.8000000000466,5273.800000000047,10743.300000000047,12007.300000000047,14949.599999999977,19345.20000000007,22138.300000000047,24440.599999999977,31886.5,33970.80000000005,36550.40000000002,38687.59999999998,41474.40000000002,44718.59999999998,48392.80000000005,51900.40000000002,55866.59999999998,59192.30000000005,62275.70000000007,65210.80000000005,70219,71374.5,76919.40000000002,78336.70000000007,79881.20000000007]","[]","[0.30000000004656613,3845.8000000000466,5273.800000000047,7258.300000000047,10743.300000000047,12007.300000000047,14949.599999999977,17077.20000000007,19345.20000000007,22138.300000000047,24440.599999999977,31886.5,33970.80000000005,36550.40000000002,38687.59999999998,41474.40000000002,44718.59999999998,48392.80000000005,51900.40000000002,55866.59999999998,57624.5,59192.30000000005,60858.40000000002,62275.70000000007,65210.80000000005,70219,71374.5,76919.40000000002,78336.70000000007,79881.20000000007,85151]","0.5909090909090909","0.47619047619047616","0","","","","","","","","","","","","","","","","","","","","","","","","","","","","",""
"111399.29999999993","","","","survey-template","8","506969","0.0-4.0-4.0","81","1","2025-07-30 09:22:55","36c45c0696341be0efffe67d72a12abb","41.13.194.124","Mozilla/5.0 (Windows NT 10.0; Win64; x64) AppleWebKit/537.36 (KHTML, like Gecko) Chrome/138.0.0.0 Safari/537.36","WebKit","Chrome","138.0.0.0","Windows","10.0","https://app.prolific.com/","en-US,en;q=0.9,xh;q=0.8","665f239f78bd39782ef04172","683dba9a53627eb9ab41b36a","6889e42b773590322744acfa","0","665f239f78bd39782ef04172","0","2025-07-30T09:31:27.262Z","","","","stress","{""Q01"":""1"",""Q02"":""1"",""Q03"":""4""}","[0,1,2]","[""Q01"",""Q02"",""Q03""]","[92065.29999999993,96537,110162.69999999995]","[]","[92065.29999999993,96537,110162.69999999995,111397.29999999993]","0.6666666666666666","0","0","","","","","","","","","","","","","","","","","","","","","","","","","","","","",""
"81549","","","","instructions","9","588520","0.0-5.0-0.0","81","1","2025-07-30 09:22:55","36c45c0696341be0efffe67d72a12abb","41.13.194.124","Mozilla/5.0 (Windows NT 10.0; Win64; x64) AppleWebKit/537.36 (KHTML, like Gecko) Chrome/138.0.0.0 Safari/537.36","WebKit","Chrome","138.0.0.0","Windows","10.0","https://app.prolific.com/","en-US,en;q=0.9,xh;q=0.8","665f239f78bd39782ef04172","683dba9a53627eb9ab41b36a","6889e42b773590322744acfa","0","665f239f78bd39782ef04172","0","","","","","","","","","","","","","","","[{""page_index"":0,""viewing_time"":81547}]","","","","","","","","","","","","","","","","","","","","","","","","","","","",""
"33746","","<p>Before you start with this game please answer the following three questions yourself. </p>
  <p>Through this game, we measure several aspects of your cognitive performance, such as reaction times, multi-tasking capabilities </p>
  <p>and the ability to assess the situation you are in.</p>
  <p></p>
  <p><b>How good do you usually are in such tasks?</b></p>","73","html-slider-response","10","622273","0.0-6.0-0.0","81","1","2025-07-30 09:22:55","36c45c0696341be0efffe67d72a12abb","41.13.194.124","Mozilla/5.0 (Windows NT 10.0; Win64; x64) AppleWebKit/537.36 (KHTML, like Gecko) Chrome/138.0.0.0 Safari/537.36","WebKit","Chrome","138.0.0.0","Windows","10.0","https://app.prolific.com/","en-US,en;q=0.9,xh;q=0.8","665f239f78bd39782ef04172","683dba9a53627eb9ab41b36a","6889e42b773590322744acfa","0","665f239f78bd39782ef04172","0","2025-07-30T09:33:22.565Z","","","","PreSkillQ","","","","","","","","","","","50","","","","","","","","","","","","","","","","","","","","","","","","","","",""
"5760","","<div style=""width:500px;"">
  <p>How well do you think you will perform in this task compared to other participants?</p>
  </div>","100","html-slider-response","11","628036","0.0-6.0-1.0","81","1","2025-07-30 09:22:55","36c45c0696341be0efffe67d72a12abb","41.13.194.124","Mozilla/5.0 (Windows NT 10.0; Win64; x64) AppleWebKit/537.36 (KHTML, like Gecko) Chrome/138.0.0.0 Safari/537.36","WebKit","Chrome","138.0.0.0","Windows","10.0","https://app.prolific.com/","en-US,en;q=0.9,xh;q=0.8","665f239f78bd39782ef04172","683dba9a53627eb9ab41b36a","6889e42b773590322744acfa","0","665f239f78bd39782ef04172","0","2025-07-30T09:33:28.328Z","","","","PrePerfQ","","","","","","","","","","","50","","","","","","","","","","","","","","","","","","","","","","","","","","",""
"3555","","<div style=""width:500px;"">
  <p>What best describes how you currently feel?</p>
  </div>","100","html-slider-response","12","631593","0.0-6.0-2.0","81","1","2025-07-30 09:22:55","36c45c0696341be0efffe67d72a12abb","41.13.194.124","Mozilla/5.0 (Windows NT 10.0; Win64; x64) AppleWebKit/537.36 (KHTML, like Gecko) Chrome/138.0.0.0 Safari/537.36","WebKit","Chrome","138.0.0.0","Windows","10.0","https://app.prolific.com/","en-US,en;q=0.9,xh;q=0.8","665f239f78bd39782ef04172","683dba9a53627eb9ab41b36a","6889e42b773590322744acfa","0","665f239f78bd39782ef04172","0","2025-07-30T09:33:31.885Z","","","","PreMotivationQ","","","","","","","","","","","50","","","","","","","","","","","","","","","","","","","","","","","","","","",""
"","","","","ctl-task-cpt","13","690967","0.0-7.0-0.0","81","1","2025-07-30 09:22:55","36c45c0696341be0efffe67d72a12abb","41.13.194.124","Mozilla/5.0 (Windows NT 10.0; Win64; x64) AppleWebKit/537.36 (KHTML, like Gecko) Chrome/138.0.0.0 Safari/537.36","WebKit","Chrome","138.0.0.0","Windows","10.0","https://app.prolific.com/","en-US,en;q=0.9,xh;q=0.8","665f239f78bd39782ef04172","683dba9a53627eb9ab41b36a","6889e42b773590322744acfa","0","665f239f78bd39782ef04172","0","2025-07-30T09:34:31.259Z","","","","","","","","","","","","","","","","win-only","3","g1:SW,g2:NE","1","1","0","635452.6","34116.7","39119.1","56355.9","1","4","4","6","2","4","3","3","0","0.022727272727272728","1438.3","3000","445","[""up"",""right""]","{""num_key_presses"":6,""num_perfect"":5,""num_errors"":1,""num_randdir"":0,""num_randdir_good_moves"":0,""num_whilered"":0,""num_whileblue"":1,""num_blue"":1,""num_good_moves"":6}","[297.22232142857143,293.12857142857143,2.8,297.22232142857143,293.12857142857143,104,297.22232142857143,293.12857142857143,209.1,297.22232142857143,293.12857142857143,316.3,297.22232142857143,293.12857142857143,416.9,297.22232142857143,293.12857142857143,518.5,297.22232142857143,293.12857142857143,625.6,394.22232142857143,188.12857142857143,725.8,523.2223214285714,33.128571428571426,835.3,548.2223214285714,16.128571428571426,938.5,565.2223214285714,9.128571428571426,1040.9,567.2223214285714,32.128571428571426,1143.9,561.2223214285714,44.128571428571426,1245.9,560.2223214285714,44.128571428571426,1345.9,560.2223214285714,44.128571428571426,1460.6,560.2223214285714,44.128571428571426,1566,560.2223214285714,44.128571428571426,1667.7,560.2223214285714,44.128571428571426,1768.5,560.2223214285714,44.128571428571426,1869,560.2223214285714,44.128571428571426,1972.3,582.2223214285714,66.12857142857143,2074.1,729.2223214285714,135.12857142857143,2178,845.2223214285714,182.12857142857143,2284,845.2223214285714,182.12857142857143,2384.4,845.2223214285714,182.12857142857143,2495.4,845.2223214285714,182.12857142857143,2595.4,845.2223214285714,182.12857142857143,2699.7,845.2223214285714,182.12857142857143,2800.5,845.2223214285714,182.12857142857143,2905.5,845.2223214285714,182.12857142857143,3016.1,845.2223214285714,182.12857142857143,3117.9,845.2223214285714,182.12857142857143,3217.9,845.2223214285714,182.12857142857143,3325.5,845.2223214285714,182.12857142857143,3426,845.2223214285714,182.12857142857143,3535.4,845.2223214285714,182.12857142857143,3645.7,845.2223214285714,182.12857142857143,3749.9,845.2223214285714,182.12857142857143,3850.5,845.2223214285714,182.12857142857143,3950.8,845.2223214285714,182.12857142857143,4051.5,845.2223214285714,182.12857142857143,4154.9,845.2223214285714,182.12857142857143,4255.6,845.2223214285714,182.12857142857143,4355.7,845.2223214285714,182.12857142857143,4455.7,845.2223214285714,182.12857142857143,4555.8,845.2223214285714,182.12857142857143,4658.1,845.2223214285714,182.12857142857143,4765.9,845.2223214285714,182.12857142857143,4866,845.2223214285714,182.12857142857143,4970.2]","[3174.7,3174.7,1000,0,2174.7,""smooth"",""right"",""right"",""good_move"",6370.8,3195,2777.3,3176,417.5,""smooth"",""right"",""right"",""good_move"",9185.3,2814.3,2447.2,6371,367.1,""smooth"",""right"",""right"",""good_move"",12342.6,3156.6,2784.2,9186.1,372.3,""smooth"",""up"",""up"",""good_move"",15121.4,2775.9,2383,12345.5,392.9,""smooth"",""up"",""up"",""good_move"",17118.6,1996.7,1650.9,15122,345.7,""while_blue"",""up"",""up"",""good_move""]"
"85512","","<div style=""width:500px;"">
  <p>What determined the result of this run?</p>
  </div>","100","html-slider-response","14","776481","0.0-7.0-1.0","81","1","2025-07-30 09:22:55","36c45c0696341be0efffe67d72a12abb","41.13.194.124","Mozilla/5.0 (Windows NT 10.0; Win64; x64) AppleWebKit/537.36 (KHTML, like Gecko) Chrome/138.0.0.0 Safari/537.36","WebKit","Chrome","138.0.0.0","Windows","10.0","https://app.prolific.com/","en-US,en;q=0.9,xh;q=0.8","665f239f78bd39782ef04172","683dba9a53627eb9ab41b36a","6889e42b773590322744acfa","0","665f239f78bd39782ef04172","0","2025-07-30T09:35:56.774Z","","","","AttribQ","","","","","","","","","","","50","","","","","","","","","","","","","","","","","","","","","","","","","","",""
"26360","","<div style=""width:500px;"">
  <p>How much control did you have over the ball?</p>
  </div>","100","html-slider-response","15","802844","0.0-7.0-2.0","81","1","2025-07-30 09:22:55","36c45c0696341be0efffe67d72a12abb","41.13.194.124","Mozilla/5.0 (Windows NT 10.0; Win64; x64) AppleWebKit/537.36 (KHTML, like Gecko) Chrome/138.0.0.0 Safari/537.36","WebKit","Chrome","138.0.0.0","Windows","10.0","https://app.prolific.com/","en-US,en;q=0.9,xh;q=0.8","665f239f78bd39782ef04172","683dba9a53627eb9ab41b36a","6889e42b773590322744acfa","0","665f239f78bd39782ef04172","0","2025-07-30T09:36:23.136Z","","","","ControlQ","","","","","","","","","","","50","","","","","","","","","","","","","","","","","","","","","","","","","","",""
"7692","","<div style=""width:500px;"">
  <p>How would you describe your current emotional state?</p>
  </div>","0","html-slider-response","16","810538","0.0-7.0-3.0","81","1","2025-07-30 09:22:55","36c45c0696341be0efffe67d72a12abb","41.13.194.124","Mozilla/5.0 (Windows NT 10.0; Win64; x64) AppleWebKit/537.36 (KHTML, like Gecko) Chrome/138.0.0.0 Safari/537.36","WebKit","Chrome","138.0.0.0","Windows","10.0","https://app.prolific.com/","en-US,en;q=0.9,xh;q=0.8","665f239f78bd39782ef04172","683dba9a53627eb9ab41b36a","6889e42b773590322744acfa","0","665f239f78bd39782ef04172","0","2025-07-30T09:36:30.830Z","","","","StressQ","","","","","","","","","","","50","","","","","","","","","","","","","","","","","","","","","","","","","","",""
"9559","","<div style=""width:500px;"">
  <p>What best describes how you currently feel?</p>
  </div>","100","html-slider-response","17","820100","0.0-7.0-4.0","81","1","2025-07-30 09:22:55","36c45c0696341be0efffe67d72a12abb","41.13.194.124","Mozilla/5.0 (Windows NT 10.0; Win64; x64) AppleWebKit/537.36 (KHTML, like Gecko) Chrome/138.0.0.0 Safari/537.36","WebKit","Chrome","138.0.0.0","Windows","10.0","https://app.prolific.com/","en-US,en;q=0.9,xh;q=0.8","665f239f78bd39782ef04172","683dba9a53627eb9ab41b36a","6889e42b773590322744acfa","0","665f239f78bd39782ef04172","0","2025-07-30T09:36:40.392Z","","","","MotivationQ","","","","","","","","","","","50","","","","","","","","","","","","","","","","","","","","","","","","","","",""
"","","","","ctl-task-cpt","18","885898","0.0-7.0-0.1","81","1","2025-07-30 09:22:55","36c45c0696341be0efffe67d72a12abb","41.13.194.124","Mozilla/5.0 (Windows NT 10.0; Win64; x64) AppleWebKit/537.36 (KHTML, like Gecko) Chrome/138.0.0.0 Safari/537.36","WebKit","Chrome","138.0.0.0","Windows","10.0","https://app.prolific.com/","en-US,en;q=0.9,xh;q=0.8","665f239f78bd39782ef04172","683dba9a53627eb9ab41b36a","6889e42b773590322744acfa","0","665f239f78bd39782ef04172","0","2025-07-30T09:37:46.190Z","","","","","","","","","","","","","","","","win-only","1","g1:NE,g2:SW","0.9","2","0","823952.9","38864.3","43867.9","62775.7","1","4","8","6","2","8","8","11","3","0.08333333333333333","1715.8","3000","1140","[""down"",""left""]","{""num_key_presses"":6,""num_perfect"":6,""num_errors"":0,""num_randdir"":0,""num_randdir_good_moves"":0,""num_whilered"":0,""num_whileblue"":0,""num_blue"":1,""num_good_moves"":6}","[302.22232142857143,293.12857142857143,0.9,302.22232142857143,293.12857142857143,108.5,302.22232142857143,293.12857142857143,214.6,302.22232142857143,293.12857142857143,317.8,302.22232142857143,293.12857142857143,418.6,302.22232142857143,293.12857142857143,519.1,274.22232142857143,315.12857142857143,621.8,87.22232142857143,503.12857142857143,728.5,30.222321428571426,560.1285714285714,829.6,22.222321428571426,569.1285714285714,932.5,23.222321428571426,570.1285714285714,1034.6,23.222321428571426,570.1285714285714,1143.7,23.222321428571426,570.1285714285714,1252.9,40.222321428571426,556.1285714285714,1353.4,50.222321428571426,544.1285714285714,1458,51.222321428571426,541.1285714285714,1560,51.222321428571426,541.1285714285714,1663.2,51.222321428571426,541.1285714285714,1774.2,51.222321428571426,541.1285714285714,1880.4,51.222321428571426,541.1285714285714,1982.5,51.222321428571426,541.1285714285714,2091,51.222321428571426,541.1285714285714,2192.4,-29.777678571428574,547.1285714285714,2297.3,-141.77767857142857,524.1285714285714,2403.6,-141.77767857142857,524.1285714285714,2507.7,-141.77767857142857,524.1285714285714,2610.3,-141.77767857142857,524.1285714285714,2710.7,-141.77767857142857,524.1285714285714,2818.1,-141.77767857142857,524.1285714285714,2918.1,-141.77767857142857,524.1285714285714,3023.5,-141.77767857142857,524.1285714285714,3129.3,-141.77767857142857,524.1285714285714,3229.7,-141.77767857142857,524.1285714285714,3337.9,-141.77767857142857,524.1285714285714,3441,-141.77767857142857,524.1285714285714,3541.2,-141.77767857142857,524.1285714285714,3642.2,-141.77767857142857,524.1285714285714,3752.8,-141.77767857142857,524.1285714285714,3852.8,-141.77767857142857,524.1285714285714,3959.9,-141.77767857142857,524.1285714285714,4063.6,-141.77767857142857,524.1285714285714,4174.8,-141.77767857142857,524.1285714285714,4275,-141.77767857142857,524.1285714285714,4380.3,-141.77767857142857,524.1285714285714,4481.9,-141.77767857142857,524.1285714285714,4582.9,-141.77767857142857,524.1285714285714,4691.1,-141.77767857142857,524.1285714285714,4791.1,-141.77767857142857,524.1285714285714,4892.5]","[1432.2,1432.3,1000,0.1,432.2,""smooth"",""down"",""down"",""good_move"",4037.1,2604,2179,1433.4,424.8,""smooth"",""down"",""down"",""good_move"",6980.3,2940.9,2536.7,4039.4,404.2,""smooth"",""down"",""down"",""good_move"",12601.9,5620.8,1561.6,10528.4,511.9,""smooth"",""left"",""left"",""good_move"",15268.1,2654.3,2145.4,12613.9,508.8,""smooth"",""left"",""left"",""good_move"",18762.4,3493.3,3001.3,15269.1,492,""smooth"",""left"",""left"",""good_move""]"
"11784","","<div style=""width:500px;"">
  <p>What determined the result of this run?</p>
  </div>","99","html-slider-response","19","897685","0.0-7.0-1.1","81","1","2025-07-30 09:22:55","36c45c0696341be0efffe67d72a12abb","41.13.194.124","Mozilla/5.0 (Windows NT 10.0; Win64; x64) AppleWebKit/537.36 (KHTML, like Gecko) Chrome/138.0.0.0 Safari/537.36","WebKit","Chrome","138.0.0.0","Windows","10.0","https://app.prolific.com/","en-US,en;q=0.9,xh;q=0.8","665f239f78bd39782ef04172","683dba9a53627eb9ab41b36a","6889e42b773590322744acfa","0","665f239f78bd39782ef04172","0","2025-07-30T09:37:57.977Z","","","","AttribQ","","","","","","","","","","","50","","","","","","","","","","","","","","","","","","","","","","","","","","",""
"3841","","<div style=""width:500px;"">
  <p>How much control did you have over the ball?</p>
  </div>","100","html-slider-response","20","901530","0.0-7.0-2.1","81","1","2025-07-30 09:22:55","36c45c0696341be0efffe67d72a12abb","41.13.194.124","Mozilla/5.0 (Windows NT 10.0; Win64; x64) AppleWebKit/537.36 (KHTML, like Gecko) Chrome/138.0.0.0 Safari/537.36","WebKit","Chrome","138.0.0.0","Windows","10.0","https://app.prolific.com/","en-US,en;q=0.9,xh;q=0.8","665f239f78bd39782ef04172","683dba9a53627eb9ab41b36a","6889e42b773590322744acfa","0","665f239f78bd39782ef04172","0","2025-07-30T09:38:01.822Z","","","","ControlQ","","","","","","","","","","","50","","","","","","","","","","","","","","","","","","","","","","","","","","",""
"3871","","<div style=""width:500px;"">
  <p>How would you describe your current emotional state?</p>
  </div>","9","html-slider-response","21","905403","0.0-7.0-3.1","81","1","2025-07-30 09:22:55","36c45c0696341be0efffe67d72a12abb","41.13.194.124","Mozilla/5.0 (Windows NT 10.0; Win64; x64) AppleWebKit/537.36 (KHTML, like Gecko) Chrome/138.0.0.0 Safari/537.36","WebKit","Chrome","138.0.0.0","Windows","10.0","https://app.prolific.com/","en-US,en;q=0.9,xh;q=0.8","665f239f78bd39782ef04172","683dba9a53627eb9ab41b36a","6889e42b773590322744acfa","0","665f239f78bd39782ef04172","0","2025-07-30T09:38:05.695Z","","","","StressQ","","","","","","","","","","","50","","","","","","","","","","","","","","","","","","","","","","","","","","",""
"6423","","<div style=""width:500px;"">
  <p>What best describes how you currently feel?</p>
  </div>","100","html-slider-response","22","911828","0.0-7.0-4.1","81","1","2025-07-30 09:22:55","36c45c0696341be0efffe67d72a12abb","41.13.194.124","Mozilla/5.0 (Windows NT 10.0; Win64; x64) AppleWebKit/537.36 (KHTML, like Gecko) Chrome/138.0.0.0 Safari/537.36","WebKit","Chrome","138.0.0.0","Windows","10.0","https://app.prolific.com/","en-US,en;q=0.9,xh;q=0.8","665f239f78bd39782ef04172","683dba9a53627eb9ab41b36a","6889e42b773590322744acfa","0","665f239f78bd39782ef04172","0","2025-07-30T09:38:12.120Z","","","","MotivationQ","","","","","","","","","","","50","","","","","","","","","","","","","","","","","","","","","","","","","","",""
"","","","","ctl-task-cpt","23","965264","0.0-7.0-0.2","81","1","2025-07-30 09:22:55","36c45c0696341be0efffe67d72a12abb","41.13.194.124","Mozilla/5.0 (Windows NT 10.0; Win64; x64) AppleWebKit/537.36 (KHTML, like Gecko) Chrome/138.0.0.0 Safari/537.36","WebKit","Chrome","138.0.0.0","Windows","10.0","https://app.prolific.com/","en-US,en;q=0.9,xh;q=0.8","665f239f78bd39782ef04172","683dba9a53627eb9ab41b36a","6889e42b773590322744acfa","0","665f239f78bd39782ef04172","0","2025-07-30T09:39:05.556Z","","","","","","","","","","","","","","","","win-only","1","g1:NE,g2:SW","0.8","3","0","915680.1","6604.2","11607.2","50421.6","1","4","8","6","2","-8","-8","3","11","0.022727272727272728","1205.5","3000","-2220","[""down"",""left""]","{""num_key_presses"":9,""num_perfect"":7,""num_errors"":0,""num_randdir"":2,""num_randdir_good_moves"":0,""num_whilered"":0,""num_whileblue"":0,""num_blue"":3,""num_good_moves"":7}","[295.22232142857143,297.12857142857143,1.2,295.22232142857143,297.12857142857143,109.6,295.22232142857143,297.12857142857143,211.7,295.22232142857143,297.12857142857143,313.7,295.22232142857143,297.12857142857143,431.8,197.22232142857143,471.12857142857143,533.7,159.22232142857143,532.1285714285714,640,131.22232142857143,539.1285714285714,744.1,107.22232142857143,543.1285714285714,845.9,82.22232142857143,538.1285714285714,953.1,80.22232142857143,538.1285714285714,1057.3,80.22232142857143,538.1285714285714,1161.2,80.22232142857143,538.1285714285714,1261.6,80.22232142857143,538.1285714285714,1366,80.22232142857143,538.1285714285714,1474.9,80.22232142857143,538.1285714285714,1580.3,80.22232142857143,538.1285714285714,1693.4,80.22232142857143,538.1285714285714,1803.2,80.22232142857143,538.1285714285714,1907.6,145.22232142857143,524.1285714285714,2008.8,262.22232142857143,647.1285714285714,2109.9,284.22232142857143,683.1285714285714,2212.7,284.22232142857143,683.1285714285714,2321.3,284.22232142857143,683.1285714285714,2425,284.22232142857143,683.1285714285714,2530.5,284.22232142857143,683.1285714285714,2639.9,284.22232142857143,683.1285714285714,2742.2,284.22232142857143,683.1285714285714,2842.2,284.22232142857143,683.1285714285714,2945.9,284.22232142857143,683.1285714285714,3054.3,284.22232142857143,683.1285714285714,3162.5,284.22232142857143,683.1285714285714,3271.5,284.22232142857143,683.1285714285714,3372.2,284.22232142857143,683.1285714285714,3477.9,284.22232142857143,683.1285714285714,3578.9,284.22232142857143,683.1285714285714,3682.6,284.22232142857143,683.1285714285714,3789.8,284.22232142857143,683.1285714285714,3890.2,284.22232142857143,683.1285714285714,3990.2,284.22232142857143,683.1285714285714,4092.4,284.22232142857143,683.1285714285714,4197.9,284.22232142857143,683.1285714285714,4303.5,284.22232142857143,683.1285714285714,4409.3,284.22232142857143,683.1285714285714,4512.5,284.22232142857143,683.1285714285714,4621.3,284.22232142857143,683.1285714285714,4728.1,284.22232142857143,683.1285714285714,4840.2,284.22232142857143,683.1285714285714,4943.2]","[1512.8,1512.7,1000,0.1,512.7,""smooth"",""down"",""down"",""good_move"",4198.9,2685.7,2216.5,1513.2,469.2,""smooth"",""down"",""down"",""good_move"",7234,3033.9,2604,4200.1,429.9,""smooth"",""down"",""down"",""good_move"",9648.5,2413.7,2031.7,7234.9,381.9,""smooth"",""left"",""left"",""good_move"",12460.8,2811.2,2326.7,9649.6,484.5,""oops"",""left"",""right"",""bad_move"",19374.9,6913.2,3290.9,15639.4,444.6,""smooth"",""left"",""left"",""good_move"",29947.7,10572.3,2923.6,26460.1,564,""smooth"",""left"",""left"",""good_move"",32862.8,2914.7,2396,29948.1,518.7,""oops"",""left"",""up"",""bad_move"",35785.7,2921.5,2365.1,32864.2,556.4,""smooth"",""left"",""left"",""good_move""]"
"48330","","<div style=""width:500px;"">
  <p>What determined the result of this run?</p>
  </div>","100","html-slider-response","24","1013597","0.0-7.0-1.2","81","1","2025-07-30 09:22:55","36c45c0696341be0efffe67d72a12abb","41.13.194.124","Mozilla/5.0 (Windows NT 10.0; Win64; x64) AppleWebKit/537.36 (KHTML, like Gecko) Chrome/138.0.0.0 Safari/537.36","WebKit","Chrome","138.0.0.0","Windows","10.0","https://app.prolific.com/","en-US,en;q=0.9,xh;q=0.8","665f239f78bd39782ef04172","683dba9a53627eb9ab41b36a","6889e42b773590322744acfa","0","665f239f78bd39782ef04172","0","2025-07-30T09:39:53.889Z","","","","AttribQ","","","","","","","","","","","50","","","","","","","","","","","","","","","","","","","","","","","","","","",""
"5741","","<div style=""width:500px;"">
  <p>How much control did you have over the ball?</p>
  </div>","66","html-slider-response","25","1019341","0.0-7.0-2.2","81","1","2025-07-30 09:22:55","36c45c0696341be0efffe67d72a12abb","41.13.194.124","Mozilla/5.0 (Windows NT 10.0; Win64; x64) AppleWebKit/537.36 (KHTML, like Gecko) Chrome/138.0.0.0 Safari/537.36","WebKit","Chrome","138.0.0.0","Windows","10.0","https://app.prolific.com/","en-US,en;q=0.9,xh;q=0.8","665f239f78bd39782ef04172","683dba9a53627eb9ab41b36a","6889e42b773590322744acfa","0","665f239f78bd39782ef04172","0","2025-07-30T09:39:59.633Z","","","","ControlQ","","","","","","","","","","","50","","","","","","","","","","","","","","","","","","","","","","","","","","",""
"4350","","<div style=""width:500px;"">
  <p>How would you describe your current emotional state?</p>
  </div>","0","html-slider-response","26","1023694","0.0-7.0-3.2","81","1","2025-07-30 09:22:55","36c45c0696341be0efffe67d72a12abb","41.13.194.124","Mozilla/5.0 (Windows NT 10.0; Win64; x64) AppleWebKit/537.36 (KHTML, like Gecko) Chrome/138.0.0.0 Safari/537.36","WebKit","Chrome","138.0.0.0","Windows","10.0","https://app.prolific.com/","en-US,en;q=0.9,xh;q=0.8","665f239f78bd39782ef04172","683dba9a53627eb9ab41b36a","6889e42b773590322744acfa","0","665f239f78bd39782ef04172","0","2025-07-30T09:40:03.986Z","","","","StressQ","","","","","","","","","","","50","","","","","","","","","","","","","","","","","","","","","","","","","","",""
"5540","","<div style=""width:500px;"">
  <p>What best describes how you currently feel?</p>
  </div>","85","html-slider-response","27","1029236","0.0-7.0-4.2","81","1","2025-07-30 09:22:55","36c45c0696341be0efffe67d72a12abb","41.13.194.124","Mozilla/5.0 (Windows NT 10.0; Win64; x64) AppleWebKit/537.36 (KHTML, like Gecko) Chrome/138.0.0.0 Safari/537.36","WebKit","Chrome","138.0.0.0","Windows","10.0","https://app.prolific.com/","en-US,en;q=0.9,xh;q=0.8","665f239f78bd39782ef04172","683dba9a53627eb9ab41b36a","6889e42b773590322744acfa","0","665f239f78bd39782ef04172","0","2025-07-30T09:40:09.528Z","","","","MotivationQ","","","","","","","","","","","50","","","","","","","","","","","","","","","","","","","","","","","","","","",""
"","","","","ctl-task-cpt","28","1168310","0.0-7.0-0.3","81","1","2025-07-30 09:22:55","36c45c0696341be0efffe67d72a12abb","41.13.194.124","Mozilla/5.0 (Windows NT 10.0; Win64; x64) AppleWebKit/537.36 (KHTML, like Gecko) Chrome/138.0.0.0 Safari/537.36","WebKit","Chrome","138.0.0.0","Windows","10.0","https://app.prolific.com/","en-US,en;q=0.9,xh;q=0.8","665f239f78bd39782ef04172","683dba9a53627eb9ab41b36a","6889e42b773590322744acfa","0","665f239f78bd39782ef04172","0","2025-07-30T09:42:28.603Z","","","","","","","","","","","","","","","","win-only","1","g1:NE,g2:SW","0.7","4","0","1033088.3","109627.7","114634.9","136052.7","1","4","4","6","2","4","4","7","3","0.05303030303030303","1209.9","3000","690","[""down"",""left""]","{""num_key_presses"":6,""num_perfect"":5,""num_errors"":0,""num_randdir"":1,""num_randdir_good_moves"":1,""num_whilered"":0,""num_whileblue"":0,""num_blue"":1,""num_good_moves"":6}","[295.22232142857143,294.12857142857143,1.2,295.22232142857143,294.12857142857143,103,295.22232142857143,294.12857142857143,222.6,295.22232142857143,294.12857142857143,323.9,295.22232142857143,294.12857142857143,430.7,168.22232142857143,425.12857142857143,537.3,74.22232142857143,587.1285714285714,644.5,64.22232142857143,597.1285714285714,753.7,58.222321428571426,567.1285714285714,863.3,65.22232142857143,545.1285714285714,970.6,66.22232142857143,544.1285714285714,1085,66.22232142857143,544.1285714285714,1188.4,66.22232142857143,544.1285714285714,1289.7,66.22232142857143,544.1285714285714,1390,66.22232142857143,544.1285714285714,1495.2,66.22232142857143,544.1285714285714,1604.1,66.22232142857143,544.1285714285714,1704.3,-182.77767857142857,543.1285714285714,1813.4,-211.77767857142857,550.1285714285714,1914.3,-211.77767857142857,550.1285714285714,2023.7,-211.77767857142857,550.1285714285714,2137.4,-211.77767857142857,550.1285714285714,2243.5,-211.77767857142857,550.1285714285714,2344.1,-211.77767857142857,550.1285714285714,2444.3,-211.77767857142857,550.1285714285714,2554.9,-211.77767857142857,550.1285714285714,2658.5,-211.77767857142857,550.1285714285714,2763.4,-211.77767857142857,550.1285714285714,2864.5,-211.77767857142857,550.1285714285714,2974.8,-211.77767857142857,550.1285714285714,3078,-211.77767857142857,550.1285714285714,3180.2,-211.77767857142857,550.1285714285714,3287.6,-211.77767857142857,550.1285714285714,3405.2,-211.77767857142857,550.1285714285714,3505.3,-211.77767857142857,550.1285714285714,3612.8,-211.77767857142857,550.1285714285714,3713.1,-211.77767857142857,550.1285714285714,3825.2,-211.77767857142857,550.1285714285714,3929.7,-211.77767857142857,550.1285714285714,4030.3,-211.77767857142857,550.1285714285714,4136.6,-211.77767857142857,550.1285714285714,4240.6,-211.77767857142857,550.1285714285714,4348.6,-211.77767857142857,550.1285714285714,4459.8,-211.77767857142857,550.1285714285714,4562.7,-211.77767857142857,550.1285714285714,4663.1,-211.77767857142857,550.1285714285714,4763.7,-211.77767857142857,550.1285714285714,4875.1,-211.77767857142857,550.1285714285714,4977.7]","[2645.7,2645.7,1000,0,1645.8,""smooth"",""down"",""down"",""good_move"",6213.8,3565.8,3143.1,2648,422.7,""smooth"",""down"",""down"",""good_move"",11577.5,5363.4,1937,9262.3,378.2,""smooth"",""down"",""down"",""good_move"",14937.1,3358.8,2924.6,11578.3,434.2,""oops"",""left"",""left"",""good_move"",18062.9,3124.4,2678.4,14938.5,446,""smooth"",""left"",""left"",""good_move"",21283,3219.4,2784.9,18063.6,434.5,""smooth"",""left"",""left"",""good_move""]"
"55332","","<div style=""width:500px;"">
  <p>What determined the result of this run?</p>
  </div>","100","html-slider-response","29","1223645","0.0-7.0-1.3","81","1","2025-07-30 09:22:55","36c45c0696341be0efffe67d72a12abb","41.13.194.124","Mozilla/5.0 (Windows NT 10.0; Win64; x64) AppleWebKit/537.36 (KHTML, like Gecko) Chrome/138.0.0.0 Safari/537.36","WebKit","Chrome","138.0.0.0","Windows","10.0","https://app.prolific.com/","en-US,en;q=0.9,xh;q=0.8","665f239f78bd39782ef04172","683dba9a53627eb9ab41b36a","6889e42b773590322744acfa","0","665f239f78bd39782ef04172","0","2025-07-30T09:43:23.937Z","","","","AttribQ","","","","","","","","","","","50","","","","","","","","","","","","","","","","","","","","","","","","","","",""
"3737","","<div style=""width:500px;"">
  <p>How much control did you have over the ball?</p>
  </div>","76","html-slider-response","30","1227385","0.0-7.0-2.3","81","1","2025-07-30 09:22:55","36c45c0696341be0efffe67d72a12abb","41.13.194.124","Mozilla/5.0 (Windows NT 10.0; Win64; x64) AppleWebKit/537.36 (KHTML, like Gecko) Chrome/138.0.0.0 Safari/537.36","WebKit","Chrome","138.0.0.0","Windows","10.0","https://app.prolific.com/","en-US,en;q=0.9,xh;q=0.8","665f239f78bd39782ef04172","683dba9a53627eb9ab41b36a","6889e42b773590322744acfa","0","665f239f78bd39782ef04172","0","2025-07-30T09:43:27.677Z","","","","ControlQ","","","","","","","","","","","50","","","","","","","","","","","","","","","","","","","","","","","","","","",""
"3631","","<div style=""width:500px;"">
  <p>How would you describe your current emotional state?</p>
  </div>","14","html-slider-response","31","1231019","0.0-7.0-3.3","81","1","2025-07-30 09:22:55","36c45c0696341be0efffe67d72a12abb","41.13.194.124","Mozilla/5.0 (Windows NT 10.0; Win64; x64) AppleWebKit/537.36 (KHTML, like Gecko) Chrome/138.0.0.0 Safari/537.36","WebKit","Chrome","138.0.0.0","Windows","10.0","https://app.prolific.com/","en-US,en;q=0.9,xh;q=0.8","665f239f78bd39782ef04172","683dba9a53627eb9ab41b36a","6889e42b773590322744acfa","0","665f239f78bd39782ef04172","0","2025-07-30T09:43:31.311Z","","","","StressQ","","","","","","","","","","","50","","","","","","","","","","","","","","","","","","","","","","","","","","",""
"5850","","<div style=""width:500px;"">
  <p>What best describes how you currently feel?</p>
  </div>","100","html-slider-response","32","1236872","0.0-7.0-4.3","81","1","2025-07-30 09:22:55","36c45c0696341be0efffe67d72a12abb","41.13.194.124","Mozilla/5.0 (Windows NT 10.0; Win64; x64) AppleWebKit/537.36 (KHTML, like Gecko) Chrome/138.0.0.0 Safari/537.36","WebKit","Chrome","138.0.0.0","Windows","10.0","https://app.prolific.com/","en-US,en;q=0.9,xh;q=0.8","665f239f78bd39782ef04172","683dba9a53627eb9ab41b36a","6889e42b773590322744acfa","0","665f239f78bd39782ef04172","0","2025-07-30T09:43:37.164Z","","","","MotivationQ","","","","","","","","","","","50","","","","","","","","","","","","","","","","","","","","","","","","","","",""
"","","","","ctl-task-cpt","33","1287761","0.0-7.0-0.4","81","1","2025-07-30 09:22:55","36c45c0696341be0efffe67d72a12abb","41.13.194.124","Mozilla/5.0 (Windows NT 10.0; Win64; x64) AppleWebKit/537.36 (KHTML, like Gecko) Chrome/138.0.0.0 Safari/537.36","WebKit","Chrome","138.0.0.0","Windows","10.0","https://app.prolific.com/","en-US,en;q=0.9,xh;q=0.8","665f239f78bd39782ef04172","683dba9a53627eb9ab41b36a","6889e42b773590322744acfa","0","665f239f78bd39782ef04172","0","2025-07-30T09:44:28.053Z","","","","","","","","","","","","","","","","win-only","1","g1:NE,g2:SW","0.6","5","0","1240724","1224.8","6230.7","47864.9","1","4","8","6","2","-8","-9","0","7","0","1137","3000","-1870","[""down"",""left""]","{""num_key_presses"":12,""num_perfect"":6,""num_errors"":1,""num_randdir"":5,""num_randdir_good_moves"":0,""num_whilered"":0,""num_whileblue"":0,""num_blue"":2,""num_good_moves"":6}","[294.22232142857143,287.12857142857143,0.4,294.22232142857143,287.12857142857143,105.5,294.22232142857143,287.12857142857143,208.5,294.22232142857143,287.12857142857143,317.8,294.22232142857143,287.12857142857143,424,163.22232142857143,420.12857142857143,530.6,60.222321428571426,566.1285714285714,634.8,48.222321428571426,572.1285714285714,738.4,37.222321428571426,577.1285714285714,840.1,36.222321428571426,565.1285714285714,942.3,36.222321428571426,565.1285714285714,1049.5,36.222321428571426,565.1285714285714,1162,36.222321428571426,565.1285714285714,1264.8,36.222321428571426,565.1285714285714,1376.9,36.222321428571426,565.1285714285714,1478,36.222321428571426,565.1285714285714,1579.8,36.222321428571426,565.1285714285714,1680.9,-84.77767857142857,406.12857142857143,1782.2,-90.77767857142857,398.12857142857143,1891.9,-90.77767857142857,398.12857142857143,1996.4,-90.77767857142857,398.12857142857143,2097.9,-90.77767857142857,398.12857142857143,2198.8,-90.77767857142857,398.12857142857143,2301.5,-90.77767857142857,398.12857142857143,2426.8,-90.77767857142857,398.12857142857143,2531.7,-90.77767857142857,398.12857142857143,2635.6,-90.77767857142857,398.12857142857143,2747.3,-90.77767857142857,398.12857142857143,2848.4,-90.77767857142857,398.12857142857143,2948.9,-90.77767857142857,398.12857142857143,3061.3,-90.77767857142857,398.12857142857143,3164.4,-90.77767857142857,398.12857142857143,3274.9,-90.77767857142857,398.12857142857143,3375.2,-90.77767857142857,398.12857142857143,3479,-90.77767857142857,398.12857142857143,3581.4,-90.77767857142857,398.12857142857143,3681.8,-90.77767857142857,398.12857142857143,3787.2,-90.77767857142857,398.12857142857143,3890.5,-90.77767857142857,398.12857142857143,4005.4,-90.77767857142857,398.12857142857143,4112.1,-90.77767857142857,398.12857142857143,4225.6,-90.77767857142857,398.12857142857143,4326.8,-90.77767857142857,398.12857142857143,4428.8,-90.77767857142857,398.12857142857143,4537.3,-90.77767857142857,398.12857142857143,4638.9,-90.77767857142857,398.12857142857143,4746.3,-90.77767857142857,398.12857142857143,4847.1,-90.77767857142857,398.12857142857143,4949.7]","[1459.9,1459.9,1000,0,459.9,""oops"",""down"",""up"",""bad_move"",4554.9,3094,2707.9,1460.9,386.1,""oops"",""down"",""right"",""bad_move"",7689.9,3133.8,2730.4,4556.1,403.4,""smooth"",""down"",""down"",""good_move"",10194.9,2503.9,2062,7691,441.9,""oops"",""down"",""up"",""bad_move"",13361.4,3165.8,2827.2,10195.6,338.6,""smooth"",""left"",""left"",""good_move"",16644.8,3282.3,2895.9,13362.5,386.4,""smooth"",""left"",""left"",""good_move"",19383.8,2737.9,2354.1,16645.9,383.8,""smooth"",""left"",""left"",""good_move"",22613.8,3229.2,2874.8,19384.6,354.4,""oops"",""left"",""up"",""bad_move"",23551.7,935.9,2129.3,22615.9,-1193.4,""error"",""-"",""-"",""no_move"",27357.5,3804.7,2399.4,24553.7,404.4,""smooth"",""left"",""left"",""good_move"",29677.7,2319.3,1852.4,27358.4,466.9,""smooth"",""down"",""down"",""good_move"",36192,6513.8,2864.2,32911.4,416.4,""oops"",""down"",""right"",""bad_move""]"
"3994","","<div style=""width:500px;"">
  <p>What determined the result of this run?</p>
  </div>","100","html-slider-response","34","1291759","0.0-7.0-1.4","81","1","2025-07-30 09:22:55","36c45c0696341be0efffe67d72a12abb","41.13.194.124","Mozilla/5.0 (Windows NT 10.0; Win64; x64) AppleWebKit/537.36 (KHTML, like Gecko) Chrome/138.0.0.0 Safari/537.36","WebKit","Chrome","138.0.0.0","Windows","10.0","https://app.prolific.com/","en-US,en;q=0.9,xh;q=0.8","665f239f78bd39782ef04172","683dba9a53627eb9ab41b36a","6889e42b773590322744acfa","0","665f239f78bd39782ef04172","0","2025-07-30T09:44:32.051Z","","","","AttribQ","","","","","","","","","","","50","","","","","","","","","","","","","","","","","","","","","","","","","","",""
"2652","","<div style=""width:500px;"">
  <p>How much control did you have over the ball?</p>
  </div>","0","html-slider-response","35","1294413","0.0-7.0-2.4","81","1","2025-07-30 09:22:55","36c45c0696341be0efffe67d72a12abb","41.13.194.124","Mozilla/5.0 (Windows NT 10.0; Win64; x64) AppleWebKit/537.36 (KHTML, like Gecko) Chrome/138.0.0.0 Safari/537.36","WebKit","Chrome","138.0.0.0","Windows","10.0","https://app.prolific.com/","en-US,en;q=0.9,xh;q=0.8","665f239f78bd39782ef04172","683dba9a53627eb9ab41b36a","6889e42b773590322744acfa","0","665f239f78bd39782ef04172","0","2025-07-30T09:44:34.705Z","","","","ControlQ","","","","","","","","","","","50","","","","","","","","","","","","","","","","","","","","","","","","","","",""
"3135","","<div style=""width:500px;"">
  <p>How would you describe your current emotional state?</p>
  </div>","0","html-slider-response","36","1297551","0.0-7.0-3.4","81","1","2025-07-30 09:22:55","36c45c0696341be0efffe67d72a12abb","41.13.194.124","Mozilla/5.0 (Windows NT 10.0; Win64; x64) AppleWebKit/537.36 (KHTML, like Gecko) Chrome/138.0.0.0 Safari/537.36","WebKit","Chrome","138.0.0.0","Windows","10.0","https://app.prolific.com/","en-US,en;q=0.9,xh;q=0.8","665f239f78bd39782ef04172","683dba9a53627eb9ab41b36a","6889e42b773590322744acfa","0","665f239f78bd39782ef04172","0","2025-07-30T09:44:37.843Z","","","","StressQ","","","","","","","","","","","50","","","","","","","","","","","","","","","","","","","","","","","","","","",""
"2978","","<div style=""width:500px;"">
  <p>What best describes how you currently feel?</p>
  </div>","100","html-slider-response","37","1300532","0.0-7.0-4.4","81","1","2025-07-30 09:22:55","36c45c0696341be0efffe67d72a12abb","41.13.194.124","Mozilla/5.0 (Windows NT 10.0; Win64; x64) AppleWebKit/537.36 (KHTML, like Gecko) Chrome/138.0.0.0 Safari/537.36","WebKit","Chrome","138.0.0.0","Windows","10.0","https://app.prolific.com/","en-US,en;q=0.9,xh;q=0.8","665f239f78bd39782ef04172","683dba9a53627eb9ab41b36a","6889e42b773590322744acfa","0","665f239f78bd39782ef04172","0","2025-07-30T09:44:40.824Z","","","","MotivationQ","","","","","","","","","","","50","","","","","","","","","","","","","","","","","","","","","","","","","","",""
"","","","","ctl-task-cpt","38","1352380","0.0-7.0-0.5","81","1","2025-07-30 09:22:55","36c45c0696341be0efffe67d72a12abb","41.13.194.124","Mozilla/5.0 (Windows NT 10.0; Win64; x64) AppleWebKit/537.36 (KHTML, like Gecko) Chrome/138.0.0.0 Safari/537.36","WebKit","Chrome","138.0.0.0","Windows","10.0","https://app.prolific.com/","en-US,en;q=0.9,xh;q=0.8","665f239f78bd39782ef04172","683dba9a53627eb9ab41b36a","6889e42b773590322744acfa","0","665f239f78bd39782ef04172","0","2025-07-30T09:45:32.672Z","","","","","","","","","","","","","","","","win-only","2","g1:SE,g2:NW","0.5","6","0","1304384","1165","6169","48834.7","1","4","4","6","2","4","4","4","0","0.030303030303030304","1141.7","3000","115","[""left"",""up""]","{""num_key_presses"":10,""num_perfect"":5,""num_errors"":0,""num_randdir"":5,""num_randdir_good_moves"":3,""num_whilered"":0,""num_whileblue"":0,""num_blue"":4,""num_good_moves"":8}","[299.22232142857143,297.12857142857143,0.6,299.22232142857143,297.12857142857143,101.6,299.22232142857143,297.12857142857143,202.5,299.22232142857143,297.12857142857143,303.5,299.22232142857143,297.12857142857143,406.1,278.22232142857143,293.12857142857143,510.7,116.22232142857143,203.12857142857143,611.7,23.222321428571426,108.12857142857143,712.4,28.222321428571426,70.12857142857143,819,32.222321428571426,60.128571428571426,923.1,35.222321428571426,56.128571428571426,1024.7,35.222321428571426,56.128571428571426,1132,35.222321428571426,56.128571428571426,1232.7,35.222321428571426,56.128571428571426,1336.2,35.222321428571426,56.128571428571426,1443.5,35.222321428571426,56.128571428571426,1550.5,-100.77767857142857,157.12857142857143,1650.6,-158.77767857142857,242.12857142857143,1758.2,-158.77767857142857,242.12857142857143,1878.9,-158.77767857142857,242.12857142857143,1980.8,-158.77767857142857,242.12857142857143,2083.9,-158.77767857142857,242.12857142857143,2189.5,-158.77767857142857,242.12857142857143,2294.2,-158.77767857142857,242.12857142857143,2394.9,-158.77767857142857,242.12857142857143,2502.9,-158.77767857142857,242.12857142857143,2609.3,-158.77767857142857,242.12857142857143,2712.5,-158.77767857142857,242.12857142857143,2816.4,-158.77767857142857,242.12857142857143,2929.2,-158.77767857142857,242.12857142857143,3030.4,-158.77767857142857,242.12857142857143,3144,-158.77767857142857,242.12857142857143,3246.7,-158.77767857142857,242.12857142857143,3349.9,-158.77767857142857,242.12857142857143,3459.5,-158.77767857142857,242.12857142857143,3571.8,-158.77767857142857,242.12857142857143,3682.7,-158.77767857142857,242.12857142857143,3783.7,-158.77767857142857,242.12857142857143,3888.7,-158.77767857142857,242.12857142857143,3994,-158.77767857142857,242.12857142857143,4096.9,-158.77767857142857,242.12857142857143,4199.4,-158.77767857142857,242.12857142857143,4305,-158.77767857142857,242.12857142857143,4422.4,-158.77767857142857,242.12857142857143,4531.3,-158.77767857142857,242.12857142857143,4635.9,-158.77767857142857,242.12857142857143,4745.9,-158.77767857142857,242.12857142857143,4852,-158.77767857142857,242.12857142857143,4960.7]","[1445.5,1445.5,1000,0,445.5,""oops"",""up"",""up"",""good_move"",8315.3,6868.9,2423.8,5392.6,499,""smooth"",""up"",""up"",""good_move"",13997.2,5672.5,1809.6,11654.2,533.5,""oops"",""up"",""up"",""good_move"",20332.7,6334.7,2291.2,17602.9,438.6,""smooth"",""left"",""left"",""good_move"",27639.4,7303.8,3018.1,24180.7,440.6,""oops"",""left"",""down"",""bad_move"",30762.1,3121.7,2603.5,27640.4,518.2,""smooth"",""left"",""left"",""good_move"",34269.2,3506.3,2832.7,30762.9,673.6,""oops"",""up"",""up"",""good_move"",37649.3,3379,2911.2,34270.3,467.8,""oops"",""left"",""right"",""bad_move"",39837.4,2187.1,1656.5,37650.3,530.6,""smooth"",""left"",""left"",""good_move"",42526.4,2681.9,2313.1,39844.7,368.7,""smooth"",""left"",""left"",""good_move""]"
"4018","","<div style=""width:500px;"">
  <p>What determined the result of this run?</p>
  </div>","100","html-slider-response","39","1356404","0.0-7.0-1.5","81","1","2025-07-30 09:22:55","36c45c0696341be0efffe67d72a12abb","41.13.194.124","Mozilla/5.0 (Windows NT 10.0; Win64; x64) AppleWebKit/537.36 (KHTML, like Gecko) Chrome/138.0.0.0 Safari/537.36","WebKit","Chrome","138.0.0.0","Windows","10.0","https://app.prolific.com/","en-US,en;q=0.9,xh;q=0.8","665f239f78bd39782ef04172","683dba9a53627eb9ab41b36a","6889e42b773590322744acfa","0","665f239f78bd39782ef04172","0","2025-07-30T09:45:36.697Z","","","","AttribQ","","","","","","","","","","","50","","","","","","","","","","","","","","","","","","","","","","","","","","",""
"4369","","<div style=""width:500px;"">
  <p>How much control did you have over the ball?</p>
  </div>","62","html-slider-response","40","1360779","0.0-7.0-2.5","81","1","2025-07-30 09:22:55","36c45c0696341be0efffe67d72a12abb","41.13.194.124","Mozilla/5.0 (Windows NT 10.0; Win64; x64) AppleWebKit/537.36 (KHTML, like Gecko) Chrome/138.0.0.0 Safari/537.36","WebKit","Chrome","138.0.0.0","Windows","10.0","https://app.prolific.com/","en-US,en;q=0.9,xh;q=0.8","665f239f78bd39782ef04172","683dba9a53627eb9ab41b36a","6889e42b773590322744acfa","0","665f239f78bd39782ef04172","0","2025-07-30T09:45:41.071Z","","","","ControlQ","","","","","","","","","","","50","","","","","","","","","","","","","","","","","","","","","","","","","","",""
"3207","","<div style=""width:500px;"">
  <p>How would you describe your current emotional state?</p>
  </div>","0","html-slider-response","41","1363989","0.0-7.0-3.5","81","1","2025-07-30 09:22:55","36c45c0696341be0efffe67d72a12abb","41.13.194.124","Mozilla/5.0 (Windows NT 10.0; Win64; x64) AppleWebKit/537.36 (KHTML, like Gecko) Chrome/138.0.0.0 Safari/537.36","WebKit","Chrome","138.0.0.0","Windows","10.0","https://app.prolific.com/","en-US,en;q=0.9,xh;q=0.8","665f239f78bd39782ef04172","683dba9a53627eb9ab41b36a","6889e42b773590322744acfa","0","665f239f78bd39782ef04172","0","2025-07-30T09:45:44.281Z","","","","StressQ","","","","","","","","","","","50","","","","","","","","","","","","","","","","","","","","","","","","","","",""
"4735","","<div style=""width:500px;"">
  <p>What best describes how you currently feel?</p>
  </div>","100","html-slider-response","42","1368728","0.0-7.0-4.5","81","1","2025-07-30 09:22:55","36c45c0696341be0efffe67d72a12abb","41.13.194.124","Mozilla/5.0 (Windows NT 10.0; Win64; x64) AppleWebKit/537.36 (KHTML, like Gecko) Chrome/138.0.0.0 Safari/537.36","WebKit","Chrome","138.0.0.0","Windows","10.0","https://app.prolific.com/","en-US,en;q=0.9,xh;q=0.8","665f239f78bd39782ef04172","683dba9a53627eb9ab41b36a","6889e42b773590322744acfa","0","665f239f78bd39782ef04172","0","2025-07-30T09:45:49.020Z","","","","MotivationQ","","","","","","","","","","","50","","","","","","","","","","","","","","","","","","","","","","","","","","",""
"","","","","ctl-task-cpt","43","1423318","0.0-7.0-0.6","81","1","2025-07-30 09:22:55","36c45c0696341be0efffe67d72a12abb","41.13.194.124","Mozilla/5.0 (Windows NT 10.0; Win64; x64) AppleWebKit/537.36 (KHTML, like Gecko) Chrome/138.0.0.0 Safari/537.36","WebKit","Chrome","138.0.0.0","Windows","10.0","https://app.prolific.com/","en-US,en;q=0.9,xh;q=0.8","665f239f78bd39782ef04172","683dba9a53627eb9ab41b36a","6889e42b773590322744acfa","0","665f239f78bd39782ef04172","0","2025-07-30T09:46:43.610Z","","","","","","","","","","","","","","","","win-only","3","g1:SW,g2:NE","0.4","7","0","1372579.8","1434.4","6437","51573.3","1","4","8","6","2","-8","-9","0","4","0","1056.5","3000","-1800","[""up"",""right""]","{""num_key_presses"":10,""num_perfect"":3,""num_errors"":1,""num_randdir"":6,""num_randdir_good_moves"":2,""num_whilered"":0,""num_whileblue"":1,""num_blue"":5,""num_good_moves"":5}","[297.22232142857143,288.12857142857143,1.8,297.22232142857143,288.12857142857143,100.5,297.22232142857143,288.12857142857143,205.8,297.22232142857143,288.12857142857143,306.2,297.22232142857143,288.12857142857143,409.7,297.22232142857143,288.12857142857143,511.3,525.2223214285714,50.128571428571426,613.4,534.2223214285714,49.128571428571426,719.9,545.2223214285714,50.128571428571426,825.8,547.2223214285714,50.128571428571426,930.7,547.2223214285714,50.128571428571426,1035.4,547.2223214285714,50.128571428571426,1138.2,547.2223214285714,50.128571428571426,1247.9,547.2223214285714,50.128571428571426,1353.3,547.2223214285714,50.128571428571426,1454.3,547.2223214285714,50.128571428571426,1556.1,547.2223214285714,50.128571428571426,1662.2,679.2223214285714,188.12857142857143,1771.1,810.2223214285714,257.12857142857143,1871.5,826.2223214285714,319.12857142857143,1972.7,826.2223214285714,319.12857142857143,2075.5,826.2223214285714,319.12857142857143,2183.9,826.2223214285714,319.12857142857143,2287.2,826.2223214285714,319.12857142857143,2392.9,826.2223214285714,319.12857142857143,2505.3,826.2223214285714,319.12857142857143,2605.5,826.2223214285714,319.12857142857143,2707.7,826.2223214285714,319.12857142857143,2810.8,826.2223214285714,319.12857142857143,2922.9,826.2223214285714,319.12857142857143,3029.2,826.2223214285714,319.12857142857143,3138,826.2223214285714,319.12857142857143,3247.6,826.2223214285714,319.12857142857143,3351.6,826.2223214285714,319.12857142857143,3456.1,826.2223214285714,319.12857142857143,3557.2,826.2223214285714,319.12857142857143,3657.7,826.2223214285714,319.12857142857143,3767.7,826.2223214285714,319.12857142857143,3869,826.2223214285714,319.12857142857143,3972.7,826.2223214285714,319.12857142857143,4073.2,826.2223214285714,319.12857142857143,4174,826.2223214285714,319.12857142857143,4281.7,826.2223214285714,319.12857142857143,4383.5,826.2223214285714,319.12857142857143,4487.3,826.2223214285714,319.12857142857143,4593,826.2223214285714,319.12857142857143,4696.3,826.2223214285714,319.12857142857143,4801.2,826.2223214285714,319.12857142857143,4903.6]","[5352,5352.1,2878.4,2006.9,466.8,""smooth"",""right"",""right"",""good_move"",18120.4,12765.5,2319.1,15294.9,506.5,""smooth"",""right"",""right"",""good_move"",20834.8,2713,2235.3,18121.8,477.7,""smooth"",""right"",""right"",""good_move"",24335,3499,3073.3,20836,425.7,""oops"",""up"",""up"",""good_move"",27508.1,3172.1,2774.9,24336,397.2,""oops"",""up"",""down"",""bad_move"",30059,2549,2072.1,27510,476.9,""oops"",""up"",""down"",""bad_move"",33587.5,3527.3,3181.9,30060.2,345.4,""oops"",""up"",""down"",""bad_move"",36786.2,3192.6,2817.1,33593.6,375.5,""while_blue"",""up"",""left"",""bad_move"",39087.9,2300.6,1798.3,36787.3,502.3,""oops"",""up"",""up"",""good_move"",41797.9,2708.8,2338.9,39089.1,369.9,""oops"",""up"",""down"",""bad_move""]"
"3737","","<div style=""width:500px;"">
  <p>What determined the result of this run?</p>
  </div>","100","html-slider-response","44","1427058","0.0-7.0-1.6","81","1","2025-07-30 09:22:55","36c45c0696341be0efffe67d72a12abb","41.13.194.124","Mozilla/5.0 (Windows NT 10.0; Win64; x64) AppleWebKit/537.36 (KHTML, like Gecko) Chrome/138.0.0.0 Safari/537.36","WebKit","Chrome","138.0.0.0","Windows","10.0","https://app.prolific.com/","en-US,en;q=0.9,xh;q=0.8","665f239f78bd39782ef04172","683dba9a53627eb9ab41b36a","6889e42b773590322744acfa","0","665f239f78bd39782ef04172","0","2025-07-30T09:46:47.350Z","","","","AttribQ","","","","","","","","","","","50","","","","","","","","","","","","","","","","","","","","","","","","","","",""
"2558","","<div style=""width:500px;"">
  <p>How much control did you have over the ball?</p>
  </div>","0","html-slider-response","45","1429621","0.0-7.0-2.6","81","1","2025-07-30 09:22:55","36c45c0696341be0efffe67d72a12abb","41.13.194.124","Mozilla/5.0 (Windows NT 10.0; Win64; x64) AppleWebKit/537.36 (KHTML, like Gecko) Chrome/138.0.0.0 Safari/537.36","WebKit","Chrome","138.0.0.0","Windows","10.0","https://app.prolific.com/","en-US,en;q=0.9,xh;q=0.8","665f239f78bd39782ef04172","683dba9a53627eb9ab41b36a","6889e42b773590322744acfa","0","665f239f78bd39782ef04172","0","2025-07-30T09:46:49.913Z","","","","ControlQ","","","","","","","","","","","50","","","","","","","","","","","","","","","","","","","","","","","","","","",""
"2821","","<div style=""width:500px;"">
  <p>How would you describe your current emotional state?</p>
  </div>","0","html-slider-response","46","1432445","0.0-7.0-3.6","81","1","2025-07-30 09:22:55","36c45c0696341be0efffe67d72a12abb","41.13.194.124","Mozilla/5.0 (Windows NT 10.0; Win64; x64) AppleWebKit/537.36 (KHTML, like Gecko) Chrome/138.0.0.0 Safari/537.36","WebKit","Chrome","138.0.0.0","Windows","10.0","https://app.prolific.com/","en-US,en;q=0.9,xh;q=0.8","665f239f78bd39782ef04172","683dba9a53627eb9ab41b36a","6889e42b773590322744acfa","0","665f239f78bd39782ef04172","0","2025-07-30T09:46:52.737Z","","","","StressQ","","","","","","","","","","","50","","","","","","","","","","","","","","","","","","","","","","","","","","",""
"2960","","<div style=""width:500px;"">
  <p>What best describes how you currently feel?</p>
  </div>","100","html-slider-response","47","1435408","0.0-7.0-4.6","81","1","2025-07-30 09:22:55","36c45c0696341be0efffe67d72a12abb","41.13.194.124","Mozilla/5.0 (Windows NT 10.0; Win64; x64) AppleWebKit/537.36 (KHTML, like Gecko) Chrome/138.0.0.0 Safari/537.36","WebKit","Chrome","138.0.0.0","Windows","10.0","https://app.prolific.com/","en-US,en;q=0.9,xh;q=0.8","665f239f78bd39782ef04172","683dba9a53627eb9ab41b36a","6889e42b773590322744acfa","0","665f239f78bd39782ef04172","0","2025-07-30T09:46:55.700Z","","","","MotivationQ","","","","","","","","","","","50","","","","","","","","","","","","","","","","","","","","","","","","","","",""
"","","","","ctl-task-cpt","48","1467461","0.0-7.0-0.7","81","1","2025-07-30 09:22:55","36c45c0696341be0efffe67d72a12abb","41.13.194.124","Mozilla/5.0 (Windows NT 10.0; Win64; x64) AppleWebKit/537.36 (KHTML, like Gecko) Chrome/138.0.0.0 Safari/537.36","WebKit","Chrome","138.0.0.0","Windows","10.0","https://app.prolific.com/","en-US,en;q=0.9,xh;q=0.8","665f239f78bd39782ef04172","683dba9a53627eb9ab41b36a","6889e42b773590322744acfa","0","665f239f78bd39782ef04172","0","2025-07-30T09:47:27.753Z","","","","","","","","","","","","","","","","win-only","2","g1:SE,g2:NW","0.3","8","0","1439262.2","1196.6","6205.7","29021.4","1","4","4","6","2","-4","-4","0","0","0","1204.6","3000","-1720","[""left"",""up""]","{""num_key_presses"":7,""num_perfect"":3,""num_errors"":0,""num_randdir"":4,""num_randdir_good_moves"":0,""num_whilered"":0,""num_whileblue"":0,""num_blue"":0,""num_good_moves"":3}","[295.22232142857143,294.12857142857143,0.5,295.22232142857143,294.12857142857143,102.3,295.22232142857143,294.12857142857143,208.8,295.22232142857143,294.12857142857143,309.6,295.22232142857143,294.12857142857143,412,288.22232142857143,290.12857142857143,512.5,108.22232142857143,41.128571428571426,614.8,104.22232142857143,1.1285714285714263,725,94.22232142857143,5.128571428571426,828.4,55.222321428571426,41.128571428571426,930.6,53.222321428571426,44.128571428571426,1034,53.222321428571426,44.128571428571426,1139.5,53.222321428571426,44.128571428571426,1253.7,53.222321428571426,44.128571428571426,1360.2,53.222321428571426,44.128571428571426,1463.3,53.222321428571426,44.128571428571426,1571.2,305.22232142857143,67.12857142857143,1681.7,891.2223214285714,271.12857142857143,1783.7,978.2223214285714,432.12857142857143,1884.8,978.2223214285714,432.12857142857143,1985.2,978.2223214285714,432.12857142857143,2097,978.2223214285714,432.12857142857143,2210.1,978.2223214285714,432.12857142857143,2316.6,978.2223214285714,432.12857142857143,2416.6,978.2223214285714,432.12857142857143,2524,978.2223214285714,432.12857142857143,2624.9,978.2223214285714,432.12857142857143,2741.8,978.2223214285714,432.12857142857143,2842.3,978.2223214285714,432.12857142857143,2944.5,978.2223214285714,432.12857142857143,3057.7,978.2223214285714,432.12857142857143,3159,978.2223214285714,432.12857142857143,3264.1,978.2223214285714,432.12857142857143,3369.7,978.2223214285714,432.12857142857143,3474.5,978.2223214285714,432.12857142857143,3576.2,978.2223214285714,432.12857142857143,3676.6,978.2223214285714,432.12857142857143,3784.3,978.2223214285714,432.12857142857143,3893.2,978.2223214285714,432.12857142857143,3996.2,978.2223214285714,432.12857142857143,4098.3,978.2223214285714,432.12857142857143,4201.7,978.2223214285714,432.12857142857143,4310.3,978.2223214285714,432.12857142857143,4418.3,978.2223214285714,432.12857142857143,4519.5,978.2223214285714,432.12857142857143,4625,978.2223214285714,432.12857142857143,4733.6,978.2223214285714,432.12857142857143,4839.5,978.2223214285714,432.12857142857143,4944.6]","[1460,1460,1000,0,460,""oops"",""up"",""down"",""bad_move"",3998.1,2537.1,2084.1,1461,453,""smooth"",""up"",""up"",""good_move"",6660.3,2659.2,2251.9,4001.1,407.3,""smooth"",""up"",""up"",""good_move"",9556.2,2894.9,2504.6,6661.3,390.3,""oops"",""up"",""right"",""bad_move"",12293.2,2732.3,2319.5,9560.9,412.8,""smooth"",""up"",""up"",""good_move"",15319.9,3025.6,2640.3,12294.4,385.3,""oops"",""left"",""down"",""bad_move"",18256.5,2935.3,2483.9,15321.2,451.4,""oops"",""left"",""right"",""bad_move""]"
"3351","","<div style=""width:500px;"">
  <p>What determined the result of this run?</p>
  </div>","100","html-slider-response","49","1470815","0.0-7.0-1.7","81","1","2025-07-30 09:22:55","36c45c0696341be0efffe67d72a12abb","41.13.194.124","Mozilla/5.0 (Windows NT 10.0; Win64; x64) AppleWebKit/537.36 (KHTML, like Gecko) Chrome/138.0.0.0 Safari/537.36","WebKit","Chrome","138.0.0.0","Windows","10.0","https://app.prolific.com/","en-US,en;q=0.9,xh;q=0.8","665f239f78bd39782ef04172","683dba9a53627eb9ab41b36a","6889e42b773590322744acfa","0","665f239f78bd39782ef04172","0","2025-07-30T09:47:31.107Z","","","","AttribQ","","","","","","","","","","","50","","","","","","","","","","","","","","","","","","","","","","","","","","",""
"2496","","<div style=""width:500px;"">
  <p>How much control did you have over the ball?</p>
  </div>","0","html-slider-response","50","1473314","0.0-7.0-2.7","81","1","2025-07-30 09:22:55","36c45c0696341be0efffe67d72a12abb","41.13.194.124","Mozilla/5.0 (Windows NT 10.0; Win64; x64) AppleWebKit/537.36 (KHTML, like Gecko) Chrome/138.0.0.0 Safari/537.36","WebKit","Chrome","138.0.0.0","Windows","10.0","https://app.prolific.com/","en-US,en;q=0.9,xh;q=0.8","665f239f78bd39782ef04172","683dba9a53627eb9ab41b36a","6889e42b773590322744acfa","0","665f239f78bd39782ef04172","0","2025-07-30T09:47:33.606Z","","","","ControlQ","","","","","","","","","","","50","","","","","","","","","","","","","","","","","","","","","","","","","","",""
"5096","","<div style=""width:500px;"">
  <p>How would you describe your current emotional state?</p>
  </div>","0","html-slider-response","51","1478414","0.0-7.0-3.7","81","1","2025-07-30 09:22:55","36c45c0696341be0efffe67d72a12abb","41.13.194.124","Mozilla/5.0 (Windows NT 10.0; Win64; x64) AppleWebKit/537.36 (KHTML, like Gecko) Chrome/138.0.0.0 Safari/537.36","WebKit","Chrome","138.0.0.0","Windows","10.0","https://app.prolific.com/","en-US,en;q=0.9,xh;q=0.8","665f239f78bd39782ef04172","683dba9a53627eb9ab41b36a","6889e42b773590322744acfa","0","665f239f78bd39782ef04172","0","2025-07-30T09:47:38.706Z","","","","StressQ","","","","","","","","","","","50","","","","","","","","","","","","","","","","","","","","","","","","","","",""
"2870","","<div style=""width:500px;"">
  <p>What best describes how you currently feel?</p>
  </div>","100","html-slider-response","52","1481287","0.0-7.0-4.7","81","1","2025-07-30 09:22:55","36c45c0696341be0efffe67d72a12abb","41.13.194.124","Mozilla/5.0 (Windows NT 10.0; Win64; x64) AppleWebKit/537.36 (KHTML, like Gecko) Chrome/138.0.0.0 Safari/537.36","WebKit","Chrome","138.0.0.0","Windows","10.0","https://app.prolific.com/","en-US,en;q=0.9,xh;q=0.8","665f239f78bd39782ef04172","683dba9a53627eb9ab41b36a","6889e42b773590322744acfa","0","665f239f78bd39782ef04172","0","2025-07-30T09:47:41.579Z","","","","MotivationQ","","","","","","","","","","","50","","","","","","","","","","","","","","","","","","","","","","","","","","",""
"","","","","ctl-task-cpt","53","1548844","0.0-7.0-0.8","81","1","2025-07-30 09:22:55","36c45c0696341be0efffe67d72a12abb","41.13.194.124","Mozilla/5.0 (Windows NT 10.0; Win64; x64) AppleWebKit/537.36 (KHTML, like Gecko) Chrome/138.0.0.0 Safari/537.36","WebKit","Chrome","138.0.0.0","Windows","10.0","https://app.prolific.com/","en-US,en;q=0.9,xh;q=0.8","665f239f78bd39782ef04172","683dba9a53627eb9ab41b36a","6889e42b773590322744acfa","0","665f239f78bd39782ef04172","0","2025-07-30T09:48:49.136Z","","","","","","","","","","","","","","","","win-only","3","g1:SW,g2:NE","0.4","9","0","1485139.8","1202.2","6214.7","64530.9","1","4","4","6","2","-4","-4","0","0","0","1270.2","3000","-1590","[""up"",""right""]","{""num_key_presses"":14,""num_perfect"":6,""num_errors"":0,""num_randdir"":8,""num_randdir_good_moves"":3,""num_whilered"":0,""num_whileblue"":0,""num_blue"":4,""num_good_moves"":9}","[302.22232142857143,293.12857142857143,1.7,302.22232142857143,293.12857142857143,107.8,302.22232142857143,293.12857142857143,220.5,302.22232142857143,293.12857142857143,321.3,302.22232142857143,293.12857142857143,430.1,302.22232142857143,293.12857142857143,532.8,669.2223214285714,84.12857142857143,636.2,702.2223214285714,68.12857142857143,739.6,683.2223214285714,65.12857142857143,844.7,586.2223214285714,73.12857142857143,947.8,582.2223214285714,66.12857142857143,1055,582.2223214285714,66.12857142857143,1163.6,582.2223214285714,66.12857142857143,1278.7,582.2223214285714,66.12857142857143,1393.8,582.2223214285714,66.12857142857143,1494.2,582.2223214285714,66.12857142857143,1604.5,582.2223214285714,66.12857142857143,1712.8,582.2223214285714,66.12857142857143,1819.9,582.2223214285714,66.12857142857143,1921.2,582.2223214285714,66.12857142857143,2030,582.2223214285714,66.12857142857143,2136,582.2223214285714,66.12857142857143,2244.9,582.2223214285714,66.12857142857143,2352.7,582.2223214285714,66.12857142857143,2462.3,582.2223214285714,66.12857142857143,2571.5,582.2223214285714,66.12857142857143,2675.3,582.2223214285714,66.12857142857143,2781.6,582.2223214285714,66.12857142857143,2894.5,582.2223214285714,66.12857142857143,3001.6,582.2223214285714,66.12857142857143,3105.4,582.2223214285714,66.12857142857143,3227.7,582.2223214285714,66.12857142857143,3328.3,582.2223214285714,66.12857142857143,3428.9,582.2223214285714,66.12857142857143,3540.7,582.2223214285714,66.12857142857143,3644.7,582.2223214285714,66.12857142857143,3755.1,582.2223214285714,66.12857142857143,3861,582.2223214285714,66.12857142857143,3973.1,582.2223214285714,66.12857142857143,4079.8,582.2223214285714,66.12857142857143,4182.3,582.2223214285714,66.12857142857143,4295.4,582.2223214285714,66.12857142857143,4398.7,582.2223214285714,66.12857142857143,4511.5,582.2223214285714,66.12857142857143,4620.5,582.2223214285714,66.12857142857143,4728.8,582.2223214285714,66.12857142857143,4840.4,582.2223214285714,66.12857142857143,4947]","[1459.6,1459.6,1000,0,459.6,""smooth"",""right"",""right"",""good_move"",8342,6881.3,2585.1,5310,446.9,""oops"",""right"",""up"",""good_move"",11620.6,3277.7,2816,8343,461.7,""oops"",""right"",""right"",""good_move"",14323.9,2700.1,2275.9,11623.8,424.2,""smooth"",""right"",""right"",""good_move"",17002.2,2677.4,2244.3,14324.9,433,""smooth"",""up"",""up"",""good_move"",20221.4,3218.3,2633.8,17003.1,584.5,""oops"",""up"",""left"",""bad_move"",22784,2560.4,2103.7,20223.6,456.7,""smooth"",""up"",""up"",""good_move"",25537.1,2747.6,2341.4,22789.5,406.2,""oops"",""right"",""down"",""bad_move"",28697,3158.7,2785.4,25538.3,373.3,""oops"",""up"",""left"",""bad_move"",39514.5,10815.2,2670.3,36398.7,445.5,""oops"",""right"",""up"",""good_move"",45484.6,5965.7,2503.6,42534.6,446.4,""oops"",""right"",""left"",""bad_move"",49452.6,3965.9,3531.9,45486.7,434,""smooth"",""right"",""right"",""good_move"",53283.8,3830.1,3452.7,49453.7,377.4,""smooth"",""right"",""right"",""good_move"",56067.2,2781.5,2343.3,53285.7,438.2,""oops"",""right"",""left"",""bad_move""]"
"3055","","<div style=""width:500px;"">
  <p>What determined the result of this run?</p>
  </div>","100","html-slider-response","54","1551902","0.0-7.0-1.8","81","1","2025-07-30 09:22:55","36c45c0696341be0efffe67d72a12abb","41.13.194.124","Mozilla/5.0 (Windows NT 10.0; Win64; x64) AppleWebKit/537.36 (KHTML, like Gecko) Chrome/138.0.0.0 Safari/537.36","WebKit","Chrome","138.0.0.0","Windows","10.0","https://app.prolific.com/","en-US,en;q=0.9,xh;q=0.8","665f239f78bd39782ef04172","683dba9a53627eb9ab41b36a","6889e42b773590322744acfa","0","665f239f78bd39782ef04172","0","2025-07-30T09:48:52.194Z","","","","AttribQ","","","","","","","","","","","50","","","","","","","","","","","","","","","","","","","","","","","","","","",""
"3527","","<div style=""width:500px;"">
  <p>How much control did you have over the ball?</p>
  </div>","0","html-slider-response","55","1555432","0.0-7.0-2.8","81","1","2025-07-30 09:22:55","36c45c0696341be0efffe67d72a12abb","41.13.194.124","Mozilla/5.0 (Windows NT 10.0; Win64; x64) AppleWebKit/537.36 (KHTML, like Gecko) Chrome/138.0.0.0 Safari/537.36","WebKit","Chrome","138.0.0.0","Windows","10.0","https://app.prolific.com/","en-US,en;q=0.9,xh;q=0.8","665f239f78bd39782ef04172","683dba9a53627eb9ab41b36a","6889e42b773590322744acfa","0","665f239f78bd39782ef04172","0","2025-07-30T09:48:55.725Z","","","","ControlQ","","","","","","","","","","","50","","","","","","","","","","","","","","","","","","","","","","","","","","",""
"5168","","<div style=""width:500px;"">
  <p>How would you describe your current emotional state?</p>
  </div>","0","html-slider-response","56","1560604","0.0-7.0-3.8","81","1","2025-07-30 09:22:55","36c45c0696341be0efffe67d72a12abb","41.13.194.124","Mozilla/5.0 (Windows NT 10.0; Win64; x64) AppleWebKit/537.36 (KHTML, like Gecko) Chrome/138.0.0.0 Safari/537.36","WebKit","Chrome","138.0.0.0","Windows","10.0","https://app.prolific.com/","en-US,en;q=0.9,xh;q=0.8","665f239f78bd39782ef04172","683dba9a53627eb9ab41b36a","6889e42b773590322744acfa","0","665f239f78bd39782ef04172","0","2025-07-30T09:49:00.896Z","","","","StressQ","","","","","","","","","","","50","","","","","","","","","","","","","","","","","","","","","","","","","","",""
"3260","","<div style=""width:500px;"">
  <p>What best describes how you currently feel?</p>
  </div>","100","html-slider-response","57","1563867","0.0-7.0-4.8","81","1","2025-07-30 09:22:55","36c45c0696341be0efffe67d72a12abb","41.13.194.124","Mozilla/5.0 (Windows NT 10.0; Win64; x64) AppleWebKit/537.36 (KHTML, like Gecko) Chrome/138.0.0.0 Safari/537.36","WebKit","Chrome","138.0.0.0","Windows","10.0","https://app.prolific.com/","en-US,en;q=0.9,xh;q=0.8","665f239f78bd39782ef04172","683dba9a53627eb9ab41b36a","6889e42b773590322744acfa","0","665f239f78bd39782ef04172","0","2025-07-30T09:49:04.159Z","","","","MotivationQ","","","","","","","","","","","50","","","","","","","","","","","","","","","","","","","","","","","","","","",""
"","","","","ctl-task-cpt","58","1642361","0.0-7.0-0.9","81","1","2025-07-30 09:22:55","36c45c0696341be0efffe67d72a12abb","41.13.194.124","Mozilla/5.0 (Windows NT 10.0; Win64; x64) AppleWebKit/537.36 (KHTML, like Gecko) Chrome/138.0.0.0 Safari/537.36","WebKit","Chrome","138.0.0.0","Windows","10.0","https://app.prolific.com/","en-US,en;q=0.9,xh;q=0.8","665f239f78bd39782ef04172","683dba9a53627eb9ab41b36a","6889e42b773590322744acfa","0","665f239f78bd39782ef04172","0","2025-07-30T09:50:22.653Z","","","","","","","","","","","","","","","","win-only","2","g1:SE,g2:NW","0.5","10","0","1567720.3","1188.5","6193.9","75465.3","1","4","8","6","2","-8","-8","0","0","0","1215.9","3000","-1455","[""left"",""up""]","{""num_key_presses"":13,""num_perfect"":7,""num_errors"":0,""num_randdir"":6,""num_randdir_good_moves"":1,""num_whilered"":0,""num_whileblue"":0,""num_blue"":7,""num_good_moves"":8}","[299.22232142857143,291.12857142857143,4.9,299.22232142857143,291.12857142857143,103.7,299.22232142857143,291.12857142857143,205.3,299.22232142857143,291.12857142857143,310.5,299.22232142857143,291.12857142857143,415.9,265.22232142857143,284.12857142857143,526.1,13.222321428571426,132.12857142857143,629,0.22232142857142634,94.12857142857143,735.2,-1.7776785714285737,80.12857142857143,835.5,33.222321428571426,60.128571428571426,937.9,39.222321428571426,59.128571428571426,1037.9,39.222321428571426,59.128571428571426,1148.9,39.222321428571426,59.128571428571426,1249,39.222321428571426,59.128571428571426,1359.8,39.222321428571426,59.128571428571426,1467.2,39.222321428571426,59.128571428571426,1578,39.222321428571426,59.128571428571426,1685.6,31.222321428571426,64.12857142857143,1797.3,-246.77767857142857,288.12857142857143,1908.9,-285.77767857142857,355.12857142857143,2015.4,-285.77767857142857,355.12857142857143,2121.1,-285.77767857142857,355.12857142857143,2230,-285.77767857142857,355.12857142857143,2332.4,-285.77767857142857,355.12857142857143,2435,-285.77767857142857,355.12857142857143,2547.1,-285.77767857142857,355.12857142857143,2650.9,-285.77767857142857,355.12857142857143,2755.1,-285.77767857142857,355.12857142857143,2856.6,-285.77767857142857,355.12857142857143,2967.2,-285.77767857142857,355.12857142857143,3079.4,-285.77767857142857,355.12857142857143,3180.6,-285.77767857142857,355.12857142857143,3287.5,-285.77767857142857,355.12857142857143,3400.6,-285.77767857142857,355.12857142857143,3501.3,-285.77767857142857,355.12857142857143,3610.9,-285.77767857142857,355.12857142857143,3716.1,-285.77767857142857,355.12857142857143,3818.9,-285.77767857142857,355.12857142857143,3924,-285.77767857142857,355.12857142857143,4033.2,-285.77767857142857,355.12857142857143,4134.8,-285.77767857142857,355.12857142857143,4244.7,-285.77767857142857,355.12857142857143,4345.5,-285.77767857142857,355.12857142857143,4450.5,-285.77767857142857,355.12857142857143,4554.6,-285.77767857142857,355.12857142857143,4657.8,-285.77767857142857,355.12857142857143,4766.5,-285.77767857142857,355.12857142857143,4875.5,-285.77767857142857,355.12857142857143,4980.4]","[9534.5,9534.5,3010,5985.5,539,""oops"",""up"",""left"",""good_move"",16956.8,7417.8,2580.6,13779.2,597,""smooth"",""up"",""up"",""good_move"",20070.6,3112.8,2618.8,16957.8,494,""smooth"",""up"",""up"",""good_move"",23301.3,3229.8,2486.9,20071.5,742.9,""smooth"",""up"",""up"",""good_move"",26653.9,3351.7,2683.4,23302.2,668.3,""smooth"",""left"",""left"",""good_move"",37122.4,10465.3,2423.9,34183.7,515.3,""oops"",""left"",""right"",""bad_move"",41041.9,3916.3,3360.2,37125.6,556.1,""oops"",""left"",""right"",""bad_move"",43874.2,2831,2308.7,41043.2,522.4,""oops"",""left"",""right"",""bad_move"",46208,2329,1829.6,43879,499.4,""oops"",""left"",""right"",""bad_move"",52993.1,6779.6,2242.5,50298.3,452.3,""smooth"",""left"",""left"",""good_move"",55568.3,2574,1564.9,52994.3,1009.2,""smooth"",""left"",""left"",""good_move"",58173.9,2604.6,1903.8,55569.3,700.8,""smooth"",""left"",""left"",""good_move"",61844.9,3667.2,3293,58177.7,374.2,""oops"",""left"",""right"",""bad_move""]"
"4547","","<div style=""width:500px;"">
  <p>What determined the result of this run?</p>
  </div>","100","html-slider-response","59","1646911","0.0-7.0-1.9","81","1","2025-07-30 09:22:55","36c45c0696341be0efffe67d72a12abb","41.13.194.124","Mozilla/5.0 (Windows NT 10.0; Win64; x64) AppleWebKit/537.36 (KHTML, like Gecko) Chrome/138.0.0.0 Safari/537.36","WebKit","Chrome","138.0.0.0","Windows","10.0","https://app.prolific.com/","en-US,en;q=0.9,xh;q=0.8","665f239f78bd39782ef04172","683dba9a53627eb9ab41b36a","6889e42b773590322744acfa","0","665f239f78bd39782ef04172","0","2025-07-30T09:50:27.203Z","","","","AttribQ","","","","","","","","","","","50","","","","","","","","","","","","","","","","","","","","","","","","","","",""
"4154","","<div style=""width:500px;"">
  <p>How much control did you have over the ball?</p>
  </div>","0","html-slider-response","60","1651068","0.0-7.0-2.9","81","1","2025-07-30 09:22:55","36c45c0696341be0efffe67d72a12abb","41.13.194.124","Mozilla/5.0 (Windows NT 10.0; Win64; x64) AppleWebKit/537.36 (KHTML, like Gecko) Chrome/138.0.0.0 Safari/537.36","WebKit","Chrome","138.0.0.0","Windows","10.0","https://app.prolific.com/","en-US,en;q=0.9,xh;q=0.8","665f239f78bd39782ef04172","683dba9a53627eb9ab41b36a","6889e42b773590322744acfa","0","665f239f78bd39782ef04172","0","2025-07-30T09:50:31.360Z","","","","ControlQ","","","","","","","","","","","50","","","","","","","","","","","","","","","","","","","","","","","","","","",""
"3394","","<div style=""width:500px;"">
  <p>How would you describe your current emotional state?</p>
  </div>","0","html-slider-response","61","1654465","0.0-7.0-3.9","81","1","2025-07-30 09:22:55","36c45c0696341be0efffe67d72a12abb","41.13.194.124","Mozilla/5.0 (Windows NT 10.0; Win64; x64) AppleWebKit/537.36 (KHTML, like Gecko) Chrome/138.0.0.0 Safari/537.36","WebKit","Chrome","138.0.0.0","Windows","10.0","https://app.prolific.com/","en-US,en;q=0.9,xh;q=0.8","665f239f78bd39782ef04172","683dba9a53627eb9ab41b36a","6889e42b773590322744acfa","0","665f239f78bd39782ef04172","0","2025-07-30T09:50:34.757Z","","","","StressQ","","","","","","","","","","","50","","","","","","","","","","","","","","","","","","","","","","","","","","",""
"4937","","<div style=""width:500px;"">
  <p>What best describes how you currently feel?</p>
  </div>","100","html-slider-response","62","1659408","0.0-7.0-4.9","81","1","2025-07-30 09:22:55","36c45c0696341be0efffe67d72a12abb","41.13.194.124","Mozilla/5.0 (Windows NT 10.0; Win64; x64) AppleWebKit/537.36 (KHTML, like Gecko) Chrome/138.0.0.0 Safari/537.36","WebKit","Chrome","138.0.0.0","Windows","10.0","https://app.prolific.com/","en-US,en;q=0.9,xh;q=0.8","665f239f78bd39782ef04172","683dba9a53627eb9ab41b36a","6889e42b773590322744acfa","0","665f239f78bd39782ef04172","0","2025-07-30T09:50:39.700Z","","","","MotivationQ","","","","","","","","","","","50","","","","","","","","","","","","","","","","","","","","","","","","","","",""
"","","","","ctl-task-cpt","63","1702598","0.0-7.0-0.10","81","1","2025-07-30 09:22:55","36c45c0696341be0efffe67d72a12abb","41.13.194.124","Mozilla/5.0 (Windows NT 10.0; Win64; x64) AppleWebKit/537.36 (KHTML, like Gecko) Chrome/138.0.0.0 Safari/537.36","WebKit","Chrome","138.0.0.0","Windows","10.0","https://app.prolific.com/","en-US,en;q=0.9,xh;q=0.8","665f239f78bd39782ef04172","683dba9a53627eb9ab41b36a","6889e42b773590322744acfa","0","665f239f78bd39782ef04172","0","2025-07-30T09:51:22.890Z","","","","","","","","","","","","","","","","win-only","2","g1:SE,g2:NW","0.6","11","0","1663262.1","1645","6649","40157.1","1","4","8","6","2","8","8","8","0","0.06060606060606061","1631.7","3000","1545","[""left"",""up""]","{""num_key_presses"":8,""num_perfect"":5,""num_errors"":0,""num_randdir"":3,""num_randdir_good_moves"":2,""num_whilered"":0,""num_whileblue"":0,""num_blue"":3,""num_good_moves"":7}","[297.22232142857143,291.12857142857143,11.9,297.22232142857143,291.12857142857143,100.5,297.22232142857143,291.12857142857143,202.3,297.22232142857143,291.12857142857143,303.2,297.22232142857143,291.12857142857143,404.5,297.22232142857143,291.12857142857143,516.3,297.22232142857143,291.12857142857143,620.6,307.22232142857143,288.12857142857143,730.4,197.22232142857143,198.12857142857143,848.7,132.22232142857143,56.128571428571426,962,132.22232142857143,56.128571428571426,1068.9,100.22232142857143,62.128571428571426,1172.9,33.222321428571426,75.12857142857143,1276.6,37.222321428571426,51.128571428571426,1384.7,37.222321428571426,51.128571428571426,1490.1,37.222321428571426,51.128571428571426,1590.2,37.222321428571426,51.128571428571426,1700.5,37.222321428571426,51.128571428571426,1806.9,37.222321428571426,51.128571428571426,1911.9,37.222321428571426,51.128571428571426,2017.3,37.222321428571426,51.128571428571426,2121.7,-76.77767857142857,209.12857142857143,2231.8,-174.77767857142857,368.12857142857143,2346.8,-180.77767857142857,389.12857142857143,2448.7,-180.77767857142857,389.12857142857143,2551.8,-180.77767857142857,389.12857142857143,2655.6,-180.77767857142857,389.12857142857143,2763.1,-180.77767857142857,389.12857142857143,2864.1,-180.77767857142857,389.12857142857143,2966,-180.77767857142857,389.12857142857143,3076.7,-180.77767857142857,389.12857142857143,3192.8,-180.77767857142857,389.12857142857143,3301.7,-180.77767857142857,389.12857142857143,3402.4,-180.77767857142857,389.12857142857143,3506,-180.77767857142857,389.12857142857143,3610.6,-180.77767857142857,389.12857142857143,3729.3,-180.77767857142857,389.12857142857143,3832.8,-180.77767857142857,389.12857142857143,3936.6,-180.77767857142857,389.12857142857143,4039.2,-180.77767857142857,389.12857142857143,4148,-180.77767857142857,389.12857142857143,4248.9,-180.77767857142857,389.12857142857143,4354.6,-180.77767857142857,389.12857142857143,4457.1,-180.77767857142857,389.12857142857143,4557.2,-180.77767857142857,389.12857142857143,4663,-180.77767857142857,389.12857142857143,4771.5,-180.77767857142857,389.12857142857143,4879,-180.77767857142857,389.12857142857143,4984]","[1416.1,1416.1,1000,0,416.2,""oops"",""up"",""left"",""good_move"",3616.7,2199.6,1794.6,1417.1,405,""smooth"",""up"",""up"",""good_move"",6480.2,2862.3,2492.5,3617.9,369.8,""oops"",""up"",""down"",""bad_move"",9481.1,2998.3,2628.6,6482.9,369.7,""smooth"",""up"",""up"",""good_move"",12563.6,3081.5,2694.7,9482.3,386.6,""oops"",""up"",""up"",""good_move"",27475.4,14899.4,2149.6,24788.4,537.4,""smooth"",""up"",""up"",""good_move"",30303.1,2823.9,2423.9,27479.2,400,""smooth"",""left"",""left"",""good_move"",33259.2,2954.9,2525.4,30304.3,429.5,""smooth"",""left"",""left"",""good_move""]"
"4475","","<div style=""width:500px;"">
  <p>What determined the result of this run?</p>
  </div>","100","html-slider-response","64","1707078","0.0-7.0-1.10","81","1","2025-07-30 09:22:55","36c45c0696341be0efffe67d72a12abb","41.13.194.124","Mozilla/5.0 (Windows NT 10.0; Win64; x64) AppleWebKit/537.36 (KHTML, like Gecko) Chrome/138.0.0.0 Safari/537.36","WebKit","Chrome","138.0.0.0","Windows","10.0","https://app.prolific.com/","en-US,en;q=0.9,xh;q=0.8","665f239f78bd39782ef04172","683dba9a53627eb9ab41b36a","6889e42b773590322744acfa","0","665f239f78bd39782ef04172","0","2025-07-30T09:51:27.370Z","","","","AttribQ","","","","","","","","","","","50","","","","","","","","","","","","","","","","","","","","","","","","","","",""
"2650","","<div style=""width:500px;"">
  <p>How much control did you have over the ball?</p>
  </div>","70","html-slider-response","65","1709733","0.0-7.0-2.10","81","1","2025-07-30 09:22:55","36c45c0696341be0efffe67d72a12abb","41.13.194.124","Mozilla/5.0 (Windows NT 10.0; Win64; x64) AppleWebKit/537.36 (KHTML, like Gecko) Chrome/138.0.0.0 Safari/537.36","WebKit","Chrome","138.0.0.0","Windows","10.0","https://app.prolific.com/","en-US,en;q=0.9,xh;q=0.8","665f239f78bd39782ef04172","683dba9a53627eb9ab41b36a","6889e42b773590322744acfa","0","665f239f78bd39782ef04172","0","2025-07-30T09:51:30.025Z","","","","ControlQ","","","","","","","","","","","50","","","","","","","","","","","","","","","","","","","","","","","","","","",""
"3314","","<div style=""width:500px;"">
  <p>How would you describe your current emotional state?</p>
  </div>","0","html-slider-response","66","1713051","0.0-7.0-3.10","81","1","2025-07-30 09:22:55","36c45c0696341be0efffe67d72a12abb","41.13.194.124","Mozilla/5.0 (Windows NT 10.0; Win64; x64) AppleWebKit/537.36 (KHTML, like Gecko) Chrome/138.0.0.0 Safari/537.36","WebKit","Chrome","138.0.0.0","Windows","10.0","https://app.prolific.com/","en-US,en;q=0.9,xh;q=0.8","665f239f78bd39782ef04172","683dba9a53627eb9ab41b36a","6889e42b773590322744acfa","0","665f239f78bd39782ef04172","0","2025-07-30T09:51:33.343Z","","","","StressQ","","","","","","","","","","","50","","","","","","","","","","","","","","","","","","","","","","","","","","",""
"2827","","<div style=""width:500px;"">
  <p>What best describes how you currently feel?</p>
  </div>","100","html-slider-response","67","1715881","0.0-7.0-4.10","81","1","2025-07-30 09:22:55","36c45c0696341be0efffe67d72a12abb","41.13.194.124","Mozilla/5.0 (Windows NT 10.0; Win64; x64) AppleWebKit/537.36 (KHTML, like Gecko) Chrome/138.0.0.0 Safari/537.36","WebKit","Chrome","138.0.0.0","Windows","10.0","https://app.prolific.com/","en-US,en;q=0.9,xh;q=0.8","665f239f78bd39782ef04172","683dba9a53627eb9ab41b36a","6889e42b773590322744acfa","0","665f239f78bd39782ef04172","0","2025-07-30T09:51:36.173Z","","","","MotivationQ","","","","","","","","","","","50","","","","","","","","","","","","","","","","","","","","","","","","","","",""
"","","","","ctl-task-cpt","68","1749552","0.0-7.0-0.11","81","1","2025-07-30 09:22:55","36c45c0696341be0efffe67d72a12abb","41.13.194.124","Mozilla/5.0 (Windows NT 10.0; Win64; x64) AppleWebKit/537.36 (KHTML, like Gecko) Chrome/138.0.0.0 Safari/537.36","WebKit","Chrome","138.0.0.0","Windows","10.0","https://app.prolific.com/","en-US,en;q=0.9,xh;q=0.8","665f239f78bd39782ef04172","683dba9a53627eb9ab41b36a","6889e42b773590322744acfa","0","665f239f78bd39782ef04172","0","2025-07-30T09:52:09.844Z","","","","","","","","","","","","","","","","win-only","0","g1:NW,g2:SE","0.7","12","0","1719734","1535.5","6542.3","30640.5","1","4","4","6","2","4","4","12","8","0.09090909090909091","1233.5","3000","1930","[""down"",""right""]","{""num_key_presses"":8,""num_perfect"":6,""num_errors"":0,""num_randdir"":2,""num_randdir_good_moves"":1,""num_whilered"":0,""num_whileblue"":0,""num_blue"":0,""num_good_moves"":7}","[294.22232142857143,287.12857142857143,0,294.22232142857143,287.12857142857143,105.4,294.22232142857143,287.12857142857143,207.2,294.22232142857143,287.12857142857143,315.4,294.22232142857143,287.12857142857143,426.6,294.22232142857143,287.12857142857143,528,485.22232142857143,451.12857142857143,636.3,598.2223214285714,548.1285714285714,738.9,599.2223214285714,552.1285714285714,845.3,595.2223214285714,555.1285714285714,950.9,556.2223214285714,543.1285714285714,1056.3,556.2223214285714,543.1285714285714,1163.3,556.2223214285714,543.1285714285714,1274.7,556.2223214285714,543.1285714285714,1374.8,556.2223214285714,543.1285714285714,1476.6,556.2223214285714,543.1285714285714,1578.6,556.2223214285714,543.1285714285714,1690.9,584.2223214285714,535.1285714285714,1794.1,708.2223214285714,513.1285714285714,1898.7,700.2223214285714,512.1285714285714,2006.4,522.2223214285714,548.1285714285714,2110,522.2223214285714,548.1285714285714,2221.4,571.2223214285714,525.1285714285714,2335.2,475.22232142857143,592.1285714285714,2450.4,447.22232142857143,599.1285714285714,2553,439.22232142857143,596.1285714285714,2657.4,442.22232142857143,593.1285714285714,2761.4,460.22232142857143,594.1285714285714,2869.9,572.2223214285714,574.1285714285714,2974.9,606.2223214285714,564.1285714285714,3079.6,635.2223214285714,548.1285714285714,3184.3,620.2223214285714,548.1285714285714,3284.4,590.2223214285714,544.1285714285714,3395.4,575.2223214285714,543.1285714285714,3505.1,575.2223214285714,543.1285714285714,3612.8,575.2223214285714,543.1285714285714,3725.3,575.2223214285714,543.1285714285714,3833.1,575.2223214285714,543.1285714285714,3944.3,575.2223214285714,543.1285714285714,4050.9,575.2223214285714,543.1285714285714,4156.1,575.2223214285714,543.1285714285714,4262.5,575.2223214285714,543.1285714285714,4367.1,575.2223214285714,543.1285714285714,4472.1,751.2223214285714,492.12857142857143,4583.8,779.2223214285714,496.12857142857143,4690.2,785.2223214285714,496.12857142857143,4802.1,783.2223214285714,497.12857142857143,4903.2]","[1974.8,1974.8,1000,0,974.8,""oops"",""down"",""up"",""bad_move"",5221.5,3245.7,2852.6,1975.8,393.2,""smooth"",""right"",""right"",""good_move"",7826.6,2604.7,2234.8,5221.9,369.9,""smooth"",""right"",""right"",""good_move"",11152.1,3325.4,2950.9,7826.7,374.5,""oops"",""right"",""right"",""good_move"",14468.4,3316.2,2914.6,11152.2,401.6,""smooth"",""down"",""down"",""good_move"",17587,3118.3,2703.6,14468.7,414.7,""smooth"",""down"",""down"",""good_move"",20775.9,3188.9,2578.4,17587,610.5,""smooth"",""down"",""down"",""good_move"",23686,2910,2383.4,20776,526.6,""smooth"",""down"",""down"",""good_move""]"
"11226","","<div style=""width:500px;"">
  <p>What determined the result of this run?</p>
  </div>","100","html-slider-response","69","1760788","0.0-7.0-1.11","81","1","2025-07-30 09:22:55","36c45c0696341be0efffe67d72a12abb","41.13.194.124","Mozilla/5.0 (Windows NT 10.0; Win64; x64) AppleWebKit/537.36 (KHTML, like Gecko) Chrome/138.0.0.0 Safari/537.36","WebKit","Chrome","138.0.0.0","Windows","10.0","https://app.prolific.com/","en-US,en;q=0.9,xh;q=0.8","665f239f78bd39782ef04172","683dba9a53627eb9ab41b36a","6889e42b773590322744acfa","0","665f239f78bd39782ef04172","0","2025-07-30T09:52:21.080Z","","","","AttribQ","","","","","","","","","","","50","","","","","","","","","","","","","","","","","","","","","","","","","","",""
"14355","","<div style=""width:500px;"">
  <p>How much control did you have over the ball?</p>
  </div>","80","html-slider-response","70","1775147","0.0-7.0-2.11","81","1","2025-07-30 09:22:55","36c45c0696341be0efffe67d72a12abb","41.13.194.124","Mozilla/5.0 (Windows NT 10.0; Win64; x64) AppleWebKit/537.36 (KHTML, like Gecko) Chrome/138.0.0.0 Safari/537.36","WebKit","Chrome","138.0.0.0","Windows","10.0","https://app.prolific.com/","en-US,en;q=0.9,xh;q=0.8","665f239f78bd39782ef04172","683dba9a53627eb9ab41b36a","6889e42b773590322744acfa","0","665f239f78bd39782ef04172","0","2025-07-30T09:52:35.439Z","","","","ControlQ","","","","","","","","","","","50","","","","","","","","","","","","","","","","","","","","","","","","","","",""
"5790","","<div style=""width:500px;"">
  <p>How would you describe your current emotional state?</p>
  </div>","0","html-slider-response","71","1780940","0.0-7.0-3.11","81","1","2025-07-30 09:22:55","36c45c0696341be0efffe67d72a12abb","41.13.194.124","Mozilla/5.0 (Windows NT 10.0; Win64; x64) AppleWebKit/537.36 (KHTML, like Gecko) Chrome/138.0.0.0 Safari/537.36","WebKit","Chrome","138.0.0.0","Windows","10.0","https://app.prolific.com/","en-US,en;q=0.9,xh;q=0.8","665f239f78bd39782ef04172","683dba9a53627eb9ab41b36a","6889e42b773590322744acfa","0","665f239f78bd39782ef04172","0","2025-07-30T09:52:41.232Z","","","","StressQ","","","","","","","","","","","50","","","","","","","","","","","","","","","","","","","","","","","","","","",""
"4098","","<div style=""width:500px;"">
  <p>What best describes how you currently feel?</p>
  </div>","100","html-slider-response","72","1785041","0.0-7.0-4.11","81","1","2025-07-30 09:22:55","36c45c0696341be0efffe67d72a12abb","41.13.194.124","Mozilla/5.0 (Windows NT 10.0; Win64; x64) AppleWebKit/537.36 (KHTML, like Gecko) Chrome/138.0.0.0 Safari/537.36","WebKit","Chrome","138.0.0.0","Windows","10.0","https://app.prolific.com/","en-US,en;q=0.9,xh;q=0.8","665f239f78bd39782ef04172","683dba9a53627eb9ab41b36a","6889e42b773590322744acfa","0","665f239f78bd39782ef04172","0","2025-07-30T09:52:45.333Z","","","","MotivationQ","","","","","","","","","","","50","","","","","","","","","","","","","","","","","","","","","","","","","","",""
"","","","","ctl-task-cpt","73","1833369","0.0-7.0-0.12","81","1","2025-07-30 09:22:55","36c45c0696341be0efffe67d72a12abb","41.13.194.124","Mozilla/5.0 (Windows NT 10.0; Win64; x64) AppleWebKit/537.36 (KHTML, like Gecko) Chrome/138.0.0.0 Safari/537.36","WebKit","Chrome","138.0.0.0","Windows","10.0","https://app.prolific.com/","en-US,en;q=0.9,xh;q=0.8","665f239f78bd39782ef04172","683dba9a53627eb9ab41b36a","6889e42b773590322744acfa","0","665f239f78bd39782ef04172","0","2025-07-30T09:53:33.661Z","","","","","","","","","","","","","","","","win-only","0","g1:NW,g2:SE","0.8","13","0","1788897.8","1725.5","6739.8","45283","1","4","8","6","2","8","7","19","12","0.14393939393939395","1367.1","3000","1475","[""down"",""right""]","{""num_key_presses"":9,""num_perfect"":6,""num_errors"":1,""num_randdir"":2,""num_randdir_good_moves"":1,""num_whilered"":0,""num_whileblue"":0,""num_blue"":3,""num_good_moves"":7}","[295.22232142857143,296.12857142857143,0.8,295.22232142857143,296.12857142857143,103.9,295.22232142857143,296.12857142857143,215.7,295.22232142857143,296.12857142857143,326,295.22232142857143,296.12857142857143,430.1,295.22232142857143,296.12857142857143,536.5,556.2223214285714,431.12857142857143,643.6,685.2223214285714,535.1285714285714,744.7,679.2223214285714,535.1285714285714,851.8,631.2223214285714,541.1285714285714,975.7,560.2223214285714,544.1285714285714,1086.2,557.2223214285714,541.1285714285714,1201.4,557.2223214285714,541.1285714285714,1309,557.2223214285714,541.1285714285714,1417.8,557.2223214285714,541.1285714285714,1524.8,557.2223214285714,541.1285714285714,1631,557.2223214285714,541.1285714285714,1747.4,557.2223214285714,541.1285714285714,1851.7,557.2223214285714,541.1285714285714,1961.9,620.2223214285714,506.12857142857143,2070.7,693.2223214285714,460.12857142857143,2175.6,720.2223214285714,445.12857142857143,2283.2,720.2223214285714,445.12857142857143,2387.5,720.2223214285714,445.12857142857143,2490.4,720.2223214285714,445.12857142857143,2595.1,720.2223214285714,445.12857142857143,2700.9,720.2223214285714,445.12857142857143,2811,720.2223214285714,445.12857142857143,2918.2,720.2223214285714,445.12857142857143,3027.3,720.2223214285714,445.12857142857143,3137.3,720.2223214285714,445.12857142857143,3241.8,720.2223214285714,445.12857142857143,3354.5,720.2223214285714,445.12857142857143,3458.5,720.2223214285714,445.12857142857143,3566.6,720.2223214285714,445.12857142857143,3678.1,720.2223214285714,445.12857142857143,3793.6,720.2223214285714,445.12857142857143,3894.5,720.2223214285714,445.12857142857143,3999.4,720.2223214285714,445.12857142857143,4105.1,720.2223214285714,445.12857142857143,4211.2,720.2223214285714,445.12857142857143,4321.7,720.2223214285714,445.12857142857143,4430.5,720.2223214285714,445.12857142857143,4540.5,720.2223214285714,445.12857142857143,4640.6,720.2223214285714,445.12857142857143,4749.8,720.2223214285714,445.12857142857143,4859.6,720.2223214285714,445.12857142857143,4969.4]","[1438.3,1438.3,1000,0,438.3,""smooth"",""down"",""down"",""good_move"",8874.1,7427.2,2550,5317.7,1006.4,""smooth"",""down"",""down"",""good_move"",8890.6,15.1,2099.8,8875.5,-2084.7,""error"",""-"",""-"",""no_move"",13316.3,4424.5,2968.3,9892.7,455.3,""smooth"",""down"",""down"",""good_move"",20651.8,7334.6,2932.2,17251.2,468.4,""smooth"",""right"",""right"",""good_move"",23531,2874.8,2348,20656.2,526.8,""oops"",""right"",""up"",""bad_move"",31233.6,7698.4,3071.2,27712.4,450,""oops"",""right"",""down"",""good_move"",34623.9,3389.1,2452.7,31234.8,936.4,""smooth"",""right"",""right"",""good_move"",38326.9,3702,3273.2,34624.9,428.8,""smooth"",""right"",""right"",""good_move""]"
"5696","","<div style=""width:500px;"">
  <p>What determined the result of this run?</p>
  </div>","100","html-slider-response","74","1839071","0.0-7.0-1.12","81","1","2025-07-30 09:22:55","36c45c0696341be0efffe67d72a12abb","41.13.194.124","Mozilla/5.0 (Windows NT 10.0; Win64; x64) AppleWebKit/537.36 (KHTML, like Gecko) Chrome/138.0.0.0 Safari/537.36","WebKit","Chrome","138.0.0.0","Windows","10.0","https://app.prolific.com/","en-US,en;q=0.9,xh;q=0.8","665f239f78bd39782ef04172","683dba9a53627eb9ab41b36a","6889e42b773590322744acfa","0","665f239f78bd39782ef04172","0","2025-07-30T09:53:39.363Z","","","","AttribQ","","","","","","","","","","","50","","","","","","","","","","","","","","","","","","","","","","","","","","",""
"2987","","<div style=""width:500px;"">
  <p>How much control did you have over the ball?</p>
  </div>","69","html-slider-response","75","1842063","0.0-7.0-2.12","81","1","2025-07-30 09:22:55","36c45c0696341be0efffe67d72a12abb","41.13.194.124","Mozilla/5.0 (Windows NT 10.0; Win64; x64) AppleWebKit/537.36 (KHTML, like Gecko) Chrome/138.0.0.0 Safari/537.36","WebKit","Chrome","138.0.0.0","Windows","10.0","https://app.prolific.com/","en-US,en;q=0.9,xh;q=0.8","665f239f78bd39782ef04172","683dba9a53627eb9ab41b36a","6889e42b773590322744acfa","0","665f239f78bd39782ef04172","0","2025-07-30T09:53:42.355Z","","","","ControlQ","","","","","","","","","","","50","","","","","","","","","","","","","","","","","","","","","","","","","","",""
"3388","","<div style=""width:500px;"">
  <p>How would you describe your current emotional state?</p>
  </div>","0","html-slider-response","76","1845453","0.0-7.0-3.12","81","1","2025-07-30 09:22:55","36c45c0696341be0efffe67d72a12abb","41.13.194.124","Mozilla/5.0 (Windows NT 10.0; Win64; x64) AppleWebKit/537.36 (KHTML, like Gecko) Chrome/138.0.0.0 Safari/537.36","WebKit","Chrome","138.0.0.0","Windows","10.0","https://app.prolific.com/","en-US,en;q=0.9,xh;q=0.8","665f239f78bd39782ef04172","683dba9a53627eb9ab41b36a","6889e42b773590322744acfa","0","665f239f78bd39782ef04172","0","2025-07-30T09:53:45.745Z","","","","StressQ","","","","","","","","","","","50","","","","","","","","","","","","","","","","","","","","","","","","","","",""
"3269","","<div style=""width:500px;"">
  <p>What best describes how you currently feel?</p>
